time,seconds_elapsed,z,y,x
1788676364753660700,0.13666064453125,9.727422714233398,1.1419932842254639,-0.49343299865722656
1788676364769852200,0.15285205078125,9.726045608520508,1.161819577217102,-0.4739227294921875
1788676364785959400,0.16895947265625,9.724813461303711,1.1778610944747925,-0.4593747854232788
1788676364802099500,0.185099365234375,9.723458290100098,1.1946876049041748,-0.4443731904029846
1788676364818241500,0.201241455078125,9.722479820251465,1.206376075744629,-0.43409863114356995
1788676364834380300,0.21738037109375,9.721883773803711,1.213579535484314,-0.427297979593277
1788676364850570500,0.233570556640625,9.72114372253418,1.2229359149932861,-0.4173582196235657
1788676364866684400,0.249684326171875,9.720246315002441,1.2342641353607178,-0.4047183096408844
1788676364882834000,0.265833984375,9.719198226928711,1.2466360330581665,-0.3917524218559265
1788676364898983000,0.28198291015625,9.718883514404297,1.2481783628463745,-0.3946388363838196
1788676364915124500,0.29812451171875,9.719138145446777,1.243525743484497,-0.4029558300971985
1788676364931319300,0.3143193359375,9.719944953918457,1.2351677417755127,-0.40918534994125366
1788676364947443200,0.330443115234375,9.721260070800781,1.2265057563781738,-0.4039635956287384
1788676364963604700,0.346604736328125,9.722890853881836,1.2198516130447388,-0.3843621611595154
1788676364979764000,0.362763916015625,9.724346160888672,1.216687798500061,-0.3565922975540161
1788676364995859500,0.378859375,9.725139617919922,1.2172410488128662,-0.33220726251602173
1788676365012072000,0.395072021484375,9.72516918182373,1.2222576141357422,-0.3123282194137573
1788676365028210400,0.41121044921875,9.724396705627441,1.232570767402649,-0.29541313648223877
1788676365044432600,0.4274326171875,9.723111152648926,1.246490478515625,-0.2788473069667816
1788676365060557600,0.4435576171875,9.721970558166504,1.258833408355713,-0.2627117335796356
1788676365076670000,0.459669921875,9.721508979797363,1.263872504234314,-0.2554851472377777
1788676365092883000,0.475883056640625,9.721996307373047,1.25923490524292,-0.25978606939315796
1788676365108974600,0.491974609375,9.722464561462402,1.2523525953292847,-0.27511167526245117
1788676365125109800,0.50810986328125,9.722432136535645,1.2498594522476196,-0.2873137891292572
1788676365141242000,0.5242421875,9.721808433532715,1.25540030002594,-0.28424012660980225
1788676365157366500,0.540366455078125,9.720787048339844,1.2687673568725586,-0.25867387652397156
1788676365173545200,0.556545166015625,9.718948364257812,1.2912455797195435,-0.21240557730197906
1788676365189652000,0.57265185546875,9.715628623962402,1.323109745979309,-0.16227847337722778
1788676365205793300,0.588793212890625,9.710280418395996,1.3652300834655762,-0.1303209811449051
1788676365221942000,0.60494189453125,9.70486068725586,1.4046400785446167,-0.11430413275957108
1788676365238078200,0.621078125,9.700188636779785,1.4360880851745605,-0.11991700530052185
1788676365254269400,0.63726953125,9.6962308883667,1.460103988647461,-0.1469631940126419
1788676365270388000,0.653387939453125,9.693334579467773,1.475857138633728,-0.1775183528661728
1788676365286537700,0.669537841796875,9.6911039352417,1.4882535934448242,-0.1949593871831894
1788676365302690800,0.68569091796875,9.688924789428711,1.502551794052124,-0.19350962340831757
1788676365318833700,0.701833740234375,9.685882568359375,1.5239392518997192,-0.17801198363304138
1788676365335037400,0.718037353515625,9.682050704956055,1.5506300926208496,-0.15434958040714264
1788676365351164200,0.7341640625,9.678367614746094,1.576205849647522,-0.12315832823514938
1788676365367322000,0.750322021484375,9.67564868927002,1.595198392868042,-0.08696991950273514
1788676365383486700,0.76648681640625,9.674267768859863,1.605337381362915,-0.04268208146095276
1788676365399591000,0.7825908203125,9.673238754272461,1.6120847463607788,-0.004762538243085146
1788676365415801000,0.798801025390625,9.673303604125977,1.611629843711853,0.015065029263496399
1788676365431936000,0.81493603515625,9.675000190734863,1.6014426946640015,0.011155893094837666
1788676365448105000,0.83110498046875,9.67732048034668,1.5873795747756958,-0.009327216073870659
1788676365464277000,0.847277099609375,9.679689407348633,1.5724892616271973,-0.03555142506957054
1788676365480388600,0.863388671875,9.681097984313965,1.5632470846176147,-0.05463073030114174
1788676365496556000,0.87955615234375,9.68110466003418,1.5628443956375122,-0.06414031982421875
1788676365512647200,0.895647216796875,9.680463790893555,1.5665382146835327,-0.07039711624383926
1788676365528815400,0.9118154296875,9.679431915283203,1.5726152658462524,-0.07660327851772308
1788676365544939500,0.927939453125,9.678834915161133,1.5759063959121704,-0.08404526114463806
1788676365561059300,0.944059326171875,9.67910099029541,1.5737656354904175,-0.09301533550024033
1788676365577231600,0.960231689453125,9.679826736450195,1.5687600374221802,-0.10169322043657303
1788676365593337000,0.976337158203125,9.680318832397461,1.5654478073120117,-0.10570530593395233
1788676365609519400,0.992519287109375,9.680010795593262,1.567338228225708,-0.10602569580078125
1788676365625655800,1.00865576171875,9.678526878356934,1.5765210390090942,-0.10533975809812546
1788676365641787000,1.024786865234375,9.676010131835938,1.5914719104766846,-0.11148571223020554
1788676365657972000,1.040971923828125,9.673315048217773,1.6070704460144043,-0.12121573835611343
1788676365674084000,1.057083984375,9.670670509338379,1.6221134662628174,-0.1314336210489273
1788676365690230300,1.073230224609375,9.66779899597168,1.6387795209884644,-0.13585786521434784
1788676365706369000,1.089369140625,9.664371490478516,1.6589374542236328,-0.13505589962005615
1788676365722506500,1.105506591796875,9.661249160766602,1.677370309829712,-0.13071057200431824
1788676365738699500,1.121699462890625,9.659285545349121,1.6888290643692017,-0.12819603085517883
1788676365754816000,1.13781591796875,9.659026145935059,1.690114974975586,-0.1308102309703827
1788676365770965800,1.1539658203125,9.660300254821777,1.682147741317749,-0.1391531080007553
1788676365787120000,1.1701201171875,9.662519454956055,1.6686241626739502,-0.14763064682483673
1788676365803214800,1.18621484375,9.664581298828125,1.656575083732605,-0.1483415812253952
1788676365819417300,1.202417236328125,9.665266990661621,1.6528137922286987,-0.14561375975608826
1788676365835543300,1.218543212890625,9.66457462310791,1.6571024656295776,-0.14282463490962982
1788676365851706000,1.2347060546875,9.662940979003906,1.6666005849838257,-0.1428827941417694
1788676365867870000,1.250869873046875,9.661345481872559,1.675747275352478,-0.14372172951698303
1788676365883961300,1.26696142578125,9.660504341125488,1.6805239915847778,-0.14452867209911346
1788676365900167000,1.2831669921875,9.66035270690918,1.6809017658233643,-0.15017828345298767
1788676365916302000,1.299302001953125,9.660266876220703,1.6800848245620728,-0.16417378187179565
1788676365932473900,1.315473876953125,9.659692764282227,1.6812387704849243,-0.1848217397928238
1788676365948644600,1.33164453125,9.658646583557129,1.6850600242614746,-0.20374701917171478
1788676365964758300,1.34775830078125,9.656750679016113,1.6941909790039062,-0.21742431819438934
1788676365980916500,1.36391650390625,9.653763771057129,1.710320234298706,-0.2236797958612442
1788676365997056000,1.380055908203125,9.649581909179688,1.7332422733306885,-0.2276918888092041
1788676366013239300,1.3962392578125,9.645261764526367,1.7567367553710938,-0.23063181340694427
1788676366029372700,1.41237255859375,9.642126083374023,1.773749589920044,-0.23151086270809174
1788676366045494300,1.428494384765625,9.640462875366211,1.7826249599456787,-0.23264308273792267
1788676366061671700,1.444671630859375,9.639607429504395,1.786948323249817,-0.23488961160182953
1788676366077777000,1.46077685546875,9.639296531677246,1.788213849067688,-0.23799429833889008
1788676366093915600,1.47691552734375,9.6396484375,1.78597891330719,-0.24048450589179993
1788676366110057200,1.49305712890625,9.640616416931152,1.7808520793914795,-0.2397330403327942
1788676366126190600,1.509190673828125,9.641753196716309,1.7750164270401,-0.23725824058055878
1788676366142378200,1.525378173828125,9.642247200012207,1.7725764513015747,-0.23542284965515137
1788676366158488000,1.541488037109375,9.641788482666016,1.7750351428985596,-0.23570896685123444
1788676366174637300,1.55763720703125,9.641175270080566,1.778357744216919,-0.23576098680496216
1788676366190794500,1.57379443359375,9.640844345092773,1.7800182104110718,-0.23673801124095917
1788676366206936800,1.589936767578125,9.64082145690918,1.7796229124069214,-0.24061697721481323
1788676366223131600,1.606131591796875,9.6406831741333,1.779746174812317,-0.245182603597641
1788676366239252000,1.622251953125,9.639777183532715,1.7841057777404785,-0.2490900605916977
1788676366255407400,1.638407470703125,9.638014793395996,1.7937443256378174,-0.2480604201555252
1788676366271566000,1.654566162109375,9.635852813720703,1.8052773475646973,-0.2483864426612854
1788676366287664000,1.6706640625,9.634038925170898,1.814803957939148,-0.2493433803319931
1788676366303861500,1.686861572265625,9.632683753967285,1.8217267990112305,-0.2512011229991913
1788676366319994000,1.702994140625,9.631451606750488,1.8277841806411743,-0.2544350028038025
1788676366336154600,1.719154541015625,9.630043983459473,1.8349192142486572,-0.25635355710983276
1788676366352316000,1.73531591796875,9.627820014953613,1.846864938735962,-0.2540862560272217
1788676366368423200,1.751423095703125,9.624798774719238,1.8630390167236328,-0.2504376769065857
1788676366384634600,1.767634521484375,9.621271133422852,1.8816709518432617,-0.24668096005916595
1788676366400767200,1.783767333984375,9.616806030273438,1.9038716554641724,-0.25041598081588745
1788676366416936000,1.79993603515625,9.611958503723145,1.9265122413635254,-0.26305049657821655
1788676366433067300,1.8160673828125,9.607292175292969,1.9469079971313477,-0.28260669112205505
1788676366449186600,1.8321865234375,9.603574752807617,1.9624664783477783,-0.30076661705970764
1788676366465360400,1.8483603515625,9.601161003112793,1.9726141691207886,-0.31127867102622986
1788676366481459500,1.86445947265625,9.599788665771484,1.9790232181549072,-0.3128989636898041
1788676366497643500,1.8806435546875,9.598417282104492,1.9858227968215942,-0.311894029378891
1788676366513774000,1.896774169921875,9.596521377563477,1.9946397542953491,-0.31398558616638184
1788676366529896000,1.91289599609375,9.59383773803711,2.006465196609497,-0.32057467103004456
1788676366546071300,1.9290712890625,9.59072494506836,2.0198090076446533,-0.32978543639183044
1788676366562171000,1.9451708984375,9.58773422241211,2.0324718952178955,-0.33881089091300964
1788676366578359800,1.96135986328125,9.584858894348145,2.045006036758423,-0.34470242261886597
1788676366594497000,1.9774970703125,9.581830024719238,2.059061050415039,-0.34523236751556396
1788676366610598000,1.993597900390625,9.57870864868164,2.07366681098938,-0.3444421589374542
1788676366626785800,2.009785888671875,9.576420783996582,2.083740472793579,-0.3472474217414856
1788676366642899200,2.025899169921875,9.575037956237793,2.089036464691162,-0.35349905490875244
1788676366659048000,2.0420478515625,9.574429512023926,2.0909640789031982,-0.35854360461235046
1788676366675194600,2.058194580078125,9.57408618927002,2.0922651290893555,-0.36012765765190125
1788676366691330600,2.07433056640625,9.573795318603516,2.093801975250244,-0.35892245173454285
1788676366707525400,2.090525390625,9.573488235473633,2.0958263874053955,-0.35528862476348877
1788676366723641000,2.10664111328125,9.572689056396484,2.1003358364105225,-0.3501388430595398
1788676366739789300,2.122789306640625,9.571422576904297,2.1070687770843506,-0.3442823886871338
1788676366755948000,2.138947998046875,9.570043563842773,2.1140294075012207,-0.3398962616920471
1788676366772044000,2.1550439453125,9.569089889526367,2.1184706687927246,-0.33908700942993164
1788676366788244200,2.171244140625,9.568781852722168,2.1195738315582275,-0.3408870995044708
1788676366804369700,2.18736962890625,9.569133758544922,2.1180098056793213,-0.3407350480556488
1788676366820529400,2.203529296875,9.5691499710083,2.1183342933654785,-0.338243693113327
1788676366836694000,2.219694091796875,9.567831039428711,2.1242668628692627,-0.33833616971969604
1788676366852795400,2.23579541015625,9.564903259277344,2.1363747119903564,-0.3448229134082794
1788676366869008600,2.252008544921875,9.56149673461914,2.1505534648895264,-0.3511461317539215
1788676366885143800,2.268143798828125,9.558430671691895,2.163057565689087,-0.3577359616756439
1788676366901321500,2.284321533203125,9.555719375610352,2.1743361949920654,-0.3617638051509857
1788676366917455000,2.300455078125,9.553055763244629,2.1857919692993164,-0.3630733788013458
1788676366933576200,2.316576171875,9.550488471984863,2.1964948177337646,-0.3660224378108978
1788676366949801200,2.33280126953125,9.548645973205566,2.203007698059082,-0.374824583530426
1788676366965947000,2.34894677734375,9.547616004943848,2.2056615352630615,-0.38531771302223206
1788676366982133500,2.365133544921875,9.546647071838379,2.2081522941589355,-0.39496123790740967
1788676366998274000,2.381274169921875,9.545577049255371,2.211137533187866,-0.40399882197380066
1788676367014405000,2.397405029296875,9.544776916503906,2.2133798599243164,-0.4105738699436188
1788676367030590500,2.413590576171875,9.544736862182617,2.2134954929351807,-0.4108901917934418
1788676367046701600,2.42970166015625,9.544041633605957,2.216362714767456,-0.41158291697502136
1788676367062844200,2.44584423828125,9.54167366027832,2.223832845687866,-0.425930380821228
1788676367078990300,2.461990234375,9.5396146774292,2.2309317588806152,-0.4348554313182831
1788676367095128800,2.47812890625,9.53816032409668,2.2351510524749756,-0.4449616074562073
1788676367111321300,2.4943212890625,9.535544395446777,2.240837574005127,-0.47161030769348145
1788676367127437800,2.510437744140625,9.533403396606445,2.243417263031006,-0.5016709566116333
1788676367143585500,2.52658544921875,9.534470558166504,2.2339024543762207,-0.523392379283905
1788676367159738000,2.542738037109375,9.538326263427734,2.2158594131469727,-0.5298089981079102
1788676367175878100,2.558878173828125,9.54371452331543,2.1939857006073,-0.5237575769424438
1788676367192070400,2.5750703125,9.550604820251465,2.1664767265319824,-0.5125501751899719
1788676367208189700,2.591189697265625,9.557140350341797,2.1390671730041504,-0.505810558795929
1788676367224343600,2.607343505859375,9.563119888305664,2.1138269901275635,-0.49885764718055725
1788676367240509000,2.623509033203125,9.568387031555176,2.0917675495147705,-0.4907854199409485
1788676367256611000,2.639611083984375,9.57176399230957,2.0783092975616455,-0.48201823234558105
1788676367272815000,2.655815185546875,9.573304176330566,2.0734333992004395,-0.4723373055458069
1788676367288945000,2.67194482421875,9.573790550231934,2.0734364986419678,-0.4623710811138153
1788676367305106000,2.68810595703125,9.574705123901367,2.071106195449829,-0.4537915289402008
1788676367321273300,2.7042734375,9.57745361328125,2.0604355335235596,-0.44427523016929626
1788676367337380400,2.72038037109375,9.580390930175781,2.0477488040924072,-0.4395732581615448
1788676367353587500,2.73658740234375,9.582564353942871,2.037611961364746,-0.43930599093437195
1788676367369729500,2.7527294921875,9.58438491821289,2.028852701187134,-0.4401276707649231
1788676367385897200,2.768897216796875,9.586142539978027,2.0201802253723145,-0.4417468011379242
1788676367402072800,2.78507275390625,9.588546752929688,2.0083658695220947,-0.44341325759887695
1788676367418188800,2.801188720703125,9.591606140136719,1.9943791627883911,-0.44037580490112305
1788676367434359000,2.817359130859375,9.593635559082031,1.9841351509094238,-0.44243961572647095
1788676367450500000,2.8335,9.595295906066895,1.9758412837982178,-0.44354844093322754
1788676367466673000,2.8496728515625,9.596826553344727,1.9694219827651978,-0.43895548582077026
1788676367482801700,2.8658017578125,9.59733772277832,1.9680367708206177,-0.43396660685539246
1788676367498922500,2.881922607421875,9.597224235534668,1.9697198867797852,-0.4288235306739807
1788676367515101200,2.89810107421875,9.597052574157715,1.9714328050613403,-0.42476630210876465
1788676367531202300,2.914202392578125,9.597334861755371,1.9712870121002197,-0.41900962591171265
1788676367547384600,2.930384521484375,9.598278045654297,1.9678888320922852,-0.4133435785770416
1788676367563520300,2.946520263671875,9.599949836730957,1.961330771446228,-0.40563124418258667
1788676367579648500,2.9626484375,9.601645469665527,1.9547044038772583,-0.3973933458328247
1788676367595833000,2.9788330078125,9.603357315063477,1.9483041763305664,-0.3873398005962372
1788676367611945000,2.994945068359375,9.604762077331543,1.9435604810714722,-0.3761806786060333
1788676367628091600,3.011091552734375,9.605904579162598,1.9402745962142944,-0.3637552857398987
1788676367644237300,3.0272373046875,9.607197761535645,1.935955286026001,-0.3524477779865265
1788676367660378600,3.043378662109375,9.608760833740234,1.9295591115951538,-0.34482240676879883
1788676367676568300,3.059568359375,9.610475540161133,1.9224413633346558,-0.33668848872184753
1788676367692689400,3.075689453125,9.612146377563477,1.915561556816101,-0.32810866832733154
1788676367708840200,3.091840087890625,9.613927841186523,1.9080060720443726,-0.31984183192253113
1788676367724995800,3.107995849609375,9.615763664245605,1.8998034000396729,-0.3134085237979889
1788676367741087700,3.124087646484375,9.61725902557373,1.8933076858520508,-0.30676621198654175
1788676367757291300,3.140291259765625,9.617973327636719,1.8907973766326904,-0.2997857928276062
1788676367773419000,3.1564189453125,9.617754936218262,1.8928544521331787,-0.293740451335907
1788676367789580300,3.172580322265625,9.617073059082031,1.8970997333526611,-0.288636177778244
1788676367805742000,3.1887421875,9.61674690246582,1.8997150659561157,-0.28219592571258545
1788676367821835800,3.204835693359375,9.617230415344238,1.898207426071167,-0.27581536769866943
1788676367838049300,3.22104931640625,9.618264198303223,1.8938871622085571,-0.2693997919559479
1788676367854188000,3.23718798828125,9.6190767288208,1.8905799388885498,-0.2635457217693329
1788676367870366500,3.253366455078125,9.619222640991211,1.8905636072158813,-0.2582860589027405
1788676367886495500,3.26949560546875,9.619085311889648,1.8919569253921509,-0.2531479597091675
1788676367902609000,3.28560888671875,9.619142532348633,1.8920801877975464,-0.25002631545066833
1788676367918775300,3.301775390625,9.619573593139648,1.8903322219848633,-0.24664025008678436
1788676367934870800,3.317870849609375,9.620203018188477,1.8876733779907227,-0.24241036176681519
1788676367951002000,3.334002197265625,9.620768547058105,1.8852105140686035,-0.23915940523147583
1788676367967134200,3.35013427734375,9.621175765991211,1.8835341930389404,-0.235926553606987
1788676367983254800,3.3662548828125,9.621349334716797,1.8831264972686768,-0.23208749294281006
1788676367999433200,3.38243310546875,9.622303009033203,1.8790333271026611,-0.22563159465789795
1788676368015537200,3.398537109375,9.62440013885498,1.8692024946212769,-0.21769319474697113
1788676368031673000,3.414673095703125,9.627148628234863,1.856701374053955,-0.20261479914188385
1788676368047814700,3.430814697265625,9.62949275970459,1.8468183279037476,-0.18031805753707886
1788676368063949600,3.446949462890625,9.630648612976074,1.8437696695327759,-0.1466783881187439
1788676368080132600,3.463132568359375,9.630853652954102,1.845880389213562,-0.09884053468704224
1788676368096240400,3.479240478515625,9.63121509552002,1.8460981845855713,-0.04471563175320625
1788676368112380000,3.4953798828125,9.632332801818848,1.8408032655715942,-0.0006859364220872521
1788676368128528100,3.511528076171875,9.633861541748047,1.832422137260437,0.03639284521341324
1788676368144664000,3.5276640625,9.635282516479492,1.8236589431762695,0.07730265706777573
1788676368160851000,3.543850830078125,9.63569164276123,1.819071650505066,0.12166282534599304
1788676368176964900,3.55996484375,9.634655952453613,1.8205556869506836,0.1713579297065735
1788676368193106700,3.576106689453125,9.632516860961914,1.8262009620666504,0.2236059308052063
1788676368209260500,3.592260498046875,9.629984855651855,1.8316189050674438,0.2809654176235199
1788676368225396700,3.608396728515625,9.627467155456543,1.8353549242019653,0.3372325301170349
1788676368241589500,3.624589599609375,9.62502384185791,1.838487982749939,0.38635727763175964
1788676368257713200,3.640713134765625,9.621954917907715,1.8434396982192993,0.43601810932159424
1788676368273866800,3.65686669921875,9.6178617477417,1.8509162664413452,0.4911453425884247
1788676368290028300,3.6730283203125,9.610878944396973,1.8703644275665283,0.550571858882904
1788676368306130700,3.689130615234375,9.599884033203125,1.908234715461731,0.609306275844574
1788676368322334700,3.705334716796875,9.585821151733398,1.959465742111206,0.6655179858207703
1788676368338467000,3.721467041015625,9.577189445495605,1.989791750907898,0.6989631652832031
1788676368354612500,3.737612548828125,9.625855445861816,1.7769097089767456,0.5965674519538879
1788676368370765000,3.75376513671875,9.6624116897583,1.579179286956787,0.5606939196586609
1788676368386871600,3.76987158203125,9.668624877929688,1.5358071327209473,0.573912501335144
1788676368403069400,3.7860693359375,9.656196594238281,1.5937118530273438,0.6231675744056702
1788676368419208400,3.80220849609375,9.63911247253418,1.6689374446868896,0.6874121427536011
1788676368435366400,3.818366455078125,9.626649856567383,1.7232176065444946,0.7269951701164246
1788676368451473400,3.834473388671875,9.629473686218262,1.7145092487335205,0.7099911570549011
1788676368467585000,3.8505849609375,9.639814376831055,1.672858476638794,0.6677636504173279
1788676368483749600,3.86674951171875,9.647408485412598,1.645813226699829,0.6238536238670349
1788676368499850000,3.88285009765625,9.650684356689453,1.6359306573867798,0.5986751914024353
1788676368516031200,3.89903125,9.650321960449219,1.6372145414352417,0.6009933352470398
1788676368532167700,3.915167724609375,9.64830493927002,1.6430739164352417,0.6171753406524658
1788676368548298800,3.931298828125,9.646512031555176,1.6471632719039917,0.6340761184692383
1788676368564484900,3.94748486328125,9.644585609436035,1.6529442071914673,0.6481804251670837
1788676368580592000,3.963592041015625,9.641263008117676,1.670885682106018,0.651588499546051
1788676368596737800,3.97973779296875,9.638998031616211,1.6878399848937988,0.6413245797157288
1788676368612884200,3.99588427734375,9.638260841369629,1.6978415250778198,0.6258203983306885
1788676368629025300,4.012025390625,9.640161514282227,1.694509744644165,0.6052308082580566
1788676368645222700,4.02822265625,9.63960075378418,1.7017059326171875,0.5938742756843567
1788676368661339100,4.044339111328125,9.63785457611084,1.7158448696136475,0.5813931226730347
1788676368677483000,4.06048291015625,9.634714126586914,1.7375203371047974,0.5689399838447571
1788676368693637000,4.07663720703125,9.630620002746582,1.76529061794281,0.5525426864624023
1788676368709732000,4.092732177734375,9.626246452331543,1.796187162399292,0.5286557674407959
1788676368725934800,4.108934814453125,9.622255325317383,1.8251932859420776,0.5012574791908264
1788676368742064000,4.125064208984375,9.619072914123535,1.8489893674850464,0.4743969440460205
1788676368758228200,4.141228271484375,9.616643905639648,1.8675618171691895,0.45028090476989746
1788676368774385400,4.157385498046875,9.61545467376709,1.878713846206665,0.42877787351608276
1788676368790478300,4.173478271484375,9.615668296813965,1.8826687335968018,0.4060479402542114
1788676368806694100,4.189694091796875,9.616800308227539,1.8820524215698242,0.3813284933567047
1788676368822836200,4.205836181640625,9.618550300598145,1.878631591796875,0.35301557183265686
1788676368839015000,4.222014892578125,9.620955467224121,1.8711601495742798,0.32613304257392883
1788676368855143000,4.238142822265625,9.62346363067627,1.8632439374923706,0.2960520088672638
1788676368871267000,4.25426708984375,9.625081062316895,1.859984040260315,0.2620157301425934
1788676368887443700,4.270443603515625,9.625155448913574,1.864211916923523,0.2269001454114914
1788676368903549200,4.286549072265625,9.62352180480957,1.8765828609466553,0.19146709144115448
1788676368919689500,4.302689453125,9.620680809020996,1.8938918113708496,0.16143961250782013
1788676368935828500,4.318828369140625,9.61746883392334,1.9120467901229858,0.13700301945209503
1788676368951956700,4.334956787109375,9.614336967468262,1.9292781352996826,0.11314363777637482
1788676368968139800,4.351139892578125,9.612207412719727,1.9413065910339355,0.08473718911409378
1788676368984250000,4.36725,9.61177921295166,1.9443566799163818,0.05971483141183853
1788676369000396300,4.383396240234375,9.612833976745605,1.939535140991211,0.044868048280477524
1788676369016545000,4.399544921875,9.614657402038574,1.9305613040924072,0.04114522784948349
1788676369032687600,4.4156875,9.616150856018066,1.922896385192871,0.050128087401390076
1788676369048872400,4.43187255859375,9.617298126220703,1.916810154914856,0.06163301318883896
1788676369064989200,4.4479892578125,9.61970329284668,1.9045813083648682,0.06535108387470245
1788676369081138200,4.46413818359375,9.622976303100586,1.8881722688674927,0.0594586618244648
1788676369097296000,4.4802958984375,9.626788139343262,1.8688634634017944,0.051853083074092865
1788676369113394700,4.496394775390625,9.630316734313965,1.850660800933838,0.049370985478162766
1788676369129596400,4.512596435546875,9.631698608398438,1.842855453491211,0.06822218000888824
1788676369145725400,4.528725341796875,9.628660202026367,1.8568962812423706,0.10596132278442383
1788676369161886700,4.54488671875,9.621763229370117,1.8897223472595215,0.14495164155960083
1788676369178051000,4.561051025390625,9.614294052124023,1.9244110584259033,0.17993716895580292
1788676369194153500,4.577153564453125,9.609807968139648,1.943454623222351,0.21201851963996887
1788676369210361000,4.593361083984375,9.609986305236816,1.9390674829483032,0.2420220971107483
1788676369226491400,4.609491455078125,9.613045692443848,1.9204763174057007,0.267407089471817
1788676369242657500,4.625657470703125,9.615791320800781,1.9022817611694336,0.29711928963661194
1788676369258830800,4.641830810546875,9.616133689880371,1.8933582305908203,0.3399360179901123
1788676369274940700,4.657940673828125,9.613058090209961,1.8975279331207275,0.3986293077468872
1788676369291155700,4.67415576171875,9.606566429138184,1.914973258972168,0.4660031497478485
1788676369307296000,4.6902958984375,9.596651077270508,1.9466257095336914,0.5341529250144958
1788676369323463700,4.706463623046875,9.58343505859375,1.9951281547546387,0.5896042585372925
1788676369339636500,4.722636474609375,9.568109512329102,2.055164098739624,0.630844235420227
1788676369355751000,4.7387509765625,9.558032989501953,2.100548505783081,0.6341040134429932
1788676369371911400,4.754911376953125,9.554617881774902,2.1233415603637695,0.6091687083244324
1788676369388005400,4.77100537109375,9.559839248657227,2.1164307594299316,0.5482580065727234
1788676369404172300,4.78717236328125,9.57906723022461,2.0500638484954834,0.45726242661476135
1788676369420290300,4.803290283203125,9.60621452331543,1.9374275207519531,0.3706934154033661
1788676369436414000,4.8194140625,9.632333755493164,1.8097037076950073,0.3368951082229614
1788676369452585700,4.835585693359375,9.652708053588867,1.694443941116333,0.35280734300613403
1788676369468693000,4.85169287109375,9.668098449707031,1.5903663635253906,0.41108423471450806
1788676369484873200,4.867873291015625,9.682100296020508,1.4842488765716553,0.4736310541629791
1788676369501006300,4.88400634765625,9.694205284118652,1.389961838722229,0.510658860206604
1788676369517139200,4.90013916015625,9.704830169677734,1.3100777864456177,0.5199506878852844
1788676369533325300,4.9163251953125,9.715410232543945,1.2401460409164429,0.4931931793689728
1788676369549442000,4.932442138671875,9.726030349731445,1.186623454093933,0.4082253575325012
1788676369565594600,4.9485947265625,9.734633445739746,1.146022081375122,0.30648648738861084
1788676369581740800,4.96474072265625,9.742032051086426,1.0990840196609497,0.23495914041996002
1788676369597823500,4.980823486328125,9.748929023742676,1.0400241613388062,0.21710516512393951
1788676369613981000,4.99698095703125,9.754501342773438,0.9894412159919739,0.20271863043308258
1788676369630104600,5.0131044921875,9.758820533752441,0.9536983966827393,0.16208145022392273
1788676369646263000,5.029262939453125,9.761927604675293,0.9298784732818604,0.10243881493806839
1788676369662419000,5.0454189453125,9.763765335083008,0.9144903421401978,0.05465045943856239
1788676369678513000,5.061512939453125,9.764474868774414,0.9085146188735962,0.004520655609667301
1788676369694720500,5.077720458984375,9.763960838317871,0.9128289818763733,-0.04685381427407265
1788676369710854100,5.093854248046875,9.761221885681152,0.9377055168151855,-0.09822970628738403
1788676369727014400,5.110014404296875,9.755461692810059,0.9876156449317932,-0.16118694841861725
1788676369743175400,5.126175537109375,9.747099876403809,1.0565097332000732,-0.21955613791942596
1788676369759266600,5.1422666015625,9.737051963806152,1.1304442882537842,-0.2868873178958893
1788676369775479600,5.1584794921875,9.726696968078613,1.1906553506851196,-0.37959930300712585
1788676369791616500,5.174616455078125,9.717289924621582,1.2267481088638306,-0.4896410405635834
1788676369807797000,5.190796875,9.708349227905273,1.2516342401504517,-0.5930845737457275
1788676369823971600,5.2069716796875,9.697737693786621,1.2869179248809814,-0.6841863989830017
1788676369840082700,5.223082763671875,9.68332290649414,1.3382314443588257,-0.7828142046928406
1788676369856300500,5.239300537109375,9.66819953918457,1.3947758674621582,-0.8665573596954346
1788676369872393200,5.255393310546875,9.654858589172363,1.444153904914856,-0.93194580078125
1788676369888570600,5.271570556640625,9.647027969360352,1.473776936531067,-0.9660400748252869
1788676369904698600,5.28769873046875,9.642576217651367,1.4838902950286865,-0.9945749640464783
1788676369920820200,5.3038203125,9.647625923156738,1.4620801210403442,-0.9777583479881287
1788676369936979700,5.319979736328125,9.660168647766113,1.4201703071594238,-0.9135949611663818
1788676369953088000,5.336087890625,9.672966003417969,1.3904849290847778,-0.8189464807510376
1788676369969266400,5.352266357421875,9.682295799255371,1.3858532905578613,-0.7091814279556274
1788676369985396700,5.368396728515625,9.684428215026855,1.399708867073059,-0.6504186987876892
1788676370001536500,5.38453662109375,9.682061195373535,1.4131617546081543,-0.656539797782898
1788676370017724000,5.400723876953125,9.680647850036621,1.398992657661438,-0.7058677673339844
1788676370033842200,5.41684228515625,9.681339263916016,1.3590848445892334,-0.7713274359703064
1788676370049986300,5.432986328125,9.682827949523926,1.314731240272522,-0.8274731636047363
1788676370066137900,5.449137939453125,9.684303283691406,1.284213662147522,-0.8575852513313293
1788676370082279700,5.46527978515625,9.684863090515137,1.2817860841751099,-0.8548892736434937
1788676370098472400,5.481472412109375,9.683395385742188,1.3080649375915527,-0.8313962817192078
1788676370114648600,5.497648681640625,9.679924964904785,1.3535269498825073,-0.7983755469322205
1788676370130801700,5.5138017578125,9.674901962280273,1.4033461809158325,-0.7728317379951477
1788676370146963000,5.529962890625,9.668583869934082,1.4571667909622192,-0.7520160675048828
1788676370163057700,5.5460576171875,9.66031265258789,1.5108894109725952,-0.7523120045661926
1788676370179264000,5.562263916015625,9.653090476989746,1.5508503913879395,-0.7636100649833679
1788676370195396000,5.57839599609375,9.647210121154785,1.5773282051086426,-0.7834311723709106
1788676370211556900,5.594556884765625,9.644022941589355,1.5957261323928833,-0.7854037880897522
1788676370227719200,5.61071923828125,9.642681121826172,1.6120545864105225,-0.7683570981025696
1788676370243823000,5.626822998046875,9.641651153564453,1.632140874862671,-0.7382830381393433
1788676370260035000,5.64303515625,9.64039421081543,1.6573230028152466,-0.6974703669548035
1788676370276170200,5.659170166015625,9.638798713684082,1.6850206851959229,-0.6516612768173218
1788676370292347100,5.67534716796875,9.638046264648438,1.7050566673278809,-0.609277069568634
1788676370308471000,5.691470947265625,9.640707015991211,1.7001069784164429,-0.5803429484367371
1788676370324594400,5.707594482421875,9.645746231079102,1.6763553619384766,-0.5655072331428528
1788676370340769300,5.723769287109375,9.64879322052002,1.6602386236190796,-0.5610524415969849
1788676370356865000,5.739864990234375,9.647405624389648,1.6683323383331299,-0.5609186291694641
1788676370373042400,5.75604248046875,9.64225959777832,1.6979823112487793,-0.5604321360588074
1788676370389178000,5.77217822265625,9.63378620147705,1.7446987628936768,-0.5626499056816101
1788676370405271300,5.788271240234375,9.623929977416992,1.7993260622024536,-0.5592749118804932
1788676370421453300,5.804453369140625,9.61637020111084,1.8471992015838623,-0.5325989127159119
1788676370437558800,5.820558837890625,9.613628387451172,1.8773081302642822,-0.47356167435646057
1788676370453700000,5.8367001953125,9.61487102508545,1.8895114660263062,-0.3929175138473511
1788676370469841000,5.8528408203125,9.61802864074707,1.8876290321350098,-0.31745684146881104
1788676370485976300,5.868976318359375,9.620882987976074,1.8796937465667725,-0.2752145230770111
1788676370502167800,5.885167724609375,9.623326301574707,1.8685946464538574,-0.26520028710365295
1788676370518284500,5.901284423828125,9.626409530639648,1.8496923446655273,-0.28509747982025146
1788676370534437000,5.91743701171875,9.633020401000977,1.8113807439804077,-0.30691835284233093
1788676370550591200,5.93359130859375,9.646445274353027,1.74184250831604,-0.2871510684490204
1788676370566692000,5.949692138671875,9.662565231323242,1.6592124700546265,-0.2285723239183426
1788676370582880500,5.965880615234375,9.673595428466797,1.6019588708877563,-0.1602240353822708
1788676370599004400,5.98200439453125,9.676362991333008,1.5905123949050903,-0.09300912171602249
1788676370615155700,5.99815576171875,9.66723918914795,1.6476339101791382,-0.01339504960924387
1788676370631311000,6.01431103515625,9.662322044372559,1.6762713193893433,0.005447817035019398
1788676370647407900,6.030407958984375,9.653674125671387,1.7251263856887817,0.029943304136395454
1788676370663604200,6.046604248046875,9.648480415344238,1.7537939548492432,0.03766271844506264
1788676370679736800,6.06273681640625,9.646140098571777,1.7668174505233765,0.02711385115981102
1788676370695901400,6.0789013671875,9.647651672363281,1.758742094039917,0.005891980603337288
1788676370712068600,6.095068603515625,9.652765274047852,1.7304145097732544,-0.013547683134675026
1788676370728184000,6.11118408203125,9.659571647644043,1.6918755769729614,-0.024941623210906982
1788676370744356000,6.127356201171875,9.66634464263916,1.6526892185211182,-0.02817790023982525
1788676370760456000,6.1434560546875,9.671653747558594,1.6212897300720215,-0.03040032647550106
1788676370776644600,6.15964453125,9.67429256439209,1.6053372621536255,-0.03658164665102959
1788676370792779300,6.175779296875,9.673713684082031,1.608368158340454,-0.05292209982872009
1788676370808907300,6.1919072265625,9.671083450317383,1.6231663227081299,-0.07650953531265259
1788676370825087700,6.208087646484375,9.668543815612793,1.6364288330078125,-0.10843750834465027
1788676370841187800,6.224187744140625,9.666485786437988,1.6455211639404297,-0.14728665351867676
1788676370857322800,6.24032275390625,9.664377212524414,1.6538499593734741,-0.18703502416610718
1788676370873459000,6.256458984375,9.661772727966309,1.664767861366272,-0.22156624495983124
1788676370889586200,6.272586181640625,9.657767295837402,1.6866782903671265,-0.23029117286205292
1788676370905760800,6.2887607421875,9.652956008911133,1.7142831087112427,-0.2281707525253296
1788676370921869000,6.304869140625,9.647488594055176,1.7430859804153442,-0.24085021018981934
1788676370938006500,6.321006591796875,9.641098022460938,1.7701188325881958,-0.29377514123916626
1788676370954153500,6.337153564453125,9.632244110107422,1.8032526969909668,-0.3722200393676758
1788676370970242800,6.353242919921875,9.620713233947754,1.8490233421325684,-0.43974897265434265
1788676370986433000,6.36943310546875,9.60932731628418,1.8978710174560547,-0.4788537919521332
1788676371002547700,6.385547607421875,9.599550247192383,1.942979097366333,-0.4938153624534607
1788676371018696400,6.401696533203125,9.589890480041504,1.9863518476486206,-0.5087098479270935
1788676371034849000,6.41784912109375,9.577910423278809,2.0331127643585205,-0.5481505990028381
1788676371050993000,6.433992919921875,9.561534881591797,2.0863149166107178,-0.6282829642295837
1788676371067193300,6.450193359375,9.54458999633789,2.135925769805908,-0.7134411334991455
1788676371083319800,6.46631982421875,9.535441398620605,2.1608314514160156,-0.75931316614151
1788676371099455700,6.482455810546875,9.536450386047363,2.1579792499542236,-0.7547343373298645
1788676371115600100,6.49860009765625,9.542143821716309,2.141360282897949,-0.7296932935714722
1788676371131700000,6.514699951171875,9.543916702270508,2.1347460746765137,-0.7258827686309814
1788676371147904800,6.53090478515625,9.539743423461914,2.1461315155029297,-0.7468586564064026
1788676371164035800,6.547035888671875,9.534188270568848,2.1608340740203857,-0.7748746871948242
1788676371180183800,6.563183837890625,9.533530235290527,2.1577231884002686,-0.7914690971374512
1788676371196345300,6.579345458984375,9.53952407836914,2.1331067085266113,-0.7859551310539246
1788676371212460300,6.595460205078125,9.548102378845215,2.1030771732330322,-0.7623645663261414
1788676371228676000,6.611676025390625,9.555434226989746,2.081909418106079,-0.7278215885162354
1788676371244814600,6.627814697265625,9.561137199401855,2.066967725753784,-0.6947668194770813
1788676371260987100,6.643987060546875,9.565420150756836,2.0547361373901367,-0.6716992259025574
1788676371277110800,6.66011083984375,9.570887565612793,2.033384323120117,-0.6586632132530212
1788676371293227000,6.67622705078125,9.576410293579102,2.010056495666504,-0.6499439477920532
1788676371309405400,6.692405517578125,9.579747200012207,1.9980204105377197,-0.6377665996551514
1788676371325505300,6.70850537109375,9.580242156982422,2.0013766288757324,-0.6195432543754578
1788676371341686800,6.724686767578125,9.578386306762695,2.01657772064209,-0.5985926389694214
1788676371357823200,6.7408232421875,9.575766563415527,2.0343167781829834,-0.5802086591720581
1788676371373951700,6.75695166015625,9.573643684387207,2.0492115020751953,-0.5625532269477844
1788676371390134300,6.77313427734375,9.571950912475586,2.0624568462371826,-0.5426154732704163
1788676371406234400,6.789234375,9.570272445678711,2.076742649078369,-0.5171163082122803
1788676371422379500,6.805379638671875,9.568990707397461,2.0908138751983643,-0.483007550239563
1788676371438524400,6.8215244140625,9.568800926208496,2.100903272628784,-0.4411868155002594
1788676371454655700,6.83765576171875,9.569664001464844,2.1052584648132324,-0.3997578024864197
1788676371470847200,6.85384716796875,9.570547103881836,2.106527805328369,-0.3708925247192383
1788676371486960000,6.869960205078125,9.570263862609863,2.10823130607605,-0.3685051202774048
1788676371503071200,6.8860712890625,9.566848754882812,2.120595932006836,-0.38582515716552734
1788676371519224300,6.902224365234375,9.562695503234863,2.1346991062164307,-0.410250723361969
1788676371535314700,6.918314697265625,9.560508728027344,2.142714500427246,-0.41932857036590576
1788676371551517200,6.93451708984375,9.561112403869629,2.1431198120117188,-0.40317830443382263
1788676371567639800,6.950639892578125,9.563468933105469,2.137979745864868,-0.3734913766384125
1788676371583773200,6.966773193359375,9.566652297973633,2.128955841064453,-0.34218642115592957
1788676371599913700,6.982913818359375,9.569184303283691,2.1211206912994385,-0.3192811906337738
1788676371616013000,6.999012939453125,9.571161270141602,2.1120169162750244,-0.3203735947608948
1788676371632224000,7.01522412109375,9.575721740722656,2.0897200107574463,-0.33017420768737793
1788676371648364300,7.0313642578125,9.585474967956543,2.0461249351501465,-0.3200472295284271
1788676371664537300,7.047537353515625,9.600839614868164,1.9796526432037354,-0.27427446842193604
1788676371680648200,7.063648193359375,9.613338470458984,1.9228852987289429,-0.23793986439704895
1788676371696763000,7.079762939453125,9.61441707611084,1.9151029586791992,-0.25640469789505005
1788676371712920600,7.095920654296875,9.604652404785156,1.955291748046875,-0.31284409761428833
1788676371729020200,7.112020263671875,9.589055061340332,2.019083023071289,-0.37908050417900085
1788676371745188600,7.128188720703125,9.573657989501953,2.081109046936035,-0.4294605255126953
1788676371761309400,7.144309326171875,9.56307601928711,2.1257309913635254,-0.4463619589805603
1788676371777429000,7.160428955078125,9.559255599975586,2.1467556953430176,-0.42715194821357727
1788676371793605600,7.176605712890625,9.560538291931152,2.1483373641967773,-0.38876038789749146
1788676371809707800,7.192707763671875,9.563499450683594,2.1409101486206055,-0.35549548268318176
1788676371825844200,7.20884423828125,9.567787170410156,2.1232776641845703,-0.345726877450943
1788676371841984300,7.224984375,9.573099136352539,2.0961639881134033,-0.3636798858642578
1788676371858109000,7.24110888671875,9.57762336730957,2.067542314529419,-0.40594103932380676
1788676371874289200,7.2572890625,9.579249382019043,2.0492489337921143,-0.4571053981781006
1788676371890398000,7.27339794921875,9.577528953552246,2.0475070476531982,-0.4990345537662506
1788676371906537500,7.289537353515625,9.57310962677002,2.0639169216156006,-0.5159497261047363
1788676371922684200,7.30568408203125,9.567432403564453,2.092167615890503,-0.5074079036712646
1788676371938819800,7.32181982421875,9.560979843139648,2.1246540546417236,-0.49384552240371704
1788676371954994200,7.337994140625,9.556928634643555,2.144143581390381,-0.4880034625530243
1788676371971113700,7.35411376953125,9.556524276733398,2.1452136039733887,-0.49121370911598206
1788676371987265500,7.370265625,9.559324264526367,2.1308460235595703,-0.4992009997367859
1788676372003423700,7.386423828125,9.563621520996094,2.1111793518066406,-0.500439465045929
1788676372019522000,7.40252197265625,9.567856788635254,2.09360671043396,-0.4932699203491211
1788676372035726600,7.4187265625,9.570895195007324,2.0822739601135254,-0.4821571409702301
1788676372051861200,7.434861328125,9.570985794067383,2.083266258239746,-0.47604185342788696
1788676372068027400,7.45102734375,9.56801700592041,2.095271587371826,-0.48297715187072754
1788676372084194600,7.467194580078125,9.562280654907227,2.117457151412964,-0.4995516240596771
1788676372100312800,7.483312744140625,9.556427001953125,2.136611223220825,-0.5291168093681335
1788676372116514800,7.499514892578125,9.551033973693848,2.1537983417510986,-0.5561410784721375
1788676372132651000,7.515651123046875,9.547356605529785,2.1663191318511963,-0.5704684853553772
1788676372148817200,7.531817138671875,9.543886184692383,2.178579092025757,-0.5817301273345947
1788676372164924200,7.547924072265625,9.537577629089355,2.200188398361206,-0.6034731268882751
1788676372181038800,7.564038818359375,9.527405738830566,2.2340049743652344,-0.6388623714447021
1788676372197193000,7.58019287109375,9.51876449584961,2.2678561210632324,-0.6483291387557983
1788676372213286000,7.596285888671875,9.51579475402832,2.2887542247772217,-0.6177720427513123
1788676372229446700,7.61244677734375,9.517459869384766,2.293221950531006,-0.5739959478378296
1788676372245555700,7.6285556640625,9.519298553466797,2.289191484451294,-0.5594181418418884
1788676372261676000,7.644676025390625,9.515912055969238,2.294516086578369,-0.5941309928894043
1788676372277846300,7.66084619140625,9.508123397827148,2.310317039489746,-0.6545369625091553
1788676372293948200,7.6769482421875,9.500511169433594,2.3246445655822754,-0.7118235230445862
1788676372310086700,7.693086669921875,9.497862815856934,2.327008008956909,-0.738929808139801
1788676372326220500,7.709220458984375,9.50165843963623,2.313070058822632,-0.7338706254959106
1788676372342347500,7.725347412109375,9.508617401123047,2.29095458984375,-0.7128157615661621
1788676372358526700,7.741526611328125,9.51596736907959,2.266547918319702,-0.6924751996994019
1788676372374634800,7.757634765625,9.522780418395996,2.241065502166748,-0.6816551089286804
1788676372390784500,7.773784423828125,9.534000396728516,2.1927268505096436,-0.6820331811904907
1788676372406932200,7.78993212890625,9.550789833068848,2.1145806312561035,-0.6937941908836365
1788676372423077000,7.8060771484375,9.565061569213867,2.0400757789611816,-0.7197691798210144
1788676372439275000,7.82227490234375,9.573136329650879,1.9865902662277222,-0.7608628273010254
1788676372455397400,7.8383974609375,9.569034576416016,1.9889012575149536,-0.8051343560218811
1788676372471551200,7.85455126953125,9.558194160461426,2.026169538497925,-0.8402066826820374
1788676372487706000,7.8707060546875,9.546891212463379,2.0705184936523438,-0.8603573441505432
1788676372503793200,7.886793212890625,9.537453651428223,2.1134440898895264,-0.8606520295143127
1788676372519978800,7.902978759765625,9.531269073486328,2.1504416465759277,-0.8371945023536682
1788676372536100600,7.9191005859375,9.527388572692871,2.1822433471679688,-0.798162043094635
1788676372552259300,7.93525927734375,9.524154663085938,2.211195230484009,-0.7559643387794495
1788676372568420000,7.951420166015625,9.520288467407227,2.238875389099121,-0.7224514484405518
1788676372584509200,7.96750927734375,9.515530586242676,2.2648074626922607,-0.7040801644325256
1788676372600720600,7.983720703125,9.51125431060791,2.2861196994781494,-0.6928796768188477
1788676372616859000,7.99985888671875,9.509173393249512,2.2979509830474854,-0.6822306513786316
1788676372633037300,8.016037353515625,9.510872840881348,2.2944557666778564,-0.6701932549476624
1788676372649165800,8.032165771484374,9.51697063446045,2.275283098220825,-0.6486560106277466
1788676372665286100,8.0482861328125,9.525264739990234,2.2489748001098633,-0.6179255843162537
1788676372681440800,8.064440673828125,9.532374382019043,2.2303199768066406,-0.5743706822395325
1788676372697550000,8.080550048828124,9.53534984588623,2.229799747467041,-0.5248703956604004
1788676372713720600,8.096720458984375,9.533561706542969,2.2463178634643555,-0.4854273200035095
1788676372729837000,8.112837158203124,9.530741691589355,2.2600648403167725,-0.47692611813545227
1788676372745959200,8.128959228515624,9.52880573272705,2.2621653079986572,-0.5048254132270813
1788676372762139000,8.145138916015625,9.530783653259277,2.2453386783599854,-0.5413058400154114
1788676372778251800,8.161251708984375,9.538972854614258,2.2063324451446533,-0.5572032928466797
1788676372794392300,8.177392333984375,9.557771682739258,2.131368398666382,-0.5259751081466675
1788676372810536200,8.1935361328125,9.581147193908691,2.033993721008301,-0.48465174436569214
1788676372826667500,8.20966748046875,9.597955703735352,1.9538060426712036,-0.481938898563385
1788676372842838300,8.22583837890625,9.604971885681152,1.9093587398529053,-0.5188932418823242
1788676372858951200,8.241951171875,9.60389518737793,1.8975998163223267,-0.5785441994667053
1788676372875099100,8.25809912109375,9.598193168640137,1.9052588939666748,-0.6442516446113586
1788676372891246000,8.27424609375,9.5899076461792,1.9257124662399292,-0.7040562033653259
1788676372907330300,8.290330322265625,9.582527160644531,1.9472553730010986,-0.7441464066505432
1788676372923512800,8.306512939453125,9.579182624816895,1.9543832540512085,-0.7681408524513245
1788676372939633000,8.3226328125,9.582998275756836,1.9335846900939941,-0.7731600999832153
1788676372955774700,8.338774658203125,9.591018676757812,1.895545244216919,-0.7678866386413574
1788676372971926300,8.35492626953125,9.596397399902344,1.8592164516448975,-0.789206862449646
1788676372988019700,8.371019775390625,9.600942611694336,1.8227258920669556,-0.8185091614723206
1788676373004225800,8.387225830078124,9.600909233093262,1.7963398694992065,-0.8752578496932983
1788676373020357000,8.403357177734375,9.594301223754883,1.7891504764556885,-0.9584953784942627
1788676373036515000,8.41951513671875,9.582539558410645,1.7995672225952148,-1.0520833730697632
1788676373052678400,8.435678466796874,9.572665214538574,1.8123267889022827,-1.1180089712142944
1788676373068777500,8.451777587890625,9.56855583190918,1.8174329996109009,-1.1445757150650024
1788676373084989200,8.4679892578125,9.569822311401367,1.8184868097305298,-1.132248878479004
1788676373101125400,8.48412548828125,9.571202278137207,1.824912428855896,-1.1100302934646606
1788676373117294800,8.500294921875,9.569007873535156,1.841421127319336,-1.1016494035720825
1788676373133471700,8.5164716796875,9.563196182250977,1.8660639524459839,-1.1106172800064087
1788676373149582300,8.532582275390626,9.556644439697266,1.8905446529388428,-1.125514030456543
1788676373165797000,8.548797119140625,9.552813529968262,1.906637191772461,-1.130875825881958
1788676373181943000,8.564943115234374,9.552942276000977,1.914902925491333,-1.115719199180603
1788676373198119200,8.581119140625,9.55447006225586,1.918196201324463,-1.0968198776245117
1788676373214248400,8.59724853515625,9.552481651306152,1.930340051651001,-1.092827320098877
1788676373230364200,8.6133642578125,9.547018051147461,1.956701636314392,-1.0936840772628784
1788676373246535400,8.629535400390624,9.541295051574707,1.9885932207107544,-1.0860859155654907
1788676373262634800,8.645634765625,9.539087295532227,2.0065133571624756,-1.0724300146102905
1788676373278818800,8.66181884765625,9.537200927734375,2.026508331298828,-1.0513962507247925
1788676373294949000,8.67794921875,9.53295612335205,2.05469012260437,-1.0350778102874756
1788676373311075800,8.694075927734374,9.525866508483887,2.082571506500244,-1.0445829629898071
1788676373327253800,8.710253662109375,9.518430709838867,2.0963919162750244,-1.0839711427688599
1788676373343361800,8.72636181640625,9.513914108276367,2.0900607109069824,-1.1346640586853027
1788676373359506200,8.742506103515625,9.516024589538574,2.059329032897949,-1.172532558441162
1788676373375649800,8.75864990234375,9.527600288391113,2.010256052017212,-1.1636486053466797
1788676373391782400,8.774782470703125,9.540767669677734,1.9686068296432495,-1.1263748407363892
1788676373407957000,8.79095703125,9.545994758605957,1.9540321826934814,-1.10731041431427
1788676373424075500,8.807075439453126,9.54233455657959,1.964657187461853,-1.119984745979309
1788676373440260000,8.823260009765624,9.538493156433105,1.9707914590835571,-1.1417174339294434
1788676373456407800,8.83940771484375,9.537897109985352,1.959164023399353,-1.1664447784423828
1788676373472495600,8.85549560546875,9.538103103637695,1.940586805343628,-1.1954532861709595
1788676373488689400,8.871689453125,9.539623260498047,1.9195573329925537,-1.217077612876892
1788676373504811800,8.887811767578125,9.54993724822998,1.8599345684051514,-1.2287148237228394
1788676373520964000,8.903964111328126,9.563191413879395,1.800956130027771,-1.2133959531784058
1788676373537122800,8.920122802734374,9.570406913757324,1.772417426109314,-1.1984282732009888
1788676373553216300,8.93621630859375,9.572525024414062,1.7520852088928223,-1.2113455533981323
1788676373569416700,8.952416748046875,9.568599700927734,1.7435564994812012,-1.2539125680923462
1788676373585549300,8.96854931640625,9.567012786865234,1.735823392868042,-1.2765470743179321
1788676373601717000,8.984717041015625,9.567224502563477,1.7295461893081665,-1.2834651470184326
1788676373617892600,9.000892578125,9.564231872558594,1.7410500049591064,-1.290195345878601
1788676373634008800,9.0170087890625,9.560832977294922,1.7730371952056885,-1.2716882228851318
1788676373650221300,9.03322119140625,9.562847137451172,1.7968474626541138,-1.2221643924713135
1788676373666365200,9.049365234375,9.571925163269043,1.7949875593185425,-1.15180242061615
1788676373682554600,9.0655546875,9.58211898803711,1.7796099185943604,-1.0892093181610107
1788676373698680800,9.081680908203126,9.587952613830566,1.7713398933410645,-1.0506696701049805
1788676373714803700,9.0978037109375,9.586359977722168,1.7845584154129028,-1.0428096055984497
1788676373730983200,9.113983154296875,9.580989837646484,1.8187578916549683,-1.033023715019226
1788676373747093200,9.13009326171875,9.575580596923828,1.8655445575714111,-0.999193549156189
1788676373763230200,9.146230224609376,9.573028564453125,1.9046610593795776,-0.9485641717910767
1788676373779374000,9.1623740234375,9.574152946472168,1.9250699281692505,-0.8944723010063171
1788676373795511800,9.17851171875,9.576750755310059,1.932834506034851,-0.8487528562545776
1788676373811676400,9.194676513671874,9.579296112060547,1.9383001327514648,-0.8065237998962402
1788676373827784200,9.2107841796875,9.582659721374512,1.9427233934402466,-0.7542222738265991
1788676373843923700,9.226923828125,9.587520599365234,1.9414503574371338,-0.6932604908943176
1788676373860068900,9.24306884765625,9.593097686767578,1.9353525638580322,-0.6302945017814636
1788676373876201700,9.25920166015625,9.597735404968262,1.9293495416641235,-0.575729489326477
1788676373892394000,9.27539404296875,9.600696563720703,1.9258159399032593,-0.5368867516517639
1788676373908514000,9.29151416015625,9.602856636047363,1.9254086017608643,-0.49833983182907104
1788676373924664600,9.30766455078125,9.606269836425781,1.91966712474823,-0.4525826573371887
1788676373940827100,9.3238271484375,9.613631248474121,1.893907904624939,-0.4019952118396759
1788676373956928800,9.3399287109375,9.62693977355957,1.8359242677688599,-0.3490004241466522
1788676373973121800,9.356121826171876,9.64172077178955,1.7610316276550293,-0.3261478841304779
1788676373989254400,9.37225439453125,9.651802062988281,1.7011168003082275,-0.345400869846344
1788676374005400300,9.388400390625,9.654065132141113,1.6784249544143677,-0.39027389883995056
1788676374021573600,9.40457373046875,9.650394439697266,1.6923919916152954,-0.4196324348449707
1788676374037683200,9.42068310546875,9.645401954650879,1.722495675086975,-0.41185569763183594
1788676374053858000,9.436858154296875,9.642661094665527,1.747052788734436,-0.3705030679702759
1788676374070003000,9.4530029296875,9.643031120300293,1.754739761352539,-0.3212756812572479
1788676374086167000,9.4691669921875,9.646685600280762,1.7410757541656494,-0.2837229073047638
1788676374102345700,9.485345703125,9.652263641357422,1.7126119136810303,-0.2667318880558014
1788676374118466000,9.501466064453124,9.65800666809082,1.679003119468689,-0.2724681496620178
1788676374134683100,9.51768310546875,9.662752151489258,1.647810459136963,-0.2938172519207001
1788676374150825700,9.53382568359375,9.666044235229492,1.6228059530258179,-0.32324668765068054
1788676374167003000,9.5500029296875,9.668156623840332,1.6045979261398315,-0.3498469293117523
1788676374183113700,9.56611376953125,9.670516967773438,1.5881236791610718,-0.35964953899383545
1788676374199238700,9.58223876953125,9.673606872558594,1.5711437463760376,-0.3510436415672302
1788676374215416000,9.598416015625,9.676149368286133,1.558897852897644,-0.3352082669734955
1788676374231515100,9.61451513671875,9.677462577819824,1.5540175437927246,-0.3195818066596985
1788676374247698700,9.63069873046875,9.67769718170166,1.5552172660827637,-0.3063700795173645
1788676374263836400,9.64683642578125,9.67767333984375,1.5581321716308594,-0.2919846773147583
1788676374279967000,9.662967041015625,9.678170204162598,1.557499647140503,-0.27855855226516724
1788676374296156000,9.679156005859374,9.679405212402344,1.55062735080719,-0.27394378185272217
1788676374312265000,9.695264892578125,9.68111801147461,1.5375901460647583,-0.28663620352745056
1788676374328410600,9.71141064453125,9.682816505432129,1.5215630531311035,-0.3135102093219757
1788676374344557600,9.7275576171875,9.68451976776123,1.5038931369781494,-0.34460893273353577
1788676374360650200,9.743650146484375,9.685406684875488,1.4886428117752075,-0.3837037980556488
1788676374376844000,9.759843994140626,9.685656547546387,1.47421133518219,-0.43028634786605835
1788676374392967000,9.775966796875,9.687742233276367,1.45216965675354,-0.4574294090270996
1788676374409114600,9.792114501953124,9.691764831542969,1.4292963743209839,-0.44406548142433167
1788676374425258200,9.80825830078125,9.695737838745117,1.4161757230758667,-0.3968711197376251
1788676374441353000,9.82435302734375,9.696526527404785,1.4213011264801025,-0.3573063611984253
1788676374457545700,9.840545654296875,9.694726943969727,1.4330708980560303,-0.3591407835483551
1788676374473673500,9.856673583984374,9.694782257080078,1.4268150329589844,-0.38180604577064514
1788676374489819100,9.872819091796876,9.699780464172363,1.3874181509017944,-0.3996464014053345
1788676374505970200,9.88897021484375,9.707451820373535,1.3308382034301758,-0.405764102935791
1788676374522065700,9.905065673828124,9.712151527404785,1.2965576648712158,-0.4042741358280182
1788676374538216400,9.921216552734375,9.71130657196045,1.3019393682479858,-0.4072643518447876
1788676374554359800,9.93735986328125,9.707303047180176,1.331154465675354,-0.40825653076171875
1788676374570525200,9.953525146484376,9.704246520996094,1.3560551404953003,-0.3988703787326813
1788676374586644200,9.969644287109375,9.703683853149414,1.3639097213745117,-0.38556575775146484
1788676374602764800,9.985764892578125,9.704696655273438,1.3589940071105957,-0.3773396909236908
1788676374618935300,10.001935302734376,9.705465316772461,1.3541942834854126,-0.37482014298439026
1788676374635036700,10.01803662109375,9.705845832824707,1.3522534370422363,-0.37196943163871765
1788676374651221800,10.0342216796875,9.707331657409668,1.3448339700698853,-0.3599005341529846
1788676374667351300,10.050351318359375,9.709226608276367,1.336626410484314,-0.3387388288974762
1788676374683445500,10.066445556640625,9.710148811340332,1.3344553709030151,-0.3203425407409668
1788676374699622700,10.08262255859375,9.706411361694336,1.3620681762695312,-0.3174010217189789
1788676374715731700,10.098731689453125,9.697988510131836,1.4178298711776733,-0.33041372895240784
1788676374731903200,10.1149033203125,9.688451766967773,1.47676420211792,-0.3513680696487427
1788676374748030700,10.13103076171875,9.680397033691406,1.5238561630249023,-0.37171322107315063
1788676374764167000,10.1471669921875,9.674663543701172,1.5571413040161133,-0.3828570246696472
1788676374780361700,10.16336181640625,9.67059326171875,1.5836838483810425,-0.37675774097442627
1788676374796476000,10.179475830078125,9.667523384094238,1.6078537702560425,-0.35240745544433594
1788676374812624600,10.195624755859376,9.664727210998535,1.6323082447052002,-0.31464558839797974
1788676374828781600,10.211781494140626,9.660917282104492,1.6617592573165894,-0.27499717473983765
1788676374844867300,10.227867431640625,9.65601921081543,1.6951708793640137,-0.24098777770996094
1788676374861066000,10.24406591796875,9.650967597961426,1.7269552946090698,-0.21639074385166168
1788676374877190000,10.26018994140625,9.647022247314453,1.7504841089248657,-0.20284561812877655
1788676374893351200,10.27635107421875,9.644762992858887,1.7633415460586548,-0.19887714087963104
1788676374909513200,10.29251318359375,9.643367767333984,1.7705068588256836,-0.20284561812877655
1788676374925640700,10.308640625,9.64150333404541,1.7793347835540771,-0.2139250785112381
1788676374941845500,10.324845458984376,9.638060569763184,1.796776533126831,-0.22310097515583038
1788676374957976300,10.340976318359376,9.633354187011719,1.8224503993988037,-0.21803368628025055
1788676374974143000,10.35714306640625,9.628748893737793,1.8486875295639038,-0.19986236095428467
1788676374990313000,10.37331298828125,9.626978874206543,1.8608742952346802,-0.16976408660411835
1788676375006421000,10.3894208984375,9.630176544189453,1.8474825620651245,-0.12996311485767365
1788676375022635300,10.40563525390625,9.636007308959961,1.8189820051193237,-0.09510426968336105
1788676375038773800,10.421773681640625,9.644126892089844,1.7767252922058105,-0.06672258675098419
1788676375054948900,10.437948974609375,9.653181076049805,1.7278318405151367,-0.032954614609479904
1788676375071074600,10.454074462890626,9.663345336914062,1.6702827215194702,0.01708148419857025
1788676375087188000,10.47018798828125,9.674691200256348,1.6017624139785767,0.07139679044485092
1788676375103337200,10.486337158203124,9.683619499206543,1.5461317300796509,0.0859091579914093
1788676375119433500,10.50243359375,9.686813354492188,1.5275229215621948,0.05191175639629364
1788676375135595800,10.518595703125,9.684741973876953,1.541479468345642,0.0002114507951773703
1788676375151725600,10.5347255859375,9.679349899291992,1.5744290351867676,-0.04177899658679962
1788676375167848700,10.5508486328125,9.673524856567383,1.609328031539917,-0.05796148255467415
1788676375184015400,10.567015380859376,9.670196533203125,1.6293493509292603,-0.054006826132535934
1788676375200118000,10.583117919921875,9.670662879943848,1.6267569065093994,-0.04821297526359558
1788676375216302800,10.599302734375,9.673723220825195,1.608075737953186,-0.05970379710197449
1788676375232436500,10.6154365234375,9.677114486694336,1.5859174728393555,-0.09334558993577957
1788676375248565000,10.63156494140625,9.679019927978516,1.57053804397583,-0.1427110880613327
1788676375264751000,10.647751220703125,9.677599906921387,1.572951078414917,-0.2006624937057495
1788676375280860000,10.66385986328125,9.672647476196289,1.5957313776016235,-0.25283902883529663
1788676375297039000,10.6800390625,9.666375160217285,1.6272889375686646,-0.2889764606952667
1788676375313166600,10.69616650390625,9.661234855651855,1.6541768312454224,-0.30762195587158203
1788676375329345500,10.712345458984375,9.658876419067383,1.6670386791229248,-0.31221359968185425
1788676375345519900,10.728519775390625,9.65926742553711,1.6660373210906982,-0.30541136860847473
1788676375361641000,10.744640869140625,9.660917282104492,1.6584534645080566,-0.29426243901252747
1788676375377792000,10.7607919921875,9.662506103515625,1.6503125429153442,-0.2877931594848633
1788676375393961700,10.776961669921874,9.665179252624512,1.6352170705795288,-0.2841717600822449
1788676375410056000,10.793055908203126,9.670177459716797,1.6075586080551147,-0.27165931463241577
1788676375426259200,10.80925927734375,9.675915718078613,1.5763837099075317,-0.24911212921142578
1788676375442384400,10.82538427734375,9.679140090942383,1.5594050884246826,-0.2299768477678299
1788676375458538000,10.8415380859375,9.67886734008789,1.5612034797668457,-0.22926439344882965
1788676375474699300,10.85769921875,9.675199508666992,1.5796942710876465,-0.25585854053497314
1788676375490810000,10.87381005859375,9.670975685119629,1.5977020263671875,-0.2999490797519684
1788676375507003600,10.890003662109375,9.668911933898926,1.6020126342773438,-0.340718537569046
1788676375523097300,10.906097412109375,9.670119285583496,1.5920867919921875,-0.3527606129646301
1788676375539265500,10.922265625,9.674285888671875,1.5732537508010864,-0.32162874937057495
1788676375555382800,10.9383828125,9.679594993591309,1.5529208183288574,-0.2534845769405365
1788676375571508500,10.954508544921875,9.682969093322754,1.540083646774292,-0.19654680788516998
1788676375587670000,10.970669921875,9.684781074523926,1.5296435356140137,-0.18867366015911102
1788676375603775700,10.986775634765625,9.687858581542969,1.5071754455566406,-0.21024960279464722
1788676375619951900,11.002951904296875,9.691998481750488,1.4759584665298462,-0.23895609378814697
1788676375636072000,11.019072021484375,9.6958589553833,1.448804259300232,-0.24835903942584991
1788676375652200000,11.035199951171874,9.697073936462402,1.44077467918396,-0.2476162314414978
1788676375668380400,11.05138037109375,9.695000648498535,1.455216407775879,-0.24432438611984253
1788676375684491300,11.0674912109375,9.692644119262695,1.4722458124160767,-0.23565025627613068
1788676375700631600,11.083631591796875,9.693437576293945,1.468295931816101,-0.22751422226428986
1788676375716773000,11.099773193359376,9.698564529418945,1.4357367753982544,-0.21654118597507477
1788676375732919600,11.11591943359375,9.706443786621094,1.38566255569458,-0.18781784176826477
1788676375749116400,11.132116455078124,9.71390151977539,1.3379628658294678,-0.142696812748909
1788676375765238500,11.148238525390624,9.719464302062988,1.3011033535003662,-0.09759126603603363
1788676375781392100,11.16439208984375,9.723795890808105,1.2703909873962402,-0.06548628956079483
1788676375797624000,11.1806240234375,9.729104995727539,1.2302035093307495,-0.03865154832601547
1788676375813712000,11.1967119140625,9.734601020812988,1.1864370107650757,-0.017326580360531807
1788676375829913300,11.212913330078125,9.73902702331543,1.1495442390441895,-0.01676543988287449
1788676375846030800,11.22903076171875,9.740291595458984,1.1381914615631104,-0.040416911244392395
1788676375862180000,11.24518017578125,9.737418174743652,1.161866545677185,-0.05606018006801605
1788676375878339600,11.261339599609375,9.733470916748047,1.1939709186553955,-0.06604549288749695
1788676375894433300,11.277433349609375,9.729398727416992,1.2267464399337769,-0.06543784588575363
1788676375910636300,11.29363623046875,9.725427627563477,1.258414387702942,-0.05322203412652016
1788676375926767000,11.30976708984375,9.721744537353516,1.2872482538223267,-0.03256744146347046
1788676375942923000,11.325923095703125,9.718901634216309,1.308850646018982,-0.0155196413397789
1788676375959092200,11.34209228515625,9.717334747314453,1.320373773574829,-0.01984364166855812
1788676375975206400,11.358206298828126,9.716634750366211,1.3250954151153564,-0.03896656632423401
1788676375991424300,11.37442431640625,9.715892791748047,1.329991340637207,-0.05422405153512955
1788676376007521300,11.390521240234374,9.71424388885498,1.3418010473251343,-0.05853709205985069
1788676376023701000,11.406700927734375,9.711440086364746,1.3623442649841309,-0.04828735440969467
1788676376039829000,11.4228291015625,9.707437515258789,1.391008973121643,-0.033681757748126984
1788676376055940000,11.438940185546874,9.702449798583984,1.4256325960159302,-0.020613383501768112
1788676376072100600,11.4551005859375,9.696527481079102,1.465510368347168,-0.00514379283413291
1788676376088200200,11.4712001953125,9.690414428710938,1.505300521850586,0.01780424453318119
1788676376104385000,11.487385009765624,9.685992240905762,1.532821536064148,0.04894815757870674
1788676376120518000,11.503517822265625,9.684514999389648,1.5403902530670166,0.08806026726961136
1788676376136646700,11.519646728515625,9.68497371673584,1.5351547002792358,0.12235461175441742
1788676376152831500,11.53583154296875,9.686493873596191,1.5233687162399292,0.14683227241039276
1788676376168935200,11.55193505859375,9.689252853393555,1.5043766498565674,0.1600830852985382
1788676376185075200,11.5680751953125,9.694563865661621,1.467979073524475,0.17567579448223114
1788676376201216800,11.584216796875,9.7025785446167,1.4080334901809692,0.21860143542289734
1788676376217350400,11.600350341796876,9.709446907043457,1.353981852531433,0.2525045573711395
1788676376233525200,11.616525146484374,9.711719512939453,1.339505910873413,0.24211616814136505
1788676376249652500,11.632652587890625,9.708508491516113,1.3703464269638062,0.19339856505393982
1788676376265842700,11.6488427734375,9.702494621276855,1.41837477684021,0.14213943481445312
1788676376281987800,11.66498779296875,9.697134971618652,1.457295536994934,0.11064758151769638
1788676376298131000,11.681130859375,9.693940162658691,1.4781310558319092,0.11417809873819351
1788676376314331000,11.697330810546875,9.693121910095215,1.481618046760559,0.13628895580768585
1788676376330457600,11.71345751953125,9.694549560546875,1.4698423147201538,0.16017566621303558
1788676376346614300,11.7296142578125,9.697477340698242,1.448522686958313,0.17636026442050934
1788676376362775800,11.74577587890625,9.70065689086914,1.4260212182998657,0.18465974926948547
1788676376378876000,11.7618759765625,9.703678131103516,1.4055917263031006,0.18252624571323395
1788676376395077000,11.7780771484375,9.70594596862793,1.391818881034851,0.1668286919593811
1788676376411209000,11.794208984375,9.70701789855957,1.3869800567626953,0.14311514794826508
1788676376427373600,11.81037353515625,9.707374572753906,1.3870868682861328,0.11511596292257309
1788676376443549200,11.826549072265625,9.707475662231445,1.3880937099456787,0.09222045540809631
1788676376459664000,11.842663818359375,9.707184791564941,1.3908562660217285,0.08041545748710632
1788676376475838000,11.858837890625,9.706155776977539,1.3983423709869385,0.07458864897489548
1788676376491937300,11.874937255859376,9.705148696899414,1.4053552150726318,0.07384280115365982
1788676376508125700,11.891125732421875,9.704987525939941,1.4063211679458618,0.07654182612895966
1788676376524261600,11.90726171875,9.70565128326416,1.4013484716415405,0.0833461731672287
1788676376540385300,11.92338525390625,9.705693244934082,1.400559425354004,0.0913093313574791
1788676376556560600,11.939560546875,9.70406436920166,1.4122494459152222,0.08417019993066788
1788676376572662800,11.955662841796874,9.70069694519043,1.436659812927246,0.05354344844818115
1788676376588801000,11.971801025390626,9.698959350585938,1.4493277072906494,0.00490501569584012
1788676376604947200,11.987947265625,9.69770622253418,1.457025408744812,-0.04419643059372902
1788676376621043200,12.004043212890625,9.696890830993652,1.460854411125183,-0.08122041076421738
1788676376637226000,12.02022607421875,9.696231842041016,1.4645614624023438,-0.09238354116678238
1788676376653344800,12.0363447265625,9.6963529586792,1.4650095701217651,-0.06982720643281937
1788676376669495600,12.05249560546875,9.696651458740234,1.4642982482910156,-0.03409362956881523
1788676376685634300,12.06863427734375,9.696407318115234,1.4662164449691772,-0.01656980812549591
1788676376701727200,12.084727294921874,9.695318222045898,1.472833514213562,-0.04427797347307205
1788676376717926000,12.10092578125,9.696228981018066,1.465006709098816,-0.08530556410551071
1788676376734049300,12.11704931640625,9.701569557189941,1.4286184310913086,-0.09483940899372101
1788676376750189600,12.133189453125,9.709362983703613,1.3764653205871582,-0.06326930969953537
1788676376766329000,12.1493291015625,9.715719223022461,1.3322625160217285,-0.01607128418982029
1788676376782417200,12.165417236328125,9.71757698059082,1.3187401294708252,0.0037043343763798475
1788676376798596000,12.18159619140625,9.715476036071777,1.3340723514556885,-0.012987346388399601
1788676376814728200,12.197728271484374,9.712807655334473,1.3523184061050415,-0.05460771545767784
1788676376830880500,12.213880615234375,9.713433265686035,1.3453835248947144,-0.09763963520526886
1788676376847045400,12.23004541015625,9.71723747253418,1.3152856826782227,-0.12530019879341125
1788676376863152600,12.246152587890625,9.722060203552246,1.2789324522018433,-0.12757186591625214
1788676376879365400,12.262365478515624,9.726255416870117,1.2486271858215332,-0.1062091663479805
1788676376895499800,12.278499755859375,9.729032516479492,1.2291622161865234,-0.07406144589185715
1788676376911661600,12.29466162109375,9.730655670166016,1.2177844047546387,-0.041611310094594955
1788676376927835100,12.310835205078124,9.731775283813477,1.2093315124511719,-0.021290041506290436
1788676376943946800,12.32694677734375,9.732935905456543,1.1998906135559082,-0.02466273307800293
1788676376960164600,12.34316455078125,9.733756065368652,1.1921725273132324,-0.0558190643787384
1788676376976309500,12.3593095703125,9.73366928100586,1.189730167388916,-0.10303375124931335
1788676376992484600,12.375484619140625,9.732088088989258,1.1985139846801758,-0.14290256798267365
1788676377008667600,12.391667724609375,9.728997230529785,1.2221181392669678,-0.1530357301235199
1788676377024787000,12.407786865234375,9.724973678588867,1.2557748556137085,-0.13526296615600586
1788676377040964400,12.42396435546875,9.720820426940918,1.2900454998016357,-0.10869217664003372
1788676377057065200,12.440065185546874,9.716903686523438,1.3211606740951538,-0.0818774551153183
1788676377073249000,12.4562490234375,9.71389389038086,1.3442621231079102,-0.06006291136145592
1788676377089384400,12.472384521484376,9.712254524230957,1.3567979335784912,-0.039978958666324615
1788676377105519400,12.488519287109375,9.711199760437012,1.364672064781189,-0.02546345442533493
1788676377121713000,12.504712890625,9.710355758666992,1.370765209197998,-0.019271759316325188
1788676377137826300,12.520826416015625,9.70971393585205,1.3753236532211304,-0.018327245488762856
1788676377153972500,12.536972412109375,9.708818435668945,1.3815497159957886,-0.02374415658414364
1788676377170119200,12.553119140625,9.706462860107422,1.397613763809204,-0.04064955189824104
1788676377186259200,12.56925927734375,9.70269775390625,1.4230608940124512,-0.054137177765369415
1788676377202428700,12.5854287109375,9.699499130249023,1.4452675580978394,-0.03618300333619118
1788676377218547500,12.60154736328125,9.697550773620605,1.458600401878357,0.019627952948212624
1788676377234697000,12.617697021484375,9.696662902832031,1.4619324207305908,0.08868183940649033
1788676377250845200,12.63384521484375,9.69554615020752,1.4645915031433105,0.14744476974010468
1788676377266938000,12.649938232421874,9.692780494689941,1.4796254634857178,0.1763669103384018
1788676377283138300,12.66613818359375,9.688581466674805,1.5065315961837769,0.17930501699447632
1788676377299268000,12.68226806640625,9.687065124511719,1.5176050662994385,0.16741393506526947
1788676377315432700,12.6984326171875,9.692183494567871,1.485882043838501,0.1552678644657135
1788676377331599400,12.714599365234376,9.703495979309082,1.4079015254974365,0.17427052557468414
1788676377347699000,12.730698974609375,9.715320587158203,1.3188267946243286,0.20884327590465546
1788676377363895800,12.746895751953126,9.721803665161133,1.2700088024139404,0.20977428555488586
1788676377380030000,12.763030029296875,9.722537994384766,1.2678464651107788,0.18761983513832092
1788676377396200200,12.7792001953125,9.719328880310059,1.2956496477127075,0.1622599959373474
1788676377412328200,12.795328125,9.715715408325195,1.3233587741851807,0.1548403650522232
1788676377428453600,12.81145361328125,9.71360969543457,1.3366501331329346,0.1718575805425644
1788676377444624600,12.827624755859375,9.712959289550781,1.3376127481460571,0.19900953769683838
1788676377460729300,12.843729248046875,9.714271545410156,1.324797511100769,0.21959508955478668
1788676377476869600,12.85986962890625,9.717331886291504,1.3030928373336792,0.21401026844978333
1788676377493007400,12.87600732421875,9.721327781677246,1.2778701782226562,0.18225377798080444
1788676377509132500,12.892132568359376,9.725381851196289,1.2524375915527344,0.13688227534294128
1788676377525315000,12.908315185546876,9.728083610534668,1.2355594635009766,0.09039098024368286
1788676377541416700,12.924416748046875,9.728862762451172,1.2314982414245605,0.05494699627161026
1788676377557558500,12.94055859375,9.727842330932617,1.2402117252349854,0.0368615947663784
1788676377573700900,12.956700927734374,9.725614547729492,1.257675290107727,0.03260507062077522
1788676377589839400,12.97283935546875,9.723442077636719,1.2743494510650635,0.03322912007570267
1788676377606036500,12.989036376953125,9.72199821472168,1.2853171825408936,0.03301774337887764
1788676377622155500,13.005155517578125,9.721553802490234,1.2885242700576782,0.03855988755822182
1788676377638308000,13.02130810546875,9.721235275268555,1.2904218435287476,0.05263261869549751
1788676377654465800,13.0374658203125,9.718783378601074,1.3077170848846436,0.07415164262056351
1788676377670564900,13.05356494140625,9.714609146118164,1.3372340202331543,0.09249262511730194
1788676377686763800,13.069763671875,9.710118293762207,1.369270920753479,0.09526851773262024
1788676377702892500,13.085892578125,9.70580005645752,1.4007123708724976,0.07642389833927155
1788676377719050000,13.102050048828126,9.700224876403809,1.4404685497283936,0.03264050558209419
1788676377735212800,13.118212890625,9.696043968200684,1.4687100648880005,0.0014253566041588783
1788676377751307800,13.134307861328125,9.690559387207031,1.5041335821151733,-0.03201594576239586
1788676377767497500,13.15049755859375,9.685083389282227,1.53826904296875,-0.05720482021570206
1788676377783632400,13.16663232421875,9.678933143615723,1.5759438276290894,-0.07111819833517075
1788676377799800000,13.182800048828126,9.674843788146973,1.6009248495101929,-0.06944010406732559
1788676377815974000,13.198973876953126,9.670270919799805,1.6288988590240479,-0.05411810800433159
1788676377832087800,13.215087890625,9.66219711303711,1.676200032234192,-0.051844462752342224
1788676377848308200,13.23130810546875,9.65320110321045,1.7260528802871704,-0.08271781355142593
1788676377864430600,13.2474306640625,9.648956298828125,1.7473281621932983,-0.12193696945905685
1788676377880609800,13.26360986328125,9.650516510009766,1.7357189655303955,-0.1587481051683426
1788676377896743400,13.279743408203124,9.65427303314209,1.711474895477295,-0.1903678923845291
1788676377912847600,13.29584765625,9.657703399658203,1.6902713775634766,-0.2052709460258484
1788676377929026300,13.3120263671875,9.659635543823242,1.6788051128387451,-0.20845578610897064
1788676377945131300,13.32813134765625,9.65983772277832,1.6775318384170532,-0.20931626856327057
1788676377961314300,13.344314208984375,9.660656929016113,1.6721385717391968,-0.21458888053894043
1788676377977450500,13.360450439453125,9.665302276611328,1.6431820392608643,-0.22865159809589386
1788676377993576000,13.376575927734375,9.6721773147583,1.5984115600585938,-0.2538835108280182
1788676378009756000,13.392755859375,9.679210662841797,1.5515620708465576,-0.2755260169506073
1788676378025862000,13.40886181640625,9.68553352355957,1.5104504823684692,-0.281711220741272
1788676378042050800,13.42505078125,9.691141128540039,1.4762749671936035,-0.2697812616825104
1788676378058196200,13.4411962890625,9.694939613342285,1.4544310569763184,-0.25133398175239563
1788676378074335200,13.457335205078126,9.699607849121094,1.4223082065582275,-0.25501611828804016
1788676378090530600,13.473530517578125,9.704760551452637,1.3795503377914429,-0.29127171635627747
1788676378106644000,13.48964404296875,9.708045959472656,1.344071626663208,-0.34307295083999634
1788676378122781700,13.50578173828125,9.707856178283691,1.3337866067886353,-0.385913223028183
1788676378138914600,13.52191455078125,9.7050199508667,1.3479653596878052,-0.4073822796344757
1788676378155052000,13.538052001953124,9.701469421386719,1.3759887218475342,-0.39817163348197937
1788676378171247400,13.554247314453125,9.696864128112793,1.4132710695266724,-0.37931394577026367
1788676378187369500,13.570369384765625,9.690438270568848,1.4575458765029907,-0.37595802545547485
1788676378203523300,13.5865234375,9.683755874633789,1.4970307350158691,-0.39262595772743225
1788676378219676400,13.602676513671875,9.676664352416992,1.530855655670166,-0.43478745222091675
1788676378235772200,13.618772216796875,9.676176071166992,1.531519889831543,-0.44322600960731506
1788676378251975200,13.63497509765625,9.679835319519043,1.5189111232757568,-0.4050792157649994
1788676378268102100,13.65110205078125,9.678784370422363,1.527625322341919,-0.3973517417907715
1788676378284262000,13.667261962890626,9.672029495239258,1.5687496662139893,-0.4015563130378723
1788676378300404500,13.683404541015625,9.664380073547363,1.6127400398254395,-0.4113626480102539
1788676378316502500,13.69950244140625,9.664168357849121,1.61880624294281,-0.3920571506023407
1788676378332703700,13.715703857421875,9.670068740844727,1.5934242010116577,-0.34806913137435913
1788676378348844000,13.731843994140625,9.676749229431152,1.5649479627609253,-0.28609082102775574
1788676378365020200,13.748020263671876,9.681795120239258,1.5455912351608276,-0.21067601442337036
1788676378381144800,13.764144775390625,9.685005187988281,1.5338243246078491,-0.13583412766456604
1788676378397244000,13.780243896484375,9.68691635131836,1.5260649919509888,-0.07190876454114914
1788676378413421600,13.796421630859374,9.687765121459961,1.5219199657440186,-0.03673398494720459
1788676378429520400,13.812520263671875,9.688981056213379,1.5144494771957397,-0.021658800542354584
1788676378445661200,13.8286611328125,9.691807746887207,1.4963321685791016,-0.015192600898444653
1788676378461855500,13.84485546875,9.697443008422852,1.4593998193740845,-0.011531375348567963
1788676378477986000,13.860986083984375,9.70630168914795,1.399299144744873,0.007199337240308523
1788676378494152400,13.87715234375,9.716044425964355,1.3295717239379883,0.03321078047156334
1788676378510261500,13.893261474609375,9.722562789916992,1.281182885169983,0.02673237770795822
1788676378526443000,13.909443115234374,9.725170135498047,1.261480689048767,-0.011018749326467514
1788676378542593800,13.92559375,9.725262641906738,1.2596710920333862,-0.053701598197221756
1788676378558732300,13.941732177734375,9.724145889282227,1.2669060230255127,-0.07961966097354889
1788676378574931000,13.957930908203124,9.723053932189941,1.2751734256744385,-0.08089629560709
1788676378591053000,13.974052978515624,9.723015785217285,1.2764543294906616,-0.06330657005310059
1788676378607203300,13.990203369140625,9.724456787109375,1.2664051055908203,-0.03937014192342758
1788676378623361000,14.006361083984375,9.727080345153809,1.2463816404342651,-0.02875117026269436
1788676378639511300,14.02251123046875,9.729979515075684,1.223266839981079,-0.0388818122446537
1788676378655718400,14.038718505859375,9.732114791870117,1.2048189640045166,-0.06889686733484268
1788676378671849500,14.054849365234375,9.732454299926758,1.1988500356674194,-0.11177106946706772
1788676378688014000,14.07101416015625,9.730714797973633,1.2079170942306519,-0.15658681094646454
1788676378704179500,14.087179443359375,9.727059364318848,1.2315458059310913,-0.19494765996932983
1788676378720301000,14.103301025390625,9.722275733947754,1.2647897005081177,-0.219175323843956
1788676378736498200,14.119498291015624,9.717658042907715,1.299709439277649,-0.21966120600700378
1788676378752633900,14.1356337890625,9.714332580566406,1.3271222114562988,-0.2021956592798233
1788676378768800500,14.151800537109375,9.712970733642578,1.3402174711227417,-0.1800002008676529
1788676378784974300,14.167974365234375,9.7139892578125,1.3346912860870361,-0.16553349792957306
1788676378801087700,14.184087646484375,9.71639633178711,1.316813588142395,-0.1673930138349533
1788676378817305900,14.200305908203125,9.71820068359375,1.3008321523666382,-0.18654873967170715
1788676378833405000,14.216405029296874,9.71832275390625,1.2957921028137207,-0.2133464366197586
1788676378849578800,14.232578857421874,9.71662712097168,1.3031264543533325,-0.24371710419654846
1788676378865709000,14.248708984375,9.713974952697754,1.3167580366134644,-0.2742619216442108
1788676378881831200,14.2648310546875,9.70926284790039,1.3449060916900635,-0.30304622650146484
1788676378898009600,14.281009521484375,9.70185375213623,1.3930166959762573,-0.3223574757575989
1788676378914117400,14.297117431640626,9.694417953491211,1.4415910243988037,-0.33236458897590637
1788676378930306300,14.313306396484375,9.689868927001953,1.4704941511154175,-0.33834749460220337
1788676378946440400,14.3294404296875,9.687186241149902,1.4868420362472534,-0.3436780571937561
1788676378962568700,14.345568603515625,9.68465518951416,1.4995518922805786,-0.3594316840171814
1788676378978747600,14.36174755859375,9.683149337768555,1.5048466920852661,-0.37741348147392273
1788676378994852900,14.377852783203124,9.68537712097168,1.4912123680114746,-0.37435173988342285
1788676379011029500,14.394029541015625,9.691642761230469,1.456297755241394,-0.3487907648086548
1788676379027148800,14.410148681640624,9.69930648803711,1.413583755493164,-0.3092127740383148
1788676379043278600,14.426278564453124,9.704455375671387,1.3853297233581543,-0.2734972834587097
1788676379059452000,14.442451904296876,9.70522403717041,1.38304603099823,-0.257276326417923
1788676379075569700,14.458569580078125,9.702434539794922,1.4010310173034668,-0.26507681608200073
1788676379091756800,14.4747568359375,9.699699401855469,1.415421962738037,-0.2877611219882965
1788676379107905500,14.490905517578126,9.699380874633789,1.4136946201324463,-0.3063879907131195
1788676379124045600,14.507045654296874,9.701322555541992,1.4006447792053223,-0.3048456311225891
1788676379140241400,14.523241455078125,9.703855514526367,1.3868082761764526,-0.28694382309913635
1788676379156360400,14.5393603515625,9.705796241760254,1.3773105144500732,-0.2663196623325348
1788676379172510500,14.555510498046875,9.707590103149414,1.3678208589553833,-0.24929264187812805
1788676379188664600,14.57166455078125,9.710731506347656,1.3466774225234985,-0.24193117022514343
1788676379204759800,14.587759765625,9.714351654052734,1.3175466060638428,-0.2565988600254059
1788676379220966400,14.60396630859375,9.714112281799316,1.31134831905365,-0.2945837080478668
1788676379237100000,14.62010009765625,9.709667205810547,1.3320305347442627,-0.3441559672355652
1788676379253267500,14.636267333984375,9.703569412231445,1.3628591299057007,-0.3920849859714508
1788676379269428000,14.652427978515625,9.697088241577148,1.3987486362457275,-0.42470312118530273
1788676379285522000,14.66852197265625,9.691497802734375,1.4346914291381836,-0.4323258101940155
1788676379301738200,14.68473828125,9.686447143554688,1.4711766242980957,-0.4228099286556244
1788676379317879000,14.700879150390625,9.681522369384766,1.5085703134536743,-0.40340375900268555
1788676379334065000,14.71706494140625,9.676959037780762,1.5427289009094238,-0.3832022547721863
1788676379350244900,14.733244873046875,9.673306465148926,1.569717288017273,-0.36539211869239807
1788676379366368300,14.7493681640625,9.671070098876953,1.5877221822738647,-0.34631332755088806
1788676379382507800,14.7655078125,9.670211791992188,1.597619891166687,-0.3240273892879486
1788676379398612500,14.781612548828125,9.670369148254395,1.6015945672988892,-0.2987251877784729
1788676379414796300,14.79779638671875,9.670076370239258,1.606589436531067,-0.2808379530906677
1788676379430942500,14.8139423828125,9.66913890838623,1.6128274202346802,-0.27736014127731323
1788676379447080400,14.83008056640625,9.668596267700195,1.6157547235488892,-0.27922797203063965
1788676379463249700,14.846249755859375,9.669428825378418,1.6119143962860107,-0.27251484990119934
1788676379479366100,14.8623662109375,9.671244621276855,1.605178713798523,-0.24660657346248627
1788676379495508700,14.8785087890625,9.672993659973145,1.599890947341919,-0.20956739783287048
1788676379511655200,14.8946552734375,9.674392700195312,1.5959069728851318,-0.17202340066432953
1788676379527795000,14.910794921875,9.676522254943848,1.5857678651809692,-0.1436217725276947
1788676379543985200,14.926985107421874,9.681020736694336,1.5600262880325317,-0.12058979272842407
1788676379560105500,14.94310546875,9.689152717590332,1.5106532573699951,-0.092896968126297
1788676379576255200,14.959255126953124,9.700093269348145,1.440755009651184,-0.05300605297088623
1788676379592397600,14.9753974609375,9.711779594421387,1.3607715368270874,0.005808905698359013
1788676379608543000,14.99154296875,9.720155715942383,1.298052191734314,0.0634816363453865
1788676379624731600,15.007731689453125,9.722999572753906,1.2757357358932495,0.07848715037107468
1788676379640866300,15.0238662109375,9.721137046813965,1.2914280891418457,0.04581526666879654
1788676379657009700,15.040009765625,9.716998100280762,1.3230042457580566,-0.0014735066797584295
1788676379673171000,15.0561708984375,9.712383270263672,1.3559422492980957,-0.037584029138088226
1788676379689269800,15.072269775390625,9.70826244354248,1.384687900543213,-0.05159677192568779
1788676379705482500,15.088482421875,9.704632759094238,1.4103529453277588,-0.037405237555503845
1788676379721616000,15.104615966796874,9.701793670654297,1.4302382469177246,-0.0002793284074869007
1788676379737785000,15.12078515625,9.700298309326172,1.4399495124816895,0.033584948629140854
1788676379753961500,15.13696142578125,9.700906753540039,1.435474157333374,0.04688238352537155
1788676379770075000,15.153074951171876,9.703054428100586,1.4211986064910889,0.03626059740781784
1788676379786297000,15.169297119140625,9.704907417297363,1.4089604616165161,-0.00030015199445188046
1788676379802441500,15.18544140625,9.705086708068848,1.4067291021347046,-0.05273088812828064
1788676379818620000,15.201619873046875,9.703977584838867,1.4117696285247803,-0.10061412304639816
1788676379834750500,15.21775048828125,9.703147888183594,1.414849877357483,-0.1323290765285492
1788676379850873000,15.233873046875,9.702939987182617,1.4151403903961182,-0.14393624663352966
1788676379867046000,15.2500458984375,9.702893257141113,1.416130542755127,-0.1371738761663437
1788676379883146800,15.266146728515626,9.702990531921387,1.416961908340454,-0.12076427042484283
1788676379899336400,15.28233642578125,9.703654289245605,1.4138513803482056,-0.10247187316417694
1788676379915471600,15.2984716796875,9.705121994018555,1.4047638177871704,-0.08731850981712341
1788676379931603000,15.31460302734375,9.7070951461792,1.3914374113082886,-0.08119389414787292
1788676379947787000,15.330787109375,9.70804214477539,1.3844985961914062,-0.08643274009227753
1788676379963896600,15.346896484375,9.706603050231934,1.3930590152740479,-0.10788147896528244
1788676379980039200,15.3630390625,9.704513549804688,1.4032690525054932,-0.15378127992153168
1788676379996181200,15.37918115234375,9.701050758361816,1.4194066524505615,-0.21280597150325775
1788676380012313900,15.39531396484375,9.696951866149902,1.438674807548523,-0.2640683948993683
1788676380028476400,15.411476318359375,9.692671775817871,1.462785243988037,-0.2876710295677185
1788676380044588800,15.4275888671875,9.688697814941406,1.4896247386932373,-0.2837815582752228
1788676380060741000,15.4437412109375,9.686075210571289,1.5098443031311035,-0.26589035987854004
1788676380076886500,15.459886474609375,9.684550285339355,1.5205309391021729,-0.26048099994659424
1788676380092976600,15.4759765625,9.682504653930664,1.5291444063186646,-0.28497040271759033
1788676380109180200,15.49218017578125,9.67907428741455,1.539562702178955,-0.34008142352104187
1788676380125301800,15.5083017578125,9.676953315734863,1.5388611555099487,-0.39858537912368774
1788676380141460700,15.524460693359375,9.678682327270508,1.522359848022461,-0.4194318652153015
1788676380157600000,15.54060009765625,9.683276176452637,1.5007950067520142,-0.39007991552352905
1788676380173694200,15.556694091796874,9.68683910369873,1.4907748699188232,-0.33636224269866943
1788676380189885400,15.572885498046874,9.686152458190918,1.502160906791687,-0.30390655994415283
1788676380206014500,15.589014404296876,9.683311462402344,1.5211317539215088,-0.30005303025245667
1788676380222157600,15.605157470703125,9.681235313415527,1.5306261777877808,-0.3181942403316498
1788676380238317000,15.621317138671875,9.681414604187012,1.5236588716506958,-0.3450580835342407
1788676380254431200,15.63743115234375,9.684237480163574,1.5017367601394653,-0.3615654706954956
1788676380270643000,15.653642822265626,9.688421249389648,1.474104404449463,-0.3631807863712311
1788676380286785000,15.669784912109375,9.693115234375,1.4457743167877197,-0.3516203761100769
1788676380302972200,15.68597216796875,9.697561264038086,1.4194815158843994,-0.3358055055141449
1788676380319104000,15.70210400390625,9.701079368591309,1.3969542980194092,-0.32860392332077026
1788676380335224300,15.718224365234375,9.704018592834473,1.3737469911575317,-0.3394396901130676
1788676380351400700,15.734400634765626,9.704264640808105,1.365975260734558,-0.36295580863952637
1788676380367497000,15.7504970703125,9.703095436096191,1.3672353029251099,-0.3885807693004608
1788676380383636500,15.766636474609374,9.700870513916016,1.3771454095840454,-0.40860715508461
1788676380399776500,15.782776611328124,9.69698715209961,1.3992314338684082,-0.4254084527492523
1788676380415905300,15.7989052734375,9.691619873046875,1.4319179058074951,-0.4387606084346771
1788676380432086800,15.815086669921875,9.68610954284668,1.4661190509796143,-0.44740480184555054
1788676380448191200,15.831191162109375,9.681705474853516,1.4963449239730835,-0.4426427483558655
1788676380464335000,15.847335205078124,9.677634239196777,1.528287410736084,-0.4220336377620697
1788676380480486100,15.863486083984375,9.673514366149902,1.563628911972046,-0.3854334354400635
1788676380496628700,15.879628662109376,9.668267250061035,1.6032769680023193,-0.3528549075126648
1788676380512818000,15.89581787109375,9.662715911865234,1.6396840810775757,-0.3372591733932495
1788676380528934700,15.9119345703125,9.656987190246582,1.6712130308151245,-0.3464784324169159
1788676380545082600,15.92808251953125,9.651987075805664,1.6933976411819458,-0.3767346739768982
1788676380561245000,15.944244873046875,9.647586822509766,1.7107447385787964,-0.4096321165561676
1788676380577338600,15.960338623046875,9.644336700439453,1.7249815464019775,-0.42614683508872986
1788676380593535700,15.97653564453125,9.642898559570312,1.7356258630752563,-0.4153440296649933
1788676380609662200,15.992662109375,9.641647338867188,1.7481671571731567,-0.39106133580207825
1788676380625822200,16.008822265625,9.640462875366211,1.761644721031189,-0.3584371507167816
1788676380641991700,16.02499169921875,9.63902473449707,1.7761375904083252,-0.32393425703048706
1788676380658094300,16.04109423828125,9.636895179748535,1.7906545400619507,-0.30691784620285034
1788676380674305300,16.05730517578125,9.637716293334961,1.7875609397888184,-0.2990647554397583
1788676380690442000,16.07344189453125,9.644057273864746,1.7566107511520386,-0.2772641181945801
1788676380706612500,16.089612548828125,9.65645694732666,1.6937000751495361,-0.23366057872772217
1788676380722772200,16.105772216796876,9.671217918395996,1.6132291555404663,-0.18821316957473755
1788676380738889200,16.12188916015625,9.682073593139648,1.5480183362960815,-0.177373468875885
1788676380755089000,16.1380888671875,9.684913635253906,1.52408766746521,-0.22359226644039154
1788676380771187000,16.15418701171875,9.682148933410645,1.5306246280670166,-0.289067804813385
1788676380787367700,16.17036767578125,9.676907539367676,1.5544480085372925,-0.3339807689189911
1788676380803489300,16.1864892578125,9.670560836791992,1.5899860858917236,-0.35012713074684143
1788676380819612400,16.2026123046875,9.663846969604492,1.6314685344696045,-0.34461483359336853
1788676380835786500,16.218786376953126,9.658125877380371,1.668668270111084,-0.3264129161834717
1788676380851886000,16.234885986328123,9.654314041137695,1.6943001747131348,-0.3065248131752014
1788676380868070100,16.251070068359375,9.653547286987305,1.699725866317749,-0.30055713653564453
1788676380884210400,16.26721044921875,9.656585693359375,1.681378722190857,-0.30610236525535583
1788676380900341800,16.283341796875,9.661076545715332,1.6521698236465454,-0.3230104148387909
1788676380916526000,16.299526123046874,9.66444206237793,1.6271135807037354,-0.34848761558532715
1788676380932640000,16.315639892578126,9.664727210998535,1.6176854372024536,-0.3827863037586212
1788676380948786700,16.33178662109375,9.66061782836914,1.634921669960022,-0.41216132044792175
1788676380964935000,16.347934814453126,9.653840065002441,1.6678855419158936,-0.4380945861339569
1788676380981078800,16.364078857421877,9.647115707397461,1.7007743120193481,-0.4592476487159729
1788676380997273300,16.3802734375,9.643495559692383,1.7152059078216553,-0.4810951352119446
1788676381013392100,16.39639208984375,9.643733024597168,1.707942247390747,-0.5017186999320984
1788676381029544700,16.412544677734374,9.644758224487305,1.694148063659668,-0.5281032919883728
1788676381045693000,16.42869287109375,9.643319129943848,1.6900192499160767,-0.5662211179733276
1788676381061788000,16.444787841796874,9.639059066772461,1.699669599533081,-0.6083204746246338
1788676381077988000,16.460988037109374,9.631006240844727,1.7285041809082031,-0.652967095375061
1788676381094121200,16.477121337890626,9.621068954467773,1.7621437311172485,-0.7072985172271729
1788676381110293200,16.493293212890624,9.60938549041748,1.7975883483886719,-0.7738116979598999
1788676381126458400,16.509458251953124,9.592738151550293,1.8499329090118408,-0.8529443144798279
1788676381142554400,16.525554443359376,9.573293685913086,1.9157187938690186,-0.9232832193374634
1788676381158764300,16.541764404296874,9.553235054016113,1.9882572889328003,-0.9761722683906555
1788676381174900000,16.55789990234375,9.531298637390137,2.0627541542053223,-1.034306287765503
1788676381191063300,16.574063232421874,9.507603645324707,2.1433048248291016,-1.0872492790222168
1788676381207236000,16.590236083984376,9.486970901489258,2.215216636657715,-1.122755527496338
1788676381223346700,16.6063466796875,9.470243453979492,2.2526655197143555,-1.187591314315796
1788676381239560400,16.622560546875,9.45946979522705,2.250990390777588,-1.2735209465026855
1788676381255702000,16.638701904296877,9.452872276306152,2.223388195037842,-1.3675295114517212
1788676381271870700,16.65487060546875,9.447212219238281,2.1987085342407227,-1.4443871974945068
1788676381287981300,16.670981201171877,9.439421653747559,2.194998025894165,-1.4998940229415894
1788676381304101400,16.687101318359375,9.439087867736816,2.1967949867248535,-1.499364972114563
1788676381320268800,16.703268798828127,9.44674301147461,2.1931912899017334,-1.4558007717132568
1788676381336369000,16.719368896484376,9.444726943969727,2.204846143722534,-1.4512662887573242
1788676381352551400,16.735551513671876,9.428947448730469,2.2497425079345703,-1.4845882654190063
1788676381368671200,16.751671142578125,9.416337013244629,2.2827844619750977,-1.5138949155807495
1788676381384798000,16.7677978515625,9.421882629394531,2.268958330154419,-1.5001192092895508
1788676381400972000,16.783971923828126,9.445276260375977,2.2003180980682373,-1.4545568227767944
1788676381417086500,16.80008642578125,9.477411270141602,2.093052864074707,-1.402924656867981
1788676381433223700,16.8162236328125,9.508700370788574,1.9705724716186523,-1.3681566715240479
1788676381449364200,16.8323642578125,9.529179573059082,1.862981915473938,-1.3763830661773682
1788676381465502000,16.848501953125,9.535974502563477,1.7931865453720093,-1.4212889671325684
1788676381481689300,16.864689453125,9.530037879943848,1.774518609046936,-1.4831873178482056
1788676381497806000,16.88080615234375,9.518171310424805,1.799796223640442,-1.5282514095306396
1788676381513944600,16.896944580078124,9.512393951416016,1.84419584274292,-1.5111913681030273
1788676381530084600,16.913084716796874,9.515427589416504,1.880759358406067,-1.4456056356430054
1788676381546179800,16.929179931640626,9.523375511169434,1.897922396659851,-1.36879301071167
1788676381562376000,16.9453759765625,9.531956672668457,1.9005258083343506,-1.3039114475250244
1788676381578506800,16.9615068359375,9.538117408752441,1.901592493057251,-1.2564408779144287
1788676381594663700,16.97766357421875,9.541958808898926,1.9071555137634277,-1.218266487121582
1788676381610830600,16.99383056640625,9.545097351074219,1.9150995016098022,-1.18063223361969
1788676381626930200,17.00993017578125,9.548571586608887,1.9220749139785767,-1.1405235528945923
1788676381643142100,17.02614208984375,9.55392837524414,1.9227044582366943,-1.0936408042907715
1788676381659277800,17.04227783203125,9.559516906738281,1.9196891784667969,-1.0491973161697388
1788676381675445800,17.05844580078125,9.561774253845215,1.9203518629074097,-1.0271780490875244
1788676381691569700,17.074569580078126,9.560155868530273,1.9281030893325806,-1.0277252197265625
1788676381707683600,17.09068359375,9.557891845703125,1.9458110332489014,-1.0153437852859497
1788676381723847400,17.106847412109374,9.558086395263672,1.9684569835662842,-0.9687881469726562
1788676381739939600,17.122939697265625,9.562427520751953,1.9910637140274048,-0.8752318024635315
1788676381756113700,17.13911376953125,9.5695161819458,1.9999439716339111,-0.7713449001312256
1788676381772244000,17.155243896484375,9.577840805053711,1.9908651113510132,-0.686881959438324
1788676381788398300,17.1713984375,9.585251808166504,1.9688531160354614,-0.6457130312919617
1788676381804566800,17.18756689453125,9.590991973876953,1.942425012588501,-0.6404972672462463
1788676381820662300,17.203662353515625,9.595892906188965,1.9133192300796509,-0.6545471549034119
1788676381836840200,17.219840087890624,9.601789474487305,1.877799391746521,-0.6707441210746765
1788676381852969500,17.235969482421876,9.612102508544922,1.824811577796936,-0.6692809462547302
1788676381869111300,17.252111328125,9.62364387512207,1.7646536827087402,-0.664721667766571
1788676381885290800,17.268290771484374,9.629758834838867,1.7235424518585205,-0.6837713718414307
1788676381901402400,17.28440234375,9.629013061523438,1.712218999862671,-0.7216617465019226
1788676381917545700,17.300545654296876,9.623676300048828,1.726476788520813,-0.757968544960022
1788676381933691600,17.316691650390624,9.618096351623535,1.7509815692901611,-0.7724423408508301
1788676381949867800,17.33286767578125,9.616501808166504,1.7666658163070679,-0.7564135193824768
1788676381966067200,17.349067138671874,9.619855880737305,1.7640669345855713,-0.7189025282859802
1788676381982189600,17.365189453125,9.626729965209961,1.7424585819244385,-0.6784438490867615
1788676381998343000,17.381343017578125,9.634064674377441,1.7105928659439087,-0.6550326347351074
1788676382014499300,17.397499267578127,9.639461517333984,1.6794813871383667,-0.6561395525932312
1788676382030679300,17.41367919921875,9.642192840576172,1.6565860509872437,-0.6739622950553894
1788676382046875600,17.429875732421873,9.641907691955566,1.6468753814697266,-0.7012937664985657
1788676382063003400,17.44600341796875,9.63952350616455,1.6515653133392334,-0.722719669342041
1788676382079164200,17.4621640625,9.636310577392578,1.6667064428329468,-0.7307478785514832
1788676382095319800,17.47831982421875,9.632818222045898,1.6903313398361206,-0.7224817276000977
1788676382111448800,17.49444873046875,9.629301071166992,1.7198210954666138,-0.6994074583053589
1788676382127652600,17.510652587890625,9.62598991394043,1.7500452995300293,-0.669360339641571
1788676382143780000,17.526780029296877,9.62389087677002,1.7739356756210327,-0.6358221173286438
1788676382159957200,17.542957275390624,9.624704360961914,1.785313367843628,-0.5900065302848816
1788676382176128000,17.5591279296875,9.628817558288574,1.7821974754333496,-0.5291845202445984
1788676382192279600,17.575279541015625,9.633271217346191,1.7733854055404663,-0.474953293800354
1788676382208441600,17.591441650390625,9.633487701416016,1.7806845903396606,-0.4421010911464691
1788676382224536800,17.607536865234376,9.62830924987793,1.8101104497909546,-0.43537795543670654
1788676382240713700,17.623713623046875,9.620892524719238,1.8446054458618164,-0.45414239168167114
1788676382256839700,17.639839599609374,9.613983154296875,1.8697035312652588,-0.49590566754341125
1788676382273000700,17.656000732421877,9.61130428314209,1.8710741996765137,-0.5406470894813538
1788676382289152800,17.67215283203125,9.613125801086426,1.8541109561920166,-0.5660941004753113
1788676382305258500,17.688258544921876,9.616645812988281,1.8330893516540527,-0.5747196674346924
1788676382321430500,17.704430419921874,9.616880416870117,1.830289363861084,-0.579684853553772
1788676382337554200,17.72055419921875,9.610694885253906,1.8534172773361206,-0.6081010103225708
1788676382353709300,17.736709228515625,9.602239608764648,1.8790034055709839,-0.6608466506004333
1788676382369900000,17.752900146484375,9.598541259765625,1.8793443441390991,-0.7116495966911316
1788676382386010600,17.7690107421875,9.602452278137207,1.8515821695327759,-0.7313913106918335
1788676382402182400,17.785182373046876,9.612151145935059,1.8101630210876465,-0.7072787284851074
1788676382418309000,17.80130908203125,9.620688438415527,1.7797703742980957,-0.6672021746635437
1788676382434444500,17.817444580078124,9.622255325317383,1.7801622152328491,-0.6431360840797424
1788676382450630400,17.83363037109375,9.61884593963623,1.8006126880645752,-0.6371755003929138
1788676382466747600,17.84974755859375,9.6154203414917,1.8155995607376099,-0.6462727189064026
1788676382482881500,17.865881591796875,9.614555358886719,1.8136987686157227,-0.6642331480979919
1788676382499026400,17.8820263671875,9.616811752319336,1.7976927757263184,-0.6749968528747559
1788676382515154400,17.898154541015625,9.620649337768555,1.7786747217178345,-0.6706799864768982
1788676382531353600,17.914353515625,9.624505043029785,1.762281894683838,-0.6585268378257751
1788676382547475500,17.930475341796875,9.627253532409668,1.7511297464370728,-0.6480177044868469
1788676382563635200,17.94663525390625,9.630254745483398,1.738688349723816,-0.6368348598480225
1788676382579794400,17.96279443359375,9.633309364318848,1.7230240106582642,-0.6331844329833984
1788676382595927000,17.978927001953124,9.635019302368164,1.7094520330429077,-0.6438711881637573
1788676382612129300,17.99512939453125,9.633541107177734,1.7063044309616089,-0.6736463904380798
1788676382628255700,18.011255859375,9.628158569335938,1.7209995985031128,-0.7121149301528931
1788676382644419600,18.027419677734375,9.620326042175293,1.7542500495910645,-0.7364183068275452
1788676382660540400,18.04354052734375,9.611056327819824,1.8036822080612183,-0.7380431890487671
1788676382676693500,18.059693603515626,9.60151195526123,1.8615844249725342,-0.7182306051254272
1788676382692902700,18.075902587890624,9.592824935913086,1.916621208190918,-0.6889553070068359
1788676382708990200,18.091990234375,9.586267471313477,1.9609534740447998,-0.6546273827552795
1788676382725164000,18.1081640625,9.581710815429688,1.9940277338027954,-0.6205249428749084
1788676382741289200,18.124289306640627,9.577291488647461,2.02242112159729,-0.5963899493217468
1788676382757460700,18.140460693359376,9.571599960327148,2.0525736808776855,-0.5846406817436218
1788676382773630700,18.156630615234373,9.565712928771973,2.08188533782959,-0.5773163437843323
1788676382789729800,18.172729736328126,9.56062126159668,2.1083531379699707,-0.5654670596122742
1788676382805863400,18.188863525390627,9.556544303894043,2.130965232849121,-0.5493959784507751
1788676382821997800,18.204997802734376,9.553905487060547,2.146749258041382,-0.5336222052574158
1788676382838160400,18.221160400390627,9.554052352905273,2.150919198989868,-0.5138409733772278
1788676382854334500,18.23733447265625,9.55927848815918,2.1363418102264404,-0.47606033086776733
1788676382870440200,18.253440185546875,9.568055152893066,2.107816457748413,-0.42405369877815247
1788676382886579500,18.269579345703125,9.577544212341309,2.074437379837036,-0.37112516164779663
1788676382902722000,18.28572216796875,9.590065002441406,2.0248241424560547,-0.3180103302001953
1788676382918874600,18.30187451171875,9.603702545166016,1.965160846710205,-0.27827802300453186
1788676382935018000,18.31801806640625,9.615934371948242,1.9062378406524658,-0.2654377818107605
1788676382951135500,18.334135498046876,9.627588272094727,1.8471639156341553,-0.26061227917671204
1788676382967314000,18.35031396484375,9.638361930847168,1.7930079698562622,-0.23979298770427704
1788676382983449900,18.366449951171877,9.64594554901123,1.7556800842285156,-0.20907095074653625
1788676382999562200,18.382562255859376,9.648935317993164,1.740728735923767,-0.1957031488418579
1788676383015766500,18.3987666015625,9.647677421569824,1.7451612949371338,-0.2170744389295578
1788676383031895800,18.414895751953125,9.64457893371582,1.7565172910690308,-0.25909942388534546
1788676383048050400,18.431050537109375,9.64150333404541,1.7655138969421387,-0.30783289670944214
1788676383064205800,18.447205810546876,9.640000343322754,1.7647144794464111,-0.3557533323764801
1788676383080335400,18.46333544921875,9.641571998596191,1.7501890659332275,-0.3838326632976532
1788676383096548600,18.479548583984375,9.646251678466797,1.7243592739105225,-0.3831530213356018
1788676383112642800,18.495642822265626,9.6526460647583,1.690682291984558,-0.37203502655029297
1788676383128821500,18.511821533203126,9.6594820022583,1.6552820205688477,-0.3533158004283905
1788676383144942300,18.5279423828125,9.665135383605957,1.6244748830795288,-0.3415099084377289
1788676383161093400,18.54409326171875,9.668160438537598,1.6057158708572388,-0.34458625316619873
1788676383177263600,18.560263671875,9.668386459350586,1.6027277708053589,-0.352083295583725
1788676383193356800,18.576356689453124,9.666875839233398,1.6068689823150635,-0.37398555874824524
1788676383209537500,18.59253759765625,9.665630340576172,1.6097819805145264,-0.3931694030761719
1788676383225672400,18.60867236328125,9.663784980773926,1.618608832359314,-0.40216735005378723
1788676383241835800,18.624835693359376,9.661337852478027,1.633751392364502,-0.3997405469417572
1788676383258013000,18.641012939453127,9.65929889678955,1.6471657752990723,-0.3939259648323059
1788676383274109000,18.65710888671875,9.658015251159668,1.6544023752212524,-0.39507147669792175
1788676383290245600,18.67324560546875,9.65644359588623,1.6601022481918335,-0.40932273864746094
1788676383306381600,18.689381591796874,9.653440475463867,1.6707866191864014,-0.4358223080635071
1788676383322547200,18.705547119140626,9.650283813476562,1.6834474802017212,-0.4565158486366272
1788676383338730200,18.721730224609374,9.647260665893555,1.6976948976516724,-0.4675273895263672
1788676383354838800,18.7378388671875,9.643689155578613,1.7146552801132202,-0.4791693091392517
1788676383370987000,18.753987060546876,9.637938499450684,1.7375335693359375,-0.511378824710846
1788676383387132400,18.77013232421875,9.629802703857422,1.7650489807128906,-0.5673636198043823
1788676383403223300,18.786223388671875,9.624500274658203,1.774863600730896,-0.6238930821418762
1788676383419419000,18.8024189453125,9.621186256408691,1.773697853088379,-0.676137387752533
1788676383435541500,18.81854150390625,9.619893074035645,1.7622811794281006,-0.7227779626846313
1788676383451699500,18.834699462890626,9.620259284973145,1.748214840888977,-0.7514990568161011
1788676383467852800,18.850852783203123,9.623374938964844,1.7242902517318726,-0.7667232155799866
1788676383483971000,18.86697119140625,9.629307746887207,1.6939380168914795,-0.7598620057106018
1788676383500110300,18.8831103515625,9.637288093566895,1.658955693244934,-0.7354788184165955
1788676383516235000,18.899235107421877,9.646556854248047,1.6198867559432983,-0.7002161145210266
1788676383532377000,18.915377197265624,9.656106948852539,1.5814342498779297,-0.6550214290618896
1788676383548524300,18.931524169921875,9.662296295166016,1.5568516254425049,-0.6217846870422363
1788676383564644400,18.947644287109377,9.662625312805176,1.5531002283096313,-0.626048743724823
1788676383580842500,18.963842529296876,9.659975051879883,1.5555777549743652,-0.6598830819129944
1788676383596981800,18.979981689453126,9.658525466918945,1.548723816871643,-0.6962294578552246
1788676383613149400,18.9961494140625,9.662138938903809,1.5229138135910034,-0.7029821872711182
1788676383629271000,19.01227099609375,9.66800594329834,1.4956830739974976,-0.6804205179214478
1788676383645425200,19.028425048828126,9.673368453979492,1.4834996461868286,-0.6289359927177429
1788676383661596200,19.04459619140625,9.679454803466797,1.4729852676391602,-0.5557335615158081
1788676383677697800,19.06069775390625,9.685733795166016,1.4542192220687866,-0.4921325147151947
1788676383693884700,19.076884765625,9.692081451416016,1.4280893802642822,-0.44102439284324646
1788676383710022400,19.0930224609375,9.69797420501709,1.3994922637939453,-0.401369571685791
1788676383726183400,19.109183349609374,9.701815605163574,1.3797590732574463,-0.37607014179229736
1788676383742352400,19.125352294921875,9.703164100646973,1.3749847412109375,-0.35834527015686035
1788676383758457300,19.141457275390625,9.702361106872559,1.3835893869400024,-0.34677615761756897
1788676383774593800,19.15759375,9.700377464294434,1.4001387357711792,-0.3356834053993225
1788676383790731300,19.173731201171876,9.697654724121094,1.4228214025497437,-0.31851932406425476
1788676383806893000,19.18989306640625,9.694342613220215,1.4510250091552734,-0.29090410470962524
1788676383823073000,19.206072998046874,9.691282272338867,1.4723305702209473,-0.2857935428619385
1788676383839180300,19.22218017578125,9.68858814239502,1.4896671772003174,-0.2872922122478485
1788676383855324400,19.238324462890624,9.68311882019043,1.5264002084732056,-0.2787429392337799
1788676383871473200,19.25447314453125,9.677404403686523,1.5673660039901733,-0.24819859862327576
1788676383887601000,19.270600830078124,9.671957969665527,1.6066347360610962,-0.20579513907432556
1788676383903799300,19.28679931640625,9.666549682617188,1.642749309539795,-0.17199181020259857
1788676383919921400,19.30292138671875,9.661700248718262,1.6721479892730713,-0.1607908308506012
1788676383936074200,19.31907421875,9.657856941223145,1.692514419555664,-0.17770305275917053
1788676383952230000,19.33522998046875,9.65579605102539,1.7023643255233765,-0.19477954506874084
1788676383968358700,19.351358642578123,9.65499496459961,1.7076820135116577,-0.18783530592918396
1788676383984515600,19.367515625,9.654729843139648,1.7123744487762451,-0.15609613060951233
1788676384000642300,19.383642333984376,9.655762672424316,1.7100098133087158,-0.11185082048177719
1788676384016802000,19.399802001953127,9.658116340637207,1.6988556385040283,-0.07124269753694534
1788676384032947200,19.415947265625,9.661187171936035,1.6821309328079224,-0.047830332070589066
1788676384049077800,19.432077880859374,9.665244102478027,1.658772349357605,-0.04378806799650192
1788676384065249000,19.4482490234375,9.671723365783691,1.6205086708068848,-0.04580364748835564
1788676384081344300,19.46434423828125,9.681344032287598,1.5622013807296753,-0.038634706288576126
1788676384097521700,19.480521728515626,9.693163871765137,1.4875997304916382,-0.0025891398545354605
1788676384113629200,19.496629150390625,9.702071189880371,1.4275050163269043,0.049224160611629486
1788676384129766100,19.51276611328125,9.705041885375977,1.405389428138733,0.08618135750293732
1788676384145881600,19.528881591796875,9.702678680419922,1.4206030368804932,0.10143599659204483
1788676384161978000,19.54497802734375,9.696313858032227,1.4637737274169922,0.09611958265304565
1788676384178147000,19.56114697265625,9.689169883728027,1.5116671323776245,0.0723939836025238
1788676384194273000,19.57727294921875,9.684730529785156,1.5411083698272705,0.037004254758358
1788676384210430500,19.593430419921877,9.684263229370117,1.5444746017456055,-0.006263809744268656
1788676384226613500,19.609613525390625,9.686671257019043,1.5286086797714233,-0.04632577300071716
1788676384242725400,19.625725341796876,9.690543174743652,1.5029327869415283,-0.07039733231067657
1788676384258828300,19.641828369140626,9.694234848022461,1.4786677360534668,-0.07579206675291061
1788676384274974000,19.657973876953125,9.696059226989746,1.4669631719589233,-0.06960102915763855
1788676384291145700,19.674145751953127,9.69551944732666,1.4709019660949707,-0.0610705204308033
1788676384307330600,19.69033056640625,9.69343090057373,1.4845499992370605,-0.06230751425027847
1788676384323444000,19.70644384765625,9.690823554992676,1.5008114576339722,-0.07677347958087921
1788676384339594000,19.722593994140624,9.68846607208252,1.514941692352295,-0.09465959668159485
1788676384355727400,19.738727294921876,9.686967849731445,1.5236223936080933,-0.10777151584625244
1788676384371872000,19.7548720703125,9.686463356018066,1.5268728733062744,-0.10711820423603058
1788676384388064300,19.771064208984374,9.686585426330566,1.5271703004837036,-0.09062793105840683
1788676384404186600,19.7871865234375,9.6868896484375,1.526663064956665,-0.06210428103804588
1788676384420338000,19.803337890625,9.687159538269043,1.526010274887085,-0.024928251281380653
1788676384436498700,19.819498779296875,9.686978340148926,1.5273314714431763,0.009589592926204205
1788676384452639000,19.835638916015625,9.685251235961914,1.538009762763977,0.028626959770917892
1788676384468849400,19.851849365234376,9.681565284729004,1.5611560344696045,0.02170782908797264
1788676384484984600,19.867984619140625,9.678542137145996,1.579936146736145,-0.00408792681992054
1788676384501134000,19.884134033203125,9.675347328186035,1.5987635850906372,-0.04468480125069618
1788676384517307100,19.90030712890625,9.67249870300293,1.6142865419387817,-0.08505064249038696
1788676384533462500,19.916462646484376,9.66989517211914,1.6284748315811157,-0.10759001970291138
1788676384549683200,19.93268310546875,9.665777206420898,1.6519367694854736,-0.11929573118686676
1788676384565777000,19.94877685546875,9.659445762634277,1.6873226165771484,-0.13579905033111572
1788676384581955800,19.964955810546876,9.652071952819824,1.7252808809280396,-0.17694902420043945
1788676384598091500,19.981091552734377,9.6447114944458,1.7558708190917969,-0.25853395462036133
1788676384614244900,19.997244873046874,9.640151023864746,1.7649096250534058,-0.3506672978401184
1788676384630421500,20.01342138671875,9.642935752868652,1.735848069190979,-0.41352638602256775
1788676384646523400,20.0295234375,9.653852462768555,1.6722596883773804,-0.42078590393066406
1788676384662685400,20.045685546875,9.667350769042969,1.6000033617019653,-0.3907594382762909
1788676384678804500,20.061804443359375,9.67736530303955,1.5456433296203613,-0.3605104684829712
1788676384694950700,20.07795068359375,9.68241024017334,1.5160926580429077,-0.35040947794914246
1788676384711129600,20.094129638671873,9.683656692504883,1.5034717321395874,-0.36981433629989624
1788676384727235300,20.1102353515625,9.68324089050293,1.4963958263397217,-0.4074774980545044
1788676384743369200,20.126369140625,9.683239936828613,1.488034963607788,-0.437045156955719
1788676384759509800,20.142509765625,9.68484115600586,1.4762904644012451,-0.4413619041442871
1788676384775677200,20.15867724609375,9.687923431396484,1.4611315727233887,-0.42381179332733154
1788676384791867600,20.17486767578125,9.691091537475586,1.4448084831237793,-0.40700292587280273
1788676384807982000,20.190982177734377,9.69332218170166,1.428959846496582,-0.4098483920097351
1788676384824126700,20.207126708984376,9.694780349731445,1.4126654863357544,-0.4312799870967865
1788676384840274000,20.22327392578125,9.694993019104004,1.4002268314361572,-0.46568527817726135
1788676384856450000,20.239449951171874,9.693796157836914,1.3940728902816772,-0.507199227809906
1788676384872649000,20.25564892578125,9.692094802856445,1.3930586576461792,-0.5413621664047241
1788676384888773600,20.271773681640624,9.689905166625977,1.401494026184082,-0.5585148930549622
1788676384904926000,20.287926025390625,9.686327934265137,1.4293644428253174,-0.5498799681663513
1788676384921084000,20.304083984375,9.680047988891602,1.4808648824691772,-0.5235382318496704
1788676384937215200,20.32021533203125,9.671748161315918,1.5434579849243164,-0.4953913688659668
1788676384953415200,20.336415283203124,9.664183616638184,1.5966047048568726,-0.47412899136543274
1788676384969546200,20.352546142578124,9.659394264221191,1.6282627582550049,-0.46395382285118103
1788676384985712400,20.36871240234375,9.656876564025879,1.6442313194274902,-0.4600292444229126
1788676385001878000,20.3848779296875,9.655170440673828,1.656420111656189,-0.4520547688007355
1788676385018027800,20.40102783203125,9.652423858642578,1.6727848052978516,-0.4504449963569641
1788676385034196000,20.417196044921877,9.647831916809082,1.6948156356811523,-0.4661840498447418
1788676385050291700,20.433291748046877,9.642502784729004,1.7153704166412354,-0.500033438205719
1788676385066466000,20.449466064453127,9.638093948364258,1.7328388690948486,-0.5242202281951904
1788676385082595600,20.465595703125,9.636024475097656,1.7490112781524658,-0.5083109140396118
1788676385098767400,20.481767333984376,9.63608169555664,1.762915849685669,-0.4565645158290863
1788676385114944800,20.49794482421875,9.63793659210205,1.7682890892028809,-0.392060250043869
1788676385131047700,20.514047607421876,9.640409469604492,1.7664453983306885,-0.3355075418949127
1788676385147220500,20.530220458984374,9.641777992248535,1.7638903856277466,-0.3085267245769501
1788676385163355100,20.546355224609375,9.642555236816406,1.7610845565795898,-0.30015233159065247
1788676385179520800,20.562520751953127,9.644623756408691,1.7509026527404785,-0.2931912839412689
1788676385195708400,20.57870849609375,9.650534629821777,1.7208607196807861,-0.2760370373725891
1788676385211820300,20.5948203125,9.660360336303711,1.6667455434799194,-0.2641696333885193
1788676385227998500,20.61099853515625,9.66780948638916,1.618692398071289,-0.28926897048950195
1788676385244129800,20.6271298828125,9.668380737304688,1.6036558151245117,-0.34799426794052124
1788676385260307500,20.643307373046873,9.661628723144531,1.626447081565857,-0.421876460313797
