time,seconds_elapsed,z,y,x
1788676364753991700,0.13699169921875,-8.197999954223633,-37.5880012512207,-5.963000297546387
1788676364770294000,0.1532939453125,-20.964000701904297,0.999000072479248,-22.61800193786621
1788676364786472200,0.16947216796875,-21.909000396728516,0.6860000491142273,-22.110000610351562
1788676364802541300,0.185541259765625,-20.229000091552734,1.2070000171661377,-23.025001525878906
1788676364818683400,0.201683349609375,-19.681001663208008,0.6740000247955322,-22.724000930786133
1788676364834822400,0.217822509765625,-18.82200050354004,0.675000011920929,-22.522001266479492
1788676364851011600,0.234011474609375,-20.543001174926758,0.7780000567436218,-23.02800178527832
1788676364867196400,0.250196533203125,-21.034000396728516,-0.7070000171661377,-22.022001266479492
1788676364883275800,0.26627587890625,-19.553001403808594,-0.1770000010728836,-22.325000762939453
1788676364899424500,0.282424560546875,-20.957000732421875,0.7870000600814819,-22.416000366210938
1788676364915565800,0.29856591796875,-20.6560001373291,1.5320000648498535,-22.81800079345703
1788676364931761000,0.314760986328125,-19.586000442504883,1.7470000982284546,-22.613000869750977
1788676364947955200,0.330955078125,-20.631000518798828,0.8980000615119934,-22.110000610351562
1788676364964046000,0.347046142578125,-19.793001174926758,0.8870000243186951,-22.82400131225586
1788676364980205600,0.36320556640625,-20.749000549316406,0.24300001561641693,-23.032001495361328
1788676364996301800,0.3793017578125,-17.036001205444336,0.33000001311302185,-24.05500030517578
1788676365012513800,0.395513671875,-18.00200080871582,0.005000000353902578,-24.464000701904297
1788676365028722700,0.41172265625,-18.012001037597656,1.0789999961853027,-24.251001358032227
1788676365044874500,0.42787451171875,-20.007001876831055,0.45500001311302185,-23.13300132751465
1788676365060999000,0.4439990234375,-19.350000381469727,-0.07600000500679016,-22.731000900268555
1788676365077111000,0.460111083984375,-21.08700180053711,0.8810000419616699,-23.434001922607422
1788676365093324500,0.476324462890625,-20.23400115966797,1.4200000762939453,-23.125001907348633
1788676365109487000,0.492487060546875,-17.157001495361328,3.0240001678466797,-23.01300048828125
1788676365125551400,0.50855126953125,-19.498001098632812,1.627000093460083,-23.531002044677734
1788676365141684000,0.52468408203125,-20.22300148010254,1.1019999980926514,-22.82200050354004
1788676365157807900,0.540807861328125,-18.71700096130371,0.3500000238418579,-22.830001831054688
1788676365173986600,0.556986572265625,-19.168001174926758,1.2010000944137573,-23.332000732421875
1788676365190163700,0.573163818359375,-18.533000946044922,0.656000018119812,-23.948001861572266
1788676365206235100,0.589235107421875,-18.733001708984375,0.01600000075995922,-23.750001907348633
1788676365222383400,0.60538330078125,-18.39900016784668,0.45600003004074097,-22.830001831054688
1788676365238519600,0.62151953125,-17.983001708984375,0.4490000307559967,-23.340002059936523
1788676365254711000,0.6377109375,-18.86400032043457,2.2710001468658447,-23.424001693725586
1788676365270900700,0.653900634765625,-18.5260009765625,0.7680000066757202,-23.540000915527344
1788676365286978300,0.669978271484375,-20.108001708984375,0.999000072479248,-22.517000198364258
1788676365303132200,0.686132080078125,-19.61600112915039,1.7290000915527344,-23.93800163269043
1788676365319275300,0.702275146484375,-18.95800018310547,0.9820000529289246,-23.639001846313477
1788676365335478800,0.718478759765625,-18.075000762939453,0.5660000443458557,-22.626001358032227
1788676365351677200,0.73467724609375,-17.237001419067383,1.527000069618225,-22.720001220703125
1788676365367763500,0.750763427734375,-19.365001678466797,0.3460000157356262,-23.135000228881836
1788676365383928600,0.766928466796875,-19.362001419067383,0.9960000514984131,-22.6200008392334
1788676365400033000,0.783032958984375,-18.743000030517578,1.1990000009536743,-23.434001922607422
1788676365416242700,0.79924267578125,-17.47100067138672,0.43400001525878906,-24.35900115966797
1788676365432447700,0.81544775390625,-18.09400177001953,-0.20100000500679016,-23.957000732421875
1788676365448546600,0.831546630859375,-17.790000915527344,0.9760000705718994,-23.94700050354004
1788676365464719000,0.847718994140625,-17.993000030517578,0.010000000707805157,-24.0570011138916
1788676365480830700,0.863830810546875,-20.442001342773438,-0.6290000081062317,-24.161001205444336
1788676365496998000,0.879997802734375,-17.552000045776367,1.6390000581741333,-22.413002014160156
1788676365513159700,0.89615966796875,-18.190000534057617,0.9930000305175781,-22.724000930786133
1788676365529256700,0.912256591796875,-18.85300064086914,1.0890001058578491,-23.639001846313477
1788676365545381000,0.928381103515625,-19.054000854492188,-0.3070000112056732,-23.95600128173828
1788676365561501000,0.9445009765625,-19.59600067138672,0.12000000476837158,-24.054000854492188
1788676365577673200,0.960673095703125,-18.078001022338867,-0.40800002217292786,-23.347002029418945
1788676365593849300,0.976849365234375,-20.226001739501953,1.8560000658035278,-22.510000228881836
1788676365609961200,0.992961181640625,-20.256000518798828,0.8660000562667847,-24.45400047302246
1788676365626097400,1.009097412109375,-18.3070011138916,1.0950000286102295,-23.130001068115234
1788676365642228700,1.025228759765625,-19.168001174926758,1.0920000076293945,-23.434001922607422
1788676365658413600,1.04141357421875,-19.676000595092773,-0.6190000176429749,-23.347002029418945
1788676365674595300,1.05759521484375,-18.53900146484375,0.4360000193119049,-24.358001708984375
1788676365690671600,1.073671630859375,-20.671001434326172,1.5220000743865967,-23.531002044677734
1788676365706809900,1.089809814453125,-19.398000717163086,0.7590000629425049,-24.354001998901367
1788676365722948400,1.1059482421875,-19.365001678466797,1.5350000858306885,-22.41200065612793
1788676365739140900,1.122140869140625,-18.315000534057617,0.6580000519752502,-23.7450008392334
1788676365755327700,1.13832763671875,-20,0.1340000033378601,-23.034000396728516
1788676365771407600,1.15440771484375,-19.892000198364258,0.6760000586509705,-22.62200164794922
1788676365787561700,1.170561767578125,-17.829999923706055,-0.9270000457763672,-22.130001068115234
1788676365803656700,1.18665673828125,-19.713001251220703,1.7350001335144043,-23.530000686645508
1788676365819859000,1.20285888671875,-19.279001235961914,1.1980000734329224,-23.535001754760742
1788676365836055300,1.21905517578125,-18.748001098632812,1.0870000123977661,-23.74100112915039
1788676365852148200,1.235148193359375,-18.858001708984375,0.9780000448226929,-23.94500160217285
1788676365868311300,1.251311279296875,-20.218000411987305,0.781000018119812,-22.825000762939453
1788676365884403200,1.2674033203125,-17.81100082397461,3.3410000801086426,-23.416000366210938
1788676365900608000,1.28360791015625,-18.736000061035156,-0.30900001525878906,-24.059001922607422
1788676365916814800,1.29981494140625,-19.470001220703125,-0.08400000631809235,-23.343000411987305
1788676365932915500,1.31591552734375,-18.530000686645508,1.7380000352859497,-23.124000549316406
1788676365949086200,1.332086181640625,-20.22100067138672,-0.625,-23.856000900268555
1788676365965200400,1.348200439453125,-20.435001373291016,0.023000001907348633,-23.442001342773438
1788676365981358000,1.364358154296875,-21.00800132751465,0.8640000224113464,-24.657001495361328
1788676365997567700,1.380567626953125,-19.567001342773438,0.029000001028180122,-22.832000732421875
1788676366013681000,1.396680908203125,-20.533000946044922,0.5680000185966492,-22.724000930786133
1788676366029814000,1.41281396484375,-18.522001266479492,1.311000108718872,-23.0260009765625
1788676366045935000,1.42893505859375,-20.203001022338867,0.1420000046491623,-22.525001525878906
1788676366062113800,1.44511376953125,-18.72300148010254,-0.4090000092983246,-23.55000114440918
1788676366078289000,1.461288818359375,-20.975000381469727,0.12800000607967377,-23.644001007080078
1788676366094357000,1.47735693359375,-20.009000778198242,-0.734000027179718,-23.959001541137695
1788676366110498600,1.49349853515625,-20.934001922607422,-0.49500003457069397,-22.224000930786133
1788676366126632200,1.509632080078125,-20.321001052856445,-1.1610000133514404,-23.860000610351562
1788676366142820000,1.525820068359375,-20.33100128173828,-0.6270000338554382,-23.9580020904541
1788676366159000000,1.542,-17.66200065612793,-0.09100000560283661,-23.6510009765625
1788676366175079200,1.5580791015625,-19.029001235961914,-1.5890001058578491,-23.66200065612793
1788676366191236400,1.574236328125,-19.345001220703125,-0.289000004529953,-22.632001876831055
1788676366207378400,1.59037841796875,-19.362001419067383,-1.1640000343322754,-23.963001251220703
1788676366223573000,1.606572998046875,-20.73400115966797,-1.6920000314712524,-23.559001922607422
1788676366239763500,1.622763427734375,-17.410001754760742,-2.3380000591278076,-23.365001678466797
1788676366255849000,1.638848876953125,-18.39000129699707,-0.2939999997615814,-22.93800163269043
1788676366272007400,1.65500732421875,-18.516000747680664,-0.4140000343322754,-23.856000900268555
1788676366288105500,1.67110546875,-20.093000411987305,-1.0450000762939453,-23.147001266479492
1788676366304302600,1.687302490234375,-20.738000869750977,-1.5860000848770142,-23.660001754760742
1788676366320506000,1.703506103515625,-20.16200065612793,-1.9940000772476196,-22.034000396728516
1788676366336596000,1.719595947265625,-20.091001510620117,-0.39500001072883606,-22.632001876831055
1788676366352757200,1.73575732421875,-20.211000442504883,-2.240000009536743,-24.37900161743164
1788676366368864000,1.751864013671875,-21.157001495361328,-1.1490000486373901,-23.04400062561035
1788676366385076500,1.768076416015625,-20.71200180053711,-0.8140000104904175,-22.023000717163086
1788676366401279200,1.784279296875,-19.564001083374023,-1.1570000648498535,-23.45400047302246
1788676366417377000,1.800376953125,-20.3070011138916,-0.8290000557899475,-23.043001174926758
1788676366433509400,1.81650927734375,-18.503000259399414,-2.0270001888275146,-24.27800178527832
1788676366449629200,1.832629150390625,-19.868000030517578,-0.39000001549720764,-22.224000930786133
1788676366465802200,1.84880224609375,-18.922000885009766,-0.6160000562667847,-23.042001724243164
1788676366481972000,1.864971923828125,-19.214000701904297,-2.6520001888275146,-23.060001373291016
1788676366498084900,1.8810849609375,-20.4010009765625,-2.442000150680542,-23.464000701904297
1788676366514216200,1.89721630859375,-19.645000457763672,-1.249000072479248,-22.334001541137695
1788676366530337000,1.9133369140625,-20.839000701904297,-1.475000023841858,-23.35300064086914
1788676366546513200,1.92951318359375,-21.23200035095215,-1.7780001163482666,-22.0310001373291
1788676366562682600,1.9456826171875,-21.58100128173828,-0.7140000462532043,-22.632001876831055
1788676366578800400,1.96180029296875,-20.421001434326172,-0.8330000638961792,-23.34800148010254
1788676366594961400,1.97796142578125,-18.71000099182129,-0.8340000510215759,-23.248001098632812
1788676366611039700,1.994039794921875,-20.203001022338867,-0.5060000419616699,-22.93800163269043
1788676366627227400,2.010227294921875,-19.126001358032227,-1.7990001440048218,-23.358001708984375
1788676366643411200,2.0264111328125,-18.808000564575195,-2.450000047683716,-23.874000549316406
1788676366659489800,2.04248974609375,-20.828001022338867,-2.44100022315979,-23.464000701904297
1788676366675636200,2.05863623046875,-20.468000411987305,-2.5250000953674316,-21.733001708984375
1788676366691772200,2.074772216796875,-21.82000160217285,-0.18900001049041748,-23.442001342773438
1788676366707967000,2.090967041015625,-20.599000930786133,-2.2160000801086426,-22.647001266479492
1788676366724152300,2.10715234375,-19.30900001525879,-2.2120001316070557,-22.24100112915039
1788676366740231000,2.12323095703125,-19.461000442504883,-1.915000081062317,-24.07200050354004
1788676366756389000,2.13938916015625,-19.23200035095215,-2.6630001068115234,-23.875001907348633
1788676366772485400,2.1554853515625,-21.147001266479492,-1.5750000476837158,-22.84400177001953
1788676366788685600,2.171685546875,-20.405000686645508,-2.7690000534057617,-23.874000549316406
1788676366804881700,2.187881591796875,-20.861000061035156,-1.7040001153945923,-24.476001739501953
1788676366820971000,2.203970947265625,-20.679000854492188,-3.821000099182129,-22.457000732421875
1788676366837135600,2.220135498046875,-20.285001754760742,-2.760000228881836,-23.26300048828125
1788676366853237800,2.23623779296875,-19.75,-3.517000198364258,-23.678001403808594
1788676366869450000,2.252449951171875,-21.46500015258789,-2.870000123977661,-23.56800079345703
1788676366885655800,2.26865576171875,-19.352001190185547,-1.9140000343322754,-23.970001220703125
1788676366901762800,2.2847626953125,-19.85500144958496,-2.9750001430511475,-23.266000747680664
1788676366917897200,2.300897216796875,-19.865001678466797,-2.117000102996826,-23.156002044677734
1788676366934017500,2.317017578125,-20.642000198364258,-2.890000104904175,-24.996000289916992
1788676366950242800,2.333242919921875,-21.309001922607422,-3.5970001220703125,-21.843000411987305
1788676366966459100,2.349459228515625,-20.295000076293945,-1.686000108718872,-23.05000114440918
1788676366982575000,2.3655751953125,-19.44500160217285,-1.5820000171661377,-23.152000427246094
1788676366998716000,2.3817158203125,-19.753000259399414,-1.790000081062317,-22.746000289916992
1788676367014847000,2.397846923828125,-21.358001708984375,-1.8970000743865967,-22.94900131225586
1788676367031032000,2.414031982421875,-20.910001754760742,-2.1010000705718994,-22.136001586914062
1788676367047213600,2.430213623046875,-21.163000106811523,-2.3410000801086426,-24.073001861572266
1788676367063285200,2.44628515625,-21.330001831054688,-3.6090002059936523,-22.760000228881836
1788676367079431700,2.462431640625,-21.082000732421875,-3.5890002250671387,-21.23200035095215
1788676367095571000,2.478571044921875,-19.532001495361328,-2.9750001430511475,-23.16400146484375
1788676367111762200,2.49476220703125,-21.124000549316406,-2.2100000381469727,-22.23900032043457
1788676367127950300,2.510950439453125,-20.602001190185547,-3.514000177383423,-23.575000762939453
1788676367144027000,2.52702685546875,-22.64000129699707,-3.192000150680542,-23.774002075195312
1788676367160179700,2.5431796875,-19.966001510620117,-2.870000123977661,-23.367000579833984
1788676367176319500,2.559319580078125,-19.427000045776367,-2.5430002212524414,-22.957000732421875
1788676367192511500,2.575511474609375,-21.317001342773438,-1.873000144958496,-21.115001678466797
1788676367208701700,2.59170166015625,-21.35500144958496,-2.760000228881836,-23.36400032043457
1788676367224785000,2.607784912109375,-19.113000869750977,-1.2510000467300415,-22.437000274658203
1788676367240950000,2.623949951171875,-20.862001419067383,-0.6240000128746033,-23.85500144958496
1788676367257053000,2.640052978515625,-21.782001495361328,-3.4080002307891846,-23.7760009765625
1788676367273257000,2.656257080078125,-21.707000732421875,-1.8060001134872437,-24.170001983642578
1788676367289457400,2.67245751953125,-20.4950008392334,-1.5690001249313354,-22.336000442504883
1788676367305547500,2.688547607421875,-20.623001098632812,-2.014000177383423,-23.562000274658203
1788676367321715200,2.704715087890625,-21.895000457763672,-2.3310000896453857,-23.35900115966797
1788676367337822000,2.720822021484375,-20.253000259399414,-2.633000135421753,-21.73400115966797
1788676367354028800,2.73702880859375,-20.799001693725586,-2.2070000171661377,-22.035001754760742
1788676367370240800,2.75324072265625,-20.407001495361328,-1.689000129699707,-23.25400161743164
1788676367386339000,2.769339111328125,-20.18600082397461,-2.873000144958496,-23.672000885009766
1788676367402514700,2.7855146484375,-21.0210018157959,-2.1040000915527344,-22.34000015258789
1788676367418630100,2.801630126953125,-20.713001251220703,-2.5440001487731934,-23.159000396728516
1788676367434801000,2.81780078125,-21.05000114440918,-1.4730000495910645,-23.251001358032227
1788676367451011800,2.83401171875,-22.132001876831055,-1.4800000190734863,-23.86100196838379
1788676367467113500,2.850113525390625,-20.010000228881836,-1.4910000562667847,-24.475000381469727
1788676367483242800,2.86624267578125,-20.50400161743164,-2.007000207901001,-23.053001403808594
1788676367499364000,2.882364013671875,-20.82900047302246,-2.874000072479248,-23.773000717163086
1788676367515542300,2.898542236328125,-22.006000518798828,-2.009000062942505,-23.356000900268555
1788676367531714300,2.91471435546875,-21.13300132751465,-1.2420001029968262,-22.0260009765625
1788676367547826400,2.930826416015625,-20.522001266479492,-1.9100000858306885,-23.76500129699707
1788676367563961900,2.9469619140625,-20.57900047302246,-1.3390001058578491,-21.213001251220703
1788676367580089900,2.96308984375,-19.860000610351562,-3.0870001316070557,-23.57200050354004
1788676367596274700,2.979274658203125,-20.21000099182129,-1.4830000400543213,-23.863000869750977
1788676367612456700,2.995456787109375,-20.283000946044922,-1.246000051498413,-22.231000900268555
1788676367628533500,3.011533447265625,-18.711000442504883,-2.7790000438690186,-24.488000869750977
1788676367644679400,3.027679443359375,-18.665000915527344,-2.9680001735687256,-22.554000854492188
1788676367660820700,3.04382080078125,-20.4060001373291,-1.5800000429153442,-23.1510009765625
1788676367677009700,3.060009765625,-19.233001708984375,-1.7990001440048218,-23.358001708984375
1788676367693201200,3.076201171875,-19.34600067138672,-1.4790000915527344,-23.457000732421875
1788676367709281300,3.09228125,-21.35700035095215,-2.1130001544952393,-23.053001403808594
1788676367725437400,3.1084375,-20.4950008392334,-3.190000057220459,-23.369001388549805
1788676367741529600,3.124529541015625,-17.836000442504883,-1.25600004196167,-22.642000198364258
1788676367757732600,3.140732666015625,-19.554000854492188,-1.2580000162124634,-23.047000885009766
1788676367773930800,3.1569306640625,-19.012001037597656,-1.0380001068115234,-22.53700065612793
1788676367790022000,3.17302197265625,-19.874000549316406,-0.9340000152587891,-22.84000015258789
1788676367806183400,3.189183349609375,-21.25400161743164,-2.6560001373291016,-23.567001342773438
1788676367822277400,3.20527734375,-19.131999969482422,-2.559000015258789,-24.078001022338867
1788676367838491000,3.221490966796875,-18.791000366210938,-2.5470001697540283,-23.161001205444336
1788676367854699800,3.23769970703125,-20.21200180053711,-0.5110000371932983,-23.345001220703125
1788676367870807000,3.25380712890625,-20.21200180053711,-2.7810001373291016,-24.792001724243164
1788676367886937600,3.2699375,-18.273000717163086,-1.693000078201294,-23.358001708984375
1788676367903049700,3.2860498046875,-20.39900016784668,-1.9000000953674316,-23.052001953125
1788676367919215900,3.3022158203125,-18.909000396728516,-1.0410000085830688,-22.74100112915039
1788676367935382300,3.31838232421875,-19.446001052856445,-1.3660000562667847,-23.04800033569336
1788676367951443200,3.334443115234375,-20,-2.0260000228881836,-24.378000259399414
1788676367967575300,3.3505751953125,-21.067001342773438,-0.07900000363588333,-23.137001037597656
1788676367983696600,3.366696533203125,-17.637001037597656,-1.6970000267028809,-23.56300163269043
1788676367999874600,3.38287451171875,-16.659000396728516,-2.120000123977661,-23.059001922607422
1788676368016049200,3.399049072265625,-18.700000762939453,-1.3680000305175781,-23.1510009765625
1788676368032115000,3.415114990234375,-18.293001174926758,-1.9210001230239868,-24.37900161743164
1788676368048256300,3.43125634765625,-19.046001434326172,-2.0310001373291016,-24.685001373291016
1788676368064391000,3.447390869140625,-17.624000549316406,-1.1490000486373901,-22.641000747680664
1788676368080574000,3.463573974609375,-17.45400047302246,-0.6350000500679016,-24.26700210571289
1788676368096752400,3.47975244140625,-19.336000442504883,-1.5800000429153442,-23.05000114440918
1788676368112822000,3.495822021484375,-17.236000061035156,-1.821000099182129,-24.78700065612793
1788676368128969700,3.5119697265625,-17.319000244140625,-2.0230000019073486,-23.87200164794922
1788676368145105400,3.52810546875,-17.032001495361328,-1.287000060081482,-24.884000778198242
1788676368161292500,3.54429248046875,-18.843000411987305,-0.9570000171661377,-24.472002029418945
1788676368177476400,3.560476318359375,-16.84800148010254,-0.9810000658035278,-26.00200080871582
1788676368193548800,3.576548828125,-16.157001495361328,-0.843000054359436,-23.659000396728516
1788676368209701600,3.59270166015625,-17.270999908447266,-0.43800002336502075,-25.488000869750977
1788676368225837600,3.608837646484375,-17.492000579833984,1.0700000524520874,-24.863000869750977
1788676368242030600,3.625030517578125,-16.80500030517578,-0.9550000429153442,-24.067001342773438
1788676368258224600,3.641224609375,-15.446001052856445,-0.6510000228881836,-25.18600082397461
1788676368274307600,3.6573076171875,-17.06800079345703,0.203000009059906,-25.584001541137695
1788676368290470100,3.67347021484375,-16.194000244140625,-1.4070000648498535,-25.70100212097168
1788676368306572300,3.689572265625,-16.421001434326172,-0.11700000613927841,-25.48600196838379
1788676368322776300,3.7057763671875,-15.05000114440918,-0.23800000548362732,-26.304000854492188
1788676368338979600,3.7219794921875,-15.324000358581543,-1.3980001211166382,-24.98900032043457
1788676368355054000,3.73805419921875,-14.81100082397461,-0.5470000505447388,-25.39000129699707
1788676368371206000,3.754205810546875,-17.619001388549805,1.7070001363754272,-25.36600112915039
1788676368387312600,3.770312744140625,-14.830000877380371,1.602000117301941,-24.862001419067383
1788676368403510300,3.78651025390625,-15.393000602722168,2.125,-25.875001907348633
1788676368419720200,3.80272021484375,-14.28600025177002,2.688000202178955,-23.73200035095215
1788676368435808000,3.81880810546875,-14.625000953674316,-0.024000000208616257,-26.302001953125
1788676368451914500,3.83491455078125,-14.608000755310059,0.5260000228881836,-25.177001953125
1788676368468026600,3.851026611328125,-16.44099998474121,1.1660000085830688,-25.57600212097168
1788676368484191000,3.86719091796875,-17.29800033569336,1.4910000562667847,-25.47100067138672
1788676368500362500,3.883362548828125,-16.197999954223633,0.3190000057220459,-24.769001007080078
1788676368516472300,3.899472412109375,-15.402000427246094,2.444000005722046,-26.07600212097168
1788676368532609000,3.915609130859375,-16.104000091552734,1.284000039100647,-24.761001586914062
1788676368548740400,3.931740234375,-17.50400161743164,1.8190001249313354,-24.9580020904541
1788676368564926500,3.947926513671875,-15.37700080871582,1.2700001001358032,-25.679000854492188
1788676368581104600,3.964104736328125,-14.506000518798828,1.1710000038146973,-24.968000411987305
1788676368597179600,3.9801796875,-17.159000396728516,0.9700000286102295,-24.35500144958496
1788676368613325800,3.996325927734375,-14.628000259399414,1.4860000610351562,-25.474000930786133
1788676368629466600,4.012466552734375,-16.42300033569336,0.20400001108646393,-25.381000518798828
1788676368645664300,4.028664306640625,-15.789000511169434,2.1450002193450928,-24.448001861572266
1788676368661851100,4.04485107421875,-17.70800018310547,2.5820000171661377,-24.034000396728516
1788676368677924600,4.060924560546875,-15.572000503540039,1.9300000667572021,-24.450000762939453
1788676368694078700,4.07707861328125,-15.142001152038574,2.688000202178955,-23.83300018310547
1788676368710173400,4.09317333984375,-16.98900032043457,1.6990001201629639,-25.87700080871582
1788676368726376400,4.10937646484375,-15.460000991821289,0.8530000448226929,-24.867000579833984
1788676368742576400,4.125576416015625,-16.886001586914062,2.129000186920166,-25.7710018157959
1788676368758669800,4.141669921875,-15.06100082397461,2.564000129699707,-25.0570011138916
1788676368774827500,4.15782763671875,-16.856000900268555,0.7420000433921814,-25.274002075195312
1788676368790920200,4.173920166015625,-15.581000328063965,2.682000160217285,-24.34200096130371
1788676368807135700,4.1901357421875,-16.83300018310547,2.0530002117156982,-23.429000854492188
1788676368823348500,4.206348388671875,-14.769001007080078,2.439000129699707,-26.382001876831055
1788676368839456500,4.22245654296875,-17.368000030517578,1.1880000829696655,-24.047000885009766
1788676368855584500,4.23858447265625,-15.905000686645508,3.004000186920166,-24.339000701904297
1788676368871708700,4.254708740234375,-17.51300048828125,2.138000011444092,-25.159000396728516
1788676368887885000,4.270885009765625,-17.501001358032227,1.6050000190734863,-24.96000099182129
1788676368904061400,4.2870615234375,-15.710000991821289,2.993000030517578,-25.154001235961914
1788676368920131600,4.303131591796875,-16.775001525878906,2.996000051498413,-25.051000595092773
1788676368936270000,4.31927001953125,-18.1200008392334,2.4840002059936523,-23.424001693725586
1788676368952398000,4.335398193359375,-17.694000244140625,1.7260000705718994,-23.940000534057617
1788676368968581600,4.35158154296875,-16.463001251220703,2.558000087738037,-25.666000366210938
1788676368984763000,4.367762939453125,-16.72300148010254,2.703000068664551,-22.91400146484375
1788676369000838100,4.383838134765625,-17.415000915527344,4.078000068664551,-24.327001571655273
1788676369016987100,4.399987060546875,-17.284000396728516,3.120000123977661,-23.826000213623047
1788676369033129000,4.41612890625,-16.644001007080078,2.0380001068115234,-24.55000114440918
1788676369049313800,4.432313720703125,-16.119001388549805,4.625,-23.30500030517578
1788676369065501000,4.4485009765625,-18.552000045776367,2.373000144958496,-23.73000144958496
1788676369081579800,4.464579833984375,-16.53900146484375,2.7930002212524414,-24.136001586914062
1788676369097737500,4.480737548828125,-16.545000076293945,2.7890000343322754,-24.441001892089844
1788676369113836300,4.496836181640625,-17.942001342773438,2.8940000534057617,-24.744001388549805
1788676369130038000,4.5130380859375,-15.50100040435791,2.989000082015991,-25.358001708984375
1788676369146237700,4.52923779296875,-17.48900032043457,1.7200000286102295,-24.34800148010254
1788676369162328000,4.545328125,-18.260000228881836,3.436000108718872,-24.332000732421875
1788676369178493200,4.5614931640625,-16.777999877929688,2.3460001945495605,-25.566001892089844
1788676369194594800,4.5775947265625,-17.111000061035156,3.4190001487731934,-25.45400047302246
1788676369210803200,4.59380322265625,-16.676000595092773,3.207000255584717,-25.253000259399414
1788676369227003100,4.610003173828125,-18.58100128173828,3.9770002365112305,-24.0210018157959
1788676369243098400,4.626098388671875,-16.56300163269043,3.2110002040863037,-24.94700050354004
1788676369259272700,4.642272705078125,-14.850000381469727,2.7780001163482666,-25.05500030517578
1788676369275380700,4.658380615234375,-14.421000480651855,2.7790000438690186,-24.95400047302246
1788676369291596300,4.67459619140625,-14.099000930786133,2.4560000896453857,-25.059001922607422
1788676369307808000,4.69080810546875,-14.135000228881836,3.082000255584717,-26.2760009765625
1788676369323904800,4.70690478515625,-14.442000389099121,2.9820001125335693,-25.76700210571289
1788676369340077800,4.723077880859375,-14.949000358581543,2.6750001907348633,-24.750001907348633
1788676369356193300,4.739193359375,-15.17400074005127,2.885000228881836,-25.155000686645508
1788676369372352800,4.755352783203125,-16.336000442504883,2.570000171661377,-24.749000549316406
1788676369388518000,4.771517822265625,-16.770999908447266,2.998000144958496,-24.847002029418945
1788676369404614700,4.78761474609375,-17.06800079345703,1.1759999990463257,-24.964000701904297
1788676369420731600,4.803731689453125,-15.692000389099121,2.3550000190734863,-24.75200080871582
1788676369436854800,4.819854736328125,-15.809000968933105,2.241000175476074,-25.262001037597656
1788676369453027300,4.83602734375,-14.178000450134277,1.284000039100647,-24.560001373291016
1788676369469204500,4.85220458984375,-15.461000442504883,1.069000005722046,-24.764001846313477
1788676369485314600,4.868314453125,-13.262001037597656,2.876000165939331,-25.565000534057617
1788676369501448700,4.88444873046875,-15.81100082397461,2.240000009536743,-25.36400032043457
1788676369517580800,4.900580810546875,-14.130001068115234,2.436000108718872,-26.485000610351562
1788676369533767000,4.916766845703125,-15.817000389099121,2.0199999809265137,-25.773000717163086
1788676369549954300,4.932954345703125,-16.873001098632812,1.8130000829696655,-25.367000579833984
1788676369566036000,4.949035888671875,-17.08500099182129,1.0570000410079956,-25.780000686645508
1788676369582182400,4.965182373046875,-15.168001174926758,2.240000009536743,-25.26300048828125
1788676369598264800,4.981264892578125,-17.31800079345703,2.7750000953674316,-25.56100082397461
1788676369614422500,4.997422607421875,-14.623001098632812,2.570000171661377,-24.54800033569336
1788676369630616800,5.013616943359375,-15.821001052856445,2.450000047683716,-25.668001174926758
1788676369646704600,5.02970458984375,-16.516000747680664,0.8610000610351562,-24.35700035095215
1788676369662860500,5.045860595703125,-17.703001022338867,2.261000156402588,-24.03700065612793
1788676369678954200,5.061954345703125,-17.104000091552734,1.4780000448226929,-26.38800048828125
1788676369695162400,5.078162353515625,-16.876001358032227,2.567000150680542,-25.054000854492188
1788676369711365600,5.09436572265625,-17.59800148010254,0.531000018119812,-25.17300033569336
1788676369727455200,5.110455322265625,-16.82900047302246,0.11000000685453415,-24.465002059936523
1788676369743617000,5.126616943359375,-18.10900115966797,0.8690000176429749,-23.94700050354004
1788676369759708000,5.1427080078125,-16.095001220703125,0.42500001192092896,-24.8700008392334
1788676369775921000,5.1589208984375,-18.303001403808594,-0.8470000624656677,-24.166000366210938
1788676369792128500,5.17512841796875,-18.32900047302246,0.21700000762939453,-24.666000366210938
1788676369808238600,5.191238525390625,-19.790000915527344,0.9970000386238098,-22.6200008392334
1788676369824413400,5.207413330078125,-20.21700096130371,1.3220000267028809,-22.41200065612793
1788676369840524300,5.223524169921875,-20.431001663208008,0.5649999976158142,-22.928001403808594
1788676369856741600,5.23974169921875,-20.025001525878906,0.4440000355243683,-23.948001861572266
1788676369872905000,5.255905029296875,-20.397001266479492,0.9100000262260437,-21.19300079345703
1788676369889012200,5.27201220703125,-21.924001693725586,0.7850000262260437,-22.72100067138672
1788676369905140000,5.288139892578125,-21.059001922607422,1.4390000104904175,-21.799001693725586
1788676369921261600,5.304261474609375,-22.009000778198242,-0.8220000267028809,-22.735000610351562
1788676369937421800,5.320421875,-23.187000274658203,1.2300000190734863,-21.595001220703125
1788676369953599700,5.336599853515625,-20.434001922607422,1.752000093460083,-22.3070011138916
1788676369969708300,5.352708251953125,-21.929000854492188,2.0789999961853027,-22.09800148010254
1788676369985838800,5.3688388671875,-20.777000427246094,2.063000202178955,-23.11800193786621
1788676370001978400,5.384978271484375,-20.00400161743164,1.2130000591278076,-22.516000747680664
1788676370018166000,5.401166015625,-21.42500114440918,3.140000104904175,-22.802001953125
1788676370034353700,5.417353759765625,-21.924001693725586,0.893000066280365,-22.61800193786621
1788676370050427400,5.433427490234375,-21.519001007080078,2.7160000801086426,-22.500001907348633
1788676370066580000,5.449580078125,-21.832000732421875,3.1530001163482666,-21.885000228881836
1788676370082720800,5.465720703125,-21.91900062561035,2.193000078201294,-21.588001251220703
1788676370098914000,5.4819140625,-20.661001205444336,3.9060001373291016,-21.57400131225586
1788676370115160800,5.498160888671875,-21.292001724243164,2.508000135421753,-21.99300193786621
1788676370131243000,5.514242919921875,-20.552000045776367,2.3940000534057617,-22.40300178527832
1788676370147404300,5.530404296875,-21.09200096130371,3.364000082015991,-22.088001251220703
1788676370163499300,5.546499267578125,-21.51300048828125,1.099000096321106,-23.22800064086914
1788676370179705300,5.562705322265625,-21.099000930786133,2.7110002040863037,-22.8070011138916
1788676370195908000,5.578908203125,-22.33500099182129,1.7680001258850098,-21.387001037597656
1788676370211998700,5.594998779296875,-22.03700065612793,3.0510001182556152,-21.580001831054688
1788676370228160500,5.611160400390625,-21.477001190185547,1.9850001335144043,-21.08100128173828
1788676370244264700,5.6272646484375,-23.4320011138916,2.509000062942505,-22.194000244140625
1788676370260476400,5.643476318359375,-21.512001037597656,2.504000186920166,-22.29800033569336
1788676370276682500,5.6596826171875,-20.6460018157959,2.2940001487731934,-21.894001007080078
1788676370292789000,5.6757890625,-19.373001098632812,2.071000099182129,-22.407001495361328
1788676370308913000,5.691912841796875,-21.310001373291016,3.1460001468658447,-22.395000457763672
1788676370325036300,5.708036376953125,-19.46900177001953,2.2940001487731934,-21.79400062561035
1788676370341210600,5.724210693359375,-19.915000915527344,2.823000192642212,-22.29800033569336
1788676370357377300,5.740377197265625,-22.043001174926758,3.4790000915527344,-21.576000213623047
1788676370373484500,5.756484619140625,-20.468000411987305,4.2170000076293945,-22.285001754760742
1788676370389620000,5.772619873046875,-21.08100128173828,1.2090001106262207,-22.922000885009766
1788676370405713000,5.788712890625,-21.101001739501953,2.494000196456909,-23.012001037597656
1788676370421895200,5.804895263671875,-19.597000122070312,3.0370001792907715,-22.296001434326172
1788676370438070800,5.82107080078125,-21.499000549316406,1.4310001134872437,-22.410001754760742
1788676370454142200,5.83714208984375,-21.878000259399414,3.017000198364258,-24.025001525878906
1788676370470282200,5.8532822265625,-20.455001831054688,1.6320000886917114,-23.326000213623047
1788676370486418200,5.869418212890625,-20.665000915527344,2.7150001525878906,-22.501001358032227
1788676370502609200,5.885609130859375,-21.321001052856445,1.842000126838684,-23.731000900268555
1788676370518796300,5.90179638671875,-20.142000198364258,2.815000057220459,-22.909000396728516
1788676370534879000,5.91787890625,-20.654001235961914,2.3970000743865967,-22.19900131225586
1788676370551033300,5.934033447265625,-20.0260009765625,2.496000051498413,-22.70800018310547
1788676370567133700,5.9501337890625,-20.483001708984375,2.1550002098083496,-24.238000869750977
1788676370583322400,5.966322265625,-20.48000144958496,2.5890002250671387,-23.827001571655273
1788676370599516000,5.982515869140625,-21.6510009765625,1.7280000448226929,-24.24100112915039
1788676370615597300,5.998597412109375,-17.692001342773438,2.5920000076293945,-23.321001052856445
1788676370631775000,6.01477490234375,-19.29400062561035,2.9180002212524414,-23.113000869750977
1788676370647849700,6.030849609375,-20.280000686645508,1.284000039100647,-25.26500129699707
1788676370664046000,6.047046142578125,-20.23200035095215,1.4210001230239868,-23.023000717163086
1788676370680249300,6.063249267578125,-19.599000930786133,2.1720001697540283,-22.915000915527344
1788676370696343000,6.079343017578125,-20.030000686645508,1.9540001153945923,-23.222002029418945
1788676370712510200,6.09551025390625,-20.481000900268555,2.372000217437744,-24.033000946044922
1788676370728626000,6.1116259765625,-21.089000701904297,1.9610000848770142,-22.81300163269043
1788676370744797700,6.127797607421875,-20.865001678466797,2.7230000495910645,-21.89000129699707
1788676370760968200,6.14396826171875,-20.918001174926758,2.259000062942505,-24.542001724243164
1788676370777086500,6.16008642578125,-21.12700080871582,1.6130000352859497,-24.75200080871582
1788676370793220900,6.176220947265625,-21.530000686645508,1.8450000286102295,-23.527000427246094
1788676370809348600,6.1923486328125,-19.506000518798828,1.5150001049041748,-23.940000534057617
1788676370825528800,6.20852880859375,-18.67500114440918,2.364000082015991,-24.44300079345703
1788676370841699800,6.224699951171875,-20.81100082397461,1.6100001335144043,-24.95600128173828
1788676370857764400,6.240764404296875,-22.39900016784668,2.05400013923645,-24.033000946044922
1788676370873900500,6.256900634765625,-19.26300048828125,0.8840000629425049,-23.029001235961914
1788676370890027000,6.273027099609375,-22.724000930786133,1.727000117301941,-24.44300079345703
1788676370906202600,6.28920263671875,-20.992000579833984,1.5220000743865967,-23.530000686645508
1788676370922381000,6.305381103515625,-23.150001525878906,1.1880000829696655,-24.753000259399414
1788676370938448400,6.321448486328125,-21.07900047302246,0.23800000548362732,-23.440000534057617
1788676370954595600,6.337595703125,-22.55000114440918,0.687000036239624,-22.10900115966797
1788676370970683600,6.35368359375,-22.57000160217285,1.971000075340271,-22.200000762939453
1788676370986875000,6.369875,-23.843000411987305,0.032999999821186066,-23.030000686645508
1788676371003060000,6.38606005859375,-22.57900047302246,0.3450000286102295,-23.64000129699707
1788676371019137000,6.402136962890625,-21.902000427246094,1.0140000581741333,-21.59800148010254
1788676371035291100,6.418291015625,-21.154001235961914,0.25699999928474426,-22.01300048828125
1788676371051434500,6.4344345703125,-21.691001892089844,0.47200003266334534,-22.011001586914062
1788676371067634700,6.450634765625,-22.005001068115234,1.2330000400543213,-21.290000915527344
1788676371083832000,6.46683203125,-22.54400062561035,2.4190001487731934,-20.770000457763672
1788676371099896600,6.482896484375,-23.40300178527832,1.4450000524520874,-21.59200096130371
1788676371116042000,6.4990419921875,-22.216001510620117,0.3700000047683716,-21.705001831054688
1788676371132142300,6.515142333984375,-23.428001403808594,1.7540000677108765,-22.506000518798828
1788676371148345900,6.531345947265625,-22.762001037597656,1.2280000448226929,-21.69700050354004
1788676371164548600,6.547548583984375,-24.468000411987305,1.2320001125335693,-21.593000411987305
1788676371180625200,6.563625244140625,-25.100000381469727,1.4550000429153442,-21.08100128173828
1788676371196787200,6.579787109375,-23.211000442504883,1.6480001211166382,-22.4060001373291
1788676371212902100,6.595902099609375,-22.987001419067383,1.222000002861023,-22.20600128173828
1788676371229117700,6.61211767578125,-25.1200008392334,1.8750001192092896,-21.68800163269043
1788676371245326300,6.628326416015625,-24.920001983642578,2.515000104904175,-21.887001037597656
1788676371261428500,6.644428466796875,-22.750001907348633,0.3710000216960907,-21.705001831054688
1788676371277553000,6.660552978515625,-25.10900115966797,1.7730001211166382,-21.282001495361328
1788676371293668400,6.67666845703125,-23.426000595092773,0.45900002121925354,-23.231000900268555
1788676371309847000,6.692846923828125,-24.809001922607422,1.436000108718872,-22.4060001373291
1788676371326017000,6.70901708984375,-23.957000732421875,1.5420000553131104,-22.4060001373291
1788676371342128400,6.72512841796875,-23.84200096130371,1.65500009059906,-21.99700164794922
1788676371358264600,6.7412646484375,-24.160001754760742,0.7920000553131104,-22.41200065612793
1788676371374393000,6.75739306640625,-23.862001419067383,0.4540000259876251,-23.63800048828125
1788676371390575900,6.773575927734375,-24.61100196838379,0.562000036239624,-23.636001586914062
1788676371406747100,6.7897470703125,-23.220001220703125,1.318000078201294,-23.020000457763672
1788676371422820600,6.805820556640625,-22.994001388549805,1.758000135421753,-22.201000213623047
1788676371438965200,6.82196533203125,-22.83500099182129,2.0490000247955322,-24.440000534057617
1788676371455097000,6.83809716796875,-21.506000518798828,0.4540000259876251,-23.33500099182129
1788676371471287600,6.85428759765625,-23.33300018310547,1.315000057220459,-23.325000762939453
1788676371487471900,6.870471923828125,-24.091001510620117,1.4170000553131104,-23.731000900268555
1788676371503512300,6.88651220703125,-24.302001953125,1.5280001163482666,-23.5260009765625
1788676371519666700,6.902666748046875,-24.40300178527832,2.072000026702881,-22.910001754760742
1788676371535756300,6.91875634765625,-25.553001403808594,1.3320000171661377,-22.304000854492188
1788676371551958800,6.934958740234375,-23.61600112915039,0.581000030040741,-22.10900115966797
1788676371568151600,6.951151611328125,-23.543001174926758,0.5610000491142273,-23.637001037597656
1788676371584214500,6.967214599609375,-25.632001876831055,0.1600000113248825,-21.80500030517578
1788676371600355300,6.983355224609375,-23.737001419067383,0.7890000343322754,-22.61600112915039
1788676371616454700,6.99945458984375,-23.352001190185547,0.5470000505447388,-24.656002044677734
1788676371632665900,7.015665771484375,-22.79400062561035,1.749000072479248,-22.81300163269043
1788676371648877000,7.031876953125,-23.444000244140625,0.7720000147819519,-23.839000701904297
1788676371664979200,7.047979248046875,-23.231000900268555,0.987000048160553,-23.73600196838379
1788676371681088800,7.0640888671875,-23.03700065612793,0.5430000424385071,-24.86100196838379
1788676371697204700,7.080204833984375,-22.999000549316406,1.6470000743865967,-22.50800132751465
1788676371713362400,7.096362548828125,-24.619001388549805,1.3140000104904175,-23.527000427246094
1788676371729532400,7.112532470703125,-24.17500114440918,-0.4050000309944153,-23.849000930786133
1788676371745630000,7.1286298828125,-22.770000457763672,-0.5049999952316284,-23.13800048828125
1788676371761751300,7.144751220703125,-25.108001708984375,-0.27800002694129944,-22.522001266479492
1788676371777870300,7.160870361328125,-24.17300033569336,-0.07900000363588333,-23.540000915527344
1788676371794047500,7.177047607421875,-22.766000747680664,-0.9350000619888306,-23.244001388549805
1788676371810220000,7.193219970703125,-24.363000869750977,-1.2540000677108765,-23.2450008392334
1788676371826286000,7.2092861328125,-25.23200035095215,-0.3960000276565552,-23.338001251220703
1788676371842425900,7.22542578125,-23.86100196838379,-0.625,-24.259000778198242
1788676371858550300,7.24155029296875,-24.906002044677734,0.3620000183582306,-22.619001388549805
1788676371874730200,7.257730224609375,-24.34800148010254,-1.2440000772476196,-22.532001495361328
1788676371890910200,7.27391015625,-24.240001678466797,-2.9730000495910645,-23.566001892089844
1788676371906979000,7.28997900390625,-23.924001693725586,-1.6790001392364502,-22.944000244140625
1788676371923125800,7.306125732421875,-25.196001052856445,-1.3470001220703125,-22.328001022338867
1788676371939261200,7.32226123046875,-25.007001876831055,-2.3350000381469727,-24.069000244140625
1788676371955435500,7.338435546875,-24.147001266479492,-2.117000102996826,-23.660001754760742
1788676371971625700,7.354625732421875,-23.496000289916992,-0.9220000505447388,-22.428001403808594
1788676371987706600,7.37070654296875,-23.700000762939453,-2.5380001068115234,-23.053001403808594
1788676372003865900,7.386865966796875,-23.838001251220703,-0.9360000491142273,-23.446001052856445
1788676372019964000,7.4029638671875,-25.73400115966797,-1.998000144958496,-22.944000244140625
1788676372036168200,7.419168212890625,-24.506000518798828,0.3450000286102295,-23.84200096130371
1788676372052373500,7.43537353515625,-25.551000595092773,-0.9360000491142273,-23.648000717163086
1788676372068468500,7.451468505859375,-23.40300178527832,-1.3640000820159912,-23.349000930786133
1788676372084636000,7.467635986328125,-24.150001525878906,-0.7140000462532043,-22.935001373291016
1788676372100753700,7.483753662109375,-23.9580020904541,-1.4840000867843628,-24.36800193786621
1788676372116956000,7.499955810546875,-26.376001358032227,-1.1320000886917114,-22.426000595092773
1788676372133161700,7.51616162109375,-23.619001388549805,-0.7160000205039978,-23.03700065612793
1788676372149259000,7.532259033203125,-25.731000900268555,-1.2390000820159912,-22.326000213623047
1788676372165365200,7.548365234375,-24.684001922607422,-0.7130000591278076,-22.934001922607422
1788676372181480400,7.56448046875,-25.652000427246094,-0.39100003242492676,-23.032001495361328
1788676372197633800,7.5806337890625,-26.0570011138916,-1.6740000247955322,-22.839000701904297
1788676372213798400,7.59679833984375,-25.53900146484375,-0.7120000123977661,-22.933000564575195
1788676372229888500,7.612888427734375,-25.975000381469727,-1.0410000085830688,-23.547000885009766
1788676372245997600,7.62899755859375,-26.33100128173828,-0.7380000352859497,-24.970001220703125
1788676372262117600,7.64511767578125,-25.4320011138916,-2.009000062942505,-23.760000228881836
1788676372278287000,7.661287109375,-26.38800048828125,-0.3830000162124634,-22.522001266479492
1788676372294460400,7.67746044921875,-24.360000610351562,-1.468000054359436,-23.24700164794922
1788676372310528300,7.6935283203125,-27.88500213623047,-0.9220000505447388,-22.9320011138916
1788676372326661000,7.7096611328125,-27.48000144958496,-0.2880000174045563,-23.538002014160156
1788676372342789000,7.7257890625,-26.601001739501953,-1.2470000982284546,-23.038002014160156
1788676372358968600,7.741968505859375,-25.512001037597656,-1.3440001010894775,-22.124000549316406
1788676372375146800,7.758146728515625,-26.29400062561035,0.6890000104904175,-22.410001754760742
1788676372391226400,7.774226318359375,-26.400001525878906,-0.7150000333786011,-23.238000869750977
1788676372407373000,7.790373046875,-26.394001007080078,-0.9280000329017639,-23.13800048828125
1788676372423519200,7.806519287109375,-26.626001358032227,-0.2900000214576721,-23.53900146484375
1788676372439716900,7.822716796875,-26.28700065612793,0.6930000185966492,-22.10500144958496
1788676372455909000,7.8389091796875,-26.052001953125,-1.6710001230239868,-22.635000228881836
1788676372471992600,7.85499267578125,-26.277000427246094,-1.0290000438690186,-22.731000900268555
1788676372488147500,7.8711474609375,-26.308000564575195,0.24800001084804535,-23.33100128173828
1788676372504234800,7.88723486328125,-29.26300048828125,-1.7790000438690186,-23.040000915527344
1788676372520420400,7.90342041015625,-28.130001068115234,-0.6170000433921814,-24.1510009765625
1788676372536612900,7.91961279296875,-26.6460018157959,0.3460000157356262,-24.043001174926758
1788676372552701200,7.935701171875,-26.268001556396484,-0.3750000298023224,-21.910001754760742
1788676372568861700,7.95186181640625,-25.75400161743164,0.5830000042915344,-22.20800018310547
1788676372584950300,7.9679501953125,-27.28700065612793,-0.08500000089406967,-24.351001739501953
1788676372601162500,7.98416259765625,-26.19300079345703,-0.17900000512599945,-23.233001708984375
1788676372617370600,8.00037060546875,-25.86400032043457,-1.471000075340271,-23.652000427246094
1788676372633479000,8.01647900390625,-27.773000717163086,-1.2440000772476196,-22.935001373291016
1788676372649607000,8.03260693359375,-26.5260009765625,0.5690000057220459,-23.328001022338867
1788676372665727200,8.048727294921875,-25.215002059936523,-1.467000126838684,-23.246000289916992
1788676372681881600,8.064881591796874,-26.625001907348633,-1.4780000448226929,-24.26300048828125
1788676372698061600,8.0810615234375,-24.394001007080078,-0.8400000333786011,-24.362001419067383
1788676372714162200,8.097162109375,-23.00400161743164,0.13100001215934753,-23.642000198364258
1788676372730278400,8.1132783203125,-25.533000946044922,-0.6000000238418579,-22.626001358032227
1788676372746400300,8.129400146484375,-24.069000244140625,-0.5130000114440918,-23.952001571655273
1788676372762580500,8.14558056640625,-26.27800178527832,-0.8140000104904175,-22.62700080871582
1788676372778763500,8.161763427734375,-25.652000427246094,-1.3640000820159912,-23.652000427246094
1788676372794833400,8.17783349609375,-25.352001190185547,-0.7290000319480896,-24.156002044677734
1788676372810978300,8.193978271484376,-25.07000160217285,1.5170000791549683,-24.442001342773438
1788676372827108900,8.21010888671875,-25.126001358032227,-0.289000004529953,-23.33700180053711
1788676372843279600,8.226279541015625,-25.446001052856445,-0.8290000557899475,-23.647001266479492
1788676372859463400,8.24246337890625,-26.06100082397461,-1.027999997138977,-22.630001068115234
1788676372875539700,8.258539794921875,-26.503002166748047,-1.7930001020431519,-23.756000518798828
1788676372891687400,8.2746875,-26.395000457763672,-2.009000062942505,-23.860000610351562
1788676372907771400,8.290771484375,-26.72100067138672,-1.471000075340271,-23.753000259399414
1788676372923954700,8.30695458984375,-26.394001007080078,-1.467000126838684,-23.448001861572266
1788676372940145200,8.323145263671876,-27.66900062561035,-2.867000102996826,-24.07000160217285
1788676372956216000,8.339216064453124,-26.927001953125,-2.6550002098083496,-24.171001434326172
1788676372972368400,8.355368408203125,-26.394001007080078,-3.0890002250671387,-24.481000900268555
1788676372988462000,8.371462158203125,-26.496002197265625,-2.76200008392334,-24.07000160217285
1788676373004667400,8.38766748046875,-27.788002014160156,-1.6850000619888306,-23.856000900268555
1788676373020869000,8.403869140625,-27.654001235961914,-2.642000198364258,-23.253000259399414
1788676373036956400,8.419956298828126,-27.6510009765625,-3.505000114440918,-23.668001174926758
1788676373053120500,8.43612060546875,-28.314001083374023,-2.2200000286102295,-23.860000610351562
1788676373069219000,8.452218994140624,-27.85500144958496,-3.7140002250671387,-23.36400032043457
1788676373085431300,8.468431396484375,-28.615001678466797,-1.6670000553131104,-22.632001876831055
1788676373101637000,8.48463720703125,-29.96700096130371,-4.129000186920166,-22.55000114440918
1788676373117736400,8.500736328125,-26.13800048828125,-3.063000202178955,-22.546001434326172
1788676373133913600,8.51691357421875,-27.83500099182129,-2.8380000591278076,-21.93000030517578
1788676373150024000,8.53302392578125,-28.898000717163086,-3.373000144958496,-22.035001754760742
1788676373166238700,8.54923876953125,-28.394001007080078,-2.8520002365112305,-23.05000114440918
1788676373182455000,8.565455078125,-28.2760009765625,-2.8450000286102295,-22.541000366210938
1788676373198561300,8.581561279296874,-28.090002059936523,-1.998000144958496,-23.24700164794922
1788676373214689800,8.597689697265626,-27.644001007080078,-1.8790000677108765,-22.32900047302246
1788676373230805800,8.6138056640625,-28.163002014160156,-3.9230000972747803,-22.95800018310547
1788676373246977000,8.62997705078125,-27.34200096130371,-1.8910000324249268,-23.145000457763672
1788676373263147000,8.64614697265625,-28.375001907348633,-3.2730002403259277,-22.44300079345703
1788676373279260400,8.662260498046875,-27.659000396728516,-2.1040000915527344,-23.1460018157959
1788676373295390500,8.678390380859375,-28.630001068115234,-0.9200000166893005,-22.82900047302246
1788676373311516700,8.6945166015625,-30.684001922607422,-1.5800000429153442,-24.360000610351562
1788676373327695400,8.7106953125,-29.99300193786621,-2.5240001678466797,-22.740001678466797
1788676373343873500,8.72687353515625,-29.365001678466797,-0.8030000329017639,-22.216001510620117
1788676373359947300,8.742947265625,-28.700000762939453,-2.0860002040863037,-21.922000885009766
1788676373376091000,8.7590908203125,-29.03400230407715,-1.5540000200271606,-22.22300148010254
1788676373392224800,8.775224853515626,-28.397001266479492,-0.15200001001358032,-21.498001098632812
1788676373408398600,8.791398681640626,-29.46900177001953,-1.3420000076293945,-22.424001693725586
1788676373424587500,8.80758740234375,-28.306001663208008,-0.7020000219345093,-22.522001266479492
1788676373440701400,8.823701416015625,-29.453001022338867,-1.6560001373291016,-21.918001174926758
1788676373456849400,8.839849365234375,-29.37200164794922,0.164000004529953,-21.902000427246094
1788676373472937200,8.855937255859375,-29.352001190185547,-0.2550000250339508,-21.29400062561035
1788676373489131300,8.87213134765625,-31.280000686645508,-1.1200000047683716,-22.11400032043457
1788676373505323800,8.88832373046875,-28.479001998901367,-0.6770000457763672,-20.68800163269043
1788676373521405700,8.90440576171875,-30.001001358032227,-1.0150001049041748,-22.115001678466797
1788676373537564200,8.920564208984375,-29.47500228881836,-0.9130000472068787,-22.420001983642578
1788676373553657600,8.93665771484375,-29.468002319335938,0.06300000101327896,-21.4950008392334
1788676373569858600,8.952858642578125,-29.43800163269043,-0.7830000519752502,-20.68800163269043
1788676373586061300,8.969061279296875,-30.330001831054688,1.7890000343322754,-20.766000747680664
1788676373602158800,8.985158935546876,-28.8070011138916,0.398000031709671,-20.37200164794922
1788676373618334700,9.001334716796874,-30.660001754760742,0.16200000047683716,-22.20600128173828
1788676373634451000,9.017450927734375,-29.884000778198242,0.07000000029802322,-20.985000610351562
1788676373650662400,9.033662353515625,-29.24300193786621,-0.4700000286102295,-21.296001434326172
1788676373666877200,9.049877197265625,-29.16900062561035,0.5900000333786011,-22.102001190185547
1788676373682995200,9.0659951171875,-30.809001922607422,1.1090000867843628,-23.5210018157959
1788676373699122200,9.0821220703125,-28.85000228881836,-0.5990000367164612,-22.928001403808594
1788676373715245600,9.09824560546875,-28.739002227783203,0.3750000298023224,-22.104001998901367
1788676373731425000,9.114425048828124,-29.47500228881836,0.27400001883506775,-21.69700050354004
1788676373747604200,9.130604248046875,-28.035001754760742,1.752000093460083,-23.214000701904297
1788676373763671600,9.146671630859375,-28.85500144958496,0.9100000262260437,-22.201000213623047
1788676373779816000,9.16281591796875,-30.847002029418945,-0.9010000228881836,-21.70600128173828
1788676373795952600,9.17895263671875,-29.63500213623047,0.45900002121925354,-23.93600082397461
1788676373812118000,9.195117919921875,-29.507001876831055,0.9040000438690186,-22.71000099182129
1788676373828296000,9.2112958984375,-30.027002334594727,0.5890000462532043,-22.30500030517578
1788676373844365600,9.227365478515624,-27.617000579833984,0.2330000102519989,-24.552001953125
1788676373860510500,9.243510498046875,-27.59400177001953,0.8950000405311584,-23.1200008392334
1788676373876643000,9.25964306640625,-27.739002227783203,2.1690001487731934,-24.025001525878906
1788676373892835000,9.2758349609375,-26.96000099182129,0.242000013589859,-23.840002059936523
1788676373909026600,9.292026611328126,-26.220001220703125,0.12800000607967377,-24.249000549316406
1788676373925105700,9.308105712890624,-26.817001342773438,-0.2760000228881836,-22.520000457763672
1788676373941268500,9.3242685546875,-27.59600067138672,0.030000001192092896,-23.73900032043457
1788676373957370400,9.340370361328125,-25.261001586914062,-0.4140000343322754,-24.66200065612793
1788676373973564400,9.356564453125,-27.852001190185547,0.6530000567436218,-25.261001586914062
1788676373989766100,9.37276611328125,-27.299001693725586,0.23100000619888306,-24.654001235961914
1788676374005842400,9.388842529296875,-24.72300148010254,-0.19600000977516174,-24.356000900268555
1788676374022015200,9.40501513671875,-26.325000762939453,0.4540000259876251,-23.940000534057617
1788676374038124800,9.421124755859376,-26.7450008392334,-1.0530000925064087,-24.564001083374023
1788676374054299000,9.437298828125,-27.2710018157959,-0.940000057220459,-24.155000686645508
1788676374070515200,9.45351513671875,-26.542001724243164,-1.2760000228881836,-25.178001403808594
1788676374086608400,9.4696083984375,-24.09200096130371,-0.8510000109672546,-25.177001953125
1788676374102787600,9.48578759765625,-24.720001220703125,-0.9510000348091125,-24.668001174926758
1788676374118907600,9.50190771484375,-24.301000595092773,-0.8480000495910645,-24.97300148010254
1788676374135125000,9.518125,-24.71700096130371,-0.9490000605583191,-24.566001892089844
1788676374151338000,9.534337890625,-25.684001922607422,-0.7350000143051147,-24.665000915527344
1788676374167444700,9.55044482421875,-25.36800193786621,-0.7380000352859497,-24.869001388549805
1788676374183555600,9.5665556640625,-26.214000701904297,-1.8130000829696655,-25.183000564575195
1788676374199680500,9.582680419921875,-28.13800048828125,-0.5139999985694885,-24.45600128173828
1788676374215857700,9.598857666015626,-24.952001571655273,-2.0429999828338623,-26.205001831054688
1788676374232027400,9.61502734375,-24.62700080871582,-1.283000111579895,-25.48600196838379
1788676374248139500,9.631139404296874,-26.613000869750977,-2.011000156402588,-24.064001083374023
1788676374264278500,9.647278564453124,-26.128002166748047,-0.9610000252723694,-25.5830020904541
1788676374280408300,9.663408203125,-25.575000762939453,-0.5180000066757202,-24.459001541137695
1788676374296597500,9.679597412109375,-26.54800033569336,-0.8480000495910645,-25.174001693725586
1788676374312776700,9.695776611328125,-26.518001556396484,-1.6940001249313354,-24.367000579833984
1788676374328852000,9.71185205078125,-24.819000244140625,-1.162000060081482,-24.466001510620117
1788676374344999400,9.72799951171875,-27.297000885009766,-0.5230000019073486,-25.06800079345703
1788676374361091800,9.744091796875,-27.424001693725586,1.0850000381469727,-24.952001571655273
1788676374377285400,9.760285400390625,-27.084001541137695,0.015000000596046448,-24.75800132751465
1788676374393479200,9.776479248046876,-24.748001098632812,0.7600000500679016,-24.856000900268555
1788676374409556700,9.792556640625,-26.218000411987305,0.1290000081062317,-24.147001266479492
1788676374425700400,9.808700439453125,-25.911001205444336,-0.203000009059906,-24.965002059936523
1788676374441794800,9.824794921875,-24.326000213623047,0.3240000009536743,-25.3700008392334
1788676374457987600,9.840987548828124,-24.836000442504883,0.8800000548362732,-23.93800163269043
1788676374474185500,9.857185546875,-25.915000915527344,1.5230001211166382,-24.033000946044922
1788676374490261000,9.873260986328125,-26.470001220703125,2.2680001258850098,-24.535001754760742
1788676374506412300,9.889412353515626,-24.090002059936523,1.3100000619888306,-23.73200035095215
1788676374522508000,9.905508056640626,-27.72300148010254,0.5580000281333923,-24.345001220703125
1788676374538658300,9.921658203125,-26.7710018157959,1.308000087738037,-24.238000869750977
1788676374554871300,9.937871337890625,-25.418001174926758,2.0410001277923584,-25.354001998901367
1788676374570966300,9.95396630859375,-26.367000579833984,1.8330000638961792,-24.94700050354004
1788676374587086800,9.9700869140625,-27.012001037597656,1.8320001363754272,-25.150001525878906
1788676374603206100,9.9862060546875,-24.774002075195312,1.1770000457763672,-25.770000457763672
1788676374619376400,10.00237646484375,-26.25400161743164,1.7290000915527344,-24.744001388549805
1788676374635548700,10.018548583984375,-25.935001373291016,0.21400001645088196,-25.777000427246094
1788676374651663000,10.0346630859375,-25.181001663208008,0.8650000691413879,-25.059001922607422
1788676374667816200,10.050816162109374,-26.82200050354004,2.0329999923706055,-26.065000534057617
1788676374683886800,10.066886962890624,-25.286001205444336,1.1910001039505005,-24.750001907348633
1788676374700064000,10.08306396484375,-25.617000579833984,0.6450000405311584,-25.569002151489258
1788676374716244000,10.099243896484374,-23.71900177001953,1.2750000953674316,-26.279001235961914
1788676374732344600,10.115344482421875,-26.01500129699707,-0.09300000220537186,-24.761001586914062
1788676374748472600,10.13147265625,-27.3330020904541,0.10200000554323196,-26.285001754760742
1788676374764607500,10.147607421875,-26.244001388549805,0.6540000438690186,-24.957000732421875
1788676374780803600,10.163803466796875,-26.056001663208008,1.1790000200271606,-25.768001556396484
1788676374796988000,10.17998779296875,-25.36800193786621,0.125,-24.352001190185547
1788676374813066000,10.19606591796875,-26.97100067138672,0.01900000125169754,-24.453001022338867
1788676374829223000,10.212222900390625,-26.461000442504883,0.1120000034570694,-25.47100067138672
1788676374845308400,10.228308349609375,-25.38300132751465,-2.1520001888275146,-26.409000396728516
1788676374861507600,10.244507568359374,-24.332000732421875,-0.5430000424385071,-26.19300079345703
1788676374877702000,10.260701904296875,-26.047000885009766,-0.1120000034570694,-26.187002182006836
1788676374893792800,10.276792724609376,-26.393001556396484,0.4130000174045563,-26.99700164794922
1788676374909954800,10.292954833984375,-24.54800033569336,-1.409000039100647,-26.81100082397461
1788676374926082300,10.309082275390624,-24.941001892089844,-1.3870000839233398,-25.283000946044922
1788676374942286600,10.32528662109375,-25.57900047302246,-0.7360000610351562,-24.76700210571289
1788676374958488300,10.34148828125,-27.07900047302246,0.12600000202655792,-24.452001571655273
1788676374974584800,10.357584716796875,-24.97800064086914,-0.5450000166893005,-26.3960018157959
1788676374990754600,10.373754638671874,-23.895000457763672,-0.6460000276565552,-25.78700065612793
1788676375006862600,10.389862548828125,-25.025001525878906,0.9380000233650208,-27.60500144958496
1788676375023076600,10.40607666015625,-24.463001251220703,0.1980000138282776,-26.797000885009766
1788676375039285800,10.42228564453125,-21.999000549316406,-0.23200000822544098,-26.702001571655273
1788676375055390200,10.43839013671875,-25.40300178527832,-0.3270000219345093,-26.190000534057617
1788676375071516400,10.454516357421875,-24.259000778198242,-0.7800000309944153,-27.825000762939453
1788676375087629600,10.470629638671875,-22.020000457763672,-0.029000001028180122,-27.51500129699707
1788676375103778600,10.486778564453125,-24.690000534057617,-0.13300000131130219,-27.615001678466797
1788676375119945500,10.502945556640626,-21.679000854492188,-0.8810000419616699,-27.11600112915039
1788676375136037400,10.519037353515625,-23.623001098632812,0.08000000566244125,-27.512001037597656
1788676375152167200,10.535167236328125,-26.56800079345703,-1.5080000162124634,-26.50400161743164
1788676375168289800,10.551289794921875,-23.64000129699707,-0.3620000183582306,-28.535001754760742
1788676375184456400,10.56745654296875,-23.062000274658203,0.20400001108646393,-26.18800163269043
1788676375200629500,10.58362939453125,-24.2450008392334,-0.44700002670288086,-27.007001876831055
1788676375216744700,10.59974462890625,-23.915000915527344,-1.846000075340271,-27.427001953125
1788676375232877800,10.6158779296875,-24.242000579833984,-0.8770000338554382,-27.113000869750977
1788676375249006800,10.6320068359375,-25.63300132751465,-0.9850000739097595,-27.316001892089844
1788676375265192700,10.648192626953126,-25.506000518798828,-1.621000051498413,-26.812002182006836
1788676375281371600,10.66437158203125,-24.13300132751465,-1.633000135421753,-27.527000427246094
1788676375297481000,10.68048095703125,-23.79400062561035,-2.1630001068115234,-27.023000717163086
1788676375313608200,10.696608154296875,-26.073001861572266,0.30400002002716064,-27.100000381469727
1788676375329787100,10.712787109375,-23.309001922607422,-1.652000069618225,-28.852001190185547
1788676375345961500,10.72896142578125,-25.530000686645508,-1.312000036239624,-27.726001739501953
1788676375362153000,10.745153076171874,-25.626001358032227,-1.6290000677108765,-27.423002243041992
1788676375378233300,10.7612333984375,-23.891000747680664,-2.264000177383423,-26.61600112915039
1788676375394403600,10.777403564453126,-26.692001342773438,-2.2750000953674316,-27.733001708984375
1788676375410497300,10.793497314453125,-25.302001953125,-2.384000062942505,-27.73600196838379
1788676375426700800,10.80970068359375,-25.85700035095215,-2.504000186920166,-28.755001068115234
1788676375442895600,10.8258955078125,-23.61600112915039,-1.752000093460083,-28.34400177001953
1788676375458979600,10.8419794921875,-24.67300033569336,-1.5280001163482666,-27.729001998901367
1788676375475140900,10.858140869140625,-24.35500144958496,-1.53000009059906,-27.83100128173828
1788676375491251000,10.8742509765625,-25.321001052856445,-2.17900013923645,-28.44700050354004
1788676375507445200,10.8904453125,-23.906002044677734,-1.6250001192092896,-26.916000366210938
1788676375523609900,10.90660986328125,-23.619001388549805,-1.5380001068115234,-28.34200096130371
1788676375539707600,10.922707763671875,-26.631000518798828,-1.1140000820159912,-29.047000885009766
1788676375555824600,10.93882470703125,-25.13500213623047,-0.03500000014901161,-28.32600212097168
1788676375571950800,10.954950927734375,-24.160001754760742,-0.02800000086426735,-27.716001510620117
1788676375588111600,10.971111572265626,-25.248001098632812,0.0690000057220459,-28.529001235961914
1788676375604287500,10.98728759765625,-24.80500030517578,0.4020000100135803,-27.610000610351562
1788676375620393700,11.003393798828125,-25.032001495361328,-0.578000009059906,-28.841001510620117
1788676375636513500,11.019513427734376,-26.001001358032227,1.1470000743865967,-28.11100196838379
1788676375652641300,11.035641357421875,-24.94300079345703,1.3560000658035278,-28.41600227355957
1788676375668821800,11.05182177734375,-25.895000457763672,1.2540000677108765,-28.110000610351562
1788676375685003300,11.068003173828124,-25.365001678466797,0.8190000653266907,-28.522001266479492
1788676375701073200,11.0840732421875,-26.317001342773438,0.17800000309944153,-28.527000427246094
1788676375717215000,11.100215087890625,-26.088001251220703,1.0509999990463257,-27.297000885009766
1788676375733361400,11.116361328125,-25.595001220703125,1.2410000562667847,-29.02800178527832
1788676375749557500,11.1325576171875,-23.98200035095215,2.327000141143799,-27.798002243041992
1788676375765750000,11.14875,-22.819000244140625,1.561000108718872,-28.825000762939453
1788676375781833500,11.16483349609375,-24.20400047302246,0.48500001430511475,-29.34200096130371
1788676375798065700,11.181065673828124,-25.06100082397461,1.8890000581741333,-28.615001678466797
1788676375814153500,11.197153564453124,-24.010000228881836,2.0930001735687256,-29.226001739501953
1788676375830354700,11.213354736328125,-24.665000915527344,2.626000165939331,-29.5260009765625
1788676375846542800,11.22954296875,-23.163002014160156,1.4390000104904175,-29.946001052856445
1788676375862622000,11.2456220703125,-24.32000160217285,1.3440001010894775,-29.23200225830078
1788676375878781400,11.261781494140624,-23.703001022338867,2.7330000400543213,-29.424001693725586
1788676375894874600,11.27787451171875,-26.259000778198242,2.0930001735687256,-29.529001235961914
1788676375911078000,11.294077880859374,-23.804000854492188,1.3320000171661377,-30.048002243041992
1788676375927279600,11.310279541015625,-23.701000213623047,1.4380000829696655,-30.149002075195312
1788676375943364600,11.326364501953124,-24.660001754760742,2.0889999866485596,-29.63300132751465
1788676375959534000,11.3425341796875,-27.128002166748047,2.193000078201294,-30.13800048828125
1788676375975647700,11.358647705078125,-23.819000244140625,1.215000033378601,-30.762001037597656
1788676375991865900,11.374865966796875,-25.165000915527344,1.1350001096725464,-28.927001953125
1788676376008034000,11.391033935546876,-24.44500160217285,0.6840000152587891,-30.46000099182129
1788676376024142000,11.40714208984375,-23.933000564575195,3.0480000972747803,-29.931001663208008
1788676376040270600,11.4232705078125,-23.384000778198242,2.8400001525878906,-29.424001693725586
1788676376056382200,11.43938232421875,-24.76700210571289,1.9810000658035278,-29.735000610351562
1788676376072542000,11.4555419921875,-24.161001205444336,1.311000108718872,-31.677001953125
1788676376088712200,11.471712158203125,-23.698001861572266,0.5750000476837158,-30.564001083374023
1788676376104825600,11.48782568359375,-24.671001434326172,1.434000015258789,-30.555002212524414
1788676376120959700,11.503959716796874,-24.347002029418945,0.7870000600814819,-30.76500129699707
1788676376137088500,11.520088623046876,-25.61600112915039,0.9050000309944153,-30.1510009765625
1788676376153273300,11.5362734375,-22.767000198364258,0.23100000619888306,-32.09600067138672
1788676376169447200,11.552447265625,-24.054000854492188,0.9860000610351562,-31.884000778198242
1788676376185516800,11.568516845703124,-23.192001342773438,0.7730000615119934,-31.683000564575195
1788676376201658400,11.584658447265625,-23.170001983642578,-1.158000111579895,-31.904001235961914
1788676376217792000,11.6007919921875,-21.692001342773438,1.531000018119812,-30.966001510620117
1788676376233967600,11.616967529296875,-24.9010009765625,0.4520000219345093,-31.888002395629883
1788676376250164500,11.63316455078125,-24.029001235961914,1.0010000467300415,-30.764001846313477
1788676376266284800,11.649284912109374,-25.214000701904297,-0.08300000429153442,-31.89200210571289
1788676376282429400,11.665429443359375,-24.873001098632812,-0.7200000286102295,-31.389001846313477
1788676376298572800,11.68157275390625,-23.384000778198242,-0.1850000023841858,-31.28400230407715
1788676376314772000,11.69777197265625,-24.091001510620117,2.1530001163482666,-32.79100036621094
1788676376330969900,11.713969970703126,-23.091001510620117,-0.3100000023841858,-32.61000061035156
1788676376347055900,11.730055908203125,-23.937000274658203,0.5600000023841858,-31.684001922607422
1788676376363217700,11.7462177734375,-22.892000198364258,1.193000078201294,-32.29100036621094
1788676376379317500,11.7623173828125,-23.2760009765625,-1.3730000257492065,-32.00800323486328
1788676376395518500,11.7785185546875,-24.33100128173828,-2.01200008392334,-31.808000564575195
1788676376411721500,11.794721435546874,-25.63300132751465,-1.158000111579895,-32.207000732421875
1788676376427815400,11.8108154296875,-23.362001419067383,-2.5490000247955322,-31.814001083374023
1788676376443990500,11.826990478515626,-24.0260009765625,-1.6980000734329224,-32.31500244140625
1788676376460105500,11.84310546875,-24.452001571655273,-1.9130001068115234,-32.419002532958984
1788676376476279000,11.859279052734376,-24.224000930786133,-1.6880000829696655,-31.602001190185547
1788676376492448500,11.875448486328125,-25.09400177001953,-0.7230000495910645,-31.694002151489258
1788676376508566300,11.891566162109376,-24.749000549316406,-2.00600004196167,-31.400001525878906
1788676376524703500,11.907703369140625,-24.4580020904541,-1.3760000467300415,-32.3120002746582
1788676376540827100,11.9238271484375,-25.07000160217285,-1.790000081062317,-31.296001434326172
1788676376557003000,11.9400029296875,-24.97100067138672,-2.3350000381469727,-32.013999938964844
1788676376573175600,11.956175537109376,-26.78900146484375,-2.3340001106262207,-32.1140022277832
1788676376589242400,11.972242431640625,-24.659000396728516,-0.9360000491142273,-31.49300193786621
1788676376605388800,11.988388916015625,-25.578001022338867,-1.9890000820159912,-30.279001235961914
1788676376621485000,12.004485107421875,-24.73400115966797,-2.1050000190734863,-30.790000915527344
1788676376637667300,12.020667236328125,-23.98900032043457,-2.2160000801086426,-30.996002197265625
1788676376653856800,12.036856689453124,-26.03900146484375,-0.4960000216960907,-30.876001358032227
1788676376669937400,12.0529375,-25.046001434326172,-1.883000135421753,-30.27800178527832
1788676376686076000,12.069075927734374,-23.910001754760742,-1.0440000295639038,-31.4950008392334
1788676376702168600,12.08516845703125,-24.227001190185547,-0.609000027179718,-31.0830020904541
1788676376718367500,12.101367431640625,-26.211000442504883,-1.5510001182556152,-29.663002014160156
1788676376734561800,12.117561767578126,-25.316001892089844,-0.40400001406669617,-31.895002365112305
1788676376750631200,12.133631103515626,-24.759000778198242,0.5800000429153442,-30.257001876831055
1788676376766771000,12.14977099609375,-26.334001541137695,-1.0210000276565552,-30.065000534057617
1788676376782858500,12.1658583984375,-24.764001846313477,0.9020000696182251,-30.25400161743164
1788676376799037200,12.182037109375,-24.534000396728516,-1.249000072479248,-30.88500213623047
1788676376815241500,12.198241455078126,-25.007001876831055,-0.08700000494718552,-32.198001861572266
1788676376831321900,12.21432177734375,-24.541000366210938,0.0430000014603138,-30.364002227783203
1788676376847487000,12.230487060546874,-26.101001739501953,0.17900000512599945,-28.42500114440918
1788676376863593700,12.24659375,-26.34800148010254,0.8070000410079956,-29.540000915527344
1788676376879806500,12.262806396484375,-24.082000732421875,1.3580000400543213,-28.112001419067383
1788676376896011000,12.279010986328124,-25.802001953125,1.03000009059906,-28.82600212097168
1788676376912103000,12.29510302734375,-23.979001998901367,1.4640001058578491,-28.213001251220703
1788676376928277000,12.311277099609375,-23.891000747680664,1.3440001010894775,-29.131000518798828
1788676376944388600,12.327388671875,-26.13300132751465,1.3480000495910645,-29.128002166748047
1788676376960606200,12.343606201171875,-24.632001876831055,1.565000057220459,-28.720001220703125
1788676376976821200,12.3598212890625,-26.98600196838379,1.2420001029968262,-29.128002166748047
1788676376992926200,12.37592626953125,-26.542001724243164,0.7110000252723694,-28.726001739501953
1788676377009109200,12.392109130859374,-27.421001434326172,3.8310000896453857,-27.882001876831055
1788676377025228500,12.408228515625,-24.61600112915039,1.2510000467300415,-28.214000701904297
1788676377041406000,12.424406005859375,-26.774002075195312,2.5370001792907715,-28.404001235961914
1788676377057577000,12.440576904296876,-26.748001098632812,0.8240000605583191,-28.317001342773438
1788676377073690600,12.456690673828126,-26.101001739501953,-0.14500001072883606,-28.632001876831055
1788676377089826300,12.472826416015625,-26.338001251220703,1.2450000047683716,-28.823001861572266
1788676377105961000,12.4889609375,-25.2760009765625,1.1320000886917114,-29.131000518798828
1788676377122154200,12.505154296875,-26.117000579833984,1.0329999923706055,-28.621002197265625
1788676377138338600,12.521338623046875,-26.43000030517578,1.7950000762939453,-27.799001693725586
1788676377154414300,12.537414306640626,-27.189001083374023,1.1410000324249268,-28.72100067138672
1788676377170560500,12.553560546875,-25.889001846313477,0.9340000152587891,-28.011001586914062
1788676377186700800,12.56970068359375,-26.064001083374023,0.30900001525878906,-26.692001342773438
1788676377202870000,12.5858701171875,-26.216001510620117,-0.690000057220459,-29.35000228881836
1788676377219059500,12.6020595703125,-25.029001235961914,-1.1160000562667847,-29.049001693725586
1788676377235138600,12.618138671875,-27.496002197265625,0.8250000476837158,-28.316001892089844
1788676377251286500,12.63428662109375,-24.187000274658203,-0.5850000381469727,-29.249000549316406
1788676377267378200,12.650378173828125,-23.499000549316406,-0.3410000205039978,-27.007001876831055
1788676377283579600,12.66657958984375,-25.58700180053711,0.16500000655651093,-29.343002319335938
1788676377299780400,12.6827802734375,-24.81800079345703,-0.2540000081062317,-28.634000778198242
1788676377315874600,12.69887451171875,-24.913002014160156,-1.1110000610351562,-28.64200210571289
1788676377332041200,12.715041259765625,-22.003000259399414,-2.2880001068115234,-28.147001266479492
1788676377348141300,12.731141357421874,-23.19500160217285,-0.6760000586509705,-27.927001953125
1788676377364337200,12.747337158203125,-25.433000564575195,-0.3450000286102295,-27.514001846313477
1788676377380542200,12.763542236328124,-23.85300064086914,-0.03700000047683716,-28.328001022338867
1788676377396641800,12.779641845703125,-26.70400047302246,-0.5530000329017639,-27.209001541137695
1788676377412770300,12.795770263671875,-24.060001373291016,-0.8970000147819519,-28.53900146484375
1788676377428895700,12.811895751953125,-24.696001052856445,-0.6770000457763672,-28.231000900268555
1788676377445066500,12.82806640625,-24.906002044677734,-0.4580000340938568,-27.923002243041992
1788676377461241300,12.844241455078125,-25.530000686645508,-0.23100000619888306,-27.003002166748047
1788676377477310700,12.860310791015625,-23.054000854492188,-1.628000020980835,-27.019001007080078
1788676377493449000,12.876448974609374,-23.827001571655273,-1.9660000801086426,-28.345001220703125
1788676377509574100,12.89257421875,-24.867000579833984,-2.2720000743865967,-27.328001022338867
1788676377525756200,12.908756103515625,-25.062000274658203,-3.125000238418579,-27.030000686645508
1788676377541928700,12.9249287109375,-25.373001098632812,-2.3620002269744873,-26.106000900268555
1788676377558000600,12.941000732421875,-26.77800178527832,-2.5870001316070557,-27.023000717163086
1788676377574143200,12.957143310546876,-24.554000854492188,-0.9800000190734863,-26.808000564575195
1788676377590281000,12.973281005859375,-24.461000442504883,-1.7450001239776611,-27.935001373291016
1788676377606478300,12.989478271484375,-24.648000717163086,-1.7280000448226929,-26.71200180053711
1788676377622667800,13.005667724609374,-25.51000213623047,-1.3000000715255737,-26.809001922607422
1788676377638749400,13.02174951171875,-25.309001922607422,-0.8760000467300415,-27.11100196838379
1788676377654907100,13.0379072265625,-24.46200180053711,-1.53000009059906,-27.83100128173828
1788676377671006700,13.0540068359375,-23.235000610351562,-2.0400002002716064,-25.80000114440918
1788676377687204900,13.070204833984375,-25.080001831054688,-2.4880001544952393,-27.431001663208008
1788676377703404000,13.086404052734375,-26.051000595092773,-1.3030000925064087,-27.114002227783203
1788676377719492000,13.1024921875,-25.184001922607422,-0.7560000419616699,-26.194002151489258
1788676377735654400,13.118654296875,-25.291000366210938,-0.8650000691413879,-26.296001434326172
1788676377751749400,13.134749267578124,-25.926000595092773,-1.2920000553131104,-26.299001693725586
1788676377767937300,13.150937255859375,-23.869001388549805,-1.7110000848770142,-25.28700065612793
1788676377784144600,13.16714453125,-24.663002014160156,0.2070000171661377,-26.18600082397461
1788676377800242000,13.183241943359375,-26.649002075195312,-0.7360000610351562,-24.867000579833984
1788676377816416000,13.199416015625,-24.94500160217285,-0.9570000171661377,-25.177001953125
1788676377832530000,13.215530029296875,-26.623001098632812,-1.152000069618225,-23.95400047302246
1788676377848750600,13.23175048828125,-24.519001007080078,-1.8240001201629639,-25.796001434326172
1788676377864942800,13.24794287109375,-25.58700180053711,0.12300000339746475,-24.55500030517578
1788676377881051100,13.264051025390625,-25.69900131225586,-1.284000039100647,-25.68800163269043
1788676377897185300,13.280185302734376,-25.184001922607422,-0.1080000028014183,-25.780000686645508
1788676377913289500,13.29628955078125,-25.567001342773438,-0.9450000524520874,-24.36100196838379
1788676377929468400,13.312468505859375,-26.09600067138672,-0.1850000023841858,-23.641000747680664
1788676377945643000,13.32864306640625,-26.31300163269043,-0.7270000576972961,-24.155000686645508
1788676377961756200,13.344756103515625,-25.679000854492188,-0.40800002217292786,-24.25400161743164
1788676377977892600,13.360892578125,-25.24300193786621,-0.07900000363588333,-23.641000747680664
1788676377994017300,13.377017333984375,-27.306001663208008,0.7670000195503235,-24.649002075195312
1788676378010197800,13.39319775390625,-25.139001846313477,0.7830000519752502,-23.226001739501953
1788676378026374100,13.4093740234375,-25.382001876831055,1.3050000667572021,-24.240001678466797
1788676378042492700,13.42549267578125,-24.295001983642578,-0.08900000154972076,-24.253000259399414
1788676378058638300,13.441638427734375,-23.90300178527832,1.942000150680542,-24.541000366210938
1788676378074775800,13.45777587890625,-24.94300079345703,0.8800000548362732,-23.93800163269043
1788676378090972700,13.47397265625,-26.764001846313477,2.5,-23.209001541137695
1788676378107155700,13.49015576171875,-25.654001235961914,1.5520000457763672,-21.894001007080078
1788676378123223600,13.5062236328125,-24.303001403808594,1.9590001106262207,-23.31800079345703
1788676378139356400,13.5223564453125,-26.213001251220703,1.5380001068115234,-23.014001846313477
1788676378155493600,13.53849365234375,-26.64000129699707,1.5380001068115234,-23.014001846313477
1788676378171689200,13.554689208984374,-26.624000549316406,1.8720000982284546,-22.09400177001953
1788676378187881500,13.570881591796875,-27.018001556396484,1.4600000381469727,-20.875001907348633
1788676378203965200,13.586965087890626,-25.992000579833984,1.3260000944137573,-22.81300163269043
1788676378220118000,13.603117919921875,-25.985000610351562,1.8700001239776611,-22.19700050354004
1788676378236213800,13.6192138671875,-28.684001922607422,3.1530001163482666,-22.691001892089844
1788676378252417000,13.6354169921875,-27.47300148010254,1.0120000839233398,-22.4060001373291
1788676378268614400,13.651614501953125,-25.67300033569336,2.2970001697540283,-22.295001983642578
1788676378284703000,13.667702880859375,-26.303001403808594,2.8440001010894775,-21.474000930786133
1788676378300846300,13.683846435546876,-25.309001922607422,1.4580000638961792,-20.87700080871582
1788676378316943600,13.699943603515624,-25.203001022338867,1.6730000972747803,-20.773000717163086
1788676378333145600,13.7161455078125,-25.897001266479492,1.8590000867843628,-23.012001037597656
1788676378349356800,13.732356689453125,-26.075000762939453,1.4480000734329224,-21.691001892089844
1788676378365462000,13.7484619140625,-25.268001556396484,2.3910000324249268,-23.21200180053711
1788676378381586700,13.764586669921876,-23.6460018157959,1.752000093460083,-22.71000099182129
1788676378397685800,13.780685791015625,-26.10900115966797,2.076000213623047,-22.806001663208008
1788676378413863000,13.79686279296875,-25.139001846313477,1.971000075340271,-22.50200080871582
1788676378430033000,13.813032958984374,-24.941001892089844,1.746000051498413,-23.32000160217285
1788676378446103300,13.829103271484374,-23.035001754760742,2.7060000896453857,-23.415000915527344
1788676378462297600,13.845297607421875,-23.235000610351562,1.7420001029968262,-23.424001693725586
1788676378478427600,13.861427734375,-22.551000595092773,2.0910000801086426,-21.282001495361328
1788676378494593300,13.87759326171875,-23.952001571655273,1.221000075340271,-22.409000396728516
1788676378510773500,13.8937734375,-22.490001678466797,2.9280002117156982,-22.803001403808594
1788676378526884000,13.909884033203125,-22.91900062561035,3.0360002517700195,-22.801000595092773
1788676378543035600,13.92603564453125,-24.181001663208008,2.509000062942505,-22.295001983642578
1788676378559174000,13.942173828125,-25.315000534057617,1.8860000371932983,-20.873001098632812
1788676378575373600,13.95837353515625,-22.35500144958496,2.188000202178955,-21.9950008392334
1788676378591565000,13.97456494140625,-23.885000228881836,3.250000238418579,-22.900001525878906
1788676378607644700,13.990644775390624,-23.292001724243164,1.7720000743865967,-21.1820011138916
1788676378623803400,14.006803466796875,-22.759000778198242,1.3380000591278076,-21.492000579833984
1788676378639953700,14.02295361328125,-23.101001739501953,2.622000217437744,-21.684001922607422
1788676378656159500,14.039159423828124,-24.793001174926758,2.0940001010894775,-21.279001235961914
1788676378672361700,14.05536181640625,-25.354001998901367,3.052000045776367,-21.881000518798828
1788676378688455000,14.071454833984374,-23.448001861572266,2.7150001525878906,-22.804000854492188
1788676378704643600,14.0876435546875,-21.488000869750977,1.7620000839233398,-21.694000244140625
1788676378720743400,14.103743408203124,-24.50400161743164,2.508000135421753,-22.397001266479492
1788676378736940000,14.11993994140625,-24.91400146484375,2.951000213623047,-21.373001098632812
1788676378753145900,14.136145751953125,-24.8960018157959,2.0970001220703125,-21.075000762939453
1788676378769241900,14.152241943359375,-23.60500144958496,2.749000072479248,-20.256000518798828
1788676378785416400,14.16841650390625,-25.3330020904541,1.6600000858306885,-21.792001724243164
1788676378801529300,14.184529296875,-23.286001205444336,1.9920001029968262,-20.773000717163086
1788676378817748000,14.200748046875,-25.011001586914062,2.5250000953674316,-21.17300033569336
1788676378833917200,14.216917236328126,-23.815000534057617,1.9950001239776611,-20.56800079345703
1788676378850020600,14.2330205078125,-24.043001174926758,1.8790000677108765,-21.282001495361328
1788676378866150400,14.249150390625,-22.74100112915039,2.322000026702881,-20.0570011138916
1788676378882272300,14.265272216796875,-23.599000930786133,1.6720000505447388,-20.67300033569336
1788676378898451000,14.281450927734374,-22.850000381469727,2.5370001792907715,-20.05500030517578
1788676378914630400,14.29763037109375,-25.512001037597656,1.1410000324249268,-20.57400131225586
1788676378930748000,14.313747802734374,-25.308000564575195,2.5390000343322754,-20.154001235961914
1788676378946882000,14.329882080078125,-24.42500114440918,2.2310001850128174,-19.03700065612793
1788676378963010000,14.346010009765624,-23.67500114440918,2.2310001850128174,-18.937000274658203
1788676378979188200,14.362188232421875,-23.35500144958496,2.555000066757202,-18.73000144958496
1788676378995364000,14.378364013671876,-24.902000427246094,3.390000104904175,-20.55500030517578
1788676379011471000,14.39447119140625,-24.999000549316406,3.505000114440918,-20.04400062561035
1788676379027590000,14.41058984375,-25.082000732421875,3.0870001316070557,-19.233001708984375
1788676379043720200,14.42672021484375,-22.987001419067383,5.005000114440918,-19.830001831054688
1788676379059893800,14.442893798828125,-24.26300048828125,3.821000099182129,-20.34800148010254
1788676379076082200,14.459082275390625,-22.841001510620117,2.5420000553131104,-19.648000717163086
1788676379092198400,14.475198486328125,-23.40300178527832,3.06600022315979,-20.559001922607422
1788676379108347400,14.491347412109375,-22.112001419067383,4.690999984741211,-19.121000289916992
1788676379124487400,14.5074873046875,-22.227001190185547,4.578999996185303,-19.529001235961914
1788676379140683300,14.523683349609374,-23.343000411987305,3.2110002040863037,-17.808000564575195
1788676379156872000,14.539871826171876,-22.959001541137695,3.508000135421753,-19.53700065612793
1788676379172951600,14.55595166015625,-24.88300132751465,2.9700000286102295,-19.94700050354004
1788676379189106400,14.5721064453125,-23.934001922607422,3.501000165939331,-20.147001266479492
1788676379205202400,14.588202392578125,-23.841001510620117,5.330000400543213,-19.62200164794922
1788676379221408000,14.604407958984375,-23.700000762939453,3.189000129699707,-19.437000274658203
1788676379237612000,14.620612060546875,-25.106000900268555,3.829000234603882,-19.83700180053711
1788676379253709000,14.636708984375,-23.50400161743164,4.151000022888184,-19.63300132751465
1788676379269870000,14.6528701171875,-22.665000915527344,4.573000431060791,-20.038000106811523
1788676379285963300,14.66896337890625,-25.62900161743164,4.701000213623047,-18.810001373291016
1788676379302180000,14.68518017578125,-24.31800079345703,3.8520002365112305,-18.005001068115234
1788676379318390800,14.701390869140624,-21.455001831054688,2.9710001945495605,-19.442001342773438
1788676379334506500,14.717506591796875,-23.99700164794922,3.8520002365112305,-18.005001068115234
1788676379350686200,14.733686279296874,-24.44300079345703,2.869000196456909,-19.439001083374023
1788676379366809300,14.749809326171874,-22.416000366210938,3.8370001316070557,-18.924001693725586
1788676379382950000,14.765949951171875,-23.179000854492188,3.937000274658203,-19.533000946044922
1788676379399125000,14.782125,-23.358001708984375,3.31000018119812,-18.418001174926758
1788676379415238100,14.798238037109375,-24.025001525878906,3.8350002765655518,-19.22800064086914
1788676379431384000,14.814384033203124,-22.766000747680664,3.820000171661377,-20.248001098632812
1788676379447522000,14.83052197265625,-23.143001556396484,2.878000020980835,-18.626001358032227
1788676379463691300,14.846691162109375,-22.08300018310547,3.4120001792907715,-18.623001098632812
1788676379479878100,14.862878173828125,-22.905000686645508,3.5410001277923584,-17.09200096130371
1788676379495950000,14.8789501953125,-24.242000579833984,3.617000102996826,-19.535001754760742
1788676379512097800,14.895097900390626,-22.21700096130371,4.368000030517578,-19.225000381469727
1788676379528236500,14.911236572265626,-22.647001266479492,5.556000232696533,-18.60300064086914
1788676379544427300,14.92742724609375,-22.530000686645508,4.1570000648498535,-19.023000717163086
1788676379560616400,14.943616455078125,-21.34200096130371,3.4070000648498535,-18.929000854492188
1788676379576696800,14.95969677734375,-20.267000198364258,3.8420002460479736,-18.315000534057617
1788676379592839000,14.9758388671875,-22.566001892089844,4.460000038146973,-20.446001052856445
1788676379608985000,14.991985107421876,-20.83300018310547,3.1750001907348633,-20.154001235961914
1788676379625173500,15.008173583984375,-21.773000717163086,3.2970001697540283,-19.13300132751465
1788676379641379000,15.024379150390626,-22.112001419067383,2.8540000915527344,-20.257001876831055
1788676379657452000,15.0404521484375,-20.384000778198242,2.755000114440918,-19.44500160217285
1788676379673612000,15.056612060546875,-20.951000213623047,4.0329999923706055,-20.147001266479492
1788676379689711600,15.072711669921874,-18.9060001373291,2.635000228881836,-20.26300048828125
1788676379705924000,15.088924072265625,-18.797000885009766,1.9870001077651978,-20.575000762939453
1788676379722127600,15.105127685546876,-20.891000747680664,2.6640000343322754,-18.325000762939453
1788676379738226400,15.121226318359374,-20.58300018310547,2.2240002155303955,-19.144001007080078
1788676379754403000,15.137403076171875,-20.069000244140625,2.9680001735687256,-19.546001434326172
1788676379770516700,15.153516845703125,-20.062000274658203,1.999000072479248,-19.860000610351562
1788676379786738700,15.16973876953125,-20.384000778198242,3.080000162124634,-19.23900032043457
1788676379802954500,15.18595458984375,-20.59400177001953,2.326000213623047,-19.551000595092773
1788676379819060700,15.202060791015626,-21.970001220703125,3.632000207901001,-18.213001251220703
1788676379835192600,15.218192626953124,-20.78700065612793,1.690000057220459,-19.047000885009766
1788676379851314700,15.234314697265624,-21.849000930786133,1.5870001316070557,-18.843000411987305
1788676379867487000,15.250487060546876,-20.808000564575195,2.5420000553131104,-19.44700050354004
1788676379883658800,15.26665869140625,-20.37900161743164,2.1090002059936523,-19.655000686645508
1788676379899778300,15.2827783203125,-21.416000366210938,2.455000162124634,-18.020999908447266
1788676379915913200,15.298913330078125,-21.841001510620117,1.4840000867843628,-18.538000106811523
1788676379932044300,15.315044189453126,-20.670000076293945,1.5880000591278076,-18.64000129699707
1788676379948229000,15.33122900390625,-21.418001174926758,1.156000018119812,-18.94900131225586
1788676379964408800,15.347408935546875,-17.839000701904297,4.0370001792907715,-19.437000274658203
1788676379980480300,15.363480224609376,-18.44300079345703,2.5470001697540283,-18.737001419067383
1788676379996622300,15.379622314453124,-19.591001510620117,2.133000135421753,-17.82200050354004
1788676380012755700,15.395755615234375,-20.130001068115234,2.13100004196167,-18.025001525878906
1788676380028917200,15.411917236328126,-19.52400016784668,2.9740002155303955,-19.03700065612793
1788676380045101000,15.42810107421875,-19.80900001525879,1.915000081062317,-18.12900161743164
1788676380061183200,15.444183349609375,-19.07000160217285,2.3410000801086426,-18.22800064086914
1788676380077328100,15.460328125,-20.47100067138672,3.9560000896453857,-17.80500030517578
1788676380093418500,15.47641845703125,-20.446001052856445,2.999000072479248,-17.304000854492188
1788676380109621200,15.492621337890625,-18.867000579833984,2.3340001106262207,-18.738000869750977
1788676380125814500,15.508814453125,-20.46000099182129,3.2060000896453857,-17.81100082397461
1788676380141902000,15.524902099609376,-21.097000122070312,2.453000068664551,-18.123001098632812
1788676380158041300,15.541041259765626,-19.058000564575195,2.132000207901001,-17.822999954223633
1788676380174135800,15.5571357421875,-21.117000579833984,4.170000076293945,-17.904001235961914
1788676380190327000,15.5733271484375,-19.160001754760742,3.9720001220703125,-16.48200035095215
1788676380206526700,15.589526611328125,-20.37900161743164,5.3520002365112305,-17.589000701904297
1788676380222599000,15.605598876953126,-20.042001724243164,3.5240001678466797,-18.01300048828125
1788676380238759000,15.621759033203125,-19.181001663208008,3.8510000705718994,-17.50200080871582
1788676380254872800,15.637872802734375,-20.05500030517578,5.246000289916992,-17.488000869750977
1788676380271084500,15.65408447265625,-21.21900177001953,4.822000026702881,-17.28700065612793
1788676380287296800,15.670296875,-19.69900131225586,3.32200026512146,-17.09800148010254
1788676380303413500,15.68641357421875,-18.572999954223633,4.9110002517700195,-18.308000564575195
1788676380319545600,15.702545654296875,-19.282001495361328,3.747000217437744,-17.299001693725586
1788676380335665700,15.718665771484375,-17.68000030517578,5.0410003662109375,-16.475000381469727
1788676380351842300,15.73484228515625,-18.446001052856445,5.572000026702881,-16.97800064086914
1788676380368008700,15.7510087890625,-20.101001739501953,5.174000263214111,-14.840001106262207
1788676380384076800,15.767076904296875,-18.98200035095215,6.544000148773193,-16.46000099182129
1788676380400218600,15.783218505859375,-18.450000762939453,5.677000045776367,-17.07900047302246
1788676380416346000,15.79934619140625,-19.19099998474121,6.547000408172607,-16.256000518798828
1788676380432528400,15.8155283203125,-19.729000091552734,6.978000164031982,-16.14900016784668
1788676380448703500,15.831703369140625,-18.452001571655273,6.000000476837158,-16.974000930786133
1788676380464776700,15.847776611328126,-18.351001739501953,6.213000297546387,-17.075000762939453
1788676380480928300,15.86392822265625,-18.999000549316406,6.750000476837158,-17.069000244140625
1788676380497070600,15.880070556640625,-20.351001739501953,4.504000186920166,-16.88300132751465
1788676380513259500,15.896259521484374,-20.57200050354004,6.01300048828125,-16.259000778198242
1788676380529446400,15.9124462890625,-19.578001022338867,4.951000213623047,-15.454000473022461
1788676380545524200,15.928524169921875,-18.72800064086914,5.271000385284424,-15.453001022338867
1788676380561686800,15.944686767578125,-17.974000930786133,4.950000286102295,-15.35400104522705
1788676380577779700,15.96077978515625,-18.645000457763672,4.5,-16.987001419067383
1788676380593977300,15.976977294921875,-19.15300178527832,3.9760000705718994,-16.176000595092773
1788676380610174000,15.993174072265624,-19.1460018157959,4.736999988555908,-15.355000495910645
1788676380626263600,16.009263671875,-18.672000885009766,5.997000217437744,-17.280000686645508
1788676380642433500,16.02543359375,-18.631999969482422,4.400000095367432,-16.479000091552734
1788676380658535200,16.04153515625,-18.378000259399414,5.224000453948975,-18.917001724243164
1788676380674747100,16.0577470703125,-18.420000076293945,5.479000091552734,-15.859001159667969
1788676380690954000,16.0739541015625,-17.474000930786133,4.604000091552734,-17.09000015258789
1788676380707053600,16.090053466796874,-18.11600112915039,4.172000408172607,-17.398000717163086
1788676380723213800,16.1062138671875,-17.593000411987305,4.48900032043457,-17.702001571655273
1788676380739330600,16.12233056640625,-15.469000816345215,4.694000244140625,-18.110000610351562
1788676380755530800,16.13853076171875,-18.77400016784668,5.459000110626221,-17.386001586914062
1788676380771699000,16.154698974609374,-15.967000961303711,3.8530001640319824,-16.99700164794922
1788676380787808500,16.17080859375,-17.461999893188477,3.747000217437744,-17.097000122070312
1788676380803931400,16.186931396484376,-17.917001724243164,5.244000434875488,-17.388999938964844
1788676380820053200,16.20305322265625,-17.755001068115234,3.872000217437744,-15.772000312805176
1788676380836228000,16.21922802734375,-18.21000099182129,4.611999988555908,-16.579999923706055
1788676380852398600,16.235398681640625,-16.595001220703125,3.754000186920166,-16.487001419067383
1788676380868512000,16.251511962890625,-15.409000396728516,3.6500000953674316,-16.082000732421875
1788676380884652300,16.26765234375,-17.9010009765625,4.605000019073486,-17.089000701904297
1788676380900783600,16.28378369140625,-15.658000946044922,4.061000347137451,-17.402999877929688
1788676380916967400,16.299967529296875,-17.582000732421875,3.8470001220703125,-17.606000900268555
1788676380933152500,16.316152587890624,-17.918001174926758,4.1620001792907715,-18.112001419067383
1788676380949228000,16.33222802734375,-19.73200035095215,4.38200044631958,-17.904001235961914
1788676380965376500,16.34837646484375,-17.388999938964844,3.8350002765655518,-18.523000717163086
1788676380981520400,16.364520263671874,-15.737000465393066,2.6740000247955322,-17.006999969482422
1788676380997715000,16.38071484375,-16.623001098632812,4.169000148773193,-17.50200080871582
1788676381013904000,16.39690380859375,-17.900001525878906,3.8490002155303955,-17.503000259399414
1788676381029986300,16.412986328125,-16.910001754760742,3.433000087738037,-16.490001678466797
1788676381046134500,16.429134521484375,-19.273000717163086,4.077000141143799,-16.685001373291016
1788676381062229200,16.445229248046875,-17.027999877929688,3.4260001182556152,-16.999000549316406
1788676381078430000,16.461429931640627,-17.808000564575195,4.272000312805176,-17.907001495361328
1788676381094633500,16.477633544921876,-16.917001724243164,3.4280002117156982,-16.795000076293945
1788676381110734800,16.49373486328125,-17.671001434326172,5.047000408172607,-16.067001342773438
1788676381126900000,16.50989990234375,-19.171001434326172,4.398000240325928,-16.6820011138916
1788676381142996500,16.52599658203125,-17.97300148010254,4.51800012588501,-15.562000274658203
1788676381159205400,16.542205322265627,-18.834001541137695,5.380000114440918,-15.350000381469727
1788676381175412000,16.558411865234376,-20.488000869750977,3.254000186920166,-14.246000289916992
1788676381191504400,16.57450439453125,-19.974000930786133,4.322000026702881,-14.441000938415527
1788676381207677400,16.590677490234373,-19.360000610351562,4.305000305175781,-15.664000511169434
1788676381223788300,16.606788330078125,-18.998001098632812,2.9250001907348633,-14.658000946044922
1788676381240001500,16.62300146484375,-19.838001251220703,3.367000102996826,-13.736001014709473
1788676381256214000,16.639214111328126,-18.55500030517578,4.771000385284424,-12.809000968933105
1788676381272312300,16.655312255859375,-19.54800033569336,4.753000259399414,-14.234000205993652
1788676381288423200,16.671423095703126,-19.727001190185547,4.558000087738037,-12.809000968933105
1788676381304543500,16.68754345703125,-20.604000091552734,4.546000003814697,-13.827000617980957
1788676381320710400,16.70371044921875,-19.523000717163086,4.444000244140625,-13.320000648498535
1788676381336881000,16.719880859375,-20.707000732421875,4.764000415802002,-13.519001007080078
1788676381352992500,16.735992431640625,-18.894001007080078,5.084000110626221,-13.417000770568848
1788676381369112000,16.752112060546875,-18.689001083374023,5.079000473022461,-13.824000358581543
1788676381385239600,16.768239501953126,-18.253000259399414,5.083000183105469,-13.417000770568848
1788676381401413000,16.7844130859375,-17.48200035095215,4.340000152587891,-12.814001083374023
1788676381417598700,16.8005986328125,-17.93000030517578,6.381000518798828,-12.49000072479248
1788676381433665000,16.8166650390625,-20.113000869750977,7.005000114440918,-14.213000297546387
1788676381449806000,16.83280615234375,-19.207000732421875,5.413000106811523,-12.904000282287598
1788676381465943800,16.84894384765625,-18.19900131225586,7.429000377655029,-14.314001083374023
1788676381482130700,16.865130615234374,-18.5210018157959,7.212000370025635,-14.519001007080078
1788676381498318600,16.881318603515624,-19.948001861572266,6.391000270843506,-11.97800064086914
1788676381514386400,16.897386474609377,-17.547000885009766,6.246000289916992,-14.529000282287598
1788676381530525700,16.913525634765627,-18.576000213623047,5.623000144958496,-13.209000587463379
1788676381546621200,16.92962109375,-17.96500015258789,6.901000499725342,-13.707000732421875
1788676381562817500,16.945817626953126,-19.666000366210938,6.259000301361084,-13.813000679016113
1788676381579019000,16.96201904296875,-19.439001083374023,6.37600040435791,-13.099000930786133
1788676381595105000,16.97810498046875,-17.756000518798828,6.249000072479248,-14.325000762939453
1788676381611272200,16.994272216796876,-19.57400131225586,6.7910003662109375,-14.11400032043457
1788676381627371800,17.010371826171873,-19.28700065612793,7.418000221252441,-15.22900104522705
1788676381643583700,17.026583740234376,-18.60900115966797,6.683000087738037,-14.01400089263916
1788676381659789600,17.04278955078125,-16.670000076293945,6.258000373840332,-13.511000633239746
1788676381675887600,17.0588876953125,-18.036001205444336,5.302000045776367,-13.110000610351562
1788676381692011000,17.075010986328124,-17.966001510620117,5.819000244140625,-14.430000305175781
1788676381708125200,17.091125244140624,-16.993000030517578,4.636000156402588,-14.645000457763672
1788676381724289300,17.107289306640624,-17.204999923706055,5.502000331878662,-14.0260009765625
1788676381740451300,17.123451416015627,-17.34400177001953,6.023000240325928,-15.142001152038574
1788676381756555500,17.139555419921876,-15.943000793457031,5.5960001945495605,-14.842000961303711
1788676381772685600,17.155685546875,-15.278000831604004,8.572000503540039,-16.650001525878906
1788676381788840000,17.17183984375,-15.134000778198242,6.865000247955322,-16.054000854492188
1788676381805008600,17.188008544921875,-15.312000274658203,6.130000114440918,-14.940000534057617
1788676381821174500,17.204174560546875,-16.091001510620117,7.085000514984131,-15.745000839233398
1788676381837281800,17.22028173828125,-16.077001571655273,6.444000244140625,-15.547000885009766
1788676381853411600,17.23641162109375,-16.076000213623047,6.9860005378723145,-15.135001182556152
1788676381869553000,17.252552978515624,-15.084000587463379,6.571000099182129,-14.020000457763672
1788676381885732600,17.268732666015627,-15.890000343322754,6.860000133514404,-16.461000442504883
1788676381901915400,17.284915283203127,-16.75,5.994000434875488,-17.282001495361328
1788676381917987600,17.300987548828125,-16.277999877929688,5.696000099182129,-15.452000617980957
1788676381934133800,17.3171337890625,-15.329000473022461,6.228000164031982,-15.652000427246094
1788676381950310000,17.333309814453123,-16.60500144958496,6.125000476837158,-15.44800090789795
1788676381966509000,17.349509033203127,-16.062000274658203,6.021000385284424,-15.144001007080078
1788676381982701800,17.365701904296873,-14.725000381469727,6.420000076293945,-17.179000854492188
1788676381998784000,17.381783935546874,-14.044000625610352,5.795000076293945,-15.759000778198242
1788676382014941000,17.39794091796875,-15.070000648498535,7.487000465393066,-17.577001571655273
1788676382031121200,17.41412109375,-15.212000846862793,6.450000286102295,-15.039000511169434
1788676382047316700,17.430316650390626,-17.248001098632812,5.692000389099121,-15.858000755310059
1788676382063516400,17.446516357421874,-16.856000900268555,6.211000442504883,-17.076000213623047
1788676382079606000,17.46260595703125,-17.260000228881836,5.0370001792907715,-16.7810001373291
1788676382095762200,17.47876220703125,-17.242000579833984,5.26300048828125,-15.862000465393066
1788676382111889700,17.4948896484375,-15.886000633239746,5.566000461578369,-17.08300018310547
1788676382128093400,17.511093505859375,-16.543001174926758,6.098000526428223,-17.485000610351562
1788676382144292600,17.527292724609374,-16.165000915527344,4.7270002365112305,-15.766000747680664
1788676382160399600,17.543399658203125,-17.47300148010254,4.713000297546387,-16.987001419067383
1788676382176569600,17.559569580078126,-14.594000816345215,5.138000011444092,-16.885000228881836
1788676382192720600,17.575720703125,-14.391000747680664,5.564000129699707,-17.08500099182129
1788676382208883200,17.59188330078125,-14.749000549316406,5.650000095367432,-18.714000701904297
1788676382225048300,17.60804833984375,-15.778000831604004,5.675000190734863,-16.981000900268555
1788676382241155300,17.6241552734375,-15.465001106262207,6.64300012588501,-16.667001724243164
1788676382257281800,17.64028173828125,-15.792000770568848,5.6660003662109375,-17.59200096130371
1788676382273442600,17.656442626953126,-14.463000297546387,4.828999996185303,-15.971000671386719
1788676382289594000,17.672593994140627,-16.60700035095215,5.151000022888184,-16.16900062561035
1788676382305770500,17.6887705078125,-15.680000305175781,5.777000427246094,-17.286001205444336
1788676382321871600,17.70487158203125,-15.666000366210938,6.110000133514404,-16.468000411987305
1788676382337995500,17.72099560546875,-16.21000099182129,6.970000267028809,-16.358001708984375
1788676382354151200,17.737151123046875,-15.247000694274902,5.672000408172607,-17.08300018310547
1788676382370341600,17.753341552734376,-15.338000297546387,7.51900053024292,-15.233000755310059
1788676382386522400,17.7695224609375,-15.213000297546387,6.881000518798828,-14.832000732421875
1788676382402623700,17.785623779296873,-15.499000549316406,7.811000347137451,-17.472000122070312
1788676382418750200,17.801750244140624,-16.22800064086914,8.147000312805176,-16.44900131225586
1788676382434885000,17.817885009765625,-17.468000411987305,6.985000133514404,-15.337000846862793
1788676382451071700,17.83407177734375,-15.506000518798828,8.455000877380371,-17.36400032043457
1788676382467259600,17.850259765625,-15.052000999450684,8.038000106811523,-16.451000213623047
1788676382483323000,17.866322998046876,-15.666000366210938,8.380000114440918,-15.021000862121582
1788676382499468500,17.882468505859375,-16.869001388549805,8.797000885009766,-16.03499984741211
1788676382515596000,17.898595947265626,-15.487000465393066,8.789999961853027,-16.34200096130371
1788676382531794700,17.914794677734374,-14.826001167297363,8.802000045776367,-15.426000595092773
1788676382547987500,17.930987548828124,-14.41300106048584,8.469000816345215,-16.2450008392334
1788676382564075500,17.947075439453126,-14.808000564575195,8.813000679016113,-14.611001014709473
1788676382580236300,17.963236328125,-16.75,7.2910003662109375,-16.45600128173828
1788676382596369000,17.979368896484374,-14.30000114440918,7.175000190734863,-16.766000747680664
1788676382612571000,17.99557080078125,-15.056000709533691,9.440999984741211,-15.726000785827637
1788676382628767200,18.011767333984373,-14.86400032043457,8.563000679016113,-17.262001037597656
1788676382644862000,18.027862060546877,-14.85300064086914,9.218000411987305,-16.339000701904297
1788676382660982300,18.043982177734375,-16.339000701904297,7.929000377655029,-16.756000518798828
1788676382677134800,18.060134765625,-14.86400032043457,8.563000679016113,-17.262001037597656
1788676382693343200,18.07634326171875,-17.64000129699707,9.2160005569458,-16.845001220703125
1788676382709501700,18.092501708984376,-14.860000610351562,9.105000495910645,-16.748001098632812
1788676382725605000,18.108605224609374,-16.142000198364258,9.32300090789795,-16.642000198364258
1788676382741753000,18.124753173828125,-16.775001525878906,8.788000106811523,-16.645999908447266
1788676382757900500,18.140900634765625,-16.371000289916992,8.450000762939453,-17.87200164794922
1788676382774072600,18.157072509765626,-14.11400032043457,9.53600025177002,-16.541000366210938
1788676382790241800,18.17324169921875,-15.699000358581543,8.684000015258789,-16.343000411987305
1788676382806304500,18.189304443359376,-17.01500129699707,8.664999961853027,-17.8700008392334
1788676382822439400,18.205439453125,-16.99100112915039,8.463000297546387,-16.954999923706055
1788676382838601700,18.221601806640624,-17.99100112915039,9.414000511169434,-18.065000534057617
1788676382854776000,18.237776123046874,-15.744000434875488,9.305000305175781,-17.96700096130371
1788676382870952000,18.253951904296876,-15.18600082397461,8.995000839233398,-17.054000854492188
1788676382887021300,18.270021240234374,-13.85300064086914,9.824000358581543,-18.98400115966797
1788676382903163600,18.28616357421875,-15.969000816345215,10.271000862121582,-17.85700035095215
1788676382919314700,18.302314697265626,-13.9010009765625,9.427000045776367,-16.644001007080078
1788676382935460000,18.318460205078125,-14.903000831604004,10.052000045776367,-18.064001083374023
1788676382951647000,18.33464697265625,-12.975000381469727,10.809000968933105,-17.34600067138672
1788676382967755500,18.350755615234377,-15.523000717163086,9.201000213623047,-17.663000106811523
1788676382983891500,18.366891357421874,-14.456000328063965,9.307000160217285,-17.663000106811523
1788676383000004400,18.38300439453125,-16.08500099182129,9.293000221252441,-18.884000778198242
1788676383016208100,18.3992080078125,-13.405000686645508,8.863000869750977,-18.687000274658203
1788676383032407800,18.41540771484375,-14.680000305175781,8.869000434875488,-18.380001068115234
1788676383048491500,18.431491455078124,-15.99000072479248,9.610000610351562,-19.187000274658203
1788676383064647400,18.4476474609375,-16.375,8.555000305175781,-17.97300148010254
1788676383080776200,18.463776123046873,-15.5600004196167,9.611000061035156,-19.08500099182129
1788676383096990200,18.479990234375,-14.689001083374023,10.052000045776367,-18.064001083374023
1788676383113155000,18.496155029296876,-17.23400115966797,10.067000389099121,-17.246000289916992
1788676383129262800,18.512262939453127,-16.093000411987305,8.855999946594238,-19.499000549316406
1788676383145384400,18.528384521484377,-15.220000267028809,9.29800033569336,-18.376001358032227
1788676383161535000,18.544534912109373,-14.438000679016113,8.669000625610352,-17.262001037597656
1788676383177705000,18.560705078125,-16.209001541137695,10.039000511169434,-19.183000564575195
1788676383193869300,18.576869384765626,-16.095001220703125,8.855000495910645,-19.601001739501953
1788676383209979100,18.592979248046873,-14.088000297546387,9.919000625610352,-19.900001525878906
1788676383226114000,18.609114013671874,-15.540000915527344,8.975000381469727,-18.582000732421875
1788676383242277000,18.625277099609374,-16.402000427246094,9.188000679016113,-18.782001495361328
1788676383258453200,18.641453369140624,-16.203001022338867,8.42199993133545,-19.910001754760742
1788676383274619600,18.65761962890625,-16.387001037597656,8.980000495910645,-18.275001525878906
1788676383290687500,18.6736875,-15.665000915527344,8.964000701904297,-19.397001266479492
1788676383306823200,18.6898232421875,-17.384000778198242,9.068000793457031,-19.801000595092773
1788676383322988500,18.705988525390627,-15.783000946044922,8.309000015258789,-20.319000244140625
1788676383339171800,18.722171875,-15.5600004196167,9.28700065612793,-19.292001724243164
1788676383355351000,18.73835107421875,-14.469000816345215,8.759000778198242,-18.58500099182129
1788676383371428400,18.754428466796874,-13.862000465393066,9.170000076293945,-19.80500030517578
1788676383387573800,18.77057373046875,-18.017000198364258,9.182000160217285,-19.392000198364258
1788676383403665000,18.786664794921876,-16.72300148010254,9.620000839233398,-18.575000762939453
1788676383419861200,18.802861328125,-18.74700164794922,11.031000137329102,-17.439001083374023
1788676383436054800,18.8190546875,-18.10700035095215,9.949000358581543,-18.16200065612793
1788676383452140800,18.835140869140623,-17.376001358032227,9.505000114440918,-19.18600082397461
1788676383468294700,18.851294677734376,-18.003000259399414,10.487000465393066,-17.95400047302246
1788676383484412400,18.867412353515626,-16.28900146484375,11.244000434875488,-17.236000061035156
1788676383500551700,18.8835517578125,-17.678001403808594,9.517000198364258,-18.371000289916992
1788676383516747000,18.8997470703125,-17.00800132751465,9.9660005569458,-16.738000869750977
1788676383532818400,18.915818359375,-17.113000869750977,8.562000274658203,-17.565000534057617
1788676383548966100,18.931966064453125,-17.457000732421875,9.95300006866455,-17.756000518798828
1788676383565085700,18.948085693359374,-15.999000549316406,11.442000389099121,-18.45800018310547
1788676383581284000,18.9642841796875,-16.104000091552734,10.795000076293945,-18.769001007080078
1788676383597493000,18.980492919921875,-18.7810001373291,10.253000259399414,-19.483001708984375
1788676383613591000,18.996591064453124,-16.393001556396484,10.057000160217285,-17.858001708984375
1788676383629713000,19.012712890625,-16.725000381469727,10.051000595092773,-18.367000579833984
1788676383645866500,19.028866455078123,-14.953001022338867,10.562000274658203,-19.9950008392334
1788676383662037200,19.045037353515625,-17.935001373291016,10.679000854492188,-19.582000732421875
1788676383678210000,19.0612099609375,-16.211000442504883,10.146000862121582,-19.1820011138916
1788676383694326500,19.077326416015627,-17.135000228881836,9.845000267028809,-17.756999969482422
1788676383710464500,19.093464599609376,-15.463000297546387,10.794000625610352,-18.770000457763672
1788676383726625500,19.10962548828125,-13.664000511169434,10.67300033569336,-19.588001251220703
1788676383742794200,19.125794189453124,-13.11400032043457,9.817000389099121,-19.392000198364258
1788676383758969900,19.141969970703126,-14.294000625610352,10.896000862121582,-18.974000930786133
1788676383775035000,19.158034912109375,-14.19800090789795,9.701000213623047,-20.207000732421875
1788676383791172900,19.1741728515625,-15.613000869750977,9.795000076293945,-21.325000762939453
1788676383807335000,19.1903349609375,-14.757000923156738,10.011000633239746,-21.1200008392334
1788676383823513600,19.206513671875,-14.617000579833984,10.247000694274902,-19.488000869750977
1788676383839692300,19.2226923828125,-15.79800033569336,10.569000244140625,-19.586000442504883
1788676383855765800,19.238765869140625,-15.36600112915039,10.031000137329102,-19.69300079345703
1788676383871914800,19.254914794921874,-16.8700008392334,9.704000473022461,-20.30500030517578
1788676383888042500,19.27104248046875,-14.839000701904297,9.702000617980957,-20.20600128173828
1788676383904240400,19.287240478515624,-14.731000900268555,8.622000694274902,-20.827001571655273
1788676383920433200,19.30343310546875,-15.357000350952148,8.52400016784668,-20.216001510620117
1788676383936515300,19.319515380859375,-14.72800064086914,8.407000541687012,-20.82900047302246
1788676383952671500,19.33567138671875,-15.781001091003418,9.17400074005127,-19.700000762939453
1788676383968800300,19.35180029296875,-15.986001014709473,8.855999946594238,-19.499000549316406
1788676383984957400,19.36795751953125,-13.041000366210938,8.824000358581543,-21.540000915527344
1788676384001154000,19.384154052734374,-14.195000648498535,9.595000267028809,-20.106000900268555
1788676384017243600,19.40024365234375,-13.893000602722168,9.475000381469727,-21.02400016784668
1788676384033388800,19.416388916015624,-13.357000350952148,8.827000617980957,-21.336000442504883
1788676384049519600,19.43251953125,-14.092000961303711,8.72800064086914,-20.827001571655273
1788676384065690600,19.448690673828125,-13.469000816345215,9.039999961853027,-21.43600082397461
1788676384081856800,19.464856689453125,-14.838000297546387,9.16200065612793,-20.516000747680664
1788676384097964300,19.48096435546875,-13.101000785827637,8.528000831604004,-19.60700035095215
1788676384114071300,19.4970712890625,-13.643000602722168,7.984000205993652,-20.325000762939453
1788676384130208300,19.513208251953124,-12.373000144958496,7.975000381469727,-20.836000442504883
1788676384146323200,19.5293232421875,-13.034000396728516,8.93600082397461,-21.132001876831055
1788676384162490000,19.545489990234376,-14.071001052856445,8.200000762939453,-20.220001220703125
1788676384178588400,19.56158837890625,-13.422000885009766,6.799000263214111,-20.74300193786621
1788676384194715100,19.577715087890624,-14.38900089263916,7.553000450134277,-20.5310001373291
1788676384210871800,19.593871826171874,-14.29800033569336,8.192000389099121,-20.83100128173828
1788676384227054800,19.610054931640626,-13.444000244140625,8.190999984741211,-20.832000732421875
1788676384243237600,19.626237548828126,-12.995000839233398,7.447000503540039,-20.330001831054688
1788676384259270100,19.642270263671875,-13.613000869750977,7.137000560760498,-19.517000198364258
1788676384275416000,19.658416015625,-15.76400089263916,7.240000247955322,-20.125001907348633
1788676384291586800,19.6745869140625,-13.11500072479248,6.250000476837158,-21.665000915527344
1788676384307772200,19.690772216796876,-13.415000915527344,5.2900004386901855,-21.367000579833984
1788676384323956700,19.706956787109377,-13.623001098632812,7.023000240325928,-20.02800178527832
1788676384340035800,19.723035888671873,-14.610000610351562,6.793000221252441,-21.35300064086914
1788676384356169200,19.739169189453126,-14.480000495910645,6.266000270843506,-20.644001007080078
1788676384372313000,19.75531298828125,-13.116000175476074,6.142000198364258,-21.768001556396484
1788676384388506000,19.771506103515627,-13.203001022338867,7.234000205993652,-20.23000144958496
1788676384404699000,19.787698974609373,-12.868000984191895,5.946000099182129,-20.34400177001953
1788676384420779500,19.803779541015626,-15.428000450134277,5.952000141143799,-20.238000869750977
1788676384436940000,19.81993994140625,-14.296000480651855,7.5450005531311035,-21.143001556396484
1788676384453079600,19.83607958984375,-13.62600040435791,7.238000392913818,-20.0260009765625
1788676384469291300,19.852291259765625,-12.967000961303711,6.383000373840332,-19.72800064086914
1788676384485497000,19.8684970703125,-12.349000930786133,6.693000316619873,-20.541000366210938
1788676384501575400,19.884575439453126,-13.959000587463379,6.690000534057617,-20.94700050354004
1788676384517749200,19.900749267578124,-13.195000648498535,6.807000160217285,-20.132001876831055
1788676384533903600,19.916903564453126,-12.88800048828125,7.447000503540039,-20.330001831054688
1788676384550124800,19.933124755859374,-12.78700065612793,7.659000396728516,-20.43000030517578
1788676384566289700,19.94928955078125,-14.242000579833984,6.6050004959106445,-19.317001342773438
1788676384582397000,19.96539697265625,-13.869000434875488,7.544000148773193,-21.143001556396484
1788676384598533000,19.981533203125,-14.040000915527344,7.13800048828125,-19.517000198364258
1788676384614686700,19.997686767578124,-13.943000793457031,7.672000408172607,-19.61400032043457
1788676384630863400,20.01386328125,-14.882000923156738,7.579000473022461,-18.69700050354004
1788676384647035000,20.030034912109375,-12.336000442504883,7.133000373840332,-19.72300148010254
1788676384663126800,20.046126708984374,-13.523000717163086,9.829000473022461,-18.577001571655273
1788676384679245600,20.06224560546875,-14.859001159667969,7.701000213623047,-17.575000762939453
1788676384695391700,20.078391845703123,-13.831000328063965,8.756000518798828,-18.68800163269043
1788676384711571500,20.094571533203126,-15.94800090789795,8.446000099182129,-18.077001571655273
1788676384727747000,20.1107470703125,-16.082000732421875,8.430000305175781,-19.299001693725586
1788676384743810600,20.126810546875,-12.947000503540039,8.124000549316406,-17.77800178527832
1788676384759951000,20.142951171875,-15.087000846862793,9.206000328063965,-17.256000518798828
1788676384776118800,20.159118896484376,-14.039000511169434,8.544000625610352,-18.58700180053711
1788676384792309800,20.175309814453126,-15.972001075744629,9.297000885009766,-18.578001022338867
1788676384808494600,20.19149462890625,-15.325000762939453,8.543000221252441,-18.790000915527344
1788676384824568600,20.207568603515625,-14.660000801086426,7.260000228881836,-18.496000289916992
1788676384840714800,20.22371484375,-16.987001419067383,9.11400032043457,-16.338001251220703
1788676384856891000,20.239890869140623,-15.964000701904297,8.761000633239746,-18.58300018310547
1788676384873091000,20.256091064453123,-14.261000633239746,9.295000076293945,-18.479000091552734
1788676384889286000,20.272285888671874,-16.60700035095215,9.733000755310059,-18.064001083374023
1788676384905367800,20.288367919921875,-15.6510009765625,8.324000358581543,-19.19900131225586
1788676384921525200,20.304525146484377,-15.55000114440918,9.401000022888184,-18.782001495361328
1788676384937657000,20.320656982421873,-14.671000480651855,9.199000358581543,-17.766000747680664
1788676384953857300,20.336857177734377,-12.409000396728516,8.12600040435791,-17.575000762939453
1788676384970058800,20.353058837890625,-15.738000869750977,9.309000015258789,-17.66200065612793
1788676384986154000,20.369154052734373,-15.087000846862793,8.233000755310059,-17.876001358032227
