time,seconds_elapsed,z,y,x
1788676364762755600,0.145755615234375,-90.9800033569336,28.238000869750977,-30.297000885009766
1788676364778896400,0.161896484375,-98.47300720214844,47.000003814697266,-38.474002838134766
1788676364794990600,0.177990478515625,-96.55500793457031,47.75100326538086,-38.165000915527344
1788676364811177200,0.19417724609375,-96.35700225830078,47.742000579833984,-38.87800216674805
1788676364827384800,0.210384765625,-96.31700134277344,46.36100387573242,-37.974002838134766
1788676364843474000,0.226473876953125,-96.04000091552734,47.52300262451172,-39.18600082397461
1788676364859622100,0.2426220703125,-96.63300323486328,45.715003967285156,-38.18300247192383
1788676364875726000,0.25872607421875,-96.64700317382812,46.57100296020508,-38.277000427246094
1788676364891918800,0.2749189453125,-95.6780014038086,46.467002868652344,-37.97300338745117
1788676364908132000,0.291132080078125,-97.51900482177734,47.31900405883789,-38.57500076293945
1788676364924223700,0.3072236328125,-97.00800323486328,48.493003845214844,-38.871002197265625
1788676364940379400,0.32337939453125,-96.34100341796875,48.07500076293945,-37.95800018310547
1788676364956493800,0.339493896484375,-95.67000579833984,46.3640022277832,-37.669002532958984
1788676364972700200,0.3557001953125,-97.41900634765625,47.20600128173828,-38.983001708984375
1788676364988865800,0.37186572265625,-95.17300415039062,46.557003021240234,-39.19600296020508
1788676365004974300,0.387974365234375,-93.61300659179688,47.285003662109375,-40.617000579833984
1788676365021145600,0.4041455078125,-94.99900817871094,46.6400032043457,-40.927001953125
1788676365037283000,0.420282958984375,-94.9580078125,47.63800048828125,-38.47300338745117
1788676365053493800,0.43649365234375,-96.34600830078125,46.12700271606445,-39.402000427246094
1788676365069676300,0.45267626953125,-95.71200561523438,46.77100372314453,-39.29500198364258
1788676365085789200,0.4687890625,-97.42400360107422,48.176002502441406,-38.56700134277344
1788676365101910500,0.48491064453125,-95.29100799560547,47.7390022277832,-38.98100280761719
1788676365118005000,0.5010048828125,-94.66900634765625,48.915000915527344,-39.07400131225586
1788676365134179800,0.517179931640625,-96.57400512695312,47.84800338745117,-38.979000091552734
1788676365150372000,0.5333720703125,-95.06200408935547,47.423004150390625,-38.47500228881836
1788676365166449000,0.549448974609375,-95.52300262451172,48.052001953125,-39.5890007019043
1788676365182588200,0.565588134765625,-94.63900756835938,46.23200225830078,-39.40300369262695
1788676365198684200,0.58168408203125,-95.72500610351562,46.871002197265625,-39.803001403808594
1788676365214878500,0.59787841796875,-94.5300064086914,46.88100051879883,-38.88800048828125
1788676365231084500,0.61408447265625,-93.44000244140625,45.48800277709961,-38.80000305175781
1788676365247195000,0.63019482421875,-95.9530029296875,48.9160041809082,-39.17400360107422
1788676365263324200,0.64632421875,-95.2090072631836,48.048004150390625,-39.89600372314453
1788676365279430000,0.662429931640625,-95.37500762939453,47.86100387573242,-37.86000061035156
1788676365295628000,0.6786279296875,-96.36100769042969,47.415000915527344,-39.288002014160156
1788676365311838500,0.69483837890625,-96.17000579833984,47.72500228881836,-40.10100173950195
1788676365327939300,0.710939208984375,-94.00900268554688,47.62900161743164,-38.98400115966797
1788676365344100000,0.72710009765625,-94.41400146484375,46.23800277709961,-38.89400100708008
1788676365360214000,0.743214111328125,-93.99900817871094,47.419002532958984,-38.68000030517578
1788676365376422000,0.759421875,-96.36600494384766,48.60000228881836,-38.76900100708008
1788676365392597800,0.77559765625,-94.6300048828125,46.88600158691406,-38.582000732421875
1788676365408703500,0.791703369140625,-94.88600158691406,47.18400192260742,-40.31100082397461
1788676365424872200,0.8078720703125,-94.4310073852539,46.336002349853516,-39.60600280761719
1788676365440995800,0.823995849609375,-93.0560073852539,46.75800323486328,-39.910003662109375
1788676365457215700,0.8402158203125,-95.08900451660156,47.083003997802734,-39.90400314331055
1788676365473396200,0.856396240234375,-96.03700256347656,45.79500198364258,-40.11800003051758
1788676365489460000,0.8724599609375,-94.95700073242188,47.855003356933594,-38.268001556396484
1788676365505585200,0.888585205078125,-95.26500701904297,46.99800109863281,-38.275001525878906
1788676365521708800,0.904708740234375,-93.48400115966797,47.51400375366211,-39.49500274658203
1788676365537877000,0.920876953125,-95.8280029296875,47.0890007019043,-39.496002197265625
1788676365554066700,0.937066650390625,-95.82000732421875,46.01400375366211,-39.81100082397461
1788676365570134300,0.95313427734375,-94.86200714111328,46.118003845214844,-39.913002014160156
1788676365586272000,0.96927197265625,-95.69000244140625,47.32400131225586,-37.96600341796875
1788676365602412500,0.98541259765625,-97.25100708007812,48.1510009765625,-40.4010009765625
1788676365618592500,1.001592529296875,-95.29100799560547,47.52300262451172,-39.08500289916992
1788676365634793200,1.017793212890625,-95.07100677490234,46.77000045776367,-39.29600143432617
1788676365650875400,1.03387548828125,-95.7040023803711,46.55900192260742,-39.09300231933594
1788676365667020300,1.050020263671875,-95.1820068359375,46.22700119018555,-39.810001373291016
1788676365683122000,1.066121826171875,-95.11300659179688,47.82500076293945,-40.509002685546875
1788676365699305700,1.0823056640625,-97.41900634765625,47.53000259399414,-38.777000427246094
1788676365715511000,1.098510986328125,-95.75200653076172,48.04300308227539,-40.302001953125
1788676365731604700,1.114604736328125,-95.48400115966797,47.535003662109375,-38.16800308227539
1788676365747751400,1.13075146484375,-95.7080078125,46.340003967285156,-39.4010009765625
1788676365763857400,1.146857421875,-95.27000427246094,46.99500274658203,-38.479000091552734
1788676365780057000,1.16305712890625,-95.5770034790039,46.57100296020508,-38.176002502441406
1788676365796221000,1.179220947265625,-95.06300354003906,46.66600036621094,-38.99100112915039
1788676365812319700,1.19531982421875,-96.36700439453125,48.16800308227539,-39.0780029296875
1788676365828479500,1.2114794921875,-94.44800567626953,47.5150032043457,-39.59600067138672
1788676365844597000,1.227596923828125,-96.03400421142578,46.77000045776367,-39.39600372314453
1788676365860807400,1.243807373046875,-94.86300659179688,47.30600357055664,-39.189002990722656
1788676365876968400,1.259968505859375,-94.89600372314453,48.90700149536133,-39.685001373291016
1788676365893070800,1.27607080078125,-95.84800720214844,48.2660026550293,-39.689002990722656
1788676365909238800,1.29223876953125,-94.83700561523438,46.24100112915039,-38.69000244140625
1788676365925364700,1.30836474609375,-94.8790054321289,47.51300048828125,-39.79900360107422
1788676365941581600,1.32458154296875,-97.2760009765625,45.715003967285156,-38.284000396728516
1788676365957763800,1.340763916015625,-95.72700500488281,46.54500198364258,-40.112003326416016
1788676365973819000,1.35681884765625,-96.37300109863281,47.29900360107422,-39.9010009765625
1788676365989992700,1.37299267578125,-97.11900329589844,47.302001953125,-39.79800033569336
1788676366006129000,1.38912890625,-96.2080078125,45.7130012512207,-38.285003662109375
1788676366022309000,1.40530908203125,-96.36100769042969,47.7390022277832,-39.082000732421875
1788676366038501600,1.421501708984375,-96.13400268554688,47.207000732421875,-38.781002044677734
1788676366054574000,1.437573974609375,-96.34900665283203,46.66600036621094,-39.19300079345703
1788676366070712800,1.453712890625,-94.84000396728516,46.13200378417969,-38.89400100708008
1788676366086806000,1.469805908203125,-96.79600524902344,46.1140022277832,-40.42000198364258
1788676366102991600,1.48599169921875,-97.37300109863281,45.505001068115234,-37.980003356933594
1788676366119195000,1.50219482421875,-97.30500793457031,46.130001068115234,-39.29900360107422
1788676366135278800,1.51827880859375,-96.11700439453125,45.16400146484375,-39.30900192260742
1788676366151422500,1.53442236328125,-96.02900695800781,45.90800094604492,-39.71000289916992
1788676366167529000,1.550529052734375,-93.99600219726562,45.259002685546875,-39.922000885009766
1788676366183729200,1.566729248046875,-95.59200286865234,46.34600067138672,-38.99300003051758
1788676366199944000,1.58294384765625,-95.68000793457031,45.277000427246094,-38.79900360107422
1788676366216033500,1.599033447265625,-97.09000396728516,45.05000305175781,-39.92000198364258
1788676366232188700,1.615188720703125,-94.60700225830078,44.73800277709961,-38.90700149536133
1788676366248297500,1.63129736328125,-93.98600769042969,45.15700149536133,-39.5150032043457
1788676366264502800,1.647502685546875,-95.15400695800781,45.7030029296875,-38.89800262451172
1788676366280670700,1.663670654296875,-95.17300415039062,46.23200225830078,-39.402000427246094
1788676366296765700,1.679765625,-97.90800476074219,44.10000228881836,-38.90800094604492
1788676366312928800,1.6959287109375,-95.91700744628906,45.80400085449219,-39.50699996948242
1788676366329046300,1.71204638671875,-95.87200164794922,44.21000289916992,-38.50200271606445
1788676366345252900,1.7282529296875,-97.71000671386719,45.387001037597656,-38.79500198364258
1788676366361430300,1.74443017578125,-96.53900146484375,44.518001556396484,-39.518001556396484
1788676366377536000,1.760535888671875,-97.5050048828125,45.814002990722656,-38.89400100708008
1788676366393703200,1.776703125,-95.54600524902344,45.29300308227539,-37.57600021362305
1788676366409827600,1.79282763671875,-96.86400604248047,44.840003967285156,-39.51400375366211
1788676366426000400,1.80900048828125,-95.91700744628906,45.695003509521484,-39.61000061035156
1788676366442192000,1.82519189453125,-95.45000457763672,45.28600311279297,-38.086002349853516
1788676366458261500,1.841261474609375,-96.12600708007812,45.698001861572266,-39.406002044677734
1788676366474394400,1.857394287109375,-95.02400207519531,44.31300354003906,-38.70600128173828
1788676366490534100,1.8735341796875,-96.21500396728516,44.845001220703125,-39.108001708984375
1788676366506710300,1.889710205078125,-96.85100555419922,44.52400207519531,-39.11000061035156
1788676366522902300,1.90590234375,-96.63300323486328,44.85100173950195,-38.70000076293945
1788676366538975000,1.92197509765625,-96.31000518798828,44.85200119018555,-38.59800338745117
1788676366555107600,1.938107666015625,-99.18400573730469,45.18600082397461,-37.980003356933594
1788676366571249200,1.954249267578125,-96.3290023803711,45.92100143432617,-38.7920036315918
1788676366587432200,1.97043212890625,-95.68700408935547,44.840003967285156,-39.41400146484375
1788676366603601400,1.986601318359375,-95.052001953125,46.2400016784668,-38.79100036621094
1788676366619687000,2.00268701171875,-96.73900604248047,44.85100173950195,-38.69900131225586
1788676366635834400,2.01883447265625,-95.48300170898438,44.51000213623047,-40.02800369262695
1788676366651938600,2.0349384765625,-96.51300811767578,43.5620002746582,-38.915000915527344
1788676366668133400,2.05113330078125,-98.33600616455078,44.965003967285156,-38.3910026550293
1788676366684337000,2.0673369140625,-95.78900146484375,44.95100402832031,-39.10700225830078
1788676366700427500,2.083427490234375,-96.64600372314453,44.51900100708008,-39.51700210571289
1788676366716576800,2.09957666015625,-97.57100677490234,44.5420036315918,-37.88600158691406
1788676366732680400,2.115680419921875,-95.67300415039062,44.30800247192383,-39.11300277709961
1788676366748882000,2.1318818359375,-95.24200439453125,44.202003479003906,-39.01300048828125
1788676366765050400,2.14805029296875,-96.22700500488281,43.75700378417969,-40.34000015258789
1788676366781145600,2.1641455078125,-97.8030014038086,45.07100296020508,-38.3900032043457
1788676366797304000,2.180303955078125,-96.53800201416016,44.08700180053711,-39.72500228881836
1788676366813420300,2.196420166015625,-97.49700164794922,44.090003967285156,-39.62200164794922
1788676366829627000,2.212626953125,-96.47700500488281,42.50300216674805,-38.00699996948242
1788676366845797600,2.228797607421875,-97.06200408935547,42.58100128173828,-40.24700164794922
1788676366861909800,2.24490966796875,-96.30500793457031,43.9900016784668,-38.91100311279297
1788676366878077000,2.261076904296875,-96.75200653076172,43.76300048828125,-39.93100357055664
1788676366894210600,2.27721044921875,-96.53600311279297,44.0880012512207,-39.62300109863281
1788676366910390000,2.29339013671875,-95.55500793457031,44.31500244140625,-38.604000091552734
1788676366926579700,2.309579833984375,-96.3270034790039,43.11300277709961,-40.44700241088867
1788676366942701300,2.325701416015625,-98.12700653076172,43.665000915527344,-39.42100143432617
1788676366958881000,2.341881103515625,-96.06000518798828,44.22500228881836,-37.38199996948242
1788676366975022300,2.358022216796875,-96.97300720214844,44.5150032043457,-39.823001861572266
1788676366991210000,2.3742099609375,-96.40900421142578,44.42500305175781,-38.5
1788676367007409200,2.3904091796875,-96.51400756835938,44.31800079345703,-38.50100326538086
1788676367023492000,2.4064921875,-98.02100372314453,45.71800231933594,-38.18100357055664
1788676367039636500,2.422636474609375,-96.63700103759766,43.660003662109375,-39.62700271606445
1788676367055733500,2.4387333984375,-98.42900848388672,43.35200119018555,-38.8120002746582
1788676367071924000,2.454924072265625,-97.12400817871094,42.932003021240234,-38.00300216674805
1788676367088132400,2.47113232421875,-96.46900177001953,42.07500076293945,-37.909000396728516
1788676367104223000,2.487222900390625,-95.99200439453125,44.85000228881836,-38.70000076293945
1788676367120372000,2.5033720703125,-98.3270034790039,43.349002838134766,-39.0160026550293
1788676367136476700,2.5194765625,-96.62200164794922,42.5880012512207,-39.63600158691406
1788676367152673800,2.535673828125,-98.99200439453125,44.30800247192383,-39.5160026550293
1788676367168882700,2.551882568359375,-97.03900146484375,43.676002502441406,-38.50600051879883
1788676367184972500,2.56797265625,-95.11800384521484,44.75200271606445,-37.887001037597656
1788676367201123300,2.584123291015625,-97.6760025024414,43.89500045776367,-38.19700241088867
1788676367217233000,2.60023291015625,-96.29100799560547,43.67400360107422,-38.50699996948242
1788676367233446000,2.61644580078125,-96.75700378417969,45.59700393676758,-38.99800109863281
1788676367249615600,2.63261572265625,-97.82500457763672,44.19300079345703,-39.926002502441406
1788676367265717500,2.648717529296875,-97.7090072631836,43.659000396728516,-39.829002380371094
1788676367281880600,2.664880615234375,-97.1830062866211,45.38200378417969,-39.10200119018555
1788676367297998600,2.68099853515625,-97.60000610351562,44.63300323486328,-39.108001708984375
1788676367314209300,2.697209228515625,-97.05400085449219,44.42300033569336,-38.7030029296875
1788676367330386700,2.71338671875,-96.94200134277344,43.88600158691406,-38.810001373291016
1788676367346490600,2.72949072265625,-98.0770034790039,43.47900390625,-37.284000396728516
1788676367362664400,2.74566455078125,-96.09200286865234,43.88200378417969,-39.01400375366211
1788676367378791400,2.76179150390625,-96.33600616455078,45.053001403808594,-39.6150016784668
1788676367395009300,2.77800927734375,-97.57000732421875,44.00200271606445,-38.19600296020508
1788676367411195100,2.794195068359375,-96.6310043334961,43.77100372314453,-39.320003509521484
1788676367427261200,2.81026123046875,-97.59800720214844,43.98600387573242,-39.419002532958984
1788676367443437000,2.82643701171875,-98.4540023803711,44.958003997802734,-38.900001525878906
1788676367459564800,2.842564697265625,-96.9800033569336,45.48400115966797,-39.50800323486328
1788676367475738600,2.858738525390625,-96.12500762939453,44.94200134277344,-39.820003509521484
1788676367491928000,2.874927978515625,-98.12000274658203,43.669002532958984,-39.11600112915039
1788676367508004000,2.891004150390625,-96.74200439453125,43.87700271606445,-39.42100143432617
1788676367524138800,2.907138671875,-97.89700317382812,44.323001861572266,-38.29500198364258
1788676367540275700,2.923275634765625,-97.07500457763672,45.599002838134766,-38.89600372314453
1788676367556457200,2.939457275390625,-97.36100769042969,44.432003021240234,-38.09100341796875
1788676367572656000,2.95565625,-96.63300323486328,44.85100173950195,-38.70000076293945
1788676367588737000,2.971737060546875,-95.9850082397461,43.01700210571289,-39.531002044677734
1788676367604882000,2.9878818359375,-96.76700592041016,46.02300262451172,-39.198001861572266
1788676367620983600,3.003983642578125,-96.83600616455078,44.31700134277344,-38.60200119018555
1788676367637173200,3.02017333984375,-95.03300476074219,43.01000213623047,-39.94000244140625
1788676367653383700,3.0363837890625,-95.24500274658203,44.849002838134766,-38.70100021362305
1788676367669473300,3.052473388671875,-95.46000671386719,44.63200378417969,-38.90700149536133
1788676367685625300,3.068625244140625,-95.1510009765625,44.625003814697266,-39.41600036621094
1788676367701733600,3.084733642578125,-97.69200134277344,44.750003814697266,-38.393001556396484
1788676367717933600,3.10093359375,-97.05500793457031,43.66600036621094,-39.21900177001953
1788676367734092800,3.1170927734375,-94.61100769042969,44.195003509521484,-39.42100143432617
1788676367750195700,3.13319580078125,-96.7550048828125,45.4900016784668,-38.999000549316406
1788676367766357000,3.14935693359375,-95.02700805664062,45.06700134277344,-38.39400100708008
1788676367782473200,3.16547314453125,-95.4590072631836,45.06500244140625,-38.59700012207031
1788676367798678500,3.181678466796875,-97.49700164794922,45.927001953125,-38.48500061035156
1788676367814843000,3.1978427734375,-96.40800476074219,42.5880012512207,-39.637001037597656
1788676367830953200,3.213953125,-94.52000427246094,44.18600082397461,-40.134002685546875
1788676367847124500,3.23012451171875,-95.89400482177734,45.169002532958984,-38.9010009765625
1788676367863261000,3.246260986328125,-97.177001953125,43.65700149536133,-39.932003021240234
1788676367879433200,3.26243310546875,-96.10900115966797,44.62800216674805,-39.31300354003906
1788676367895615200,3.278615234375,-94.83200073242188,45.380001068115234,-39.00300216674805
1788676367911680500,3.294680419921875,-95.24500274658203,43.87600326538086,-39.32100296020508
1788676367927806500,3.310806396484375,-96.43400573730469,45.59800338745117,-38.897003173828125
1788676367943920400,3.32692041015625,-96.01100158691406,45.27100372314453,-39.30800247192383
1788676367960072700,3.34307275390625,-97.29900360107422,45.053001403808594,-39.71600341796875
1788676367976262100,3.35926220703125,-95.69000244140625,45.37900161743164,-39.20500183105469
1788676367992337400,3.37533740234375,-93.43800354003906,44.84100341796875,-39.111000061035156
1788676368008473900,3.391473876953125,-94.6050033569336,45.064002990722656,-38.59800338745117
1788676368024567000,3.407567138671875,-93.98800659179688,43.85900115966797,-40.44300079345703
1788676368040753000,3.4237529296875,-94.84200286865234,44.509002685546875,-40.02900314331055
1788676368056957200,3.439957275390625,-94.73200225830078,45.26700210571289,-39.41100311279297
1788676368073038000,3.4560380859375,-94.18000793457031,45.71000289916992,-38.288002014160156
1788676368089177600,3.472177490234375,-95.27200317382812,44.400001525878906,-40.233001708984375
1788676368105271300,3.488271240234375,-94.21300506591797,45.79800033569336,-39.7130012512207
1788676368121465900,3.5044658203125,-93.24300384521484,44.18100357055664,-40.34000015258789
1788676368137671700,3.520671630859375,-93.79900360107422,44.92500305175781,-40.842002868652344
1788676368153757200,3.536757080078125,-95.06900787353516,45.25800323486328,-40.124000549316406
1788676368169903400,3.5529033203125,-93.06300354003906,44.80800247192383,-41.45500183105469
1788676368186001400,3.56900146484375,-93.37700653076172,45.78600311279297,-40.52900314331055
1788676368202199600,3.585199462890625,-92.72500610351562,46.11600112915039,-39.814002990722656
1788676368218407000,3.601406982421875,-94.04900360107422,46.95600128173828,-41.23100280761719
1788676368234494700,3.61749462890625,-93.82600402832031,46.42100143432617,-41.134002685546875
1788676368250650000,3.633650146484375,-93.23300170898438,44.94300079345703,-39.41600036621094
1788676368266759700,3.649759765625,-91.70500183105469,46.625003814697266,-41.64400100708008
1788676368282965000,3.665965087890625,-92.76500701904297,46.09100341796875,-41.64800262451172
1788676368299137300,3.68213720703125,-91.67300415039062,45.45600128173828,-40.94200134277344
1788676368315238400,3.69823828125,-92.031005859375,46.082000732421875,-42.26000213623047
1788676368331402800,3.71440283203125,-92.74600219726562,45.5620002746582,-41.143001556396484
1788676368347506200,3.730506103515625,-90.49600219726562,45.45600128173828,-40.84100341796875
1788676368363702300,3.746702392578125,-92.57400512695312,47.05000305175781,-42.047000885009766
1788676368379880400,3.76288037109375,-93.41600799560547,47.81500244140625,-41.02000045776367
1788676368395991600,3.778991455078125,-91.08200073242188,48.88300323486328,-41.01400375366211
1788676368412145400,3.7951455078125,-91.38800811767578,48.35200119018555,-40.7130012512207
1788676368428259800,3.811259765625,-90.94500732421875,47.71200180053711,-40.413002014160156
1788676368444411600,3.82741162109375,-90.31600189208984,46.083003997802734,-41.95600128173828
1788676368460593700,3.84359375,-91.37200164794922,47.7130012512207,-40.413002014160156
1788676368476661500,3.85966162109375,-94.7080078125,47.27000045776367,-41.8380012512207
1788676368492786200,3.8757861328125,-91.72500610351562,48.55900192260742,-41.32200241088867
1788676368508923000,3.8919228515625,-92.0250015258789,46.95000076293945,-41.4370002746582
1788676368525105400,3.90810546875,-93.4310073852539,48.887001037597656,-41.01100158691406
1788676368541305300,3.924305419921875,-92.24400329589844,47.704002380371094,-41.22700119018555
1788676368557387800,3.9403876953125,-91.59600067138672,48.13900375366211,-40.612003326416016
1788676368573529000,3.956529052734375,-92.47500610351562,47.801002502441406,-41.93800354003906
1788676368589630200,3.972630126953125,-92.20500183105469,47.18700408935547,-39.80500030517578
1788676368605822000,3.988822021484375,-91.0510025024414,47.82100296020508,-40.310001373291016
1788676368622031000,4.005031005859375,-94.07400512695312,47.2650032043457,-42.14500045776367
1788676368638127400,4.02112744140625,-91.04200744628906,47.178001403808594,-40.316001892089844
1788676368654277400,4.03727734375,-93.2030029296875,49.65200424194336,-39.884002685546875
1788676368670376400,4.05337646484375,-94.04900360107422,48.25300216674805,-40.40500259399414
1788676368686573800,4.06957373046875,-91.91100311279297,49.548004150390625,-39.479000091552734
1788676368702738000,4.085738037109375,-91.49500274658203,47.37900161743164,-41.332000732421875
1788676368718837000,4.1018369140625,-92.9010009765625,48.34300231933594,-41.5260009765625
1788676368735000300,4.118000244140625,-92.87800598144531,47.70900344848633,-40.92000198364258
1788676368751121400,4.134121337890625,-92.04400634765625,48.452003479003906,-41.32200241088867
1788676368767322400,4.150322265625,-91.0570068359375,48.250003814697266,-40.30600357055664
1788676368783485000,4.16648486328125,-93.22300720214844,48.45100402832031,-41.52400207519531
1788676368799596300,4.18259619140625,-93.1820068359375,48.47600173950195,-39.691001892089844
1788676368815772200,4.198772216796875,-90.96700286865234,48.78000259399414,-40.70900344848633
1788676368831908400,4.214908447265625,-92.02300262451172,47.816001892089844,-40.81800079345703
1788676368848077800,4.231077880859375,-93.94900512695312,49.22200393676758,-40.09000015258789
1788676368864271000,4.24727099609375,-93.31600189208984,49.32400131225586,-40.39600372314453
1788676368880345600,4.263345703125,-93.83000183105469,47.500003814697266,-40.6150016784668
1788676368896484400,4.279484375,-92.89600372314453,48.45500183105469,-41.21900177001953
1788676368912581000,4.2955810546875,-92.4800033569336,50.28400421142578,-40.592002868652344
1788676368928765000,4.311764892578125,-93.531005859375,49.21600341796875,-40.499000549316406
1788676368944961800,4.3279619140625,-94.56900787353516,48.262001037597656,-39.79300308227539
1788676368961042400,4.34404248046875,-92.77400207519531,48.57100296020508,-40.505001068115234
1788676368977184000,4.36018408203125,-92.86900329589844,49.01100158691406,-39.68600082397461
1788676368993284900,4.376284912109375,-94.36500549316406,49.121002197265625,-39.68300247192383
1788676369009481000,4.39248095703125,-93.3270034790039,50.290000915527344,-40.28600311279297
1788676369025692000,4.40869189453125,-92.34800720214844,49.11100387573242,-40.195003509521484
1788676369041775000,4.424775146484375,-93.71800231933594,49.448001861572266,-39.172000885009766
1788676369057924600,4.440924560546875,-93.96800231933594,50.939002990722656,-39.87200164794922
1788676369074029300,4.457029296875,-93.91600799560547,48.16100311279297,-39.285003662109375
1788676369090232800,4.47323291015625,-92.80000305175781,49.961002349853516,-40.79800033569336
1788676369106399500,4.4893994140625,-93.3030014038086,49.332000732421875,-39.785003662109375
1788676369122499800,4.505499755859375,-92.69500732421875,48.87900161743164,-41.52100372314453
1788676369138660600,4.52166064453125,-93.42100524902344,48.677001953125,-40.707000732421875
1788676369154778400,4.5377783203125,-95.21400451660156,48.69300079345703,-39.68600082397461
1788676369170985500,4.5539853515625,-93.3330078125,49.20600128173828,-41.21200180053711
1788676369187159800,4.570159912109375,-93.1310043334961,50.387001037597656,-40.99800109863281
1788676369203265300,4.586265380859375,-93.4530029296875,49.522003173828125,-41.61600112915039
1788676369219429400,4.602429443359375,-93.34500122070312,50.60300064086914,-40.89400100708008
1788676369235551200,4.61855126953125,-93.83500671386719,49.55000305175781,-39.5780029296875
1788676369251768800,4.634768798828125,-92.5830078125,49.53000259399414,-40.90400314331055
1788676369267945500,4.650945556640625,-90.75800323486328,48.993003845214844,-40.810001373291016
1788676369284080400,4.667080322265625,-90.3340072631836,48.99100112915039,-40.91200256347656
1788676369300231400,4.6832314453125,-90.35000610351562,49.19700241088867,-41.52100372314453
1788676369316356400,4.6993564453125,-90.9000015258789,49.72800064086914,-41.92300033569336
1788676369332575200,4.7155751953125,-91.40900421142578,49.204002380371094,-41.11300277709961
1788676369348758000,4.731758056640625,-90.86100769042969,48.67100143432617,-40.8120002746582
1788676369364824300,4.74782421875,-92.1570053100586,49.74500274658203,-40.801002502441406
1788676369380942000,4.763942138671875,-92.98600769042969,48.465003967285156,-40.50600051879883
1788676369397064700,4.780064697265625,-93.64100646972656,49.10600280761719,-40.7030029296875
1788676369413227500,4.7962275390625,-92.87800598144531,48.35700225830078,-40.50700378417969
1788676369429421300,4.81242138671875,-91.28600311279297,48.025001525878906,-41.12300109863281
1788676369445498000,4.828498046875,-90.74800109863281,48.56700134277344,-40.61000061035156
1788676369461629700,4.844629638671875,-91.4990005493164,47.810001373291016,-41.22700119018555
1788676369477765600,4.860765625,-91.72700500488281,48.557003021240234,-41.42300033569336
1788676369493946000,4.876946044921875,-90.42500305175781,48.56800079345703,-40.50800323486328
1788676369510144800,4.893144775390625,-91.96800231933594,49.08100128173828,-42.33500289916992
1788676369526232800,4.90923291015625,-89.91300201416016,48.12200164794922,-41.73500061035156
1788676369542378800,4.925378662109375,-93.11500549316406,48.560001373291016,-41.422000885009766
1788676369558486500,4.941486572265625,-94.17900085449219,48.13100051879883,-41.5260009765625
1788676369574680300,4.957680419921875,-91.2820053100586,47.919002532958984,-41.022003173828125
1788676369590831400,4.973831298828125,-92.60100555419922,49.84300231933594,-41.51300048828125
1788676369606884900,4.989884765625,-93.09500122070312,47.923004150390625,-40.91800308227539
1788676369623041800,5.006041748046875,-90.55500793457031,49.2030029296875,-41.1140022277832
1788676369639156700,5.02215673828125,-93.51100158691406,47.93100357055664,-40.40800094604492
1788676369655355400,5.03835546875,-92.22300720214844,48.25700378417969,-39.897003173828125
1788676369671518500,5.0545185546875,-94.49200439453125,47.92000198364258,-41.32400131225586
1788676369687624000,5.0706240234375,-93.6570053100586,48.98800277709961,-41.51900100708008
1788676369703791000,5.086791015625,-93.83200073242188,47.823001861572266,-40.51000213623047
1788676369719908900,5.102908935546875,-93.28900146484375,46.53000259399414,-40.93000030517578
1788676369736111400,5.119111328125,-93.81600189208984,46.535003662109375,-40.624000549316406
1788676369752273000,5.13527294921875,-92.41900634765625,47.51100158691406,-39.59800338745117
1788676369768381700,5.151381591796875,-94.24400329589844,46.10300064086914,-40.93300247192383
1788676369784553700,5.1675537109375,-94.0060043334961,45.46900177001953,-40.22500228881836
1788676369800687400,5.183687255859375,-95.73100280761719,47.840003967285156,-39.4890022277832
1788676369816909600,5.19990966796875,-96.77300262451172,47.316001892089844,-38.678001403808594
1788676369833090000,5.216090087890625,-96.54500579833984,47.54100036621094,-37.861000061035156
1788676369849203500,5.232203369140625,-96.77400207519531,46.55900192260742,-39.194000244140625
1788676369865330200,5.248330078125,-96.5780029296875,47.954002380371094,-39.08000183105469
1788676369881463000,5.264463134765625,-96.9590072631836,46.79300308227539,-37.7650032043457
1788676369897635600,5.280635498046875,-98.89900207519531,47.75800323486328,-37.95800018310547
1788676369913826800,5.296826904296875,-97.71700286865234,46.89600372314453,-38.17100143432617
1788676369929900000,5.312900146484375,-98.85000610351562,45.518001556396484,-37.163002014160156
1788676369946023000,5.32902294921875,-98.27000427246094,48.6140022277832,-37.95100021362305
1788676369962159000,5.3451591796875,-97.84600830078125,48.50400161743164,-38.156002044677734
1788676369978333000,5.3613330078125,-96.68400573730469,48.60200119018555,-38.66600036621094
1788676369994542000,5.3775419921875,-96.55500793457031,47.75100326538086,-38.165000915527344
1788676370010635000,5.393635009765625,-97.34000396728516,49.35100173950195,-38.86300277709961
1788676370026777600,5.409777587890625,-99.14300537109375,48.172000885009766,-39.07400131225586
1788676370042879000,5.42587890625,-96.66500091552734,47.85700225830078,-38.2650032043457
1788676370059074000,5.442073974609375,-99.24500274658203,49.58000183105469,-37.941001892089844
1788676370075286500,5.45828662109375,-97.51700592041016,48.509002685546875,-37.749000549316406
1788676370091376400,5.47437646484375,-97.4260025024414,50.336002349853516,-37.32600021362305
1788676370107530800,5.49053076171875,-97.41000366210938,49.15700149536133,-37.336002349853516
1788676370123695400,5.5066953125,-97.21000671386719,48.500003814697266,-38.361000061035156
1788676370139897900,5.52289794921875,-96.89000701904297,49.3640022277832,-37.84400177001953
1788676370156062700,5.539062744140625,-98.07000732421875,48.3900032043457,-38.66600036621094
1788676370172168400,5.55516845703125,-97.64800262451172,48.81800079345703,-38.663002014160156
1788676370188332800,5.571332763671875,-97.64200592041016,48.49800109863281,-38.564002990722656
1788676370204449500,5.587449462890625,-98.36800384521484,48.94400405883789,-37.33700180053711
1788676370220658400,5.603658447265625,-98.90400695800781,49.268001556396484,-37.23200225830078
1788676370236829700,5.61982958984375,-98.26800537109375,48.94000244140625,-37.643001556396484
1788676370252939300,5.635939208984375,-99.31600189208984,48.19700241088867,-37.2400016784668
1788676370269108500,5.6521083984375,-96.78800201416016,49.36100387573242,-38.04800033569336
1788676370285239800,5.66823974609375,-96.80000305175781,48.92100143432617,-38.867000579833984
1788676370301409000,5.684408935546875,-96.97600555419922,48.18800354003906,-37.6510009765625
1788676370317600000,5.70060009765625,-96.35000610351562,49.25800323486328,-37.64200210571289
1788676370333673200,5.716673095703125,-96.4540023803711,48.829002380371094,-37.74800109863281
1788676370349801200,5.73280126953125,-96.90200805664062,49.897003173828125,-38.04300308227539
1788676370365934000,5.74893408203125,-97.22000122070312,50.22300338745117,-37.73500061035156
1788676370382114000,5.765114013671875,-97.12000274658203,49.35400390625,-38.557003021240234
1788676370398278400,5.7812783203125,-97.0050048828125,48.27800369262695,-38.87300109863281
1788676370414357500,5.797357421875,-97.4310073852539,48.71200180053711,-38.56300354003906
1788676370430495500,5.81349560546875,-96.79000091552734,48.81900405883789,-38.461002349853516
1788676370446594300,5.82959423828125,-97.86500549316406,49.03300094604492,-38.66100311279297
1788676370462779100,5.845779052734375,-97.56300354003906,48.913002014160156,-39.579002380371094
1788676370478983700,5.861983642578125,-97.22500610351562,47.95000076293945,-39.384002685546875
1788676370495071500,5.878071533203125,-96.99200439453125,48.827003479003906,-37.95100021362305
1788676370511221000,5.894220947265625,-96.92100524902344,49.12900161743164,-39.374000549316406
1788676370527329000,5.9103291015625,-97.64800262451172,48.27800369262695,-38.974002838134766
1788676370543529200,5.926529296875,-96.35100555419922,49.150001525878906,-37.74500274658203
1788676370559697200,5.942697265625,-95.96300506591797,49.01700210571289,-39.58000183105469
1788676370575799600,5.958799560546875,-98.11400604248047,49.12000274658203,-40.18800354003906
1788676370591940400,5.9749404296875,-95.09500122070312,48.160003662109375,-39.487003326416016
1788676370608047900,5.9910478515625,-97.99200439453125,48.048004150390625,-40.198001861572266
1788676370624248000,6.007248046875,-94.78600311279297,49.9900016784668,-38.86000061035156
1788676370640412200,6.023412109375,-95.7350082397461,48.59400177001953,-39.177001953125
1788676370656514300,6.039514404296875,-97.25800323486328,47.823001861572266,-40.91400146484375
1788676370672672300,6.05567236328125,-96.34600830078125,47.74800109863281,-38.36900329589844
1788676370688792300,6.071792236328125,-94.66100311279297,48.81200408935547,-38.76900100708008
1788676370705004500,6.088004638671875,-97.24500274658203,49.23500061035156,-39.47500228881836
1788676370721188400,6.104188232421875,-97.02000427246094,47.72900390625,-39.89600372314453
1788676370737259800,6.120259765625,-97.41700744628906,48.829002380371094,-37.84800338745117
1788676370753389000,6.13638916015625,-97.86600494384766,49.24800109863281,-38.557003021240234
1788676370769534500,6.152534423828125,-96.20000457763672,47.707000732421875,-41.42500305175781
1788676370785715500,6.168715576171875,-98.31200408935547,48.48100280761719,-39.88800048828125
1788676370801912600,6.18491259765625,-96.052001953125,47.73100280761719,-39.592002868652344
1788676370817991000,6.200990966796875,-96.1830062866211,49.12200164794922,-39.78300094604492
1788676370834125300,6.217125244140625,-96.61200714111328,47.93300247192383,-40.608001708984375
1788676370850217000,6.233217041015625,-97.24400329589844,48.47900390625,-39.88900375366211
1788676370866398700,6.249398681640625,-97.01700592041016,48.163002014160156,-39.48500061035156
1788676370882592800,6.2655927734375,-97.76600646972656,47.94700241088867,-39.689002990722656
1788676370898664400,6.28166455078125,-97.97700500488281,47.94900131225586,-39.58700180053711
1788676370914803700,6.2978037109375,-98.74000549316406,47.4010009765625,-40.61000061035156
1788676370930898700,6.313898681640625,-98.08900451660156,47.298004150390625,-40.204002380371094
1788676370947088400,6.33008837890625,-98.24700164794922,46.900001525878906,-37.96600341796875
1788676370963249200,6.346249267578125,-98.68900299072266,47.64800262451172,-38.163002014160156
1788676370979337200,6.362337158203125,-99.97600555419922,47.43000411987305,-38.57100296020508
1788676370995485400,6.3784853515625,-99.56300354003906,46.66400146484375,-39.698001861572266
1788676371011586600,6.394586669921875,-98.24400329589844,46.685001373291016,-37.96800231933594
1788676371027785500,6.410785400390625,-97.37800598144531,47.3390007019043,-37.047000885009766
1788676371043998700,6.426998779296875,-98.13500213623047,46.68600082397461,-37.86600112915039
1788676371060096500,6.443096435546875,-97.83100128173828,47.432003021240234,-38.16600036621094
1788676371076256300,6.45925634765625,-97.92900085449219,48.410003662109375,-37.13800048828125
1788676371092350000,6.475349853515625,-100.16100311279297,47.66400146484375,-37.14200210571289
1788676371108536000,6.4915361328125,-99.8330078125,47.452003479003906,-36.941001892089844
1788676371124706300,6.507706298828125,-99.12100219726562,47.86100387573242,-38.262001037597656
1788676371140808400,6.523808349609375,-98.89800262451172,47.97500228881836,-37.75200271606445
1788676371156972500,6.53997265625,-99.9590072631836,47.98100280761719,-37.445003509521484
1788676371173075500,6.556075439453125,-102.08900451660156,47.44700241088867,-37.54900360107422
1788676371189282800,6.57228271484375,-99.08900451660156,47.34100341796875,-37.145999908447266
1788676371205465000,6.588465087890625,-100.2040023803711,48.178001403808594,-38.76700210571289
1788676371221579000,6.6045791015625,-100.61800384521484,48.51100158691406,-37.94900131225586
1788676371237751600,6.62075146484375,-101.47100830078125,48.72900390625,-37.742000579833984
1788676371253879800,6.6368798828125,-99.74100494384766,47.55000305175781,-37.551002502441406
1788676371270048500,6.653048583984375,-100.57100677490234,47.458003997802734,-36.53200149536133
1788676371286233000,6.669233154296875,-100.82100677490234,46.788002014160156,-38.57500076293945
1788676371302307600,6.6853076171875,-99.65800476074219,48.2920036315918,-38.156002044677734
1788676371318442800,6.70144287109375,-100.72900390625,47.64400100708008,-38.67000198364258
1788676371334579200,6.7175791015625,-101.25000762939453,48.409000396728516,-37.64400100708008
1788676371350761500,6.733761474609375,-100.0790023803711,47.64900207519531,-38.26300048828125
1788676371366960600,6.749960693359375,-99.97200775146484,46.676002502441406,-38.88300323486328
1788676371383037700,6.76603759765625,-99.98400115966797,46.993003845214844,-39.18600082397461
1788676371399171800,6.782171875,-100.53300476074219,47.09300231933594,-39.79500198364258
1788676371415272000,6.79827197265625,-99.7550048828125,48.191001892089844,-37.749000549316406
1788676371431461000,6.814461181640625,-99.16400146484375,48.375003814697266,-39.88800048828125
1788676371447664000,6.8306640625,-98.08900451660156,48.16200256347656,-39.6870002746582
1788676371463751700,6.846751708984375,-98.68400573730469,46.678001403808594,-38.579002380371094
1788676371479896800,6.862896728515625,-100.33900451660156,48.37700271606445,-39.88600158691406
1788676371496001300,6.879001220703125,-100.86100769042969,47.52100372314453,-39.893001556396484
1788676371512161800,6.895161865234375,-101.05900573730469,48.07100296020508,-38.86900329589844
1788676371528319700,6.91131982421875,-101.57400512695312,48.191001892089844,-37.95100021362305
1788676371544422000,6.927421875,-100.20100402832031,48.07200241088867,-38.6670036315918
1788676371560578000,6.943578125,-98.88400268554688,46.362003326416016,-38.17400360107422
1788676371576665900,6.959665771484375,-101.78500366210938,46.788002014160156,-38.676002502441406
1788676371592848400,6.975848388671875,-100.81500244140625,46.35900115966797,-38.579002380371094
1788676371609017000,6.99201708984375,-100.302001953125,47.643001556396484,-38.67000198364258
1788676371625126400,7.00812646484375,-99.58100128173828,47.086002349853516,-40.204002380371094
1788676371641298200,7.024298095703125,-99.35700225830078,47.84800338745117,-39.281002044677734
1788676371657430000,7.040429931640625,-99.67100524902344,47.204002380371094,-39.38800048828125
1788676371673586000,7.0565859375,-99.27400207519531,47.72600173950195,-40.40300369262695
1788676371689768400,7.0727685546875,-99.36200714111328,47.52100372314453,-39.691001892089844
1788676371705840600,7.088840576171875,-100.49900817871094,47.65300369262695,-37.957000732421875
1788676371721956400,7.104956298828125,-100.11800384521484,47.51700210571289,-40.09800338745117
1788676371738082000,7.12108203125,-99.31200408935547,45.7140007019043,-38.58700180053711
1788676371754246700,7.13724658203125,-100.29600524902344,46.242000579833984,-39.294002532958984
1788676371770435600,7.153435546875,-101.88900756835938,46.1410026550293,-38.987003326416016
1788676371786509300,7.16950927734375,-100.4010009765625,46.45900344848633,-39.0880012512207
1788676371802644500,7.18564453125,-98.4580078125,44.63100051879883,-39.310001373291016
1788676371818737200,7.201737060546875,-101.66500854492188,45.06700134277344,-39.20100021362305
1788676371834921000,7.2179208984375,-100.61900329589844,46.13200378417969,-39.49800109863281
1788676371851115500,7.234115478515625,-100.62400817871094,46.67000198364258,-39.3910026550293
1788676371867193000,7.250193115234375,-101.1310043334961,45.823001861572266,-38.685001373291016
1788676371883333600,7.266333740234375,-100.57100677490234,44.75700378417969,-38.18600082397461
1788676371899430100,7.28243017578125,-101.34900665283203,44.52300262451172,-39.71500015258789
1788676371915623000,7.298622802734375,-99.5040054321289,44.2140007019043,-38.60000228881836
1788676371931830000,7.314830078125,-102.60800170898438,44.43000030517578,-38.79800033569336
1788676371947914800,7.330914794921875,-101.23100280761719,44.20600128173828,-39.41200256347656
1788676371964048600,7.347048583984375,-99.5250015258789,45.17400360107422,-38.897003173828125
1788676371980180500,7.363180419921875,-100.0530014038086,44.96200180053711,-38.79600143432617
1788676371996359200,7.379359130859375,-99.61800384521484,43.88600158691406,-39.112003326416016
1788676372012527400,7.39552734375,-101.87200164794922,45.07100296020508,-38.89500045776367
1788676372028630800,7.411630859375,-100.93900299072266,45.59300231933594,-39.80800247192383
1788676372044796000,7.4277958984375,-101.89900207519531,46.35200119018555,-39.29100036621094
1788676372060919000,7.4439189453125,-101.35400390625,45.38500213623047,-39.402000427246094
1788676372077130800,7.460130859375,-99.31500244140625,45.60400390625,-38.79100036621094
1788676372093320200,7.4763203125,-101.35900115966797,45.38200378417969,-39.60600280761719
1788676372109418200,7.492418212890625,-100.26300811767578,44.53300094604492,-38.9010009765625
1788676372125587500,7.50858740234375,-101.35600280761719,46.03200149536133,-39.09100341796875
1788676372141709800,7.524709716796875,-101.75900268554688,44.75100326538086,-38.79600143432617
1788676372157862000,7.54086181640625,-102.29100799560547,45.941001892089844,-37.970001220703125
1788676372174046700,7.557046630859375,-100.38600158691406,45.387001037597656,-39.09700012207031
1788676372190114300,7.5731142578125,-101.9850082397461,45.82400131225586,-38.68400192260742
1788676372206221800,7.589221923828125,-102.19400787353516,45.17900085449219,-38.893001556396484
1788676372222337500,7.605337646484375,-101.78300476074219,45.81700134277344,-39.194000244140625
1788676372238493700,7.62149365234375,-102.64900207519531,45.7030029296875,-39.80500030517578
1788676372254680800,7.637680908203125,-102.52600860595703,44.20000076293945,-40.022003173828125
1788676372270750700,7.653750732421875,-102.31600189208984,45.27800369262695,-39.50300216674805
1788676372286883600,7.669883544921875,-102.0830078125,45.83000183105469,-38.2760009765625
1788676372302980000,7.68597998046875,-101.54400634765625,44.967002868652344,-38.59000015258789
1788676372319157800,7.70215771484375,-104.36200714111328,46.027000427246094,-39.80000305175781
1788676372335354000,7.71835400390625,-102.96200561523438,46.35600280761719,-39.086002349853516
1788676372351434800,7.734434814453125,-103.4580078125,45.083003997802734,-38.17900085449219
1788676372367569200,7.750569091796875,-102.72300720214844,45.50600051879883,-38.48200225830078
1788676372383675600,7.766675537109375,-101.67000579833984,46.36100387573242,-38.5780029296875
1788676372399869400,7.782869384765625,-103.16200256347656,45.71600341796875,-38.887001037597656
1788676372416081400,7.799081298828125,-101.89700317382812,46.56900405883789,-39.08500289916992
1788676372432175900,7.81517578125,-103.27800750732422,46.035003662109375,-39.0880012512207
1788676372448332500,7.83133251953125,-102.50000762939453,45.94400405883789,-37.7660026550293
1788676372464443100,7.847443115234375,-102.92500305175781,44.64900207519531,-38.4900016784668
1788676372480643800,7.863643798828125,-101.89600372314453,46.137001037597656,-39.29300308227539
1788676372496799200,7.87979931640625,-104.96800231933594,46.15700149536133,-38.16800308227539
1788676372512898000,7.89589794921875,-103.71000671386719,45.384002685546875,-39.704002380371094
1788676372529036500,7.91203662109375,-105.34500122070312,46.0150032043457,-40.81700134277344
1788676372545150500,7.928150390625,-102.94300842285156,46.1510009765625,-38.374000549316406
1788676372561360000,7.94435986328125,-100.69400787353516,46.47600173950195,-37.8650016784668
1788676372577517300,7.960517333984375,-104.25900268554688,46.99700164794922,-39.384002685546875
1788676372593624600,7.97662451171875,-103.1830062866211,46.24400329589844,-39.49400329589844
1788676372609793500,7.99279345703125,-101.99500274658203,45.60200119018555,-39.297000885009766
1788676372625930800,8.0089306640625,-103.27200317382812,44.742000579833984,-39.60900115966797
1788676372642102300,8.025102294921876,-102.62200164794922,46.368003845214844,-38.169002532958984
1788676372658293200,8.041293212890626,-102.7560043334961,45.7030029296875,-39.80500030517578
1788676372674362400,8.0573623046875,-101.77200317382812,45.06700134277344,-39.20000076293945
1788676372690476300,8.073476318359376,-101.79700469970703,44.72700119018555,-40.52800369262695
1788676372706613200,8.08961328125,-100.85400390625,47.20000076293945,-39.794002532958984
1788676372722774000,8.10577392578125,-100.59300231933594,45.71600341796875,-38.58500289916992
1788676372738965200,8.12196533203125,-100.17400360107422,45.81800079345703,-38.8900032043457
1788676372755041300,8.138041259765625,-102.21200561523438,45.816001892089844,-39.29500198364258
1788676372771186000,8.15418603515625,-102.31700134277344,45.38500213623047,-39.50300216674805
1788676372787285000,8.170284912109375,-101.7800064086914,44.954002380371094,-39.60900115966797
1788676372803473400,8.186473388671875,-101.29000854492188,47.84400177001953,-39.788002014160156
1788676372819674400,8.20267431640625,-101.36900329589844,45.160003662109375,-40.21900177001953
1788676372835757300,8.21875732421875,-101.36400604248047,47.108001708984375,-38.775001525878906
1788676372851887900,8.234887939453126,-103.06200408935547,45.38800048828125,-39.400001525878906
1788676372867990500,8.250990478515625,-103.06000518798828,45.38900375366211,-39.29800033569336
1788676372884181800,8.267181640625,-101.86500549316406,43.887001037597656,-39.31300354003906
1788676372900337400,8.28333740234375,-103.80400848388672,45.284000396728516,-39.19600296020508
1788676372916424700,8.2994248046875,-102.84400177001953,44.20100021362305,-39.92000198364258
1788676372932570600,8.315570556640624,-101.8810043334961,44.74100112915039,-39.509002685546875
1788676372948668000,8.33166796875,-103.05400848388672,43.772003173828125,-40.025001525878906
1788676372964861400,8.347861328125,-105.07400512695312,43.13200378417969,-40.02800369262695
1788676372981026600,8.364026611328125,-102.21700286865234,43.544002532958984,-40.945003509521484
1788676372997128200,8.380128173828124,-103.99100494384766,44.00400161743164,-38.80000305175781
1788676373013292500,8.39629248046875,-102.84000396728516,44.42000198364258,-39.612003326416016
1788676373029404200,8.412404052734376,-103.78900146484375,44.21200180053711,-39.20500183105469
1788676373045613000,8.428613037109375,-104.22100830078125,43.23800277709961,-40.02800369262695
1788676373061784600,8.44478466796875,-105.91900634765625,43.78700256347656,-39.20600128173828
1788676373077891000,8.46089111328125,-104.3010025024414,43.470001220703125,-38.702003479003906
1788676373094060800,8.477060791015624,-105.27100372314453,43.790000915527344,-38.902000427246094
1788676373110187300,8.493187255859375,-104.28900146484375,42.397003173828125,-38.81300354003906
1788676373126406400,8.509406494140626,-102.35600280761719,42.941001892089844,-37.996002197265625
1788676373142588000,8.525587890625,-105.23800659179688,43.702003479003906,-37.47600173950195
1788676373158699300,8.54169921875,-105.14300537109375,43.371002197265625,-38.19200134277344
1788676373174878200,8.557878173828126,-105.47200775146484,43.36600112915039,-38.60000228881836
1788676373191011600,8.574011474609375,-104.85800170898438,43.781002044677734,-39.51300048828125
1788676373207186000,8.59018603515625,-103.56600189208984,44.5420036315918,-38.592002868652344
1788676373223373600,8.60637353515625,-103.34200286865234,44.11600112915039,-38.39200210571289
1788676373239438800,8.62243896484375,-104.72500610351562,43.689002990722656,-38.39400100708008
1788676373255571000,8.638571044921875,-104.20100402832031,43.250003814697266,-39.112003326416016
1788676373271710700,8.654710693359375,-103.33900451660156,44.22600173950195,-38.1870002746582
1788676373287887400,8.670887451171875,-105.927001953125,44.75400161743164,-38.99400329589844
1788676373304085200,8.687085205078125,-106.05400848388672,45.3910026550293,-39.49800109863281
1788676373320182800,8.703182861328125,-105.51400756835938,44.09700393676758,-40.01900100708008
1788676373336298500,8.719298583984376,-106.74600219726562,44.77800369262695,-37.36300277709961
1788676373352397600,8.7353974609375,-105.06000518798828,44.76100158691406,-38.384002685546875
1788676373368588500,8.751588623046874,-106.11500549316406,44.55400085449219,-37.97700119018555
1788676373384789200,8.767789306640625,-105.26600646972656,45.7390022277832,-37.45800018310547
1788676373400876800,8.783876708984375,-104.64800262451172,46.04800033569336,-38.27100372314453
1788676373417011000,8.800010986328125,-106.02600860595703,44.97600173950195,-38.483001708984375
1788676373433153300,8.8161533203125,-104.40800476074219,45.09100341796875,-37.669002532958984
1788676373449344000,8.832343994140626,-105.81100463867188,45.84100341796875,-37.8640022277832
1788676373465503500,8.84850341796875,-104.95600128173828,46.48800277709961,-37.452003479003906
1788676373481594000,8.864593994140625,-107.29700469970703,45.849002838134766,-37.45500183105469
1788676373497748500,8.88074853515625,-105.68700408935547,45.419002532958984,-37.35900115966797
1788676373513857300,8.896857177734375,-105.88400268554688,45.538002014160156,-36.54300308227539
1788676373530060300,8.913060302734374,-105.17300415039062,45.406002044677734,-38.2760009765625
1788676373546223400,8.929223388671875,-106.45600128173828,45.5150032043457,-38.27400207519531
1788676373562327000,8.9453271484375,-106.00100708007812,46.288002014160156,-36.53600311279297
1788676373578485000,8.961485107421876,-106.75300598144531,46.61100387573242,-36.53200149536133
1788676373594609200,8.977609130859374,-104.85800170898438,48.10400390625,-36.827003479003906
1788676373610828800,8.993828857421875,-107.41700744628906,46.70500183105469,-37.54900360107422
1788676373627016000,9.010015869140625,-105.3800048828125,46.92300033569336,-37.040000915527344
1788676373643127000,9.026126953125,-106.00000762939453,45.42400360107422,-37.053001403808594
1788676373659299600,9.042299560546875,-105.81600189208984,47.67500305175781,-36.93100357055664
1788676373675446300,9.0584462890625,-106.27800750732422,46.46600341796875,-39.284000396728516
1788676373691618000,9.0746181640625,-105.19300842285156,46.691001892089844,-38.367000579833984
1788676373707809800,9.090809814453126,-106.3790054321289,46.36100387573242,-39.08100128173828
1788676373723886600,9.106886474609375,-105.17900848388672,47.13200378417969,-37.44600296020508
1788676373740030700,9.12303076171875,-106.27700805664062,47.547000885009766,-38.5620002746582
1788676373756122600,9.13912255859375,-103.48100280761719,46.906002044677734,-38.06100082397461
1788676373772311600,9.1553115234375,-106.0510025024414,47.12200164794922,-38.26000213623047
1788676373788519200,9.171519287109374,-105.73200225830078,45.932003021240234,-39.086002349853516
1788676373804579800,9.187579833984374,-106.78500366210938,47.13100051879883,-37.64800262451172
1788676373820719000,9.203718994140624,-106.27600860595703,47.11600112915039,-38.76900100708008
1788676373836816000,9.21981591796875,-106.07000732421875,46.678001403808594,-39.384002685546875
1788676373853006000,9.236006103515624,-102.7800064086914,47.634002685546875,-39.68600082397461
1788676373869208600,9.25220849609375,-104.89800262451172,47.215003967285156,-39.177001953125
1788676373885296600,9.268296630859375,-103.64900207519531,47.73400115966797,-40.29500198364258
1788676373901449200,9.28444921875,-102.56300354003906,46.55500030517578,-40.20500183105469
1788676373917556500,9.300556396484374,-103.94600677490234,46.884002685546875,-39.79300308227539
1788676373933762800,9.3167626953125,-102.6300048828125,46.47100067138672,-38.474002838134766
1788676373949934600,9.3329345703125,-102.5560073852539,45.910003662109375,-40.31300354003906
1788676373966040000,9.3490400390625,-103.10200500488281,46.44400405883789,-40.51100158691406
1788676373982189300,9.365189208984376,-103.531005859375,46.22800064086914,-40.71600341796875
1788676373998292500,9.38129248046875,-101.73100280761719,47.18800354003906,-40.8120002746582
1788676374014508800,9.3975087890625,-102.64200592041016,46.68000411987305,-38.87900161743164
1788676374030688000,9.41368798828125,-103.20000457763672,45.47700119018555,-40.72300338745117
1788676374046768000,9.42976806640625,-103.2070083618164,46.01300048828125,-40.71800231933594
1788676374062935800,9.445935791015625,-103.61600494384766,45.160003662109375,-40.42000198364258
1788676374079058700,9.46205859375,-100.7300033569336,45.590003967285156,-40.012001037597656
1788676374095280000,9.478280029296876,-101.73900604248047,45.130001068115234,-42.46000289916992
1788676374111470800,9.494470947265626,-99.76800537109375,46.345001220703125,-39.49700164794922
1788676374127586300,9.51058642578125,-101.81100463867188,45.04300308227539,-40.932003021240234
1788676374143761200,9.52676123046875,-100.63500213623047,46.12300109863281,-40.211002349853516
1788676374159895800,9.542895751953125,-102.76300811767578,44.72600173950195,-40.730003356933594
1788676374176049200,9.559049072265625,-100.64100646972656,45.03900146484375,-41.13800048828125
1788676374192245200,9.575245361328125,-104.37600708007812,45.586002349853516,-40.72100067138672
1788676374208321300,9.5913212890625,-103.2080078125,45.25600051879883,-41.23400115966797
1788676374224450800,9.607450927734375,-101.06500244140625,44.82500076293945,-41.13900375366211
1788676374240592600,9.623592529296875,-102.24100494384766,44.93400192260742,-41.13600158691406
1788676374256774100,9.639774169921875,-102.66600799560547,44.93600082397461,-41.034000396728516
1788676374272974800,9.655974853515625,-101.79300689697266,45.27000045776367,-40.01400375366211
1788676374289060600,9.672060546875,-101.80000305175781,44.94200134277344,-40.5260009765625
1788676374305202700,9.68820263671875,-103.19900512695312,45.910003662109375,-40.41400146484375
1788676374321302000,9.704302001953126,-102.2540054321289,45.57500076293945,-41.33500289916992
1788676374337495600,9.72049560546875,-102.75100708007812,45.38200378417969,-39.80800247192383
1788676374353657300,9.7366572265625,-102.90400695800781,46.43400192260742,-41.224002838134766
1788676374369747200,9.752747314453124,-104.19900512695312,47.72500228881836,-41.00700378417969
1788676374385902800,9.76890283203125,-102.89500427246094,46.54800033569336,-40.7140007019043
1788676374402006800,9.7850068359375,-100.94900512695312,46.66800308227539,-39.595001220703125
1788676374418194200,9.801194091796875,-102.36300659179688,46.54600143432617,-40.816001892089844
1788676374434359600,9.817359619140625,-100.552001953125,46.00100326538086,-41.33300018310547
1788676374450465000,9.833465087890625,-102.57300567626953,46.98100280761719,-40.40500259399414
1788676374466609700,9.849609619140624,-100.8530044555664,48.066001892089844,-39.17500305175781
1788676374482709200,9.865709228515625,-103.12400817871094,48.70000076293945,-40.08300018310547
1788676374498905900,9.88190576171875,-101.51800537109375,47.512001037597656,-40.605003356933594
1788676374515071700,9.89807177734375,-103.10900115966797,48.06100082397461,-39.78300094604492
1788676374531137500,9.914137451171875,-102.78900146484375,46.980003356933594,-40.50700378417969
1788676374547295700,9.930295654296875,-102.05400848388672,48.160003662109375,-40.29300308227539
1788676374563416600,9.94641650390625,-102.49700164794922,47.827003479003906,-41.21200180053711
1788676374579582200,9.962582275390625,-103.36400604248047,49.117000579833984,-40.996002197265625
1788676374595769900,9.978769775390624,-101.74200439453125,46.96600341796875,-41.42500305175781
1788676374611843600,9.994843505859375,-102.50200653076172,48.3640022277832,-41.10600280761719
1788676374627971300,10.010971435546875,-102.89900207519531,47.19400405883789,-40.50400161743164
1788676374644114400,10.027114501953125,-101.73600769042969,46.53700256347656,-41.42900085449219
1788676374660289300,10.043289306640625,-102.06900787353516,48.259002685546875,-40.90400314331055
1788676374676452400,10.059452392578125,-102.52300262451172,48.45900344848633,-42.022003173828125
1788676374692526800,10.07552685546875,-100.46000671386719,47.39600372314453,-41.117000579833984
1788676374708668400,10.09166845703125,-102.15800476074219,46.97300338745117,-40.915000915527344
1788676374724796700,10.107796630859376,-100.90100860595703,47.28000259399414,-41.83100128173828
1788676374740968200,10.12396826171875,-103.12500762939453,46.64600372314453,-41.426002502441406
1788676374757173800,10.140173828125,-103.54800415039062,46.00100326538086,-41.63500213623047
1788676374773266000,10.156265869140626,-101.74800109863281,47.39400100708008,-41.42100143432617
1788676374789414000,10.172413818359376,-101.95100402832031,47.617000579833984,-40.80800247192383
1788676374805518300,10.188518310546876,-102.88300323486328,46.55500030517578,-40.20500183105469
1788676374821719800,10.2047197265625,-102.67200469970703,45.58100128173828,-40.926002502441406
1788676374837875200,10.220875244140625,-101.94300842285156,46.10900115966797,-41.432003021240234
1788676374853970000,10.236969970703125,-102.26700592041016,45.0260009765625,-42.25600051879883
1788676374870127000,10.253127197265625,-101.656005859375,45.980003356933594,-42.96200180053711
1788676374886242800,10.269242919921876,-102.48600769042969,46.21200180053711,-41.73600387573242
1788676374902450000,10.285449951171875,-100.58100128173828,46.63100051879883,-42.24400329589844
1788676374918648800,10.30164892578125,-100.89000701904297,44.802001953125,-42.871002197265625
1788676374934748200,10.317748046875,-102.8800048828125,46.01700210571289,-40.413002014160156
1788676374950912800,10.333912841796876,-102.3270034790039,45.27100372314453,-40.01300048828125
1788676374967036400,10.350036376953126,-102.70000457763672,46.428001403808594,-41.63200378417969
1788676374983250700,10.366250732421875,-99.6030044555664,46.208003997802734,-41.7400016784668
1788676374999427300,10.38242724609375,-101.87200164794922,46.195003509521484,-42.95900344848633
1788676375015540500,10.39854052734375,-99.73600769042969,47.4890022277832,-42.13600158691406
1788676375031710700,10.414710693359375,-100.79200744628906,45.660003662109375,-42.762001037597656
1788676375047835100,10.430835205078125,-99.74000549316406,46.62200164794922,-42.85600280761719
1788676375064010500,10.447010498046875,-102.17500305175781,45.44900131225586,-42.660003662109375
1788676375080194800,10.46319482421875,-98.14200592041016,46.509002685546875,-43.06300354003906
1788676375096259600,10.479259521484375,-99.22700500488281,46.60900115966797,-43.77400207519531
1788676375112369700,10.49536962890625,-100.90200805664062,45.22600173950195,-43.17300033569336
1788676375128487400,10.5114873046875,-98.8060073852539,46.60400390625,-44.08000183105469
1788676375144661800,10.527661865234375,-100.44700622558594,44.810001373291016,-42.159000396728516
1788676375160856800,10.54385693359375,-102.42100524902344,45.97100067138672,-43.7760009765625
1788676375176927500,10.559927490234376,-100.36500549316406,46.30800247192383,-42.349002838134766
1788676375193054000,10.576053955078125,-99.21400451660156,46.50800323486328,-43.2660026550293
1788676375209196500,10.592196533203126,-100.2550048828125,45.22900390625,-42.868003845214844
1788676375225373000,10.608373046875,-100.57300567626953,44.90700149536133,-42.97200393676758
1788676375241571600,10.624571533203126,-100.80400848388672,46.19300079345703,-42.961002349853516
1788676375257653200,10.6406533203125,-101.31200408935547,44.48100280761719,-42.87300109863281
1788676375273795300,10.65679541015625,-101.85700225830078,44.259002685546875,-43.48600387573242
1788676375289930800,10.6729306640625,-100.66900634765625,44.80500030517578,-42.566001892089844
1788676375306103000,10.68910302734375,-101.56800842285156,46.07600402832031,-43.7760009765625
1788676375322350300,10.705350341796875,-100.78800201416016,45.3390007019043,-42.7650032043457
1788676375338439000,10.72143896484375,-100.08900451660156,45.41600036621094,-44.90400314331055
1788676375354576100,10.737576171875,-102.37700653076172,44.592002868652344,-42.6670036315918
1788676375370685200,10.753685302734375,-101.00200653076172,44.25800323486328,-43.487003326416016
1788676375386898700,10.769898681640624,-102.68800354003906,43.95000076293945,-42.67300033569336
1788676375403062300,10.786062255859376,-101.34100341796875,44.89600372314453,-43.88800048828125
1788676375419161900,10.802161865234375,-101.31500244140625,43.72200393676758,-43.49100112915039
1788676375435320800,10.81832080078125,-101.46800231933594,44.23500061035156,-45.21800231933594
1788676375451428900,10.834428955078126,-100.58600616455078,44.89900207519531,-43.58400344848633
1788676375467636000,10.850635986328125,-100.69800567626953,44.89600372314453,-43.78700256347656
1788676375483816700,10.866816650390625,-101.21400451660156,44.47500228881836,-43.281002044677734
1788676375499906800,10.88290673828125,-101.33600616455078,44.57400131225586,-43.8910026550293
1788676375516032500,10.899032470703125,-99.74900817871094,45.75200271606445,-43.781002044677734
1788676375532159500,10.915159423828126,-101.89500427246094,44.884002685546875,-44.80500030517578
1788676375548318200,10.931318115234374,-102.31700134277344,45.320003509521484,-44.29100036621094
1788676375564514800,10.947514892578125,-100.71900177001953,46.397003173828125,-43.77400207519531
1788676375580591600,10.963591552734375,-101.25800323486328,46.61000061035156,-43.87300109863281
1788676375596711400,10.97971142578125,-100.1820068359375,46.073001861572266,-43.87900161743164
1788676375612845300,10.99584521484375,-101.88500213623047,45.97100067138672,-43.67400360107422
1788676375629009200,11.012009033203125,-102.47300720214844,47.12800216674805,-45.39500045776367
1788676375645205500,11.02820556640625,-100.96500396728516,48.43000411987305,-43.95900344848633
1788676375661289200,11.044289306640625,-102.531005859375,46.4010009765625,-43.67000198364258
1788676375677426400,11.060426513671874,-101.50000762939453,47.566001892089844,-44.5780029296875
1788676375693522200,11.076522216796874,-102.68600463867188,47.88500213623047,-44.87900161743164
1788676375709709600,11.09270947265625,-103.06600189208984,47.91400146484375,-42.7390022277832
1788676375725923600,11.108923583984375,-102.7750015258789,47.24800109863281,-44.47700119018555
1788676375742018600,11.1250185546875,-99.67200469970703,47.4630012512207,-44.07200241088867
1788676375758172400,11.14117236328125,-99.91100311279297,48.961002349853516,-44.262001037597656
1788676375774284000,11.157283935546875,-99.36600494384766,47.02100372314453,-44.993003845214844
1788676375790489000,11.173489013671874,-101.39800262451172,47.56300354003906,-44.78200149536133
1788676375806717400,11.189717529296875,-100.99100494384766,48.198001861572266,-45.28600311279297
1788676375822816800,11.205816650390625,-101.42200469970703,49.60200119018555,-44.560001373291016
1788676375838968000,11.221968017578124,-99.2820053100586,47.656002044677734,-45.59800338745117
1788676375855073500,11.238073486328124,-99.28700256347656,47.97700119018555,-45.59600067138672
1788676375871276300,11.2542763671875,-101.93900299072266,47.775001525878906,-44.983001708984375
1788676375887441200,11.270441162109375,-101.01100158691406,49.15900421142578,-45.583003997802734
1788676375903539500,11.28653955078125,-101.00900268554688,48.512001037597656,-45.89400100708008
1788676375919703600,11.30270361328125,-100.88500213623047,47.55000305175781,-45.69900131225586
1788676375935817700,11.318817626953125,-99.5060043334961,48.406002044677734,-45.59100341796875
1788676375952029400,11.335029541015626,-102.72200775146484,48.836002349853516,-45.88900375366211
1788676375968211200,11.351211181640625,-101.9780044555664,47.75200271606445,-46.715003967285156
1788676375984328400,11.367328369140624,-100.01800537109375,47.448001861572266,-45.19200134277344
1788676376000455400,11.383455322265625,-101.21800231933594,47.5420036315918,-46.310001373291016
1788676376016616700,11.39961669921875,-100.46300506591797,48.302001953125,-45.4890022277832
1788676376032765400,11.415765380859375,-101.31500244140625,49.27700424194336,-44.76700210571289
1788676376048946700,11.43194677734375,-99.0060043334961,49.358001708984375,-46.500003814697266
1788676376065003800,11.448003662109375,-100.88500213623047,47.55000305175781,-45.69900131225586
1788676376081136400,11.464136474609376,-100.80900573730469,47.53000259399414,-47.12600326538086
1788676376097276700,11.480276611328126,-100.37300109863281,47.85900115966797,-46.512001037597656
1788676376113453800,11.496453857421875,-100.56200408935547,46.902000427246094,-46.01100158691406
1788676376129654300,11.512654296875,-101.11200714111328,47.75800323486328,-46.20600128173828
1788676376145735200,11.528735107421875,-101.35200500488281,47.310001373291016,-47.63600158691406
1788676376161871000,11.54487109375,-99.74200439453125,46.23200225830078,-47.9530029296875
1788676376177967400,11.56096728515625,-98.91700744628906,48.48200225830078,-47.833003997802734
1788676376194151700,11.577151611328125,-101.21700286865234,45.922000885009766,-47.24100112915039
1788676376210355500,11.59335546875,-97.36900329589844,45.48600387573242,-47.35200119018555
1788676376226442500,11.6094423828125,-99.87500762939453,48.16100311279297,-47.93600082397461
1788676376242585900,11.6255859375,-101.32000732421875,46.68100357055664,-46.62300109863281
1788676376258731500,11.6417314453125,-100.48300170898438,47.42500305175781,-46.92300033569336
1788676376274924000,11.657924072265626,-101.656005859375,46.13200378417969,-47.64600372314453
1788676376291136000,11.674135986328125,-99.5040054321289,45.27400207519531,-47.4530029296875
1788676376307238400,11.69023828125,-99.74400329589844,47.527000427246094,-47.22900390625
1788676376323393500,11.7063935546875,-100.95000457763672,46.86100387573242,-49.06700134277344
1788676376339504600,11.722504638671875,-100.94000244140625,47.40800094604492,-48.24700164794922
1788676376355710700,11.738710693359375,-99.32200622558594,47.7400016784668,-47.329002380371094
1788676376371879400,11.75487939453125,-98.56100463867188,45.47700119018555,-48.165000915527344
1788676376387981800,11.77098193359375,-101.32600402832031,44.624000549316406,-48.169002532958984
1788676376404143900,11.787143798828126,-101.43900299072266,45.053001403808594,-48.165000915527344
1788676376420264200,11.80326416015625,-100.34100341796875,44.204002380371094,-47.35900115966797
1788676376436484900,11.81948486328125,-99.93000793457031,44.73400115966797,-47.76300048828125
1788676376452669200,11.835669189453125,-99.41600799560547,44.83000183105469,-48.577003479003906
1788676376468740400,11.851740234375,-102.04600524902344,44.31700134277344,-47.152000427246094
1788676376484871400,11.867871337890625,-99.84600830078125,46.233001708984375,-47.85100173950195
1788676376501017300,11.884017333984374,-101.62000274658203,43.884002685546875,-47.46200180053711
1788676376517198300,11.9001982421875,-100.35000610351562,45.38800048828125,-47.04300308227539
1788676376533392000,11.916391845703124,-102.17200469970703,44.84600067138672,-47.65700149536133
1788676376549465300,11.93246533203125,-100.98900604248047,44.09300231933594,-47.76700210571289
1788676376565600300,11.948600341796874,-102.28600311279297,44.410003662109375,-48.272003173828125
1788676376581693200,11.964693115234375,-102.04900360107422,43.99100112915039,-47.461002349853516
1788676376597883600,11.980883544921875,-101.43500518798828,45.595001220703125,-47.6510009765625
1788676376614050300,11.99705029296875,-101.0530014038086,44.11900329589844,-45.83100128173828
1788676376630127600,12.013127685546875,-101.38600158691406,44.220001220703125,-46.3390007019043
1788676376646279200,12.029279052734376,-102.24000549316406,44.54500198364258,-46.13100051879883
1788676376662385400,12.045385498046874,-100.25000762939453,45.492000579833984,-47.246002197265625
1788676376678571000,12.061571044921875,-101.41900634765625,45.92900085449219,-46.73100280761719
1788676376694734000,12.077734130859374,-100.87700653076172,44.85200119018555,-47.047000885009766
1788676376710827500,12.09382763671875,-101.08600616455078,45.50400161743164,-46.43000030517578
1788676376726985000,12.10998486328125,-101.40300750732422,44.96600341796875,-46.63800048828125
1788676376743078100,12.126078125,-101.64300537109375,46.68000411987305,-46.72500228881836
1788676376759264800,12.1422646484375,-101.8290023803711,45.832000732421875,-46.01900100708008
1788676376775422200,12.158422119140624,-102.1760025024414,47.11300277709961,-46.41400146484375
1788676376791515600,12.174515625,-100.89900207519531,46.46000289916992,-47.03300094604492
1788676376807662300,12.190662353515625,-101.9320068359375,45.72700119018555,-45.91800308227539
1788676376823772200,12.206772216796875,-101.2350082397461,45.803001403808594,-48.159000396728516
1788676376839981300,12.222981201171875,-100.76400756835938,47.55800247192383,-45.0880012512207
1788676376856158200,12.239158203125,-103.3010025024414,47.03700256347656,-44.27400207519531
1788676376872267000,12.25526708984375,-100.75900268554688,46.37200164794922,-45.608001708984375
1788676376888436200,12.271436279296875,-101.2750015258789,47.89600372314453,-43.862003326416016
1788676376904553000,12.287552978515626,-101.72400665283203,47.66800308227539,-44.98400115966797
1788676376920770600,12.3037705078125,-99.89300537109375,47.999000549316406,-44.06700134277344
1788676376936951800,12.319951904296875,-102.14900207519531,47.67000198364258,-44.88200378417969
1788676376953067300,12.3360673828125,-100.34300231933594,47.98600387573242,-45.08500289916992
1788676376969243100,12.3522431640625,-103.10900115966797,47.564002990722656,-44.88100051879883
1788676376985374500,12.36837451171875,-102.66400146484375,47.250003814697266,-44.27300262451172
1788676377001601500,12.3846015625,-103.98100280761719,49.82400131225586,-44.249000549316406
1788676377017790700,12.400790771484376,-102.01800537109375,47.36000061035156,-43.96800231933594
1788676377033865700,12.41686572265625,-100.96700286865234,48.105003356933594,-44.268001556396484
1788676377049999000,12.4329990234375,-103.74800872802734,48.755001068115234,-44.05500030517578
1788676377066138000,12.44913818359375,-102.99700164794922,47.35100173950195,-44.781002044677734
1788676377082320100,12.465320068359375,-103.17900848388672,47.04600143432617,-43.56100082397461
1788676377098523100,12.481523193359376,-101.83000183105469,47.23600387573242,-45.191001892089844
1788676377114613200,12.49761328125,-102.44400787353516,46.82100296020508,-44.277000427246094
1788676377130762800,12.5137626953125,-101.93900299072266,48.74800109863281,-44.36300277709961
1788676377146864000,12.529864013671874,-102.76500701904297,47.362003326416016,-43.967002868652344
1788676377163055400,12.546055419921874,-102.98800659179688,47.35600280761719,-44.374000549316406
1788676377179265500,12.562265625,-102.531005859375,47.15800094604492,-43.15400314331055
1788676377195331600,12.57833154296875,-102.34100341796875,46.387001037597656,-44.689002990722656
1788676377211483000,12.59448291015625,-101.79800415039062,46.06700134277344,-44.4890022277832
1788676377227588000,12.610588134765624,-103.20100402832031,46.493003845214844,-44.8910026550293
1788676377243781600,12.62678173828125,-101.91000366210938,45.95600128173828,-44.79500198364258
1788676377259944400,12.6429443359375,-100.49200439453125,45.75600051879883,-43.57600021362305
1788676377276040200,12.659040283203124,-100.83700561523438,46.7140007019043,-44.077003479003906
1788676377292204300,12.675204345703126,-101.27300262451172,47.034000396728516,-44.277000427246094
1788676377308321500,12.691321533203125,-101.156005859375,45.5260009765625,-44.80000305175781
1788676377324533500,12.707533447265625,-100.70500183105469,44.56800079345703,-44.30000305175781
1788676377340703000,12.723702880859374,-98.24300384521484,44.45900344848633,-44.10000228881836
1788676377356835800,12.7398359375,-101.25100708007812,46.6140022277832,-43.56800079345703
1788676377372966000,12.7559658203125,-99.84700775146484,45.64900207519531,-43.47600173950195
1788676377389090000,12.772090087890625,-102.63200378417969,46.297000885009766,-43.467002868652344
1788676377405262800,12.788262939453125,-101.4540023803711,45.540000915527344,-43.781002044677734
1788676377421459500,12.80445947265625,-100.4010009765625,45.96200180053711,-44.18600082397461
1788676377437534000,12.820533935546875,-101.78300476074219,45.64400100708008,-44.08500289916992
1788676377453662700,12.836662841796874,-100.802001953125,45.54600143432617,-43.272003173828125
1788676377469761000,12.852760986328125,-101.64400482177734,45.987003326416016,-42.452003479003906
1788676377485944300,12.8689443359375,-99.21600341796875,44.99400329589844,-44.29800033569336
1788676377502136800,12.88513671875,-100.4570083618164,43.39900207519531,-43.49500274658203
1788676377518215700,12.901215576171875,-102.2750015258789,43.941001892089844,-43.284000396728516
1788676377534351600,12.9173515625,-100.53700256347656,44.28000259399414,-41.75600051879883
1788676377550449700,12.93344970703125,-102.69200134277344,43.73100280761719,-42.980003356933594
1788676377566636800,12.94963671875,-102.26200866699219,44.4890022277832,-42.36300277709961
1788676377582843600,12.96584375,-99.7280044555664,44.900001525878906,-43.38100051879883
1788676377598936800,12.981936767578125,-100.89500427246094,45.3390007019043,-42.76400375366211
1788676377615089700,12.998089599609376,-101.74500274658203,44.04600143432617,-43.38600158691406
1788676377631197400,13.014197509765625,-102.82000732421875,45.880001068115234,-42.55400085449219
1788676377647399700,13.030399658203125,-100.03900146484375,44.582000732421875,-43.18000030517578
1788676377663570400,13.0465703125,-100.77400207519531,44.483001708984375,-42.67000198364258
1788676377679666000,13.062666015625,-100.8810043334961,44.483001708984375,-42.67000198364258
1788676377695825700,13.07882568359375,-101.87300109863281,44.78900146484375,-43.88900375366211
1788676377711938800,13.094938720703125,-101.3060073852539,45.67300033569336,-41.84400177001953
1788676377728148200,13.111148193359375,-101.82100677490234,45.14500045776367,-41.3390007019043
1788676377744312300,13.127312255859374,-101.55000305175781,46.08700180053711,-42.961002349853516
1788676377760398600,13.143398681640624,-101.06500244140625,44.177001953125,-41.552001953125
1788676377776565800,13.159565673828125,-100.86700439453125,46.00400161743164,-41.12900161743164
1788676377792689400,13.175689453125,-102.04800415039062,46.43400192260742,-41.12300109863281
1788676377808906200,13.19190625,-102.36400604248047,45.465003967285156,-41.53900146484375
1788676377825091800,13.208091796875,-102.00700378417969,45.595001220703125,-39.807003021240234
1788676377841206000,13.2242060546875,-102.46100616455078,44.93000030517578,-41.44200134277344
1788676377857363500,13.240363525390626,-101.28700256347656,45.46900177001953,-41.13300323486328
1788676377873497900,13.256497802734375,-102.2560043334961,45.35700225830078,-41.540000915527344
1788676377889676300,13.27267626953125,-100.53500366210938,45.794002532958984,-40.724002838134766
1788676377905868500,13.28886865234375,-102.69600677490234,45.99800109863281,-41.73800277709961
1788676377921925400,13.30492529296875,-101.99500274658203,46.250003814697266,-38.884002685546875
1788676377938063400,13.3210634765625,-101.70000457763672,45.910003662109375,-40.21200180053711
1788676377954202000,13.3372021484375,-103.28700256347656,45.4900016784668,-39.80600357055664
1788676377970385700,13.3533857421875,-101.16000366210938,46.12900161743164,-39.803001403808594
1788676377986581800,13.369581787109375,-103.64000701904297,47.415000915527344,-40.09400177001953
1788676378002657800,13.38565771484375,-102.12000274658203,46.564002990722656,-39.492000579833984
1788676378018794800,13.401794677734374,-100.96800231933594,47.845001220703125,-39.68600082397461
1788676378034941400,13.41794140625,-102.23600769042969,46.23400115966797,-40.10600280761719
1788676378051130400,13.43413037109375,-99.90800476074219,47.406002044677734,-40.303001403808594
1788676378067338800,13.4503388671875,-101.09700775146484,49.4530029296875,-39.672000885009766
1788676378083431700,13.466431640625,-100.95500183105469,46.448001861572266,-40.00400161743164
1788676378099577000,13.4825771484375,-103.42100524902344,49.47200393676758,-38.54800033569336
1788676378115680500,13.498680419921875,-100.71900177001953,47.75800323486328,-38.159000396728516
1788676378131848000,13.514847900390626,-101.92500305175781,48.7140007019043,-38.9640007019043
1788676378148055800,13.531055908203125,-103.62300872802734,47.64200210571289,-39.17500305175781
1788676378164148500,13.5471484375,-104.03500366210938,48.19200134277344,-38.1510009765625
1788676378180302800,13.563302734375,-101.44700622558594,47.87900161743164,-37.24100112915039
1788676378196414500,13.57941455078125,-103.16200256347656,47.98600387573242,-37.441001892089844
1788676378212612600,13.595612548828125,-102.5560073852539,47.85600280761719,-39.073001861572266
1788676378228777500,13.611777587890625,-102.5510025024414,48.83100128173828,-38.249000549316406
1788676378244874200,13.627874267578125,-105.00700378417969,48.18700408935547,-38.659000396728516
1788676378261035300,13.64403515625,-102.63800811767578,48.41100311279297,-37.64200210571289
1788676378277151700,13.66015185546875,-102.66000366210938,48.50600051879883,-38.55800247192383
1788676378293339100,13.676339111328126,-101.44100189208984,49.07100296020508,-36.211002349853516
1788676378309506800,13.6925068359375,-101.33600616455078,47.88100051879883,-37.03700256347656
1788676378325610500,13.708610595703124,-102.63800811767578,48.73500061035156,-37.435001373291016
1788676378341777400,13.72477734375,-102.73200225830078,47.44700241088867,-37.650001525878906
1788676378357911300,13.740911376953125,-100.96600341796875,49.035003662109375,-38.861000061035156
1788676378374079000,13.757078857421876,-101.98200225830078,47.12300109863281,-37.75600051879883
1788676378390248400,13.77324853515625,-100.55900573730469,48.698001861572266,-39.98500061035156
1788676378406323700,13.78932373046875,-102.77300262451172,49.259002685546875,-38.34700012207031
1788676378422455600,13.80545556640625,-101.2820053100586,48.06500244140625,-39.2760009765625
1788676378438551600,13.821551513671874,-100.21200561523438,48.38900375366211,-38.96900177001953
1788676378454733000,13.837733154296876,-99.5820083618164,49.13900375366211,-38.9640007019043
1788676378470990000,13.853989990234375,-98.69700622558594,48.724002838134766,-37.84800338745117
1788676378487072000,13.870072021484376,-99.54000091552734,47.11000061035156,-38.37000274658203
1788676378503195400,13.8861953125,-99.78800201416016,49.25200271606445,-38.55500030517578
1788676378519334100,13.902334228515626,-98.48300170898438,49.047000885009766,-37.6410026550293
1788676378535528700,13.91852880859375,-100.87600708007812,49.781002044677734,-39.160003662109375
1788676378551736300,13.934736328125,-100.79200744628906,47.99400329589844,-36.527000427246094
1788676378567829800,13.950829833984375,-100.94200134277344,48.29300308227539,-38.25600051879883
1788676378583987700,13.96698779296875,-97.54500579833984,48.92400360107422,-38.763999938964844
1788676378600093400,13.983093505859374,-101.0320053100586,49.384002685546875,-36.820003509521484
1788676378616296000,13.9992958984375,-99.84700775146484,47.659000396728516,-37.448001861572266
1788676378632514800,14.015514892578125,-97.62400817871094,49.04900360107422,-37.439002990722656
1788676378648619800,14.031619873046875,-100.81700134277344,48.30400085449219,-37.441001892089844
1788676378664783000,14.047783203125,-101.88600158691406,49.38500213623047,-36.819000244140625
1788676378680904200,14.063904296875,-99.99100494384766,49.150001525878906,-38.14800262451172
1788676378697113300,14.08011328125,-99.34800720214844,48.50200271606445,-38.46000289916992
1788676378713304000,14.096303955078126,-99.12500762939453,48.50700378417969,-38.053001403808594
1788676378729417500,14.11241748046875,-101.49800109863281,49.25300216674805,-38.65400314331055
1788676378745569000,14.128569091796875,-101.55400848388672,48.85200119018555,-36.621002197265625
1788676378761691100,14.144691162109375,-100.04400634765625,48.750003814697266,-36.012001037597656
1788676378777909000,14.160908935546875,-100.39700317382812,48.62300109863281,-37.54100036621094
1788676378794092500,14.177092529296875,-100.81100463867188,49.172000885009766,-36.61900329589844
1788676378810206200,14.193206298828125,-100.8060073852539,48.31100082397461,-36.932003021240234
1788676378826339600,14.209339599609375,-101.02400207519531,48.957000732421875,-36.72200012207031
1788676378842470000,14.225469970703125,-99.9320068359375,47.673004150390625,-36.42900085449219
1788676378858643700,14.241643798828125,-99.52400207519531,48.957000732421875,-36.52000045776367
1788676378874836000,14.2578359375,-99.41000366210938,48.20500183105469,-36.62900161743164
1788676378890910500,14.273910400390625,-98.77400207519531,48.742000579833984,-36.52300262451172
1788676378907042800,14.290042724609375,-101.72900390625,48.33500289916992,-35.19900131225586
1788676378923198500,14.306198486328125,-102.302001953125,48.09600067138672,-37.13600158691406
1788676378939374800,14.322374755859375,-100.54600524902344,48.87900161743164,-34.48200225830078
1788676378955574000,14.338573974609375,-100.88300323486328,48.00400161743164,-35.814002990722656
1788676378971650800,14.35465087890625,-99.05900573730469,49.30400085449219,-34.582000732421875
1788676378987788800,14.370788818359374,-100.98800659179688,49.51900100708008,-34.78200149536133
1788676379003921000,14.3869208984375,-101.14800262451172,49.7030029296875,-37.020999908447266
1788676379020085000,14.4030849609375,-100.79300689697266,49.832000732421875,-35.3910026550293
1788676379036284400,14.419284423828126,-101.42900848388672,50.48400115966797,-34.77300262451172
1788676379052369000,14.435368896484375,-99.5530014038086,51.31800079345703,-36.29600143432617
1788676379068503300,14.45150341796875,-100.26200103759766,49.07200241088867,-36.009002685546875
1788676379084643600,14.4676435546875,-98.66900634765625,49.82100296020508,-35.90299987792969
1788676379100840700,14.4838408203125,-99.72100830078125,49.833003997802734,-35.18800354003906
1788676379117051600,14.5000517578125,-98.14000701904297,50.682003021240234,-35.59000015258789
1788676379133143600,14.5161435546875,-99.0820083618164,50.15400314331055,-35.08400344848633
1788676379149294300,14.53229443359375,-99.91500854492188,50.27700424194336,-34.0629997253418
1788676379165402400,14.54840234375,-100.56900787353516,49.40500259399414,-35.191001892089844
1788676379181600800,14.564600830078126,-101.21900177001953,49.61600112915039,-35.49400329589844
1788676379197766000,14.580765869140626,-98.8060073852539,50.884002685546875,-36.60600280761719
1788676379213870800,14.596870849609376,-100.27700805664062,51.117000579833984,-35.380001068115234
1788676379230035000,14.613034912109375,-101.42100524902344,49.40800094604492,-35.0880012512207
1788676379246158300,14.629158447265626,-100.71500396728516,51.11100387573242,-35.888999938964844
1788676379262365200,14.645365234375,-98.14600372314453,50.78600311279297,-35.79300308227539
1788676379278528000,14.661528076171875,-100.90900421142578,50.69000244140625,-35.281002044677734
1788676379294640600,14.677640625,-102.37700653076172,50.70900344848633,-34.055999755859375
1788676379310814200,14.693814208984374,-98.42300415039062,49.94900131225586,-34.374000549316406
1788676379326954500,14.70995458984375,-99.7070083618164,49.51700210571289,-34.78300094604492
1788676379343179000,14.726178955078124,-99.49800109863281,50.16200256347656,-34.57400131225586
1788676379359371000,14.74237109375,-100.27200317382812,50.147003173828125,-35.79600143432617
1788676379375408600,14.75840869140625,-99.90300750732422,49.419002532958984,-34.07100296020508
1788676379391544800,14.774544921875,-99.10400390625,50.78900146484375,-35.69000244140625
1788676379407695000,14.790695068359375,-99.90300750732422,49.419002532958984,-34.07100296020508
1788676379423875600,14.80687548828125,-99.2090072631836,50.7910041809082,-35.5880012512207
1788676379440083500,14.82308349609375,-100.6830062866211,49.29300308227539,-35.599002838134766
1788676379456149800,14.839149658203125,-97.7750015258789,49.62700271606445,-34.2760009765625
1788676379472298200,14.85529833984375,-98.83000183105469,49.31300354003906,-33.87000274658203
1788676379488398300,14.8713984375,-101.42400360107422,51.13500213623047,-34.156002044677734
1788676379504589000,14.887589111328126,-97.90800476074219,49.8280029296875,-35.29199981689453
1788676379520799000,14.903799072265626,-98.77900695800781,52.0890007019043,-34.65999984741211
1788676379536886000,14.919885986328126,-99.5050048828125,50.698001861572266,-34.570003509521484
1788676379553038600,14.93603857421875,-97.56800842285156,49.73200225830078,-34.479000091552734
1788676379569145600,14.9521455078125,-97.8080062866211,50.68800354003906,-35.08100128173828
1788676379585332500,14.96833251953125,-97.16000366210938,50.47600173950195,-34.880001068115234
1788676379601547300,14.98454736328125,-98.03800201416016,50.031002044677734,-36.207000732421875
1788676379617649700,15.000649658203125,-98.44000244140625,49.72200393676758,-35.29300308227539
1788676379633799200,15.016799072265625,-98.3320083618164,49.50600051879883,-35.397003173828125
1788676379649899500,15.0328994140625,-97.81700134277344,49.38600158691406,-36.31500244140625
1788676379666106000,15.049106201171876,-96.84200286865234,49.82500076293945,-35.395999908447266
1788676379682274600,15.065274658203125,-95.68700408935547,49.595001220703125,-36.41800308227539
1788676379698383000,15.081383056640625,-95.22400665283203,48.320003509521484,-35.6150016784668
1788676379714550800,15.09755078125,-95.67100524902344,49.605003356933594,-35.70500183105469
1788676379730676500,15.113676513671875,-97.6500015258789,48.45000076293945,-34.18400192260742
1788676379746895000,15.12989501953125,-97.15200805664062,49.07600402832031,-35.402000427246094
1788676379763080000,15.146079833984375,-96.09800720214844,49.066001892089844,-36.013999938964844
1788676379779198200,15.1621982421875,-95.95500183105469,48.76300048828125,-34.59100341796875
1788676379795375900,15.1783759765625,-97.16900634765625,49.49700164794922,-35.90700149536133
1788676379811510300,15.19451025390625,-97.99600219726562,49.8390007019043,-34.47700119018555
1788676379827685600,15.210685546875,-97.87000274658203,48.230003356933594,-34.59300231933594
1788676379843878000,15.2268779296875,-97.77200317382812,48.22500228881836,-35.00100326538086
1788676379859947800,15.24294775390625,-97.77800750732422,48.329002380371094,-35.204002380371094
1788676379876080000,15.259080078125,-95.21000671386719,48.43600082397461,-34.9010009765625
1788676379892226600,15.2752265625,-98.2080078125,49.84100341796875,-34.375
1788676379908407800,15.29140771484375,-98.39700317382812,47.262001037597656,-34.90700149536133
1788676379924609300,15.307609375,-97.74000549316406,47.92000198364258,-33.781002044677734
1788676379940690700,15.323690673828125,-96.81700134277344,48.54300308227539,-35.10100173950195
1788676379956831000,15.3398310546875,-96.50100708007812,48.97300338745117,-34.996002197265625
1788676379972931000,15.35593115234375,-93.72000122070312,49.62000274658203,-34.38300323486328
1788676379989118200,15.3721181640625,-95.96300506591797,48.86600112915039,-34.895999908447266
1788676380005319700,15.388319580078125,-95.8290023803711,48.99100112915039,-33.57100296020508
1788676380021380600,15.404380615234375,-96.5840072631836,48.55500411987305,-34.185001373291016
1788676380037525800,15.42052587890625,-95.19500732421875,48.33700180053711,-34.290000915527344
1788676380053655800,15.43665576171875,-96.48100280761719,48.66100311279297,-34.28600311279297
1788676380069823700,15.45282373046875,-96.15200805664062,49.53000259399414,-33.362003326416016
1788676380085985000,15.468985107421876,-96.16300201416016,50.172000885009766,-33.45800018310547
1788676380102084600,15.485084716796875,-96.69400787353516,49.634002685546875,-33.66600036621094
1788676380118237700,15.50123779296875,-96.37700653076172,49.19900131225586,-34.077003479003906
1788676380134351000,15.51735107421875,-96.39300537109375,48.75700378417969,-35.10000228881836
1788676380150536700,15.53353662109375,-95.82000732421875,48.88800048828125,-33.2660026550293
1788676380166700300,15.5497001953125,-97.3290023803711,49.531002044677734,-33.46200180053711
1788676380182804200,15.56580419921875,-97.66600799560547,50.60100173950195,-33.55400085449219
1788676380198950400,15.581950439453125,-95.28900146484375,51.047000885009766,-32.025001525878906
1788676380215048700,15.598048583984376,-95.98600769042969,51.01400375366211,-34.57100296020508
1788676380231252500,15.61425244140625,-96.15200805664062,49.53000259399414,-33.362003326416016
1788676380247438000,15.63043798828125,-95.44500732421875,51.6660041809082,-33.85300064086914
1788676380263548200,15.646548095703125,-98.0820083618164,51.14900207519531,-32.73400115966797
1788676380279719700,15.6627197265625,-95.84400177001953,50.927001953125,-33.044002532958984
1788676380295863000,15.678863037109375,-96.03700256347656,49.427001953125,-33.057003021240234
1788676380312039400,15.695039306640625,-95.35000610351562,51.65900421142578,-34.36300277709961
1788676380328228900,15.711228759765625,-95.08200073242188,49.85400390625,-33.05500030517578
1788676380344301600,15.727301513671875,-93.28800201416016,52.8640022277832,-32.1140022277832
1788676380360433000,15.743432861328126,-95.71800231933594,51.695003509521484,-31.713001251220703
1788676380376528100,15.759528076171875,-95.8060073852539,51.1660041809082,-31.209001541137695
1788676380392712000,15.7757119140625,-95.87500762939453,53.178001403808594,-33.02400207519531
1788676380408909600,15.79190966796875,-94.78500366210938,53.08100128173828,-32.11000061035156
1788676380424989200,15.8079892578125,-96.71100616455078,52.86600112915039,-32.415000915527344
1788676380441126400,15.82412646484375,-93.26200103759766,51.691001892089844,-31.716001510620117
1788676380457227000,15.84022705078125,-95.24100494384766,53.173004150390625,-33.33100128173828
1788676380473421800,15.856421875,-95.66500091552734,53.932003021240234,-32.71200180053711
1788676380489633800,15.8726337890625,-96.49700164794922,51.35300064086914,-33.345001220703125
1788676380505720800,15.888720947265625,-96.48400115966797,52.22500228881836,-32.217002868652344
1788676380521869300,15.904869384765625,-96.14700317382812,51.803001403808594,-31.71200180053711
1788676380537975300,15.920975341796876,-95.06300354003906,51.48600387573242,-31.207000732421875
1788676380554181400,15.937181396484375,-96.0320053100586,51.375003814697266,-31.614002227783203
1788676380570345700,15.953345703125,-93.26500701904297,50.717002868652344,-32.4379997253418
1788676380586438400,15.9694384765625,-97.09600830078125,50.94700241088867,-31.718002319335938
1788676380602596900,15.985596923828124,-94.5300064086914,51.053001403808594,-31.51700210571289
1788676380618712300,16.00171240234375,-94.54900360107422,51.582000732421875,-32.020999908447266
1788676380634925600,16.017925537109374,-94.88400268554688,51.68100357055664,-32.63100051879883
1788676380651099400,16.034099365234376,-95.11900329589844,51.56100082397461,-33.6510009765625
1788676380667208400,16.05020849609375,-95.21900177001953,51.24100112915039,-33.552001953125
1788676380683378200,16.066378173828124,-94.46200561523438,51.893001556396484,-32.73200225830078
1788676380699502300,16.08250244140625,-93.91000366210938,50.715003967285156,-32.6410026550293
1788676380715706000,16.0987060546875,-93.08100128173828,50.69900131225586,-33.76300048828125
1788676380731896000,16.11489599609375,-93.17500305175781,51.4630012512207,-32.737003326416016
1788676380748008200,16.13100830078125,-94.59700775146484,51.12000274658203,-34.470001220703125
1788676380764121000,16.14712109375,-93.16400146484375,50.82100296020508,-32.6410026550293
1788676380780258300,16.16325830078125,-92.64100646972656,50.922000885009766,-33.04800033569336
1788676380796424200,16.179424072265626,-94.87500762939453,50.7140007019043,-32.84400177001953
1788676380812617000,16.195616943359376,-92.83900451660156,50.17500305175781,-32.85100173950195
1788676380828691000,16.21169091796875,-96.24800109863281,50.941001892089844,-32.025001525878906
1788676380844822500,16.227822509765623,-92.29500579833984,51.04500198364258,-31.825000762939453
1788676380860962800,16.243962890625,-93.03900146484375,49.85900115966797,-32.44600296020508
1788676380877145000,16.26014501953125,-92.9580078125,50.384002685546875,-33.25600051879883
1788676380893347000,16.27634716796875,-92.62400817871094,50.71600341796875,-32.439002990722656
1788676380909428000,16.292427978515626,-93.17200469970703,50.60000228881836,-33.152000427246094
1788676380925575200,16.3085751953125,-93.83200073242188,50.80600357055664,-33.86300277709961
1788676380941679600,16.3246796875,-95.74900817871094,49.62300109863281,-34.380001068115234
1788676380957871600,16.34087158203125,-94.37600708007812,51.557003021240234,-33.855003356933594
1788676380974085000,16.357085205078125,-92.9280014038086,48.673004150390625,-32.96600341796875
1788676380990177500,16.373177490234376,-93.83600616455078,50.58700180053711,-34.17000198364258
1788676381006327800,16.389327880859376,-92.95700073242188,50.60100173950195,-33.051002502441406
1788676381022434300,16.405434326171875,-94.02400207519531,50.06300354003906,-33.36000061035156
1788676381038627300,16.42162744140625,-93.65400695800781,49.44400405883789,-31.532001495361328
1788676381054794000,16.4377939453125,-95.3060073852539,50.92900085449219,-32.84100341796875
1788676381070891500,16.4538916015625,-92.64700317382812,50.702003479003906,-33.45800018310547
1788676381087055400,16.470055419921874,-93.57500457763672,49.31900405883789,-32.858001708984375
1788676381103179800,16.4861796875,-93.70100402832031,51.57600402832031,-32.3280029296875
1788676381119392800,16.502392822265627,-95.0770034790039,50.83000183105469,-32.23100280761719
1788676381135559400,16.518559326171875,-95.29300689697266,50.829002380371094,-32.33300018310547
1788676381151665700,16.534665771484374,-95.37400817871094,50.952003479003906,-31.10900115966797
1788676381167835600,16.550835693359375,-95.36700439453125,50.95600128173828,-30.803001403808594
1788676381183955700,16.566955810546876,-96.40400695800781,50.220001220703125,-29.89200210571289
1788676381200174300,16.58317431640625,-95.69000244140625,50.95600128173828,-30.905000686645508
1788676381216354000,16.59935400390625,-95.87800598144531,49.458003997802734,-30.714000701904297
1788676381232464100,16.615464111328127,-95.55900573730469,49.88900375366211,-30.507001876831055
1788676381248637200,16.63163720703125,-95.96300506591797,51.30900192260742,-28.559001922607422
1788676381264762600,16.6477626953125,-94.82000732421875,50.63900375366211,-30.399002075195312
1788676381280918000,16.66391796875,-96.19300079345703,51.191001892089844,-29.374000549316406
1788676381297108700,16.680108642578126,-97.14400482177734,50.983001708984375,-29.069002151489258
1788676381313179100,16.69617919921875,-95.42000579833984,50.01700210571289,-28.97800064086914
1788676381329304800,16.712304931640624,-97.04800415039062,51.624000549316406,-29.16600227355957
1788676381345444000,16.728444091796874,-95.4530029296875,51.72600173950195,-29.3700008392334
1788676381361609500,16.744609375,-94.6050033569336,51.505001068115234,-29.781002044677734
1788676381377805300,16.760805419921876,-94.8070068359375,51.512001037597656,-29.2710018157959
1788676381393905700,16.77690576171875,-95.31700134277344,50.98600387573242,-28.562002182006836
1788676381410022000,16.79302197265625,-94.25300598144531,50.7660026550293,-28.871002197265625
1788676381426116900,16.809116943359374,-94.94800567626953,54.19300079345703,-29.1460018157959
1788676381442299600,16.825299560546874,-96.52100372314453,52.592002868652344,-28.852001190185547
1788676381458507000,16.841507080078124,-95.27100372314453,52.57100296020508,-30.280000686645508
1788676381474593500,16.857593505859374,-94.31700134277344,53.862003326416016,-29.76000213623047
1788676381490741500,16.873741455078125,-95.14600372314453,53.01400375366211,-29.156002044677734
1788676381506836500,16.88983642578125,-95.89700317382812,53.121002197265625,-29.256000518798828
1788676381523019800,16.906019775390625,-93.13200378417969,52.78600311279297,-29.97500228881836
1788676381539185200,16.92218505859375,-96.09900665283203,51.94000244140625,-29.470001220703125
1788676381555278600,16.938278564453125,-94.5040054321289,53.12200164794922,-29.054000854492188
1788676381571440600,16.954440673828124,-95.7820053100586,52.36900329589844,-29.364002227783203
1788676381587557000,16.97055712890625,-94.73100280761719,53.762001037597656,-29.25200080871582
1788676381603767300,16.986767333984375,-95.71100616455078,52.13200378417969,-31.09800148010254
1788676381619934700,17.002934814453123,-95.29100799560547,53.9640007019043,-30.268001556396484
1788676381636046800,17.019046875,-94.84000396728516,53.22100067138672,-29.66400146484375
1788676381652213200,17.035213134765623,-94.5320053100586,53.970001220703125,-29.759000778198242
1788676381668339200,17.051339111328126,-93.41000366210938,51.40700149536133,-28.968002319335938
1788676381684507100,17.067507080078126,-94.82300567626953,51.71800231933594,-29.881000518798828
1788676381700690000,17.08368994140625,-93.89500427246094,52.237003326416016,-30.998001098632812
1788676381716751000,17.099751220703126,-94.06700134277344,50.750003814697266,-30.09400177001953
1788676381732877000,17.115876953125,-92.26500701904297,52.36000061035156,-29.674001693725586
1788676381749007600,17.132007568359374,-93.38500213623047,52.33000183105469,-32.0160026550293
1788676381765178400,17.148178466796875,-91.98700714111328,52.7660026550293,-31.301000595092773
1788676381781438500,17.1644384765625,-91.48900604248047,54.689002990722656,-31.692001342773438
1788676381797475300,17.180475341796875,-90.91900634765625,52.76400375366211,-31.302001953125
1788676381813597400,17.196597412109377,-92.9580078125,53.518001556396484,-31.293001174926758
1788676381829735000,17.21273486328125,-92.2300033569336,53.397003173828125,-32.21200180053711
1788676381845907200,17.2289072265625,-92.82100677490234,52.78000259399414,-30.38300132751465
1788676381862101200,17.245101318359374,-90.79700469970703,52.9900016784668,-30.48600196838379
1788676381878197500,17.261197509765626,-91.89600372314453,53.621002197265625,-31.49700164794922
1788676381894337800,17.277337890625,-92.97900390625,52.74800109863281,-32.72600173950195
1788676381910438100,17.293438232421874,-92.41000366210938,52.33700180053711,-31.406002044677734
1788676381926627600,17.309627685546875,-92.73200225830078,52.12000274658203,-31.61100196838379
1788676381942837500,17.32583740234375,-92.85700225830078,52.75800323486328,-32.01300048828125
1788676381958973700,17.3419736328125,-92.94900512695312,52.33500289916992,-31.60900115966797
1788676381975125000,17.358125,-91.45700073242188,52.547000885009766,-31.60900115966797
1788676381991237400,17.3742373046875,-90.51700592041016,53.28900146484375,-32.11300277709961
1788676382007434800,17.390434814453126,-90.94300079345703,52.858001708984375,-32.31999969482422
1788676382023650000,17.406650146484374,-91.5830078125,53.2920036315918,-32.01000213623047
1788676382039783400,17.422783447265626,-92.2020034790039,51.9010009765625,-31.920001983642578
1788676382055940900,17.43894091796875,-93.0780029296875,53.294002532958984,-32.00800323486328
1788676382072057000,17.45505712890625,-93.60900115966797,52.108001708984375,-32.62900161743164
1788676382088256000,17.471256103515625,-94.00700378417969,50.829002380371094,-32.13100051879883
1788676382104419600,17.487419677734376,-91.90400695800781,52.535003662109375,-32.5260009765625
1788676382120560600,17.503560546875,-92.64700317382812,51.35100173950195,-33.04500198364258
1788676382136717300,17.51971728515625,-92.96800231933594,51.78300094604492,-32.83700180053711
1788676382152849700,17.535849609375,-92.64000701904297,52.21900177001953,-32.22200012207031
1788676382169064000,17.55206396484375,-92.29800415039062,50.61100387573242,-32.237003326416016
1788676382185251600,17.56825146484375,-91.16200256347656,52.09800338745117,-33.040000915527344
1788676382201356300,17.584356201171875,-91.0580062866211,51.77300262451172,-33.34800338745117
1788676382217473300,17.600473388671876,-92.3550033569336,51.441001892089844,-34.26700210571289
1788676382233607000,17.61660693359375,-91.69700622558594,53.17900085449219,-32.41800308227539
1788676382249779000,17.632779052734374,-91.91500091552734,52.52800369262695,-33.03499984741211
1788676382265971700,17.6489716796875,-90.81600189208984,51.897003173828125,-32.02300262451172
1788676382282061000,17.66506103515625,-91.99900817871094,51.35400390625,-32.7400016784668
1788676382298195000,17.68119482421875,-92.96600341796875,51.78400421142578,-32.73500061035156
1788676382314325800,17.69732568359375,-91.48200225830078,53.07200241088867,-32.42000198364258
1788676382330491400,17.713491455078124,-92.54700469970703,52.535003662109375,-32.62700271606445
1788676382346697700,17.72969775390625,-92.64800262451172,52.43100357055664,-32.42399978637695
1788676382362806500,17.745806640625,-90.9330062866211,52.64800262451172,-32.01700210571289
1788676382378948600,17.761948486328127,-92.7540054321289,54.37600326538086,-31.184001922607422
1788676382395075800,17.778075927734374,-90.61500549316406,52.64600372314453,-32.11900329589844
1788676382411248400,17.794248291015624,-92.4800033569336,55.53700256347656,-32.49800109863281
1788676382427453000,17.810452880859376,-93.08000183105469,53.61700439453125,-31.90300178527832
1788676382443542000,17.8265419921875,-92.77700805664062,54.68700408935547,-31.996002197265625
1788676382459686700,17.842686767578126,-92.13900756835938,53.27900314331055,-33.02799987792969
1788676382475776300,17.8587763671875,-91.27100372314453,55.55600357055664,-30.972002029418945
1788676382491966500,17.874966552734374,-92.3550033569336,55.439002990722656,-31.786001205444336
1788676382508127500,17.89112744140625,-92.9010009765625,55.000003814697266,-32.605003356933594
1788676382524263400,17.907263427734375,-91.38600158691406,55.33500289916992,-31.483001708984375
1788676382540414000,17.9234140625,-90.30900573730469,55.01400375366211,-31.283000946044922
1788676382556530400,17.939530517578124,-92.21600341796875,54.702003479003906,-30.774002075195312
1788676382572733700,17.955733642578124,-90.73500061035156,54.583003997802734,-31.490001678466797
1788676382588899000,17.971899169921876,-93.6030044555664,52.97600173950195,-31.8070011138916
1788676382605037800,17.988037841796874,-90.34600067138672,55.53200149536133,-32.60300064086914
1788676382621194800,18.00419482421875,-90.56300354003906,55.423004150390625,-32.807003021240234
1788676382637315000,18.020315185546874,-91.21000671386719,55.74400329589844,-32.906002044677734
1788676382653478000,18.036477783203125,-92.69300079345703,55.2130012512207,-32.70500183105469
1788676382669665000,18.0526650390625,-92.46200561523438,53.927001953125,-32.71600341796875
1788676382685813500,18.0688134765625,-91.85000610351562,55.52900314331055,-33.009002685546875
1788676382701931300,18.08493115234375,-92.69100189208984,55.21400451660156,-32.60300064086914
1788676382718060000,18.10106005859375,-91.84100341796875,56.18300247192383,-32.1879997253418
1788676382734228000,18.11722802734375,-91.61500549316406,55.11000442504883,-32.30000305175781
1788676382750433500,18.13343359375,-94.84100341796875,55.750003814697266,-32.9010009765625
1788676382766539800,18.149539794921875,-91.00100708007812,54.768001556396484,-33.730003356933594
1788676382782666200,18.165666259765626,-90.6510009765625,55.5420036315918,-31.89000129699707
1788676382798758700,18.181758544921873,-93.1290054321289,54.66800308227539,-33.422000885009766
1788676382814935600,18.197935546875,-94.18900299072266,55.323001861572266,-32.70199966430664
1788676382831133400,18.214133544921875,-92.91400146484375,54.88500213623047,-33.217002868652344
1788676382847243800,18.230243896484374,-93.06500244140625,56.803001403808594,-34.0150032043457
1788676382863377400,18.24637744140625,-91.00100708007812,54.87600326538086,-33.62700271606445
1788676382879473400,18.262473388671875,-91.99800109863281,56.36900329589844,-34.32500076293945
1788676382895658500,18.278658447265624,-91.23200225830078,55.83900451660156,-33.82200241088867
1788676382911863300,18.29486328125,-91.66300201416016,56.59400177001953,-33.509002685546875
1788676382927924500,18.310924560546876,-90.04000091552734,56.71200180053711,-32.49100112915039
1788676382944072200,18.327072265625,-89.96200561523438,56.478004455566406,-33.919002532958984
1788676382960208000,18.343207763671874,-90.37300109863281,56.16400146484375,-33.41200256347656
1788676382976387000,18.359386962890625,-92.06500244140625,55.31200408935547,-33.2140007019043
1788676382992550400,18.37555029296875,-91.46700286865234,56.36700439453125,-34.428001403808594
1788676383008672500,18.391672607421874,-90.92300415039062,55.18300247192383,-34.74500274658203
1788676383024831700,18.407831787109377,-90.59400177001953,55.728004455566406,-34.027000427246094
1788676383040942800,18.42394287109375,-91.88300323486328,55.4010009765625,-34.538002014160156
1788676383057142500,18.440142578125,-92.31100463867188,55.509002685546875,-34.53600311279297
1788676383073306400,18.456306396484376,-92.29200744628906,54.980003356933594,-34.03200149536133
1788676383089454300,18.472454345703124,-92.12400817871094,56.57400131225586,-35.03600311279297
1788676383105580000,18.488580078125,-91.0250015258789,57.131004333496094,-33.301002502441406
1788676383121713200,18.504713134765623,-93.90800476074219,55.19000244140625,-34.53700256347656
1788676383137880000,18.520880126953124,-91.66700744628906,55.72700119018555,-34.230003356933594
1788676383154064100,18.537064208984376,-90.7020034790039,55.29500198364258,-34.336002349853516
1788676383170172000,18.553171875,-92.29800415039062,56.057003021240234,-33.6150016784668
1788676383186294000,18.5692939453125,-91.8080062866211,56.246002197265625,-35.44700241088867
1788676383202432300,18.585432373046874,-91.69700622558594,55.60000228881836,-35.65700149536133
1788676383218609200,18.601609130859377,-91.46200561523438,56.04500198364258,-34.430999755859375
1788676383234806300,18.61780615234375,-92.31900787353516,55.721004486083984,-34.73800277709961
1788676383250919400,18.63391943359375,-91.9010009765625,54.74200439453125,-35.7660026550293
1788676383267046100,18.650046142578127,-94.01100158691406,55.08500289916992,-34.43600082397461
1788676383283140400,18.666140380859375,-91.36100769042969,55.285003662109375,-35.1510009765625
1788676383299321900,18.68232177734375,-92.22000122070312,55.82400131225586,-35.04300308227539
1788676383315518000,18.69851806640625,-94.03700256347656,54.961002349853516,-35.659000396728516
1788676383331637800,18.7146376953125,-91.70100402832031,54.94900131225586,-36.27400207519531
1788676383347777000,18.730777099609377,-91.68500518798828,55.3910026550293,-35.25100326538086
1788676383363881500,18.746881591796875,-90.39400482177734,55.50300216674805,-34.742000579833984
1788676383380071700,18.76307177734375,-92.97000122070312,55.49900436401367,-35.35000228881836
1788676383396232700,18.779232666015623,-92.75700378417969,56.68700408935547,-34.62700271606445
1788676383412327700,18.79532763671875,-94.656005859375,56.380001068115234,-33.8120002746582
1788676383428478000,18.81147802734375,-93.37000274658203,56.4890022277832,-33.50800323486328
1788676383444591900,18.827591796875,-95.3280029296875,56.79500198364258,-34.92900085449219
1788676383460791000,18.843791015625,-94.66200256347656,55.836002349853516,-34.428001403808594
1788676383476959500,18.85995947265625,-93.37200164794922,57.13600158691406,-33.19600296020508
1788676383493036300,18.876036376953124,-92.00000762939453,56.69200134277344,-34.22100067138672
1788676383509173200,18.89217333984375,-94.21200561523438,56.60600280761719,-32.89400100708008
1788676383525271300,18.908271240234374,-93.1300048828125,55.42400360107422,-33.00800323486328
1788676383541462300,18.924462158203124,-93.88900756835938,55.41800308227539,-33.5160026550293
1788676383557634000,18.940634033203125,-92.54400634765625,57.87600326538086,-33.90400314331055
1788676383573757700,18.9567578125,-93.62300109863281,57.22200393676758,-34.82500076293945
1788676383589917400,18.97291748046875,-93.72000122070312,57.336002349853516,-34.31500244140625
1788676383606042400,18.98904248046875,-92.7760009765625,56.89200210571289,-35.3380012512207
1788676383622208500,19.00520849609375,-93.35100555419922,55.63600158691406,-33.21000289916992
1788676383638395400,19.0213955078125,-92.8790054321289,57.00200271606445,-35.134002685546875
1788676383654502400,19.03750244140625,-92.79900360107422,57.09400177001953,-36.25300216674805
1788676383670633200,19.05363330078125,-92.34200286865234,56.89600372314453,-35.03300094604492
1788676383686777000,19.069777099609375,-94.01000213623047,56.1660041809082,-33.7130012512207
1788676383702959400,19.08595947265625,-91.47000122070312,56.25700378417969,-34.63300323486328
1788676383719154200,19.102154296875,-91.81200408935547,57.8650016784668,-34.61800003051758
1788676383735260400,19.118260498046876,-90.33500671386719,56.663002014160156,-36.15800094604492
1788676383751395600,19.1343955078125,-90.41700744628906,56.89400100708008,-34.93400192260742
1788676383767490000,19.150489990234377,-89.35100555419922,56.67500305175781,-35.1410026550293
1788676383783669500,19.16666943359375,-92.1570053100586,56.66200256347656,-36.46200180053711
1788676383799866600,19.18286669921875,-91.3010025024414,55.90500259399414,-36.87700271606445
1788676383815982800,19.19898291015625,-90.6510009765625,56.23400115966797,-36.263999938964844
1788676383832118300,19.2151181640625,-90.96300506591797,57.10400390625,-35.3390007019043
1788676383848219600,19.2312197265625,-92.5840072631836,56.3380012512207,-36.66800308227539
1788676383864411600,19.24741162109375,-93.19300079345703,56.68300247192383,-35.034000396728516
1788676383880572700,19.26357275390625,-91.27800750732422,55.37800216674805,-36.169002532958984
1788676383896707000,19.27970703125,-91.41200256347656,56.33500289916992,-36.770999908447266
1788676383912857000,19.295857177734376,-90.61300659179688,54.96000289916992,-35.358001708984375
1788676383928968400,19.311968505859376,-91.28300476074219,54.61900329589844,-36.88800048828125
1788676383945167400,19.32816748046875,-91.07000732421875,55.483001708984375,-36.37200164794922
1788676383961329700,19.34432958984375,-92.53800201416016,55.177001953125,-35.354000091552734
1788676383977425000,19.3604248046875,-92.12200164794922,55.49400329589844,-35.65700149536133
1788676383993578200,19.376578125,-89.28400421142578,56.21900177001953,-37.182003021240234
1788676384009695200,19.3926953125,-90.62800598144531,54.73400115966797,-36.17500305175781
1788676384025883400,19.40888330078125,-89.93000793457031,56.75700378417969,-37.07500076293945
1788676384042047200,19.425047119140626,-89.58600616455078,54.71800231933594,-37.297000885009766
1788676384058155800,19.44115576171875,-90.01400756835938,55.150001525878906,-37.0890007019043
1788676384074280000,19.457280029296875,-90.76200103759766,56.0150032043457,-36.57100296020508
1788676384090436400,19.473436279296877,-90.61100769042969,54.31300354003906,-35.669002532958984
1788676384106565000,19.489565185546876,-88.81800079345703,55.26900100708008,-36.07100296020508
1788676384122753800,19.50575390625,-89.77400207519531,54.08500289916992,-36.5890007019043
1788676384138804500,19.521804443359375,-89.36400604248047,55.47900390625,-36.47600173950195
1788676384154912000,19.537912109375,-90.86500549316406,54.61300277709961,-37.29600143432617
1788676384171039200,19.554039306640625,-89.10800170898438,53.6670036315918,-35.677001953125
1788676384187209200,19.570209228515626,-90.5300064086914,54.189002990722656,-36.893001556396484
1788676384203407600,19.58640771484375,-89.76400756835938,53.983001708984375,-36.18300247192383
1788676384219519700,19.602519775390626,-91.2820053100586,54.18700408935547,-37.09600067138672
1788676384235659000,19.618658935546875,-89.33800506591797,54.198001861572266,-36.08000183105469
1788676384251763000,19.634762939453125,-88.91300201416016,54.84400177001953,-35.76900100708008
1788676384267910400,19.650910400390625,-91.66000366210938,53.461002349853516,-35.37000274658203
1788676384284117000,19.667116943359375,-90.62300109863281,52.68400192260742,-37.21200180053711
1788676384300238000,19.683238037109376,-89.55400085449219,52.7910041809082,-37.11000061035156
1788676384316379400,19.69937939453125,-89.84000396728516,51.624000549316406,-36.30500030517578
1788676384332485600,19.715485595703125,-91.156005859375,53.76700210571289,-36.4890022277832
1788676384348663300,19.731663330078124,-90.61100769042969,52.47600173950195,-36.80600357055664
1788676384364876800,19.747876708984375,-90.21300506591797,53.43000411987305,-37.51100158691406
1788676384380970800,19.763970703125,-89.66100311279297,53.11600112915039,-36.90400314331055
1788676384397122000,19.7801220703125,-88.97500610351562,52.27800369262695,-35.384002685546875
1788676384413230600,19.796230712890626,-91.14000701904297,52.15500259399414,-36.80800247192383
1788676384429435400,19.812435302734375,-90.84800720214844,54.191001892089844,-36.79100036621094
1788676384445608400,19.8286083984375,-89.54100799560547,52.79900360107422,-36.499000549316406
1788676384461755000,19.8447548828125,-89.09600067138672,53.458003997802734,-35.270999908447266
1788676384477919500,19.86091943359375,-89.11400604248047,53.12300109863281,-36.29300308227539
1788676384494046200,19.877046142578124,-89.43000793457031,53.018001556396484,-36.19200134277344
1788676384510242300,19.8932421875,-90.17900085449219,53.12600326538086,-36.19000244140625
1788676384526432500,19.9094326171875,-90.0830078125,53.22800064086914,-36.59700012207031
1788676384542591200,19.92559130859375,-89.13500213623047,54.5150032043457,-36.38300323486328
1788676384558713600,19.941713623046876,-88.8810043334961,53.24200439453125,-35.37600326538086
1788676384574849800,19.957849853515626,-91.26300811767578,53.65800094604492,-36.59100341796875
1788676384591028500,19.974028564453125,-89.32400512695312,53.88200378417969,-35.67500305175781
1788676384607216400,19.99021630859375,-90.83200073242188,54.30900192260742,-35.97500228881836
1788676384623328800,20.006328857421874,-91.76600646972656,53.89400100708008,-35.06100082397461
1788676384639458600,20.02245849609375,-89.72000122070312,53.90200424194336,-34.24800109863281
1788676384655579600,20.03857958984375,-89.10700225830078,54.42400360107422,-35.16100311279297
1788676384671739100,20.0547392578125,-90.47600555419922,55.19400405883789,-33.8280029296875
1788676384687937300,20.070937255859373,-91.23600769042969,55.29600143432617,-34.336002349853516
1788676384704036900,20.087036865234374,-90.79500579833984,54.97900390625,-33.932003021240234
1788676384720171800,20.103171875,-92.10400390625,54.6410026550293,-35.35900115966797
1788676384736264000,20.119263916015626,-90.68000793457031,54.336002349853516,-33.9370002746582
1788676384752447000,20.135447021484374,-90.14200592041016,55.202003479003906,-33.217002868652344
1788676384768648700,20.151648681640626,-91.46100616455078,55.6140022277832,-34.63800048828125
1788676384784774100,20.167774169921874,-91.01100158691406,55.302001953125,-33.827003479003906
1788676384800917800,20.183917724609376,-91.66000366210938,55.40700149536133,-34.130001068115234
1788676384817020700,20.200020751953126,-91.22600555419922,54.11300277709961,-34.652000427246094
1788676384833209600,20.216209716796875,-92.28900146484375,55.19900131225586,-33.724002838134766
1788676384849420000,20.232419921875,-93.12400817871094,54.99500274658203,-33.012001037597656
1788676384865554200,20.24855419921875,-91.66100311279297,55.298004150390625,-34.233001708984375
1788676384881708000,20.2647080078125,-91.67100524902344,55.724002838134766,-34.43300247192383
1788676384897818000,20.280818115234375,-92.61900329589844,55.40900421142578,-34.027000427246094
1788676384914019800,20.297019775390623,-91.68800354003906,55.60600280761719,-35.249000549316406
1788676384930185700,20.313185791015623,-91.43900299072266,55.195003509521484,-33.92900085449219
1788676384946321700,20.32932177734375,-89.50700378417969,55.30600357055664,-33.42100143432617
1788676384962482400,20.345482421875,-91.74800109863281,55.5260009765625,-33.2130012512207
1788676384978606000,20.361606201171874,-91.01200103759766,54.54500198364258,-34.34300231933594
1788676384994814500,20.377814453125,-91.85400390625,55.31100082397461,-33.316001892089844
1788676385010998000,20.393998046875,-91.7550048828125,54.54900360107422,-34.13800048828125
1788676385027102700,20.410102783203126,-93.05000305175781,56.05600357055664,-33.81700134277344
1788676385043228200,20.426228271484376,-91.86700439453125,55.08700180053711,-34.031002044677734
1788676385059359000,20.44235888671875,-92.91400146484375,55.42500305175781,-32.906002044677734
1788676385075531800,20.45853173828125,-92.79700469970703,53.48600387573242,-33.637001037597656
1788676385091738000,20.474738037109375,-92.48100280761719,55.320003509521484,-32.704002380371094
1788676385107850500,20.4908505859375,-91.48600769042969,54.69000244140625,-31.590002059936523
1788676385123983000,20.506983154296876,-91.01000213623047,55.195003509521484,-33.8280029296875
1788676385140110600,20.523110595703123,-92.29500579833984,55.195003509521484,-34.03000259399414
1788676385156291800,20.539291748046875,-90.57500457763672,54.01000213623047,-34.246002197265625
1788676385172491500,20.555491455078126,-92.16700744628906,53.802001953125,-33.94000244140625
1788676385188614000,20.57161376953125,-91.41500091552734,54.12800216674805,-33.531002044677734
1788676385204755500,20.58775537109375,-91.94100189208984,54.67500305175781,-32.8120002746582
1788676385220891000,20.603890869140624,-90.11600494384766,53.4890022277832,-33.13100051879883
1788676385237066000,20.62006591796875,-92.4050064086914,54.76100158691406,-34.441001892089844
1788676385253277000,20.63627685546875,-92.38200378417969,54.55900192260742,-33.5260009765625
1788676385269410000,20.65241015625,-90.58900451660156,54.32600402832031,-34.6510009765625
1788676385285549600,20.668549560546875,-91.51100158691406,53.37800216674805,-33.53700256347656
1788676385301656800,20.68465673828125,-92.37300109863281,54.888004302978516,-32.91200256347656
1788676385317854000,20.70085400390625,-93.02400207519531,54.342002868652344,-33.73100280761719
1788676385334020400,20.717020263671873,-93.24200439453125,54.0160026550293,-34.1410026550293
1788676385350119000,20.733118896484374,-92.57200622558594,53.384002685546875,-33.230003356933594
