time,seconds_elapsed,z,y,x
1787956229820887300,0.12588720703125,0.007205843925476074,-0.02478504180908203,0.09990575164556503
1787956229836726000,0.14172607421875,0.13113689422607422,-0.015707015991210938,0.07515929639339447
1787956229852719000,0.157718994140625,0.16286468505859375,0.02238178253173828,0.06267711520195007
1787956229868925400,0.173925537109375,0.15300226211547852,0.05583667755126953,0.08100493997335434
1787956229885116400,0.190116455078125,0.08793318271636963,0.015099525451660156,0.020372197031974792
1787956229900911900,0.205911865234375,0.1409773826599121,0.09915637969970703,-0.08326062560081482
1787956229917026600,0.222026611328125,0.010108590126037598,0.07541561126708984,-0.05656154453754425
1787956229933294800,0.238294921875,-0.13562703132629395,0.0896444320678711,0.03717748820781708
1787956229949041400,0.25404150390625,-0.04346299171447754,0.07258987426757812,0.020545214414596558
1787956229965373200,0.270373291015625,0.07941138744354248,0.03596782684326172,0.17030704021453857
1787956229980906000,0.285906005859375,-0.1718442440032959,0.07089519500732422,0.2191312611103058
1787956229997222700,0.30222265625,-0.2398279905319214,0.02708148956298828,0.09749431163072586
1787956230012933600,0.31793359375,-0.06578612327575684,0.1038351058959961,0.030954092741012573
1787956230029176000,0.334176025390625,0.16507947444915771,0.12128162384033203,-0.05194045603275299
1787956230045374200,0.350374267578125,0.0727076530456543,0.12630939483642578,-0.00945727527141571
1787956230061050400,0.36605029296875,0.022309064865112305,0.1670064926147461,0.08453560620546341
1787956230077449700,0.38244970703125,0.020241260528564453,0.17171382904052734,0.09259951114654541
1787956230093075700,0.39807568359375,-0.014867901802062988,0.15960216522216797,0.04256211221218109
1787956230109288200,0.4142880859375,0.05808985233306885,0.13548660278320312,-0.09445084631443024
1787956230125635000,0.430635009765625,0.10483324527740479,0.09934616088867188,-0.1496611386537552
1787956230141212200,0.446212158203125,0.03482842445373535,0.08701705932617188,-0.11820816993713379
1787956230157388000,0.462387939453125,0.02755272388458252,0.06260108947753906,0.07405570894479752
1787956230173212400,0.47821240234375,-0.08114516735076904,0.025956153869628906,0.049120888113975525
1787956230189410600,0.49441064453125,-0.027826905250549316,0.03735923767089844,0.03764072805643082
1787956230205634600,0.510634521484375,0.024075031280517578,-0.022798538208007812,0.01766468584537506
1787956230221327600,0.52632763671875,0.004222869873046875,-0.05181694030761719,-0.005434885621070862
1787956230237875000,0.542875,-0.024341702461242676,-0.07336044311523438,-0.043899789452552795
1787956230253457200,0.55845703125,-0.06317746639251709,-0.05887317657470703,-0.029950901865959167
1787956230269651200,0.574651123046875,-0.16058659553527832,-0.08728599548339844,-0.05472381412982941
1787956230285983500,0.5909833984375,-0.29128801822662354,-0.043483734130859375,-0.04075871407985687
1787956230301774300,0.6067744140625,-0.18359780311584473,-0.034979820251464844,-0.06504398584365845
1787956230317960200,0.622960205078125,0.19674766063690186,-0.00640869140625,0.01567775011062622
1787956230333903000,0.638903076171875,0.5289472341537476,0.0389862060546875,0.07264495640993118
1787956230349831200,0.6548310546875,0.3088691234588623,0.059040069580078125,0.009578555822372437
1787956230366012000,0.671011962890625,-0.058142781257629395,0.10191726684570312,-0.03527750074863434
1787956230381673000,0.6866728515625,-0.2574427127838135,0.13519668579101562,-0.013428077101707458
1787956230397911800,0.702911865234375,-0.16648757457733154,0.11893272399902344,-0.07953427731990814
1787956230413900300,0.718900390625,-0.0041315555572509766,0.1366720199584961,-0.039848461747169495
1787956230429929500,0.734929443359375,0.10556495189666748,0.09210586547851562,0.09739640355110168
1787956230446263600,0.751263671875,0.08858120441436768,0.16919326782226562,0.04898892343044281
1787956230461987800,0.76698779296875,0.13482439517974854,0.15513896942138672,0.04965849220752716
1787956230478189000,0.78318896484375,0.15449833869934082,0.20774078369140625,-0.04719516634941101
1787956230494356500,0.7993564453125,0.03320574760437012,0.16885089874267578,0.029659375548362732
1787956230510132700,0.8151328125,-0.11032390594482422,0.1392345428466797,-0.0821545422077179
1787956230526345200,0.83134521484375,-0.0743401050567627,0.14595794677734375,-0.06825388967990875
1787956230542061300,0.847061279296875,0.07665729522705078,0.1123647689819336,0.00342734158039093
1787956230558545000,0.863544921875,0.1461188793182373,0.0716094970703125,0.04127149283885956
1787956230574130200,0.879130126953125,0.0765906572341919,0.06159210205078125,0.12158727645874023
1787956230590354700,0.895354736328125,0.0795060396194458,0.056298255920410156,0.07014306634664536
1787956230606661000,0.9116611328125,0.04131460189819336,0.01996898651123047,0.04364216327667236
1787956230622225700,0.9272255859375,-0.020134687423706055,0.029021263122558594,-0.01791280508041382
1787956230638747100,0.9437470703125,-0.07249486446380615,-0.02648639678955078,-0.041550010442733765
1787956230654351000,0.95935107421875,-0.023712635040283203,-0.017034530639648438,-0.056265637278556824
1787956230670560300,0.975560302734375,0.11938655376434326,-0.019295692443847656,-0.04494871199131012
1787956230686823400,0.991823486328125,0.15336430072784424,0.0022144317626953125,-0.04734714329242706
1787956230702558500,1.007558349609375,0.08019030094146729,0.06672477722167969,-0.08992226421833038
1787956230718770700,1.023770751953125,0.06396079063415527,0.049900054931640625,-0.09308013319969177
1787956230734552000,1.039552001953125,0.04463934898376465,0.04513835906982422,-0.05979132652282715
1787956230751049200,1.05604931640625,0.03279078006744385,0.018754005432128906,-0.02043209969997406
1787956230767074800,1.07207470703125,-0.09898841381072998,0.02350902557373047,0.09419234097003937
1787956230782679300,1.08767919921875,-0.04609870910644531,0.06457328796386719,0.11416179686784744
1787956230798971600,1.1039716796875,0.01789689064025879,0.04836845397949219,0.10712210834026337
1787956230814830600,1.11983056640625,0.008341431617736816,0.0751638412475586,0.07049684971570969
1787956230830963500,1.13596337890625,-0.0024194717407226562,0.03952312469482422,-0.019993856549263
1787956230847156500,1.152156494140625,-0.060071468353271484,0.07314586639404297,-0.07625366747379303
1787956230862864600,1.16786474609375,-0.015570640563964844,0.0686025619506836,-0.2021476924419403
1787956230879051800,1.1840517578125,-0.016702890396118164,0.0664529800415039,-0.11889071762561798
1787956230894836200,1.199836181640625,-0.0739363431930542,0.05684185028076172,-0.05142521858215332
1787956230911096600,1.2160966796875,-0.06879985332489014,0.028045654296875,-0.006040006875991821
1787956230927392000,1.23239208984375,-0.08716094493865967,0.039885520935058594,-0.03896905481815338
1787956230943025200,1.248025146484375,-0.16223907470703125,0.049213409423828125,-0.07096534967422485
1787956230959264300,1.26426416015625,-0.08977723121643066,0.061130523681640625,-0.15192599594593048
1787956230975089700,1.280089599609375,0.09754085540771484,0.08066368103027344,-0.19734057784080505
1787956230991415000,1.2964150390625,0.2164144515991211,0.11715316772460938,-0.09735739231109619
1787956231007602200,1.312602294921875,0.07977867126464844,0.10268020629882812,0.1185820996761322
1787956231023081000,1.3280810546875,-0.04533994197845459,0.1429576873779297,0.1422106772661209
1787956231039327200,1.3443271484375,0.1034613847732544,0.11172103881835938,0.1015549823641777
1787956231055165700,1.360165771484375,0.10827064514160156,0.09494686126708984,0.048412591218948364
1787956231071361800,1.37636181640625,-0.00020778179168701172,0.061133384704589844,0.02229161560535431
1787956231087668200,1.392668212890625,-0.13204896450042725,0.000885009765625,0.0875251367688179
1787956231103462100,1.408462158203125,-0.16310977935791016,0.02485942840576172,0.04671119153499603
1787956231119502600,1.424502685546875,-0.02369868755340576,0.07791614532470703,0.022858023643493652
1787956231135295200,1.440295166015625,-0.025421977043151855,0.04715156555175781,-0.0298832505941391
1787956231151665200,1.4566650390625,-0.048058509826660156,0.035437583923339844,-0.12270969152450562
1787956231167785700,1.47278564453125,0.010165214538574219,0.038170814514160156,-0.12062762677669525
1787956231183441000,1.48844091796875,0.023838043212890625,0.08140754699707031,-0.09122341871261597
1787956231199760000,1.504759765625,-0.011056065559387207,0.05725669860839844,-0.03240647912025452
1787956231215417300,1.520417236328125,-0.06024801731109619,0.054648399353027344,0.024091511964797974
1787956231231771000,1.53677099609375,0.025891780853271484,0.08096885681152344,-0.010568305850028992
1787956231248064800,1.553064697265625,-0.0002892017364501953,0.06892967224121094,-0.012644678354263306
1787956231264032300,1.5690322265625,-0.03870832920074463,0.11438179016113281,-0.03929828107357025
1787956231279825400,1.584825439453125,0.06049692630767822,0.11696243286132812,0.0031380057334899902
1787956231295707000,1.600706787109375,0.05496656894683838,0.10026741027832031,0.0306977778673172
1787956231311830500,1.61683056640625,0.06762063503265381,0.12400627136230469,0.09123145043849945
1787956231328128000,1.6331279296875,0.02624988555908203,0.09250259399414062,0.07324278354644775
1787956231343758300,1.64875830078125,-0.05127978324890137,0.12333297729492188,-0.021496236324310303
1787956231360033800,1.66503369140625,0.004770994186401367,0.13749122619628906,-0.02300707995891571
1787956231375984600,1.680984619140625,-0.017274975776672363,0.09639263153076172,-0.061809241771698
1787956231392010500,1.697010498046875,-0.026143193244934082,0.07900428771972656,-0.07040654122829437
1787956231408316700,1.713316650390625,-0.07501161098480225,0.020772933959960938,-0.039270803332328796
1787956231423939300,1.728939208984375,-0.07824122905731201,0.02476978302001953,-0.02739405632019043
1787956231440182000,1.74518212890625,-0.05506134033203125,0.009608268737792969,-0.09403905272483826
1787956231456018000,1.761017822265625,-0.1082228422164917,0.023131370544433594,-0.043308988213539124
1787956231472229400,1.7772294921875,-0.14665687084197998,0.05096626281738281,-0.013799965381622314
1787956231488428800,1.7934287109375,0.032352328300476074,0.06735038757324219,-0.043455541133880615
1787956231504024300,1.8090244140625,0.19954168796539307,0.07935047149658203,-0.09181173145771027
1787956231520449000,1.825448974609375,0.05302321910858154,0.06935501098632812,0.008237823843955994
1787956231536113700,1.84111376953125,-0.1455552577972412,0.04684162139892578,0.0041315555572509766
1787956231552321500,1.857321533203125,-0.054073214530944824,0.058193206787109375,0.053617462515830994
1787956231568631800,1.8736318359375,-0.019414901733398438,0.014795303344726562,0.09308379888534546
1787956231584194300,1.8891943359375,-0.025470495223999023,-0.05972766876220703,0.22274361550807953
1787956231600467200,1.90546728515625,-0.1612340211868286,-0.03882408142089844,0.30919936299324036
1787956231616310000,1.92131005859375,-0.3711678981781006,0.00039196014404296875,0.21372559666633606
1787956231632539600,1.93753955078125,-0.4371291399002075,0.09466552734375,0.16773280501365662
1787956231648761300,1.95376123046875,-0.3668707609176636,0.14787864685058594,0.002696983516216278
1787956231664395000,1.96939501953125,-0.3082331418991089,0.22020816802978516,-0.03414148837327957
1787956231680738300,1.98573828125,-0.1620323657989502,0.21851348876953125,-0.08211129903793335
1787956231696695000,2.001695068359375,-0.14569509029388428,0.2604503631591797,-0.12279635667800903
1787956231712746800,2.017746826171875,-0.1793919801712036,0.26166725158691406,-0.2158842384815216
1787956231728968400,2.033968505859375,-0.22352969646453857,0.2937660217285156,-0.224001944065094
1787956231744632600,2.049632568359375,-0.18557190895080566,0.2299957275390625,-0.20963160693645477
1787956231760895500,2.0658955078125,-0.20838463306427002,0.2090911865234375,-0.1681879758834839
1787956231776604400,2.0816044921875,-0.23453187942504883,0.14487266540527344,-0.16665974259376526
1787956231792781600,2.097781494140625,-0.2900238037109375,0.08277702331542969,-0.138689786195755
1787956231808994000,2.113994140625,-0.29543209075927734,0.08978652954101562,-0.15072524547576904
1787956231825155300,2.1301552734375,-0.30416977405548096,0.1085519790649414,-0.08234789222478867
1787956231841015800,2.146015869140625,-0.3279074430465698,0.06262493133544922,-0.13275980949401855
1787956231857150000,2.16214990234375,-0.29185736179351807,-0.0019197463989257812,-0.18881139159202576
1787956231872976100,2.17797607421875,-0.2390446662902832,0.015802383422851562,-0.21246479451656342
1787956231889273000,2.194273193359375,-0.21134579181671143,0.0078105926513671875,-0.16209158301353455
1787956231904965400,2.20996533203125,-0.2052856683731079,0.03171730041503906,-0.20609337091445923
1787956231921105200,2.226105224609375,-0.1564316749572754,0.03448200225830078,-0.11089666187763214
1787956231937058300,2.242058349609375,-0.2072145938873291,0.04696369171142578,-0.054494380950927734
1787956231953263400,2.258263427734375,-0.2885456085205078,0.06649208068847656,0.0914979875087738
1787956231969361200,2.274361083984375,-0.4448673129081726,0.08778190612792969,0.2714230418205261
1787956231985128400,2.29012841796875,-0.5131801962852478,0.1461191177368164,0.23564285039901733
1787956232001296600,2.306296630859375,-0.29864585399627686,0.16886615753173828,0.09147358685731888
1787956232017104100,2.322104248046875,-0.036551833152770996,0.30519580841064453,0.10170315206050873
1787956232033318100,2.338318115234375,0.17631661891937256,0.18374347686767578,0.16958938539028168
1787956232049646600,2.354646484375,0.10722887516021729,0.0810232162475586,0.1740676909685135
1787956232065331000,2.3703310546875,0.020787954330444336,-0.029473304748535156,0.06513063609600067
1787956232081727500,2.3867275390625,-0.19140231609344482,-0.028333663940429688,0.23420551419258118
1787956232097456600,2.40245654296875,-0.7173740863800049,0.038143157958984375,0.47052067518234253
1787956232113563000,2.41856298828125,-1.0672597885131836,0.05938529968261719,0.6129574775695801
1787956232129808600,2.43480859375,-0.9548380374908447,0.13793087005615234,0.5783762335777283
1787956232145461500,2.45046142578125,-0.45045900344848633,0.06234169006347656,0.48602497577667236
1787956232161805600,2.4668056640625,-0.015991926193237305,0.04320716857910156,0.3065769076347351
1787956232177534200,2.4825341796875,0.12238621711730957,0.0850973129272461,0.2309267818927765
1787956232193971500,2.498971435546875,0.03698873519897461,0.11521053314208984,0.3126622140407562
1787956232210069200,2.5150693359375,-0.3149299621582031,0.06859874725341797,0.4298965632915497
1787956232225646800,2.530646728515625,-0.5782182812690735,0.007442474365234375,0.4847666621208191
1787956232241937200,2.546937255859375,-0.5522941946983337,-0.055945396423339844,0.44489380717277527
1787956232257726200,2.562726318359375,-0.33761900663375854,-0.08277225494384766,0.24256619811058044
1787956232273991700,2.57899169921875,-0.16343724727630615,-0.10906600952148438,0.1336088627576828
1787956232290195700,2.59519580078125,-0.17736655473709106,-0.13760662078857422,0.12622064352035522
1787956232305920300,2.610920166015625,-0.33722227811813354,-0.12790393829345703,0.12124517560005188
1787956232322179300,2.627179443359375,-0.5159898996353149,-0.08501148223876953,0.15689869225025177
1787956232338269400,2.64326953125,-0.632682204246521,0.06316184997558594,0.04471854865550995
1787956232354044000,2.6590439453125,-0.3954390287399292,0.30762195587158203,-0.03198446333408356
1787956232370342100,2.675342041015625,0.15009045600891113,0.43114185333251953,-0.06499503552913666
1787956232385973000,2.690972900390625,0.8485791683197021,0.5455770492553711,0.04138341546058655
1787956232402273500,2.7072734375,1.201830267906189,0.5333824157714844,0.22788535058498383
1787956232418055400,2.723055419921875,1.2783756256103516,0.4946002960205078,0.2589458227157593
1787956232434256000,2.739255859375,0.9695308208465576,0.43548583984375,0.18428748846054077
1787956232450494000,2.755493896484375,0.6386682987213135,0.3917694091796875,0.2353576123714447
1787956232466187300,2.771187255859375,0.6153099536895752,0.3140716552734375,0.479164183139801
1787956232482460000,2.7874599609375,0.7284845113754272,0.14502525329589844,0.6836148500442505
1787956232498271000,2.80327099609375,0.8150621652603149,0.06355953216552734,0.5860761404037476
1787956232514484000,2.81948388671875,0.9319660663604736,0.028837203979492188,0.2942354679107666
1787956232530806300,2.83580615234375,0.7913517951965332,-0.07410812377929688,-0.11675693094730377
1787956232546389800,2.8513896484375,0.23560523986816406,-0.14005279541015625,-0.4424706697463989
1787956232562685700,2.867685791015625,-0.41702115535736084,-0.03654193878173828,-0.6336532831192017
1787956232578534100,2.8835341796875,-0.8777746558189392,0.1844482421875,-0.8819506168365479
1787956232595056400,2.900056396484375,-0.8183535933494568,0.5815420150756836,-0.9628133773803711
1787956232611068400,2.916068359375,-0.40661126375198364,0.7905921936035156,-0.9136819243431091
1787956232626787800,2.931787841796875,0.35358428955078125,0.8864221572875977,-0.6969655156135559
1787956232643217200,2.948217041015625,1.2547158002853394,0.8637561798095703,-0.15625585615634918
1787956232659095000,2.964094970703125,1.6388232707977295,0.664276123046875,0.3087877035140991
1787956232675059000,2.980058837890625,1.5576989650726318,0.26119041442871094,0.5059424638748169
1787956232691417600,2.99641748046875,1.3968586921691895,-0.13716506958007812,0.12897226214408875
1787956232707009800,3.012009765625,0.9277298450469971,-0.42565059661865234,-0.25692689418792725
1787956232723275500,3.028275634765625,0.1744682788848877,-0.6970481872558594,-0.4404125511646271
1787956232739254300,3.044254150390625,-0.3723708689212799,-0.7407598495483398,-0.7106791138648987
1787956232755346200,3.06034619140625,-0.6221121549606323,-0.6594886779785156,-0.7707792520523071
1787956232771660300,3.076660400390625,-0.4771769046783447,-0.39707279205322266,-0.7084985375404358
1787956232787298800,3.092298828125,-0.09151434898376465,-0.44776248931884766,-0.7543798685073853
1787956232803761400,3.108761474609375,0.3868568539619446,-0.3804607391357422,-0.8907848000526428
1787956232819650600,3.124650634765625,0.8267332911491394,-0.40340709686279297,-0.7327864766120911
1787956232835801600,3.140801513671875,1.1255486011505127,-0.43215179443359375,-0.572341799736023
1787956232851859500,3.156859375,1.1247071027755737,-0.5313377380371094,-0.3357897102832794
1787956232867386000,3.17238623046875,0.7317432165145874,-0.6858377456665039,-0.22198271751403809
1787956232883604700,3.188604736328125,0.351523756980896,-0.8287105560302734,-0.14438626170158386
1787956232899897900,3.20489794921875,0.027279257774353027,-0.8666782379150391,-0.17679989337921143
1787956232915856100,3.220856201171875,-0.19147193431854248,-0.897913932800293,-0.12299934029579163
1787956232931899400,3.2368994140625,-0.4570402503013611,-0.905548095703125,-0.1176028847694397
1787956232947998700,3.252998779296875,-0.5075245499610901,-0.8292627334594727,-0.05064751207828522
1787956232963850800,3.268850830078125,-0.4753183126449585,-0.719202995300293,-0.022962361574172974
1787956232979669000,3.2846689453125,-0.4406413435935974,-0.5730981826782227,-0.14052607119083405
1787956232995904300,3.300904296875,-0.38581550121307373,-0.3791055679321289,-0.22131036221981049
1787956233012218600,3.317218505859375,-0.056572914123535156,-0.1349172592163086,-0.34459176659584045
1787956233027823900,3.332823974609375,0.20352041721343994,-0.00360107421875,-0.3344470262527466
1787956233044049200,3.349049072265625,0.1462000608444214,0.014326095581054688,-0.2324277013540268
1787956233059902000,3.36490185546875,0.17025578022003174,0.024338722229003906,-0.20052680373191833
1787956233076351000,3.38135107421875,0.2770732641220093,0.11040878295898438,-0.14312295615673065
1787956233092388600,3.397388671875,0.4207277297973633,0.1313457489013672,-0.24842561781406403
1787956233108054500,3.413054443359375,0.2672048807144165,0.21831512451171875,-0.33093759417533875
1787956233124335900,3.4293359375,-0.02243649959564209,0.3827543258666992,-0.21599338948726654
1787956233140275500,3.445275390625,-0.4342583417892456,0.7032680511474609,-0.05417846143245697
1787956233156640300,3.46164013671875,-0.4781455993652344,0.879908561706543,-0.2255886197090149
1787956233172615200,3.477615234375,-0.160971999168396,1.0577926635742188,-0.41060322523117065
1787956233188184800,3.493184814453125,0.46803462505340576,1.170628547668457,-0.3946199417114258
1787956233204469500,3.509469482421875,1.0572322607040405,1.159505844116211,-0.5681026577949524
1787956233220368600,3.52536865234375,0.8713628053665161,1.2190122604370117,-0.7221695184707642
1787956233236485600,3.541485595703125,0.18499064445495605,1.383768081665039,-0.5431773066520691
1787956233252662300,3.557662353515625,-0.41712236404418945,1.541280746459961,0.01321268081665039
1787956233268509200,3.57350927734375,-0.2050621509552002,1.5966949462890625,0.8127020001411438
1787956233284692200,3.589692138671875,0.8317985534667969,1.5701980590820312,1.1015483140945435
1787956233300497400,3.605497314453125,2.1668787002563477,1.4473676681518555,0.873877227306366
1787956233316605000,3.62160498046875,3.2103469371795654,0.9780483245849609,0.30674391984939575
1787956233332968000,3.637968017578125,3.0109639167785645,0.3674602508544922,-0.11656754463911057
1787956233348662800,3.653662841796875,1.8185356855392456,-0.18696022033691406,-0.3861149847507477
1787956233365083100,3.670083251953125,0.558864951133728,-0.38019561767578125,-0.49246275424957275
1787956233380639000,3.685638916015625,-0.27061641216278076,-0.3405618667602539,-0.044960543513298035
1787956233396847600,3.70184765625,-0.4956843852996826,-0.2842702865600586,0.7702765464782715
1787956233413241000,3.718240966796875,-0.22736704349517822,-0.28752613067626953,1.509106993675232
1787956233428971800,3.7339716796875,0.28663909435272217,-0.3173198699951172,1.882023572921753
1787956233445072000,3.75007177734375,0.6430100202560425,-0.44391632080078125,1.9075833559036255
1787956233461030000,3.76602978515625,0.8169538974761963,-0.5912694931030273,1.6437103748321533
1787956233477147600,3.782147705078125,0.7324700355529785,-0.8121232986450195,1.1944959163665771
1787956233493447000,3.798447021484375,0.7009378671646118,-1.0776643753051758,0.588046669960022
1787956233509102600,3.8141025390625,0.846683144569397,-1.2584218978881836,0.04375452548265457
1787956233525211400,3.83021142578125,0.8245755434036255,-1.3529682159423828,-0.2200567126274109
1787956233541111600,3.846111572265625,0.5357732772827148,-1.4844608306884766,-0.30714160203933716
1787956233557314000,3.86231396484375,-0.05718564987182617,-1.5721664428710938,-0.286633163690567
1787956233573672400,3.87867236328125,-0.4869045615196228,-1.4429130554199219,-0.22621607780456543
1787956233589254700,3.894254638671875,-0.7099848389625549,-1.2634429931640625,-0.08197525143623352
1787956233605684000,3.91068408203125,-0.889809250831604,-1.083674430847168,0.35413023829460144
1787956233621577000,3.926576904296875,-0.8841332793235779,-0.8624105453491211,0.5433740615844727
1787956233637671700,3.942671630859375,-0.7952772378921509,-0.6207866668701172,0.535731315612793
1787956233653937200,3.958937255859375,-0.5568495392799377,-0.4257087707519531,0.5513872504234314
1787956233669598500,3.974598388671875,-0.05806374549865723,-0.22295856475830078,0.5734428763389587
1787956233685834500,3.99083447265625,0.3273768424987793,-0.09987354278564453,0.4031355381011963
1787956233701581600,4.00658154296875,0.5606338977813721,-0.06830501556396484,0.15478944778442383
1787956233718107100,4.023107177734375,0.581637978553772,-0.12584686279296875,-0.085381418466568
1787956233733989000,4.038989013671875,0.5037195682525635,-0.10262870788574219,-0.0893506109714508
1787956233750102500,4.0551025390625,0.200752854347229,-0.0016841888427734375,0.12030702829360962
1787956233765983000,4.07098291015625,-0.2173328399658203,0.2673521041870117,0.3315050005912781
1787956233781797600,4.086797607421875,-0.48363828659057617,0.6595706939697266,0.34481415152549744
1787956233798022000,4.10302197265625,-0.33156681060791016,1.0079116821289062,0.47966086864471436
1787956233814249000,4.1192490234375,-0.08657360076904297,1.301701545715332,0.4187248945236206
1787956233829844000,4.134843994140625,0.40806257724761963,1.4606389999389648,0.3126186728477478
1787956233846286800,4.151286865234375,1.128786563873291,1.3861198425292969,-0.08229425549507141
1787956233861909800,4.16690966796875,0.981097936630249,1.3369073867797852,-0.5078386068344116
1787956233878221600,4.1832216796875,0.46265602111816406,1.6249418258666992,-0.8520790338516235
1787956233894436600,4.1994365234375,-0.22390151023864746,1.9360666275024414,-1.0946061611175537
1787956233909985800,4.21498583984375,0.18378829956054688,2.099013328552246,-1.2263038158416748
1787956233926271700,4.231271728515625,1.437004804611206,1.8200597763061523,-1.6135517358779907
1787956233942090500,4.247090576171875,2.4737284183502197,1.3929309844970703,-1.2381882667541504
1787956233958382300,4.26338232421875,2.651771306991577,0.7149896621704102,-0.9816728830337524
1787956233974674400,4.27967431640625,1.9763083457946777,0.0008258819580078125,-0.6861430406570435
1787956233990535200,4.29553515625,1.0014463663101196,-0.3367271423339844,-0.5410966277122498
1787956234006630700,4.311630615234375,0.2051384449005127,-0.3646221160888672,-0.5187276601791382
1787956234022445300,4.3274453125,-0.06614100933074951,-0.35626888275146484,-0.5721864700317383
1787956234038812400,4.3438125,-0.07349300384521484,-0.2977294921875,-0.7210647463798523
1787956234054980600,4.359980712890625,0.27775251865386963,-0.2948598861694336,-1.0416010618209839
1787956234070537000,4.375536865234375,0.6881448030471802,-0.4105653762817383,-1.262401819229126
1787956234086809900,4.391809814453125,1.025485634803772,-0.5277872085571289,-1.3128876686096191
1787956234102586600,4.407586669921875,1.2638804912567139,-0.7346229553222656,-1.1976721286773682
1787956234118759200,4.42375927734375,1.1713957786560059,-0.9137191772460938,-0.8544781804084778
1787956234135101400,4.440101318359375,0.9569388628005981,-1.1462268829345703,-0.4253656268119812
1787956234150713600,4.455713623046875,0.7616875171661377,-1.3191633224487305,-0.014504924416542053
1787956234167032300,4.4720322265625,0.44106972217559814,-1.4222965240478516,0.33224910497665405
1787956234182759400,4.487759521484375,0.014644503593444824,-1.4170970916748047,0.41978490352630615
1787956234198970400,4.503970458984375,-0.44323158264160156,-1.4062108993530273,0.42251959443092346
1787956234215195600,4.520195556640625,-0.7407233119010925,-1.3904438018798828,0.5040062069892883
1787956234231340000,4.536340087890625,-0.9077216982841492,-1.3092994689941406,0.2824436128139496
1787956234247157200,4.5521572265625,-0.8248401880264282,-1.1982011795043945,0.035607606172561646
1787956234262950700,4.56795068359375,-0.6450632810592651,-0.9733858108520508,-0.2566371262073517
1787956234279312400,4.5843125,-0.3897976875305176,-0.7119159698486328,-0.4775700569152832
1787956234295464200,4.600464111328125,0.05797219276428223,-0.4961252212524414,-0.6090054512023926
1787956234311093000,4.616093017578125,0.32995665073394775,-0.3054628372192383,-0.5956198573112488
1787956234327317000,4.63231689453125,0.386063814163208,-0.21227073669433594,-0.6312087774276733
1787956234343248400,4.648248291015625,0.24521338939666748,-0.12310123443603516,-0.6363434791564941
1787956234359413500,4.66441357421875,0.051836609840393066,-0.05196380615234375,-0.654435396194458
1787956234375744000,4.680743896484375,-0.06070220470428467,0.10228252410888672,-0.5904730558395386
1787956234391261700,4.69626171875,-0.2730594873428345,0.24793338775634766,-0.36073094606399536
1787956234407554000,4.712553955078125,-0.5938436985015869,0.5565395355224609,-0.3524484634399414
1787956234423377400,4.72837744140625,-0.8076232075691223,0.9853887557983398,-0.5029582977294922
1787956234439647500,4.7446474609375,-0.6415572166442871,1.1876678466796875,-0.6438431739807129
1787956234455950600,4.76095068359375,-0.2089329957962036,1.3999195098876953,-0.5091643333435059
1787956234471504000,4.77650390625,0.5063891410827637,1.4764385223388672,-0.39088088274002075
1787956234488099600,4.793099609375,0.836592435836792,1.7072219848632812,-0.45090940594673157
1787956234503628500,4.808628662109375,0.6427614688873291,1.8837785720825195,-0.21821826696395874
1787956234519778300,4.8247783203125,0.22332358360290527,2.03798770904541,0.11513401567935944
1787956234536236500,4.841236572265625,0.29498016834259033,2.022541046142578,1.153490424156189
1787956234551755300,4.85675537109375,1.275260329246521,1.8367176055908203,1.55350923538208
1787956234568075500,4.873075439453125,2.337108612060547,1.4325246810913086,1.4639167785644531
1787956234583957000,4.88895703125,3.016411304473877,0.6780061721801758,1.0055291652679443
1787956234600106000,4.90510595703125,2.752810001373291,-0.15227413177490234,0.23988108336925507
1787956234616521000,4.92152099609375,1.6734675168991089,-0.7654876708984375,-0.4535778760910034
1787956234632175000,4.937175048828125,0.3828761577606201,-0.8499507904052734,-0.585111677646637
1787956234648455400,4.953455322265625,-0.4096115827560425,-0.7930517196655273,-0.04107537865638733
1787956234664137000,4.969136962890625,-0.6220357418060303,-0.6815052032470703,1.041349172592163
1787956234680344000,4.985343994140625,-0.39363276958465576,-0.6898317337036133,1.676295518875122
1787956234696746000,5.00174609375,-0.34361445903778076,-0.7443714141845703,1.9630613327026367
1787956234712369000,5.017368896484375,-0.3758126497268677,-0.8948144912719727,1.882613182067871
1787956234728606000,5.03360595703125,-0.05852782726287842,-0.9607725143432617,1.2970529794692993
1787956234744409300,5.049409423828125,0.5360081195831299,-1.0426645278930664,0.695913553237915
1787956234760658400,5.065658447265625,1.1393272876739502,-1.2159271240234375,0.28353551030158997
1787956234776987600,5.081987548828125,1.2826459407806396,-1.3947696685791016,0.08963395655155182
1787956234793032700,5.09803271484375,1.006038784980774,-1.5091609954833984,-0.22894716262817383
1787956234808840700,5.1138408203125,0.3646354675292969,-1.4851970672607422,-0.3493741452693939
1787956234824651000,5.129651123046875,-0.29412782192230225,-1.3960189819335938,-0.35388460755348206
1787956234840830200,5.145830322265625,-0.9188113212585449,-1.3838376998901367,-0.19420713186264038
1787956234857183200,5.162183349609375,-1.233838677406311,-1.298868179321289,-0.04539993405342102
1787956234872777200,5.177777099609375,-1.1461948156356812,-1.1453189849853516,0.31579655408859253
1787956234889097000,5.194096923828125,-1.0477628707885742,-0.8690595626831055,0.6991671323776245
1787956234904876300,5.209876220703125,-1.017695426940918,-0.5756025314331055,0.9452087879180908
1787956234921108500,5.2261083984375,-0.8456745147705078,-0.3082427978515625,0.9718742370605469
1787956234937417200,5.242417236328125,-0.5770208835601807,-0.09222698211669922,0.8827092051506042
1787956234953025000,5.25802490234375,-0.20416533946990967,0.06784629821777344,0.5130091905593872
1787956234969277200,5.274277099609375,-0.0646963119506836,0.21423816680908203,0.3440319299697876
1787956234993176000,5.298176025390625,-0.04113483428955078,0.45969581604003906,0.31044483184814453
1787956235009469200,5.31446923828125,-0.17579400539398193,0.6932392120361328,0.605614960193634
1787956235025278200,5.3302783203125,-0.4404947757720947,0.8275537490844727,0.6742521524429321
1787956235041468700,5.34646875,-0.6508082151412964,1.1609563827514648,0.4976183772087097
1787956235057777700,5.362777587890625,-0.42474234104156494,1.4330062866210938,0.4535181224346161
1787956235073410600,5.37841064453125,0.23037314414978027,1.800954818725586,0.6261857748031616
1787956235089627100,5.394627197265625,1.1258660554885864,1.8326911926269531,0.7290786504745483
1787956235105503000,5.4105029296875,1.4773246049880981,1.8407526016235352,0.5070999264717102
1787956235121672400,5.42667236328125,1.3946285247802734,1.9514122009277344,0.2531723380088806
1787956235137986000,5.442986083984375,0.507880449295044,2.2479991912841797,-0.10121041536331177
1787956235153795800,5.4587958984375,0.2734302282333374,2.335662841796875,-0.6303753852844238
1787956235169812200,5.474812255859375,1.3609225749969482,2.177631378173828,-1.4036593437194824
1787956235185732400,5.490732421875,2.934481620788574,1.8804235458374023,-1.6202248334884644
1787956235202205400,5.507205322265625,3.519197463989258,1.1638002395629883,-1.3777135610580444
1787956235218206000,5.5232060546875,2.838641405105591,0.6123466491699219,-1.3203246593475342
1787956235234097400,5.539097412109375,1.6747515201568604,0.4363222122192383,-1.3198223114013672
1787956235250359000,5.555359130859375,0.9038163423538208,0.2671680450439453,-1.3108879327774048
1787956235265943800,5.57094384765625,0.8003832101821899,0.017364501953125,-1.530869722366333
1787956235282222800,5.587222900390625,1.0414986610412598,-0.1798553466796875,-1.5464211702346802
1787956235298521300,5.603521240234375,1.1340301036834717,-0.395050048828125,-1.3710384368896484
1787956235314313200,5.619313232421875,1.053970456123352,-0.6382684707641602,-1.1560373306274414
1787956235330410500,5.635410400390625,0.8685622215270996,-0.9428024291992188,-0.9096477031707764
1787956235346179800,5.651179931640625,0.7226262092590332,-1.2688884735107422,-0.6083792448043823
1787956235362447600,5.667447509765625,0.600132942199707,-1.4369239807128906,-0.26892292499542236
1787956235378771500,5.683771484375,0.3948557376861572,-1.6597113609313965,0.23829182982444763
1787956235394431200,5.69943115234375,0.1641836166381836,-1.8195033073425293,0.533816933631897
1787956235410898700,5.715898681640625,-0.3404500484466553,-1.9511232376098633,0.795352578163147
1787956235426499600,5.73149951171875,-0.9231957197189331,-2.022155284881592,0.8072749972343445
1787956235442681000,5.74768115234375,-1.2390875816345215,-2.062370777130127,0.8021206855773926
1787956235459027200,5.764027099609375,-1.3370962142944336,-2.064474105834961,0.7469218969345093
1787956235474709000,5.779708984375,-1.3304588794708252,-1.9116411209106445,0.7172821760177612
1787956235490937900,5.795937744140625,-1.3458707332611084,-1.783498764038086,0.6998855471611023
1787956235506807300,5.811807373046875,-1.372058391571045,-1.627612590789795,0.754321813583374
1787956235522898200,5.827898193359375,-1.284206748008728,-1.3695707321166992,0.5660355091094971
1787956235539250200,5.844250244140625,-0.9961028099060059,-1.1553926467895508,0.2763659656047821
1787956235554917000,5.859917236328125,-0.8565164804458618,-0.8211898803710938,-0.02587050199508667
1787956235571126500,5.87612646484375,-0.6946781873703003,-0.5372505187988281,-0.1716977059841156
1787956235586921200,5.891921142578125,-0.1701951026916504,-0.15591716766357422,-0.04900646209716797
1787956235603161000,5.9081611328125,0.5145649909973145,0.38812255859375,-0.4524790644645691
1787956235619467500,5.924467529296875,1.059053659439087,1.1436491012573242,-0.6853501796722412
1787956235635177200,5.94017724609375,1.2194042205810547,1.7033872604370117,-0.8528181314468384
1787956235651297500,5.956297607421875,1.0472946166992188,2.0561704635620117,-0.7942929267883301
1787956235667123500,5.97212353515625,0.6734817028045654,2.2320451736450195,-0.7368285655975342
1787956235683380000,5.9883798828125,0.7002520561218262,2.198831558227539,-0.8623476624488831
1787956235699713300,6.00471337890625,1.1042218208312988,2.1916418075561523,-0.9564399719238281
1787956235715759600,6.020759521484375,1.882854700088501,1.7954902648925781,-1.2023088932037354
1787956235731696400,6.0366962890625,1.1505095958709717,1.6020135879516602,-0.9638156294822693
1787956235747295700,6.052295654296875,-0.8772456645965576,1.7421846389770508,-0.05059519410133362
1787956235763499000,6.0684990234375,-2.0007405281066895,2.2032127380371094,1.3240362405776978
1787956235779851300,6.084851318359375,-0.9145928621292114,2.157379150390625,2.613084316253662
1787956235795504400,6.10050439453125,1.54205322265625,1.3234977722167969,2.2594635486602783
1787956235811981600,6.116981689453125,3.715320110321045,0.4481973648071289,1.4390748739242554
1787956235827816200,6.132816162109375,4.177080154418945,-0.28128719329833984,0.41654932498931885
1787956235843754200,6.148754150390625,2.447429656982422,-0.4776115417480469,-0.16126951575279236
1787956235860091600,6.165091552734375,0.21909260749816895,-0.41595458984375,0.24826675653457642
1787956235875933200,6.18093310546875,-0.9718708992004395,-0.24904918670654297,0.6771107912063599
1787956235892001000,6.1970009765625,-0.7113447189331055,-0.23540973663330078,0.8266757726669312
1787956235907827200,6.2128271484375,-0.13395094871520996,-0.3552093505859375,0.7439671754837036
1787956235924185600,6.229185546875,0.49411487579345703,-0.3766307830810547,0.8401044607162476
1787956235940410000,6.24541015625,0.9987642765045166,-0.647984504699707,0.9885335564613342
1787956235956040000,6.2610400390625,1.1516010761260986,-1.0627250671386719,1.0971693992614746
1787956235972537900,6.277537841796875,1.0424373149871826,-1.4027137756347656,1.1240622997283936
1787956235988498700,6.293498779296875,0.33837413787841797,-1.6412510871887207,0.8184320330619812
1787956236004366600,6.30936669921875,-0.40309858322143555,-1.6914358139038086,0.5409022569656372
1787956236020679200,6.32567919921875,-0.75541090965271,-1.8621892929077148,0.014645189046859741
1787956236036291800,6.341291748046875,-0.7933716773986816,-1.7495150566101074,-0.3410743474960327
1787956236052561400,6.3575615234375,-0.6993280649185181,-1.623171329498291,-0.5203287601470947
1787956236068295400,6.37329541015625,-0.7267357110977173,-1.4473228454589844,-0.43471047282218933
1787956236084541700,6.389541748046875,-0.878075122833252,-1.2081623077392578,-0.22335687279701233
1787956236100802300,6.40580224609375,-0.9234557151794434,-0.9240818023681641,-0.052406758069992065
1787956236116618800,6.42161865234375,-0.8649387359619141,-0.6103982925415039,0.14020240306854248
1787956236132834600,6.43783447265625,-0.6411831378936768,-0.36794281005859375,0.2540084719657898
1787956236148775000,6.45377490234375,-0.4052846431732178,-0.08717536926269531,0.46118420362472534
1787956236164680400,6.469680419921875,-0.14556622505187988,0.11438465118408203,0.4897686839103699
1787956236180982000,6.48598193359375,0.016546249389648438,0.27150821685791016,0.5235012173652649
1787956236197015300,6.502015380859375,0.09877181053161621,0.37740039825439453,0.4272938370704651
1787956236212948000,6.517947998046875,0.0545196533203125,0.48924827575683594,0.33091363310813904
1787956236228666000,6.533666015625,-0.31336307525634766,0.6915979385375977,0.37263140082359314
1787956236245024300,6.550024169921875,-0.7041717767715454,0.9965095520019531,0.4260181784629822
1787956236261204000,6.566203857421875,-0.7835893630981445,1.2782564163208008,0.5008293986320496
1787956236277290000,6.5822900390625,-0.23668766021728516,1.5497207641601562,0.5119962692260742
1787956236293175300,6.59817529296875,0.7849500179290771,1.689279556274414,0.6793175339698792
1787956236308865500,6.613865478515625,1.7502350807189941,1.5728111267089844,0.7762150764465332
1787956236325093000,6.630093017578125,1.5656321048736572,1.4593706130981445,0.767327070236206
1787956236341435600,6.646435546875,0.4495983123779297,1.6345195770263672,0.018661081790924072
1787956236357161500,6.662161376953125,-0.5729535818099976,2.029642105102539,-0.6334817409515381
1787956236373405400,6.678405517578125,0.09115266799926758,2.0620641708374023,-1.2512233257293701
1787956236389227500,6.6942275390625,1.7568237781524658,1.824946403503418,-1.435953974723816
1787956236405509000,6.710509033203125,3.2018375396728516,1.3716096878051758,-1.1629599332809448
1787956236421798100,6.726798095703125,3.373546600341797,0.7320261001586914,-0.7689274549484253
1787956236437467600,6.742467529296875,2.2193710803985596,0.29044628143310547,-0.8155727386474609
1787956236453960200,6.758960205078125,0.7289280891418457,0.12909507751464844,-0.721790075302124
1787956236469571000,6.774571044921875,-0.14821076393127441,-0.03431510925292969,-0.6301378011703491
1787956236485789200,6.7907890625,-0.41551029682159424,-0.2523040771484375,-0.66758131980896
1787956236502155800,6.80715576171875,-0.20081424713134766,-0.30864429473876953,-0.6695425510406494
1787956236517845800,6.822845703125,0.17099618911743164,-0.3448905944824219,-0.6326491832733154
1787956236534254600,6.839254638671875,0.5069563388824463,-0.4200143814086914,-0.6551227569580078
1787956236549858300,6.8548583984375,0.8199901580810547,-0.6193313598632812,-0.7549096941947937
1787956236566095600,6.871095703125,1.0165956020355225,-0.8715610504150391,-0.7816352248191833
1787956236582366500,6.887366455078125,0.9510705471038818,-1.1328144073486328,-0.4221969544887543
1787956236598005200,6.903005126953125,0.7531006336212158,-1.3921575546264648,0.06023135781288147
1787956236614234600,6.919234619140625,0.4414694309234619,-1.6051139831542969,0.5842275619506836
1787956236630245600,6.93524560546875,0.14308381080627441,-1.8202438354492188,1.1091614961624146
1787956236646291500,6.95129150390625,-0.2511453628540039,-1.9331483840942383,1.386813998222351
1787956236662557000,6.967556884765625,-0.7326428890228271,-1.9165139198303223,1.4544124603271484
1787956236678228200,6.983228271484375,-1.0931345224380493,-1.8913450241088867,1.260167121887207
1787956236694685200,6.999685302734375,-1.2352733612060547,-1.7420954704284668,0.8063037395477295
1787956236710285300,7.015285400390625,-1.2536003589630127,-1.493342399597168,0.510686993598938
1787956236726434600,7.0314345703125,-1.1733458042144775,-1.211909294128418,0.4003574848175049
1787956236742807000,7.04780712890625,-0.8453928232192993,-0.9164276123046875,0.30953922867774963
1787956236758574600,7.06357470703125,-0.4437737464904785,-0.6818180084228516,0.3269706666469574
1787956236774757600,7.079757568359375,-0.19353199005126953,-0.4427499771118164,0.21899810433387756
1787956236790931700,7.095931640625,-0.1735520362854004,-0.1813497543334961,-0.01757921278476715
1787956236806738200,7.11173828125,-0.1854565143585205,0.10236072540283203,-0.21614712476730347
1787956236823030300,7.1280302734375,-0.05610942840576172,0.44301700592041016,-0.474420964717865
1787956236838795300,7.143795166015625,0.22602319717407227,0.7433147430419922,-0.8121862411499023
1787956236854906400,7.15990625,0.5700414180755615,1.069676399230957,-1.0495052337646484
1787956236870756900,7.1757568359375,0.6718893051147461,1.2594432830810547,-0.9514051675796509
1787956236886923300,7.19192333984375,0.3627481460571289,1.427450180053711,-0.7367805242538452
1787956236903144400,7.20814453125,0.049756526947021484,1.5271835327148438,-0.32525667548179626
1787956236918856400,7.2238564453125,0.13980841636657715,1.6052484512329102,-0.3288605809211731
1787956236935185000,7.240184814453125,-0.1199028491973877,1.7980937957763672,-0.5264968276023865
1787956236950890800,7.255890869140625,-0.4554471969604492,1.9742107391357422,-0.4003191590309143
1787956236967154200,7.272154296875,-0.2353811264038086,2.114434242248535,0.3969913125038147
1787956236983463700,7.288463623046875,1.180887222290039,1.8772764205932617,0.7378526926040649
1787956236999230200,7.304230224609375,2.6649839878082275,1.5456743240356445,0.8069403767585754
1787956237015287600,7.32028759765625,3.639026165008545,1.069901466369629,0.5798302292823792
1787956237031119000,7.336119140625,3.177891731262207,0.4617185592651367,0.18065905570983887
1787956237047279900,7.35227978515625,1.6851940155029297,0.01975536346435547,-0.0017371177673339844
1787956237063655000,7.368655029296875,0.18251895904541016,-0.10319137573242188,0.02265036106109619
1787956237079411000,7.384410888671875,-0.4816427230834961,-0.15082836151123047,0.15406917035579681
1787956237095759400,7.40075927734375,-0.28052854537963867,-0.12616729736328125,0.6138921976089478
1787956237111251000,7.4162509765625,0.3166379928588867,-0.15921306610107422,1.054229497909546
1787956237127607600,7.432607666015625,0.6073331832885742,-0.31015682220458984,1.5499955415725708
1787956237143777300,7.44877734375,0.4085726737976074,-0.555755615234375,2.0907490253448486
1787956237159474400,7.464474365234375,0.12597107887268066,-0.8134355545043945,2.3004982471466064
1787956237175707000,7.480706787109375,-0.08768510818481445,-1.086568832397461,2.0695223808288574
1787956237191812000,7.49681201171875,0.07892918586730957,-1.2796707153320312,1.6777254343032837
1787956237207843600,7.512843505859375,0.2547130584716797,-1.4314451217651367,1.0789909362792969
1787956237224065300,7.529065185546875,0.19398236274719238,-1.5699834823608398,0.31101512908935547
1787956237239732700,7.544732666015625,0.1440749168395996,-1.5408883094787598,-0.35429704189300537
1787956237255992300,7.560992431640625,-0.06096839904785156,-1.4797182083129883,-0.8675634860992432
1787956237271809800,7.576809814453125,-0.3418002128601074,-1.4311299324035645,-1.0126606225967407
1787956237288080400,7.593080322265625,-0.655052900314331,-1.3687152862548828,-1.0190911293029785
1787956237304395300,7.609395263671875,-0.864143967628479,-1.2226877212524414,-0.8392233848571777
1787956237320175000,7.625175048828125,-1.003143310546875,-0.9875259399414062,-0.38183674216270447
1787956237336315400,7.6413154296875,-1.1572624444961548,-0.6736783981323242,0.2134893238544464
1787956237352538000,7.6575380859375,-1.2891457080841064,-0.3968944549560547,0.5838828682899475
1787956237368349400,7.673349365234375,-0.9620400667190552,-0.09112262725830078,0.6983500123023987
1787956237384618000,7.689617919921875,-0.14205360412597656,0.1408405303955078,0.544668436050415
1787956237400310800,7.705310791015625,0.6291413307189941,0.3062934875488281,0.46948784589767456
1787956237416566800,7.72156689453125,1.0500578880310059,0.4673023223876953,0.424466073513031
1787956237432243700,7.73724365234375,0.825439453125,0.5876350402832031,0.2608606517314911
1787956237448533200,7.753533203125,0.43740415573120117,0.6621160507202148,0.05604872107505798
1787956237464799700,7.7697998046875,0.05312466621398926,0.7011270523071289,-0.09991008043289185
1787956237480474000,7.78547412109375,0.10557961463928223,0.8095321655273438,-0.23398911952972412
1787956237496697000,7.801697021484375,0.1970386505126953,0.9677553176879883,-0.11120867729187012
1787956237512494300,7.817494384765625,0.315310001373291,1.0444135665893555,0.352851539850235
1787956237528752400,7.83375244140625,0.3742537498474121,1.065237045288086,0.3635214865207672
1787956237544990700,7.84999072265625,0.2834014892578125,0.8862266540527344,0.48245853185653687
1787956237560665000,7.8656650390625,-0.31732869148254395,0.8690767288208008,0.4283938407897949
1787956237576954600,7.88195458984375,-1.0440049171447754,0.9857454299926758,0.03148248791694641
1787956237592680400,7.897680419921875,-1.4891226291656494,1.3621101379394531,0.16042782366275787
1787956237609229000,7.91422900390625,-1.0873433351516724,1.6809215545654297,0.1772710084915161
1787956237625271800,7.930271728515625,0.24059414863586426,1.7243881225585938,-0.029510855674743652
1787956237640915200,7.945915283203125,1.9287834167480469,1.5838251113891602,-0.1266019344329834
1787956237657192700,7.962192626953125,3.0448102951049805,1.2592353820800781,-0.35161715745925903
1787956237673107500,7.978107421875,3.183903694152832,0.6154203414916992,-0.6887351274490356
1787956237689270300,7.994270263671875,2.038729429244995,-0.0028219223022460938,-1.0254292488098145
1787956237705514200,8.01051416015625,0.5486173629760742,-0.419708251953125,-1.2618751525878906
1787956237721295400,8.02629541015625,-0.28210878372192383,-0.5798835754394531,-1.4338421821594238
1787956237737435100,8.04243505859375,-0.4779219627380371,-0.521296501159668,-1.5329432487487793
1787956237753233000,8.05823291015625,-0.14789199829101562,-0.4863300323486328,-1.480941653251648
1787956237769459700,8.074459716796875,0.4407365322113037,-0.44441890716552734,-1.4344260692596436
1787956237785770800,8.090770751953125,0.7810540199279785,-0.5007705688476562,-1.2589845657348633
1787956237801446700,8.10644677734375,1.2196223735809326,-0.5275506973266602,-0.9629684686660767
1787956237817750000,8.12275,1.360368251800537,-0.5479307174682617,-0.3706880807876587
1787956237833553400,8.138553466796875,1.3939480781555176,-0.7531538009643555,0.3287428617477417
1787956237849710000,8.1547099609375,1.3399302959442139,-1.0059423446655273,0.9813472032546997
1787956237866097700,8.17109765625,0.8066647052764893,-1.2802181243896484,1.6117051839828491
1787956237881681400,8.186681396484374,0.3054485321044922,-1.4376296997070312,1.5557270050048828
1787956237897855700,8.202855712890624,-0.20204544067382812,-1.516221046447754,1.247328758239746
1787956237913813800,8.218813720703125,-0.5570952892303467,-1.505599021911621,0.760143518447876
1787956237929877500,8.23487744140625,-0.7118180990219116,-1.433401107788086,0.38452377915382385
1787956237946152200,8.251152099609374,-0.6342309713363647,-1.2856206893920898,-0.14524751901626587
1787956237961925000,8.266925048828124,-0.27667713165283203,-1.1205196380615234,-0.5806119441986084
1787956237978001400,8.28300146484375,-0.0814359188079834,-0.9541110992431641,-0.7809818983078003
1787956237994084400,8.29908447265625,-0.08227729797363281,-0.7966146469116211,-0.8794304132461548
1787956238010237000,8.31523681640625,-0.13730573654174805,-0.6833839416503906,-0.7594735622406006
1787956238026310000,8.331309814453125,0.022983312606811523,-0.5030918121337891,-0.6638805866241455
1787956238041972700,8.34697265625,0.41027283668518066,-0.3889045715332031,-0.5264608860015869
1787956238058190000,8.363190185546875,0.5175273418426514,-0.2905893325805664,-0.45273637771606445
1787956238073936000,8.378935791015625,0.34926795959472656,-0.18551158905029297,-0.4264252483844757
1787956238090295600,8.395295654296875,0.14943170547485352,0.06771087646484375,-0.45255616307258606
1787956238106520800,8.411520751953125,0.07226085662841797,0.2994346618652344,-0.4107394814491272
1787956238122239000,8.427239013671874,0.014935731887817383,0.5783662796020508,-0.39217251539230347
1787956238138469400,8.443469482421875,-0.19572067260742188,0.8051080703735352,-0.28481441736221313
1787956238154184400,8.459184326171876,-0.14240026473999023,1.0116195678710938,-0.19500800967216492
1787956238170686700,8.475686767578125,0.12665295600891113,1.0808963775634766,-0.06684975326061249
1787956238186669300,8.49166943359375,0.09491372108459473,1.289987564086914,-0.17835763096809387
1787956238202350800,8.507350830078124,-0.4334373474121094,1.543604850769043,-0.05929771065711975
1787956238218597000,8.52359716796875,-0.8639483451843262,1.706954002380371,0.04148724675178528
1787956238234405000,8.539405029296875,-0.69791579246521,1.9825668334960938,0.705237090587616
1787956238250929000,8.555928955078125,0.2351970672607422,2.0035057067871094,1.053283929824829
1787956238266983700,8.571983642578125,1.4389691352844238,1.7727880477905273,1.363115906715393
1787956238282859500,8.587859619140625,2.449939489364624,1.253809928894043,1.3608168363571167
1787956238298897200,8.603897216796875,2.539654016494751,0.53509521484375,1.181147813796997
1787956238314854700,8.619854736328126,1.667029857635498,-0.09775161743164062,1.0009452104568481
1787956238331028000,8.636028076171876,0.6224074363708496,-0.6741170883178711,0.7658208012580872
1787956238347302100,8.65230224609375,-0.06856608390808105,-1.1521501541137695,0.6680928468704224
1787956238363005200,8.668005126953124,-0.6732690334320068,-1.215479850769043,0.5255149602890015
1787956238379181300,8.684181396484375,-1.0270417928695679,-0.9938879013061523,0.47962743043899536
1787956238395209700,8.700209716796875,-1.0561975240707397,-0.7556419372558594,0.680779218673706
1787956238411354400,8.716354248046875,-0.7516143321990967,-0.4116840362548828,0.94602370262146
1787956238427523000,8.732523193359375,-0.16921329498291016,-0.2273387908935547,1.4740842580795288
1787956238443255000,8.748255126953126,0.29430294036865234,-0.08823013305664062,1.5811583995819092
1787956238459614500,8.764614501953124,0.8516104221343994,-0.09452629089355469,1.47147798538208
1787956238475219700,8.7802197265625,1.3654305934906006,-0.23859214782714844,1.385568380355835
1787956238491419000,8.7964189453125,1.717790126800537,-0.41298770904541016,1.1263080835342407
1787956238507795000,8.812794921875,1.5491654872894287,-0.5734996795654297,0.7083826661109924
1787956238523452700,8.82845263671875,0.8961338996887207,-0.6942501068115234,0.4162335693836212
1787956238539896600,8.844896484375,0.20607280731201172,-0.7506389617919922,0.2854537069797516
1787956238555692300,8.8606923828125,-0.23096299171447754,-0.7995281219482422,0.2988564074039459
1787956238571729200,8.876729248046875,-0.31060028076171875,-0.7679052352905273,0.27398228645324707
1787956238588066000,8.893066162109376,-0.43248891830444336,-0.6941432952880859,0.3807491660118103
1787956238603761200,8.90876123046875,-0.48018956184387207,-0.5492458343505859,0.34025317430496216
1787956238620183800,8.925183837890625,-0.4430875778198242,-0.3917703628540039,0.5415576100349426
1787956238635776800,8.94077685546875,-0.38495612144470215,-0.2905750274658203,0.6248332858085632
1787956238651967700,8.9569677734375,-0.18715739250183105,-0.1718740463256836,0.7235884070396423
1787956238668238600,8.973238525390625,0.15977191925048828,-0.058037757873535156,0.5151622891426086
1787956238684349700,8.989349609375,0.3838541507720947,0.07302188873291016,0.2154911607503891
1787956238700198000,9.005197998046874,0.5743615627288818,0.17391109466552734,0.12636545300483704
1787956238716016400,9.021016357421875,0.519066572189331,0.3022603988647461,0.052102092653512955
1787956238732164900,9.037164794921875,0.4023571014404297,0.31430912017822266,0.03500204533338547
1787956238748440000,9.053440185546876,0.3514852523803711,0.38224029541015625,0.02156190574169159
1787956238764238000,9.069238037109375,0.320065975189209,0.3579435348510742,0.07418100535869598
1787956238780385000,9.085385009765625,0.2033679485321045,0.32732391357421875,0.19989830255508423
1787956238796644600,9.10164453125,-0.05234384536743164,0.25020408630371094,0.22424137592315674
1787956238812457700,9.117457763671876,-0.2584378719329834,0.2546863555908203,0.22501841187477112
1787956238828741400,9.133741455078125,-0.20312976837158203,0.23957443237304688,0.22054660320281982
1787956238844402200,9.149402099609375,-0.03920769691467285,0.20273971557617188,0.2339784801006317
1787956238860569000,9.165569091796876,0.12990045547485352,0.23046398162841797,0.34211209416389465
1787956238876451000,9.181451171875,-0.18046808242797852,0.3878641128540039,0.31658560037612915
1787956238892609800,9.19760986328125,-0.8545398712158203,0.6101922988891602,0.2951485812664032
1787956238908866600,9.213866455078126,-1.3149524927139282,0.9072971343994141,0.12748786807060242
1787956238924500000,9.2295,-1.0045840740203857,1.1472110748291016,-0.15794861316680908
1787956238940980700,9.245980712890624,-0.1741790771484375,1.2647714614868164,-0.6551901698112488
1787956238956565200,9.261565185546875,0.8479790687561035,1.2911911010742188,-1.0934408903121948
1787956238972835000,9.2778349609375,1.383854866027832,1.1915903091430664,-1.147709846496582
1787956238989104000,9.294104248046875,1.396867036819458,1.0561637878417969,-0.8339512944221497
1787956239004717600,9.309717529296876,1.2795310020446777,0.7929754257202148,-0.47937071323394775
1787956239020952000,9.3259521484375,1.0439167022705078,0.46009254455566406,-0.38032209873199463
1787956239036763400,9.341763427734374,0.9707977771759033,0.08862590789794922,-0.5098994970321655
1787956239052979000,9.35797900390625,0.8887064456939697,-0.29779052734375,-0.5351810455322266
1787956239069281800,9.37428173828125,0.6225342750549316,-0.6895551681518555,-0.49612313508987427
1787956239085040600,9.39004052734375,0.20449018478393555,-0.8381261825561523,-0.31306707859039307
1787956239101303600,9.406303466796874,-0.08368301391601562,-0.9555120468139648,-0.21614670753479004
1787956239116958700,9.421958740234375,-0.14043688774108887,-0.9430913925170898,-0.2579255700111389
1787956239133301800,9.4383017578125,-0.21484899520874023,-0.8987007141113281,-0.4151976704597473
1787956239149498600,9.45449853515625,-0.4913613796234131,-0.7279138565063477,-0.6379418969154358
1787956239165197000,9.470197021484376,-0.7327370643615723,-0.45566558837890625,-0.815378725528717
1787956239181661000,9.486660888671874,-0.849614143371582,-0.20383739471435547,-0.7291991114616394
1787956239197185000,9.50218505859375,-0.5828566551208496,0.04384899139404297,-0.619590699672699
1787956239213387300,9.51838720703125,0.07973766326904297,0.16011333465576172,-0.444091260433197
1787956239229705200,9.534705322265625,0.8911125659942627,0.1955738067626953,-0.3046190142631531
1787956239245851000,9.550850830078126,1.5805964469909668,0.22936248779296875,-0.18731003999710083
1787956239261685000,9.56668505859375,2.1362385749816895,0.07750797271728516,-0.17085832357406616
1787956239277551600,9.582551513671875,2.067176580429077,-0.18439388275146484,-0.05389446020126343
1787956239294071300,9.5990712890625,1.1357192993164062,-0.3493623733520508,0.233892023563385
1787956239310100700,9.615100830078125,-0.0453948974609375,-0.48214149475097656,0.2927734851837158
1787956239325769000,9.63076904296875,-0.6560220718383789,-0.5866613388061523,0.2540128529071808
1787956239341984800,9.64698486328125,-0.8035180568695068,-0.6403322219848633,0.2505591809749603
1787956239357858600,9.662858642578126,-0.8400387763977051,-0.5919961929321289,0.18903127312660217
1787956239374075400,9.679075439453126,-0.9036505222320557,-0.48834800720214844,0.0812545120716095
1787956239390356000,9.69535595703125,-0.7429335117340088,-0.31827545166015625,-0.15702855587005615
1787956239405987800,9.71098779296875,-0.4181182384490967,-0.14542675018310547,-0.2927377223968506
1787956239422171400,9.72717138671875,0.03308892250061035,-0.010718345642089844,-0.32373499870300293
1787956239437999000,9.7429990234375,0.37476181983947754,0.15481948852539062,-0.4453073740005493
1787956239454503000,9.7595029296875,0.584209680557251,0.3220338821411133,-0.44646143913269043
1787956239470533600,9.77553369140625,0.901829719543457,0.42528438568115234,-0.37401455640792847
1787956239486287400,9.791287353515624,1.0399534702301025,0.43959712982177734,-0.21694296598434448
1787956239502650000,9.807650146484375,0.825958251953125,0.3746490478515625,-0.06348425149917603
1787956239518239500,9.823239501953125,0.3020002841949463,0.2524843215942383,0.15822833776474
1787956239534776000,9.839776123046875,-0.30770373344421387,0.15991592407226562,0.36028265953063965
1787956239550761700,9.85576171875,-0.8118894100189209,0.09978675842285156,0.3059104084968567
1787956239566444300,9.8714443359375,-0.9930672645568848,0.10231590270996094,0.22619938850402832
1787956239582695000,9.88769482421875,-0.9810564517974854,0.13698291778564453,0.05098798871040344
1787956239598496000,9.90349609375,-0.8363831043243408,0.15619754791259766,0.06589415669441223
1787956239614675700,9.91967578125,-0.754788875579834,0.20274734497070312,0.15972214937210083
1787956239630931500,9.935931396484374,-0.8844490051269531,0.27825355529785156,0.3068621754646301
1787956239646675500,9.951675537109375,-1.0247411727905273,0.39269065856933594,0.3016805946826935
1787956239662857500,9.967857421875,-1.0098884105682373,0.5036554336547852,0.26144900918006897
1787956239678774000,9.98377392578125,-0.7856647968292236,0.6559667587280273,0.22672729194164276
1787956239695269600,10.00026953125,-0.369856595993042,0.7411327362060547,0.24100714921951294
1787956239711261700,10.01626171875,0.20836782455444336,0.779754638671875,0.3315281867980957
1787956239726915300,10.031915283203125,0.6647956371307373,0.715022087097168,0.3984881639480591
1787956239743208700,10.048208740234376,0.7759883403778076,0.4869098663330078,0.30379942059516907
1787956239759443000,10.06444287109375,0.6079473495483398,0.25073909759521484,0.3155485987663269
1787956239775221000,10.080220947265625,0.28299641609191895,-0.05597209930419922,0.26854294538497925
1787956239791564300,10.096564208984375,-0.0010328292846679688,-0.2536497116088867,0.3635663390159607
1787956239807209000,10.112208984375,-0.3522820472717285,-0.44356441497802734,0.6198406219482422
1787956239823612200,10.128612060546875,-0.7537238597869873,-0.48818206787109375,0.8465826511383057
1787956239839213000,10.144213134765625,-1.0335469245910645,-0.4221172332763672,0.8932912349700928
1787956239855416000,10.160416015625,-0.900131344795227,-0.2591743469238281,0.7948954105377197
1787956239871684600,10.1766845703125,-0.41287779808044434,-0.149017333984375,0.7668523192405701
1787956239887737000,10.192737060546875,-0.11782646179199219,-0.04766368865966797,0.8513904213905334
1787956239903684000,10.20868408203125,-0.11008238792419434,0.0913095474243164,1.0086257457733154
1787956239919240700,10.22424072265625,-0.03386378288269043,0.17563152313232422,1.2168798446655273
1787956239935761700,10.24076171875,0.3082001209259033,0.2759380340576172,1.159213662147522
1787956239951698000,10.256697998046874,0.7556777000427246,0.35873889923095703,1.1247456073760986
1787956239967326000,10.272325927734375,0.8597924709320068,0.388671875,1.1833086013793945
1787956239983611000,10.28861083984375,0.6664571762084961,0.31455326080322266,1.0731441974639893
1787956239999368400,10.304368408203125,0.6220855712890625,0.21163177490234375,0.9945158362388611
1787956240015647500,10.3206474609375,0.672370195388794,0.1018991470336914,0.7936011552810669
1787956240031916500,10.33691650390625,0.6294519901275635,0.06876373291015625,0.6122764348983765
1787956240047743000,10.352742919921875,0.605233907699585,-0.01916790008544922,0.393642783164978
1787956240064024000,10.369024169921875,0.5552210807800293,-0.07282161712646484,0.34192731976509094
1787956240079810600,10.384810546875,0.5968067646026611,-0.17365550994873047,0.2197708785533905
1787956240095860700,10.40086083984375,0.6647887229919434,-0.31669139862060547,0.07253506779670715
1787956240112162800,10.417162841796875,0.6549370288848877,-0.3825263977050781,-0.016105622053146362
1787956240127813600,10.432813720703125,0.5464887619018555,-0.3707151412963867,-0.0630541443824768
1787956240144074200,10.44907421875,0.5042531490325928,-0.3393545150756836,-0.09400251507759094
1787956240159875000,10.464875,0.6089413166046143,-0.2673072814941406,-0.0975637435913086
1787956240176013300,10.481013427734375,0.6418600082397461,-0.18956947326660156,-0.20875731110572815
1787956240192329700,10.497329833984375,0.70206618309021,-0.18535900115966797,-0.26879414916038513
1787956240208048000,10.513048095703125,0.7977476119995117,-0.1400279998779297,-0.4081193506717682
1787956240224423200,10.529423095703125,0.8913474082946777,-0.12172126770019531,-0.4695163369178772
1787956240240057000,10.54505712890625,0.9561009407043457,-0.08063316345214844,-0.6513847708702087
1787956240256288800,10.561288818359374,0.6898527145385742,-0.060364723205566406,-0.5046528577804565
1787956240272646700,10.577646728515624,0.42432141304016113,0.03619194030761719,-0.22298341989517212
1787956240288223500,10.593223388671875,0.26441526412963867,0.05587291717529297,-0.023260772228240967
1787956240304453400,10.609453369140626,0.15532493591308594,0.10040473937988281,0.18414920568466187
1787956240320773600,10.625773681640625,0.06498837471008301,0.16460609436035156,0.36173808574676514
1787956240336543500,10.64154345703125,-0.0458989143371582,0.15610694885253906,0.4928247928619385
1787956240352823300,10.6578232421875,-0.08125662803649902,0.20073604583740234,0.5100750923156738
1787956240368466700,10.673466796875,-0.12499856948852539,0.16794586181640625,0.3658095598220825
1787956240384787200,10.689787109375,-0.07424449920654297,0.1803607940673828,0.011902093887329102
1787956240400484600,10.705484619140625,0.00776362419128418,0.1565685272216797,-0.24565905332565308
1787956240416698600,10.72169873046875,0.03210568428039551,0.07919502258300781,-0.5473185777664185
1787956240433008400,10.73800830078125,0.022214651107788086,0.09847736358642578,-0.7120256423950195
1787956240448638700,10.753638671875,-0.11518335342407227,-0.0057430267333984375,-0.889371395111084
1787956240464793300,10.76979345703125,-0.31136536598205566,-0.09510517120361328,-1.0849887132644653
1787956240480645600,10.785645751953124,-0.42661118507385254,-0.13991451263427734,-1.2302870750427246
1787956240496802800,10.801802734375,-0.45479726791381836,-0.16965389251708984,-1.1584770679473877
1787956240513088800,10.8180888671875,-0.4907064437866211,-0.15726661682128906,-0.8796078562736511
1787956240528937200,10.833937255859375,-0.5709283351898193,-0.14109039306640625,-0.6871054768562317
1787956240544953000,10.849953125,-0.5556821823120117,-0.15028858184814453,-0.5122110247612
1787956240560771600,10.865771484375,-0.5764074325561523,-0.046126365661621094,-0.3196124732494354
1787956240577300700,10.88230078125,-0.3895297050476074,0.07461929321289062,-0.01971590518951416
1787956240593249300,10.898249267578125,-0.26108384132385254,0.19050979614257812,0.20268911123275757
1787956240608939800,10.913939697265626,-0.2089240550994873,0.2944831848144531,0.33415037393569946
1787956240625196300,10.9301962890625,-0.010097742080688477,0.3591327667236328,0.1465957760810852
1787956240640993500,10.94599365234375,0.12986493110656738,0.4328641891479492,-0.006457269191741943
1787956240657186000,10.96218603515625,0.1908705234527588,0.4769153594970703,-0.21565204858779907
1787956240673469700,10.9784697265625,0.2771718502044678,0.4147510528564453,-0.2524184584617615
1787956240689081900,10.994081787109375,0.3171069622039795,0.4059000015258789,-0.2234814316034317
1787956240705310200,11.010310302734375,0.1712937355041504,0.2749481201171875,-0.17567892372608185
1787956240721046000,11.0260458984375,-0.15087223052978516,0.12241077423095703,-0.17617374658584595
1787956240737311700,11.042311767578125,-0.6309692859649658,0.05237007141113281,-0.14134851098060608
1787956240753568000,11.058568115234374,-0.9515037536621094,0.06033611297607422,-0.08908231556415558
1787956240769193200,11.074193115234374,-0.9150354862213135,0.01994800567626953,0.14060644805431366
1787956240785385500,11.090385498046874,-0.6159000396728516,0.016826629638671875,0.1654118150472641
1787956240801257700,11.1062578125,-0.06875205039978027,-0.05860614776611328,-0.1153092235326767
1787956240817426700,11.1224267578125,0.6242878437042236,-0.014193534851074219,-0.678226888179779
1787956240833782300,11.1387822265625,1.133042573928833,-0.057213783264160156,-1.0991885662078857
1787956240849464600,11.154464599609375,1.2986228466033936,-0.10987567901611328,-1.4605445861816406
1787956240865639400,11.170639404296875,1.2291536331176758,-0.16397857666015625,-1.6248644590377808
1787956240881443300,11.186443359375,0.787325382232666,-0.11962699890136719,-1.5994921922683716
1787956240897715700,11.2027158203125,0.15628290176391602,-0.014978408813476562,-1.5089038610458374
1787956240913935600,11.218935546875,-0.16449499130249023,0.05169391632080078,-1.5637524127960205
1787956240929645300,11.234645263671876,-0.10414838790893555,0.15276050567626953,-1.317480206489563
1787956240946056700,11.251056640625,0.12791895866394043,0.21147823333740234,-0.9862337112426758
1787956240961650400,11.266650390625,0.2692441940307617,0.19919586181640625,-0.702704906463623
1787956240977852000,11.282851806640625,0.44343137741088867,0.22907543182373047,-0.7126555442810059
1787956240994175500,11.299175537109376,0.6089811325073242,0.2191009521484375,-0.7462590336799622
1787956241009817300,11.3148173828125,0.5370471477508545,0.1943674087524414,-0.8010214567184448
1787956241026023400,11.3310234375,0.3320481777191162,0.234344482421875,-0.7858131527900696
1787956241041822500,11.346822509765625,0.22663450241088867,0.1903228759765625,-0.7165747880935669
1787956241058052400,11.36305224609375,0.20647978782653809,0.10158824920654297,-0.5605345964431763
1787956241074368800,11.37936865234375,0.3680763244628906,0.07667922973632812,-0.6103934645652771
1787956241090450400,11.395450439453125,0.36832284927368164,-0.08969593048095703,-0.7029858231544495
1787956241106472200,11.41147216796875,0.14558625221252441,-0.04017353057861328,-0.829852819442749
1787956241122187800,11.427187744140625,-0.059214115142822266,-0.004038810729980469,-0.8396660089492798
1787956241138597000,11.44359716796875,-0.24056434631347656,0.0026159286499023438,-0.9740588665008545
1787956241154582800,11.459582763671875,-0.2128157615661621,0.02709197998046875,-0.9442802667617798
1787956241170223400,11.475223388671875,-0.08498334884643555,0.07403182983398438,-0.8808404207229614
1787956241186580000,11.491580078125,0.04977774620056152,0.13687801361083984,-0.7388906478881836
1787956241202347300,11.50734716796875,-0.0055925846099853516,0.04952716827392578,-0.6881897449493408
1787956241218548200,11.52354833984375,-0.0004515647888183594,0.19634437561035156,-0.42737293243408203
1787956241234874000,11.5398740234375,0.17571449279785156,0.1319580078125,-0.4929860830307007
1787956241250464300,11.55546435546875,0.30144619941711426,0.11071491241455078,-0.4487260580062866
1787956241266686700,11.571686767578125,0.2446591854095459,0.07467269897460938,-0.4357426166534424
1787956241282475000,11.58747509765625,0.18073415756225586,0.09023189544677734,-0.3297383785247803
1787956241298811400,11.603811279296876,0.27320313453674316,0.10059261322021484,-0.24295103549957275
1787956241315005000,11.6200048828125,0.3510165214538574,0.08108234405517578,-0.15526509284973145
1787956241330605800,11.635605712890625,0.36972618103027344,0.03305339813232422,-0.09586560726165771
1787956241346827300,11.6518271484375,0.3581364154815674,0.0050258636474609375,-0.1176835298538208
1787956241362659800,11.667659912109375,0.1603689193725586,0.009667396545410156,-0.24442017078399658
1787956241379206400,11.684206298828125,-0.067901611328125,0.09730148315429688,-0.3466813564300537
1787956241395205400,11.700205322265624,-0.057518959045410156,0.12073230743408203,-0.4145171642303467
1787956241410856200,11.715856201171874,-0.027621746063232422,0.2038869857788086,-0.37293732166290283
1787956241427188700,11.732188720703125,-0.22858309745788574,0.2789125442504883,-0.42038989067077637
1787956241442892300,11.747892333984375,-0.6300625801086426,0.3688793182373047,-0.3210413455963135
1787956241459145700,11.764145751953125,-0.9918074607849121,0.4604005813598633,-0.16219079494476318
1787956241475408600,11.78040869140625,-1.0592620372772217,0.4365701675415039,0.22130876779556274
1787956241491037400,11.796037353515626,-0.8967735767364502,0.347747802734375,0.6876248121261597
1787956241507540000,11.8125400390625,-0.5400288105010986,0.25333595275878906,0.979112446308136
1787956241523116500,11.828116455078124,-0.22520112991333008,0.15978527069091797,1.10601806640625
1787956241539457500,11.84445751953125,0.007110118865966797,0.12979602813720703,0.8237243294715881
1787956241555644400,11.86064453125,-0.1597881317138672,0.06879425048828125,0.4365171790122986
1787956241571227100,11.87622705078125,-0.7102601528167725,0.10236167907714844,0.32944855093955994
1787956241587687000,11.89268701171875,-1.2399121522903442,0.1813812255859375,0.4212845265865326
1787956241603347200,11.90834716796875,-1.3835612535476685,0.16343307495117188,0.6312690377235413
1787956241619840500,11.924840576171874,-1.2253835201263428,0.1240549087524414,0.7591843605041504
1787956241635867400,11.940867431640624,-1.1184214353561401,0.14151763916015625,0.912084698677063
1787956241651911700,11.95691162109375,-0.8473150730133057,0.120849609375,0.9021996259689331
1787956241667863800,11.97286376953125,-0.529447078704834,0.08431434631347656,0.8152417540550232
1787956241683742200,11.9887421875,-0.12909960746765137,0.03501605987548828,0.6799982786178589
1787956241699810800,12.004810791015625,0.2276935577392578,0.013060569763183594,0.584476888179779
1787956241716055600,12.0210556640625,0.1681044101715088,-0.04311656951904297,0.5882228016853333
1787956241731804400,12.036804443359374,-0.1921379566192627,-0.07358074188232422,0.6537255048751831
1787956241747924700,12.0529248046875,-0.533076286315918,-0.13789081573486328,0.612646758556366
1787956241763788500,12.06878857421875,-0.6152315139770508,-0.06952190399169922,0.7219467759132385
1787956241779960000,12.0849599609375,-0.41983747482299805,-0.14310646057128906,0.6705512404441833
1787956241796223000,12.101222900390624,-0.26682424545288086,-0.16497516632080078,0.5336141586303711
1787956241811890200,12.11689013671875,-0.30927348136901855,-0.18376827239990234,0.350689172744751
1787956241828084200,12.133084228515624,-0.3794844150543213,-0.22117137908935547,0.2454536110162735
1787956241844023600,12.1490234375,-0.3609135150909424,-0.20447731018066406,0.04599018394947052
1787956241860314000,12.165314208984375,-0.27424192428588867,-0.2003650665283203,-0.02488104999065399
1787956241876431000,12.18143115234375,-0.20242571830749512,-0.2067098617553711,-0.06775368750095367
1787956241892059000,12.197058837890625,-0.12222051620483398,-0.18978023529052734,-0.1492573618888855
1787956241908547000,12.213547119140625,-0.18122100830078125,-0.2104053497314453,-0.11465251445770264
1787956241924148000,12.22914794921875,-0.2780425548553467,-0.2257537841796875,0.012777641415596008
1787956241940402200,12.245402099609375,-0.32619786262512207,-0.21269702911376953,0.17758886516094208
1787956241956681700,12.261681640625,-0.4405694007873535,-0.22222042083740234,0.3070835471153259
1787956241972338400,12.27733837890625,-0.5944921970367432,-0.14496803283691406,0.4938502907752991
1787956241988579300,12.293579345703124,-0.7894150018692017,-0.05063915252685547,0.6508970260620117
1787956242004376300,12.309376220703125,-0.9078197479248047,0.09801673889160156,0.7883797883987427
1787956242020612000,12.325612060546876,-0.8895978927612305,0.1884632110595703,0.9732184410095215
1787956242036879000,12.341879150390625,-0.9038724899291992,0.34267711639404297,0.9654960036277771
1787956242052473300,12.357473388671876,-0.596747875213623,0.4568490982055664,0.9146040678024292
1787956242068706800,12.373706787109375,-0.3633096218109131,0.5231781005859375,0.7725827097892761
1787956242084540700,12.389540771484375,-0.2771751880645752,0.596771240234375,0.5534545183181763
1787956242100775700,12.405775634765625,-0.2782278060913086,0.6084489822387695,0.2629547715187073
1787956242117076700,12.42207666015625,-0.3105804920196533,0.6225728988647461,0.016152381896972656
1787956242132846300,12.437846435546875,-0.3209860324859619,0.6581249237060547,-0.039345335215330124
1787956242148936000,12.45393603515625,-0.4440758228302002,0.658909797668457,-0.03892624005675316
1787956242165226800,12.470226806640625,-0.6245172023773193,0.6505441665649414,-0.024853873997926712
1787956242181156600,12.486156494140625,-0.7937736511230469,0.717076301574707,-0.13616378605365753
1787956242197252400,12.50225244140625,-0.9106320142745972,0.6675300598144531,0.011934183537960052
1787956242213360000,12.518360107421875,-0.9830665588378906,0.6098737716674805,0.05499444156885147
1787956242229283000,12.534282958984376,-0.9715437889099121,0.5635919570922852,0.14428776502609253
1787956242244921900,12.549921875,-0.8993074893951416,0.4477348327636719,0.18939650058746338
1787956242261259800,12.566259765625,-0.6608476638793945,0.33585548400878906,-0.0069321393966674805
1787956242277444900,12.58244482421875,-0.41237902641296387,0.17373085021972656,-0.09090426564216614
1787956242293092900,12.5980927734375,-0.2597208023071289,-0.014531135559082031,-0.228618785738945
1787956242309320400,12.614320556640624,-0.44964396953582764,-0.15392780303955078,-0.33050185441970825
1787956242325050000,12.630050048828124,-0.6395989656448364,-0.24141883850097656,-0.32987961173057556
1787956242341272600,12.6462724609375,-0.80595862865448,-0.3625364303588867,-0.27411240339279175
1787956242357579800,12.662579833984376,-0.8221043348312378,-0.43239307403564453,-0.17112141847610474
1787956242373204500,12.67820458984375,-0.6856313943862915,-0.45242881774902344,-0.024923712015151978
1787956242389434600,12.6944345703125,-0.5680525302886963,-0.4569435119628906,-0.016828089952468872
1787956242405240600,12.710240478515624,-0.27060508728027344,-0.3592720031738281,-0.01814824342727661
1787956242421547000,12.726547119140625,0.00292205810546875,-0.2053995132446289,0.026400819420814514
1787956242437806000,12.74280615234375,0.3246614933013916,-0.09067344665527344,0.014852404594421387
1787956242453488600,12.758488525390625,0.6594167947769165,0.09680843353271484,-0.10418108105659485
1787956242469945300,12.7749453125,0.9206559658050537,0.2977161407470703,-0.17890316247940063
1787956242485554200,12.79055419921875,1.0124660730361938,0.5753564834594727,-0.21035248041152954
1787956242501761800,12.80676171875,0.6779279708862305,0.9355335235595703,-0.21344077587127686
1787956242518067000,12.82306689453125,0.13635265827178955,1.302769660949707,-0.29830634593963623
1787956242533954600,12.83895458984375,-0.25717735290527344,1.5423345565795898,-0.472533643245697
1787956242550120000,12.855119873046876,0.08583760261535645,1.8002357482910156,-0.8332760334014893
1787956242565881900,12.8708818359375,1.109473466873169,1.9051313400268555,-1.1308622360229492
1787956242581994000,12.886993896484375,2.1942667961120605,1.7734336853027344,-1.5443602800369263
1787956242598360300,12.9033603515625,2.9901723861694336,1.6676559448242188,-1.2510764598846436
1787956242614009000,12.919009033203125,3.6644480228424072,1.064192771911621,-1.1139572858810425
1787956242630232600,12.935232666015626,3.59441876411438,0.51715087890625,-0.758978009223938
1787956242646056000,12.951055908203125,2.793077230453491,0.0878610610961914,-0.5717149972915649
1787956242662271700,12.967271728515625,1.4869027137756348,-0.20534515380859375,-0.7429636120796204
1787956242678594600,12.983594482421875,0.620963454246521,-0.4066953659057617,-0.9279779195785522
1787956242694280400,12.999280517578125,0.21565711498260498,-0.5125999450683594,-1.288341760635376
1787956242710619600,13.01561962890625,-0.10793077945709229,-0.6133937835693359,-1.3921623229980469
1787956242726668800,13.031668701171874,0.08203530311584473,-0.7543344497680664,-1.4070125818252563
1787956242742572800,13.04757275390625,0.49199390411376953,-1.0693511962890625,-0.9255302548408508
1787956242758765800,13.063765869140624,0.7683148384094238,-1.2420940399169922,-0.35004910826683044
1787956242774354400,13.0793544921875,0.7727484703063965,-1.4742918014526367,0.11871668696403503
1787956242790578000,13.095577880859375,0.7437293529510498,-1.645613193511963,0.4390046000480652
1787956242806490400,13.111490478515625,0.6574445962905884,-1.7608661651611328,0.6453817486763
1787956242822620400,13.127620361328125,0.5406148433685303,-1.738286018371582,0.5670879483222961
1787956242838895600,13.1438955078125,0.4044687747955322,-1.7291955947875977,0.2300599217414856
1787956242854708000,13.1597080078125,0.18827390670776367,-1.6862239837646484,-0.08932779729366302
1787956242870784800,13.17578466796875,-0.11725044250488281,-1.6023592948913574,-0.31897300481796265
1787956242886593000,13.191593017578125,-0.16706645488739014,-1.4240531921386719,-0.41464871168136597
1787956242902790000,13.207789794921876,-0.04750943183898926,-1.3241519927978516,-0.3644561171531677
1787956242919081500,13.22408154296875,-0.20607900619506836,-1.1552038192749023,-0.4044739305973053
1787956242934726400,13.239726318359375,-0.2161731719970703,-0.8377161026000977,-0.5184206962585449
1787956242950969300,13.25596923828125,0.05880165100097656,-0.645909309387207,-0.7007777094841003
1787956242966808000,13.27180810546875,0.47547221183776855,-0.28583431243896484,-0.7306117415428162
1787956242983303400,13.288303466796876,0.843252420425415,-0.037787437438964844,-0.5946770906448364
1787956242999295700,13.304295654296874,0.9914419651031494,0.22043800354003906,-0.6287450790405273
1787956243014936800,13.319936767578126,1.0188169479370117,0.5814104080200195,-0.23168139159679413
1787956243031106000,13.33610595703125,1.178947925567627,0.6789960861206055,-0.10659574717283249
1787956243046943700,13.35194384765625,1.2431869506835938,0.8492555618286133,-0.227634459733963
1787956243063178500,13.368178466796875,0.862462043762207,1.0347862243652344,-0.17081336677074432
1787956243079503400,13.38450341796875,0.4564075469970703,1.2350006103515625,-0.4107704162597656
1787956243095114200,13.4001142578125,0.35890984535217285,1.325821876525879,-0.4036351442337036
1787956243111366000,13.416365966796874,0.5986795425415039,1.3156394958496094,-0.48964640498161316
1787956243127132200,13.432132080078125,0.8165981769561768,1.498295783996582,-0.9096400141716003
1787956243143506200,13.448506103515625,0.68617844581604,1.5135889053344727,-0.6210308074951172
1787956243159615000,13.464614990234375,0.2585713863372803,1.6407470703125,-0.27439063787460327
1787956243175241000,13.480240966796876,0.23937177658081055,1.6052722930908203,0.3029042184352875
1787956243191467000,13.496467041015626,0.6984972953796387,1.2737464904785156,1.1192576885223389
1787956243207380500,13.51238037109375,1.9705636501312256,1.0671882629394531,1.4690955877304077
1787956243223498800,13.528498779296875,3.123960256576538,0.5451326370239258,1.1856632232666016
1787956243239831800,13.544831787109375,3.52644681930542,-0.004069328308105469,0.7384244799613953
1787956243255743500,13.560743408203125,2.511934280395508,-0.3919954299926758,0.5262047648429871
1787956243271714800,13.57671484375,1.105583906173706,-0.6938190460205078,0.470012903213501
1787956243287958000,13.5929580078125,0.0321810245513916,-0.7254571914672852,0.49752020835876465
1787956243303871500,13.60887158203125,-0.5865952968597412,-0.6990079879760742,0.531404972076416
1787956243320124200,13.625124267578125,-0.7123006582260132,-0.5435876846313477,0.6156845092773438
1787956243336137700,13.6411376953125,-0.14275074005126953,-0.4936037063598633,0.8418103456497192
1787956243351985400,13.6569853515625,0.4055628776550293,-0.4301595687866211,1.0964274406433105
1787956243367877600,13.672877685546876,0.851189136505127,-0.5642366409301758,1.3366659879684448
1787956243383952600,13.68895263671875,1.226876974105835,-0.8152399063110352,1.5011273622512817
1787956243400291800,13.705291748046875,1.6628315448760986,-0.9877729415893555,1.4400711059570312
1787956243416086000,13.7210859375,1.691265344619751,-1.2182693481445312,1.0787882804870605
1787956243432259300,13.73725927734375,1.1771049499511719,-1.3867311477661133,0.435016393661499
1787956243448088300,13.75308837890625,0.784987211227417,-1.6081552505493164,-0.5570417642593384
1787956243464287500,13.76928759765625,0.3760852813720703,-1.571138858795166,-1.0027201175689697
1787956243480576500,13.785576416015624,-0.08584761619567871,-1.5793542861938477,-1.0734463930130005
1787956243496258800,13.8012587890625,-0.7524954080581665,-1.558058738708496,-1.1264698505401611
1787956243512490200,13.817490234375,-1.0660966634750366,-1.3954591751098633,-0.816098690032959
1787956243528420600,13.833420654296875,-1.1932644844055176,-1.1708345413208008,-0.6036030650138855
1787956243544862500,13.849862548828124,-0.9810855388641357,-0.9863014221191406,-0.22295594215393066
1787956243560871400,13.865871337890624,-0.6838181018829346,-0.7319736480712891,0.14240005612373352
1787956243576514000,13.88151416015625,-0.2740051746368408,-0.4635334014892578,0.36483341455459595
1787956243592754700,13.897754638671875,0.1918506622314453,-0.2589292526245117,0.2957949638366699
1787956243608510200,13.91351025390625,0.5491552352905273,-0.07888221740722656,0.20495939254760742
1787956243624743000,13.929742919921875,0.8282361030578613,0.0017986297607421875,0.19608956575393677
1787956243641006300,13.94600634765625,1.0395174026489258,0.18088626861572266,0.1714838147163391
1787956243656653800,13.96165380859375,1.0214929580688477,0.36337947845458984,0.2577081024646759
1787956243672865500,13.977865478515625,1.1036982536315918,0.6008338928222656,0.1641135811805725
1787956243688662500,13.99366259765625,1.1002953052520752,0.7971363067626953,0.11554798483848572
1787956243704925400,14.009925537109375,0.9004857540130615,0.9710922241210938,-0.04710453748703003
1787956243721203000,14.026202880859374,0.8839585781097412,1.0432863235473633,0.042618393898010254
1787956243737089500,14.042089599609374,1.003472089767456,0.948765754699707,0.17248103022575378
1787956243753079000,14.0580791015625,0.7905728816986084,1.1929683685302734,0.24818626046180725
1787956243768919800,14.073919921875,0.38254857063293457,1.476419448852539,0.14094281196594238
1787956243785143000,14.09014306640625,-0.045449018478393555,1.8011093139648438,-0.326427161693573
1787956243801435400,14.106435302734376,0.3805062770843506,1.9069404602050781,-0.9035428762435913
1787956243817128400,14.12212841796875,1.875725269317627,1.6966915130615234,-1.4025825262069702
1787956243833309000,14.138308837890625,3.4056339263916016,1.406686782836914,-1.2477219104766846
1787956243849142500,14.154142578125,3.7372615337371826,0.8656024932861328,-0.4289291501045227
1787956243865359600,14.170359619140624,2.6602492332458496,0.4293060302734375,0.2255024015903473
1787956243881707800,14.186707763671874,1.097337007522583,0.13492298126220703,0.6424885988235474
1787956243897396000,14.20239599609375,-0.06079435348510742,-0.06404876708984375,0.5703206658363342
1787956243913849600,14.218849609375,-0.5281506776809692,-0.21900272369384766,0.07556143403053284
1787956243929524000,14.23452392578125,-0.29698336124420166,-0.248291015625,-0.5031552314758301
1787956243945612300,14.2506123046875,0.058241844177246094,-0.3265352249145508,-1.2078797817230225
1787956243961882000,14.266882080078124,0.3401203155517578,-0.4369163513183594,-1.5752674341201782
1787956243977506600,14.282506591796874,0.727165699005127,-0.5106449127197266,-1.5069365501403809
1787956243993947100,14.298947021484375,1.1561124324798584,-0.6144075393676758,-1.1484341621398926
1787956244009620200,14.3146201171875,1.5594260692596436,-0.9379501342773438,-0.8000833988189697
1787956244025831400,14.33083154296875,1.7671592235565186,-1.2252073287963867,-0.35266250371932983
1787956244042189000,14.34718896484375,1.561006784439087,-1.4516878128051758,0.2423538863658905
1787956244058279000,14.36327880859375,0.8803689479827881,-1.6175899505615234,0.6227554678916931
1787956244074049300,14.37904931640625,0.06973767280578613,-1.7917141914367676,0.6825122833251953
1787956244089835000,14.3948349609375,-0.4135485887527466,-1.7767362594604492,0.7107447385787964
1787956244106193200,14.411193115234376,-0.5991384983062744,-1.6726632118225098,0.5795365571975708
1787956244122427400,14.427427490234376,-0.531641960144043,-1.5593934059143066,0.24868397414684296
1787956244138056700,14.443056640625,-0.3961801528930664,-1.4188175201416016,0.11085691303014755
1787956244154379800,14.4593798828125,-0.30405092239379883,-1.3380098342895508,-0.11234774440526962
1787956244170084400,14.47508447265625,-0.3148188591003418,-1.1494255065917969,-0.19556406140327454
1787956244186338300,14.49133837890625,-0.3907644748687744,-0.951045036315918,-0.15669219195842743
1787956244202608000,14.507608154296875,-0.29119181632995605,-0.776087760925293,-0.18466156721115112
1787956244218323200,14.5233232421875,-0.10719966888427734,-0.5431079864501953,-0.24190585315227509
1787956244234496000,14.53949609375,0.2411818504333496,-0.2523622512817383,-0.3629656136035919
1787956244250281200,14.55528125,0.5737454891204834,-0.03539752960205078,-0.5442278981208801
1787956244266770400,14.5717705078125,0.8406648635864258,0.2638740539550781,-0.6642334461212158
1787956244282807600,14.5878076171875,0.9655945301055908,0.5185012817382812,-0.8268401622772217
1787956244298521000,14.60352099609375,0.7812211513519287,0.79425048828125,-0.7789487838745117
1787956244314794200,14.619794189453126,0.4158363342285156,1.0181150436401367,-0.7205462455749512
1787956244330632200,14.635632080078125,0.1636514663696289,1.1130151748657227,-0.5745639801025391
1787956244346656300,14.65165625,0.40611982345581055,1.199284553527832,-0.4717787206172943
1787956244363011600,14.668011474609376,1.0564963817596436,1.2113409042358398,-0.5637064576148987
1787956244378636300,14.68363623046875,1.0019314289093018,1.4450902938842773,-0.8780691027641296
1787956244394857200,14.699857177734375,0.13729310035705566,1.8618574142456055,-0.7302929162979126
1787956244410792700,14.715792724609376,-0.4232909679412842,1.9333181381225586,-0.2308133840560913
1787956244426848000,14.731847900390624,-0.07829856872558594,1.9888019561767578,0.5668301582336426
1787956244443153700,14.748153564453125,1.1186397075653076,1.7939472198486328,1.1058669090270996
1787956244458822700,14.76382275390625,2.173351764678955,1.533677101135254,1.1463401317596436
1787956244475059500,14.7800595703125,2.8634281158447266,1.0102043151855469,0.8215495944023132
1787956244490929200,14.79592919921875,2.822061538696289,0.3917703628540039,0.6193851232528687
1787956244507425300,14.81242529296875,2.149904251098633,-0.21534252166748047,0.47952190041542053
1787956244523487500,14.828487548828125,1.063953161239624,-0.7069377899169922,0.3972013294696808
1787956244539098600,14.8440986328125,-0.06074118614196777,-0.8698644638061523,0.32633769512176514
1787956244555319000,14.860319091796875,-0.899322509765625,-0.800898551940918,0.2584364414215088
1787956244571114000,14.876114013671875,-1.4395979642868042,-0.6340999603271484,0.5834413766860962
1787956244587321600,14.892321533203125,-1.3812352418899536,-0.3829488754272461,0.8474026918411255
1787956244603703600,14.90870361328125,-0.5303161144256592,-0.34869956970214844,0.7272840738296509
1787956244619804000,14.924803955078126,0.8210012912750244,-0.2818565368652344,0.7961740493774414
1787956244635797000,14.940796875,1.800745964050293,-0.45638179779052734,0.9789751172065735
1787956244651444000,14.95644384765625,2.482138156890869,-0.7445249557495117,1.1638903617858887
1787956244667658200,14.972658203125,2.5281646251678467,-0.9695043563842773,1.221838355064392
1787956244683976400,14.9889765625,1.991919994354248,-1.155130386352539,0.843443751335144
1787956244699756500,15.004756591796875,1.160182237625122,-1.2383184432983398,0.34339433908462524
1787956244716071000,15.02107080078125,0.41110944747924805,-1.2462310791015625,-0.05602934956550598
1787956244731961000,15.036961181640624,-0.17126774787902832,-1.3618345260620117,-0.29810822010040283
1787956244748036900,15.053036865234375,-0.4525468349456787,-1.383479118347168,-0.4498337507247925
1787956244764196000,15.069196044921876,-0.787441611289978,-1.287322998046875,-0.44101566076278687
1787956244780052700,15.085052734375,-1.0505167245864868,-1.0754966735839844,-0.410984069108963
1787956244796085500,15.10108544921875,-1.134352445602417,-0.9149904251098633,-0.3084232807159424
1787956244812004400,15.11700439453125,-0.9388399124145508,-0.7769145965576172,-0.35066547989845276
1787956244828269800,15.133269775390625,-0.7251439094543457,-0.6157798767089844,-0.2629337012767792
1787956244844417300,15.149417236328125,-0.404163122177124,-0.5041475296020508,-0.2319560945034027
1787956244860107500,15.165107421875,-0.0814204216003418,-0.40499305725097656,-0.14125469326972961
1787956244876549600,15.181549560546875,0.23699259757995605,-0.33065223693847656,-0.04137304425239563
1787956244892147000,15.19714697265625,0.49910616874694824,-0.2192239761352539,0.03474628925323486
1787956244908327400,15.213327392578124,0.45345449447631836,-0.10148429870605469,0.22335922718048096
1787956244924644400,15.229644287109375,0.15921664237976074,0.06997108459472656,0.3364981412887573
1787956244940290300,15.245290283203126,-0.1380481719970703,0.27407264709472656,0.42474520206451416
1787956244956560100,15.26156005859375,-0.3558807373046875,0.49847412109375,0.2919730842113495
1787956244972324000,15.277323974609375,-0.3323678970336914,0.7111053466796875,0.25471681356430054
1787956244988521000,15.29352099609375,-0.09050559997558594,0.853032112121582,0.23584291338920593
1787956245004779000,15.309779052734376,0.3351736068725586,0.9147872924804688,0.24738165736198425
1787956245020414000,15.3254140625,0.7924082279205322,0.9333524703979492,0.17880699038505554
1787956245036621300,15.341621337890626,0.6188619136810303,1.2581596374511719,0.23457765579223633
1787956245052506600,15.357506591796875,-0.00030517578125,1.522242546081543,0.33035919070243835
1787956245068827400,15.373827392578125,-0.6296710968017578,1.7505035400390625,0.031720519065856934
1787956245084979200,15.389979248046876,-0.36324596405029297,1.8483514785766602,-0.33071696758270264
1787956245100591600,15.405591552734375,0.6898002624511719,1.7544965744018555,-0.9281202554702759
1787956245117028400,15.4220283203125,1.6672937870025635,1.4614248275756836,-1.0959360599517822
1787956245133065500,15.4380654296875,2.1422739028930664,1.0942869186401367,-0.8500722050666809
1787956245149002000,15.454001953125,1.9813604354858398,0.6231327056884766,-0.45496171712875366
1787956245165214000,15.4702138671875,1.561340570449829,0.2806062698364258,-0.5280208587646484
1787956245181281000,15.486281005859375,0.9878787994384766,-0.05288887023925781,-0.6440846920013428
1787956245197120500,15.50212060546875,0.3656599521636963,-0.23650741577148438,-0.5706371665000916
1787956245212936000,15.51793603515625,-0.2895243167877197,-0.2882232666015625,-0.5226771831512451
1787956245229200100,15.5342001953125,-0.49086475372314453,-0.3064584732055664,-0.6711129546165466
1787956245245530000,15.550530029296874,-0.40595531463623047,-0.2952461242675781,-0.8114125728607178
1787956245261607200,15.566607177734374,-0.15688133239746094,-0.3191556930541992,-0.8162441849708557
1787956245277444600,15.582444580078125,0.34250354766845703,-0.3634166717529297,-0.8524433970451355
1787956245293259000,15.598259033203124,0.9486641883850098,-0.4549560546875,-0.7314210534095764
1787956245309433300,15.614433349609374,1.602048397064209,-0.5972585678100586,-0.648969829082489
1787956245325800200,15.63080029296875,1.8847904205322266,-0.7783107757568359,-0.49469631910324097
1787956245341373400,15.64637353515625,1.7741296291351318,-0.9520025253295898,-0.05357784032821655
1787956245357714000,15.6627138671875,1.4224522113800049,-1.1452388763427734,0.5933689475059509
1787956245373865200,15.678865234375,0.9081096649169922,-1.3002080917358398,1.0885705947875977
1787956245389759700,15.694759765625,0.35364580154418945,-1.4379897117614746,1.2359832525253296
1787956245406060300,15.711060302734374,-0.12854743003845215,-1.552457332611084,1.2457774877548218
1787956245422142700,15.727142822265625,-0.5674653053283691,-1.489138126373291,0.983977198600769
1787956245438192400,15.7431923828125,-0.847355842590332,-1.4221019744873047,0.802309513092041
1787956245454050300,15.75905029296875,-0.8382446765899658,-1.2929210662841797,0.5917024612426758
1787956245470037200,15.775037353515625,-0.6188111305236816,-1.0627002716064453,0.44475480914115906
1787956245486304000,15.791303955078124,-0.2880983352661133,-0.8018560409545898,0.5009554624557495
1787956245501994500,15.806994384765625,0.10896730422973633,-0.5493631362915039,0.5380673408508301
1787956245518405400,15.8234052734375,0.4653291702270508,-0.33229827880859375,0.5237254500389099
1787956245533957000,15.83895703125,0.8008120059967041,-0.09100055694580078,0.4385024607181549
1787956245550105900,15.85510595703125,1.2661070823669434,0.10265159606933594,0.2639566659927368
1787956245566390300,15.871390380859374,1.4761579036712646,0.22133159637451172,0.2842673063278198
1787956245582172400,15.88717236328125,1.3541693687438965,0.3417167663574219,0.21651771664619446
1787956245598231800,15.903231689453126,0.8029921054840088,0.41472816467285156,0.2468424141407013
1787956245614042000,15.9190419921875,0.30065441131591797,0.4588451385498047,0.2893821597099304
1787956245630537500,15.935537353515626,0.1970958709716797,0.5032615661621094,0.18966098129749298
1787956245646536200,15.9515361328125,0.4335625171661377,0.4682502746582031,-0.042945705354213715
1787956245662286000,15.9672861328125,0.6225314140319824,0.43543529510498047,-0.176498144865036
1787956245678654200,15.983654296875,0.09760928153991699,0.5289134979248047,-0.26002222299575806
1787956245694646300,15.999646240234375,-0.9444975852966309,0.8668842315673828,-0.42523208260536194
1787956245710469000,16.01546923828125,-1.7142565250396729,1.3833179473876953,-0.7303317785263062
1787956245726786800,16.031786865234373,-1.6899783611297607,1.8247642517089844,-0.7512836456298828
1787956245742437400,16.047437255859375,-0.6423335075378418,1.9151420593261719,-0.48379242420196533
1787956245758767600,16.063767578125,1.1704156398773193,1.7257080078125,0.05268587917089462
1787956245774463200,16.079463134765625,2.800636053085327,1.2546768188476562,0.574748694896698
1787956245790686200,16.095686279296874,3.818572998046875,0.6035804748535156,0.6776605248451233
1787956245807016400,16.112016357421876,3.273054838180542,0.07270050048828125,0.4068929851055145
1787956245822717700,16.1277177734375,1.7960655689239502,-0.27251434326171875,0.21873688697814941
1787956245838978300,16.143978271484375,0.36061739921569824,-0.6624307632446289,0.3276449739933014
1787956245854775800,16.15977587890625,-0.24666309356689453,-0.9569101333618164,0.47339317202568054
1787956245871087000,16.176087158203124,-0.43329739570617676,-1.0912675857543945,0.6584919691085815
1787956245887330800,16.192330810546874,-0.4012889862060547,-1.0547065734863281,0.6520867943763733
1787956245903025700,16.208025634765626,-0.786165714263916,-0.9411201477050781,0.5359846949577332
1787956245919305000,16.224304931640624,-1.1169593334197998,-0.5820083618164062,0.5139017105102539
1787956245935000800,16.240000732421876,-1.047825574874878,-0.37952232360839844,0.6174824833869934
1787956245951511300,16.25651123046875,-0.6018505096435547,-0.043229103088378906,0.6805509924888611
1787956245967494000,16.272493896484374,0.18642854690551758,0.25850486755371094,0.7677493095397949
1787956245983137000,16.288136962890626,1.2679436206817627,0.3818340301513672,1.0443328619003296
1787956245999355400,16.30435546875,2.584009885787964,0.3084583282470703,1.0951533317565918
1787956246015160000,16.32016015625,3.543602466583252,-0.012937545776367188,0.49344637989997864
1787956246031413500,16.33641357421875,3.3847599029541016,-0.34779930114746094,-0.19119799137115479
1787956246047704800,16.352704833984376,2.015960454940796,-0.6591453552246094,-0.8368059396743774
1787956246063471900,16.368471923828125,0.7145054340362549,-0.8431539535522461,-1.0364789962768555
1787956246079743000,16.384742919921877,-0.3156886100769043,-1.055994987487793,-0.9001613855361938
1787956246095376100,16.400376220703127,-0.8680851459503174,-1.0794086456298828,-0.7292290329933167
1787956246111635000,16.416635009765624,-1.2034984827041626,-0.9710969924926758,-0.34025484323501587
1787956246127964400,16.43296435546875,-1.1799157857894897,-0.7713632583618164,0.16283699870109558
1787956246143798800,16.448798828125,-1.015181303024292,-0.6037235260009766,0.5665656924247742
1787956246159860700,16.46486083984375,-0.788494348526001,-0.46857166290283203,0.8046911358833313
1787956246175844600,16.4808447265625,-0.6012089252471924,-0.4914722442626953,0.7650479674339294
1787956246191873500,16.49687353515625,-0.41174960136413574,-0.4203214645385742,0.5430211424827576
1787956246208185900,16.513185791015626,-0.11934423446655273,-0.24782657623291016,0.3448372185230255
1787956246224150300,16.529150390625,0.3101511001586914,0.04428672790527344,0.2703542411327362
1787956246240091100,16.545091064453125,1.0765655040740967,0.30637645721435547,0.030773907899856567
1787956246256324400,16.561324462890624,1.722761631011963,0.37939929962158203,-0.29174041748046875
1787956246272088600,16.577088623046876,1.989177942276001,0.39562034606933594,-0.506292998790741
1787956246288453400,16.593453369140626,1.5874221324920654,0.4080991744995117,-0.6350350975990295
1787956246304067300,16.6090673828125,0.996021032333374,0.3758411407470703,-0.707120954990387
1787956246320326100,16.625326171875,0.5431203842163086,0.2990379333496094,-0.7361285090446472
1787956246336067300,16.6410673828125,0.6085519790649414,0.3268747329711914,-0.6560112237930298
1787956246352256300,16.65725634765625,0.7892143726348877,0.30163002014160156,-0.4831596612930298
1787956246368584700,16.673584716796874,0.8909034729003906,0.18807411193847656,-0.1969406008720398
1787956246384269600,16.68926953125,0.6843135356903076,0.09332656860351562,-0.09928780794143677
1787956246400477700,16.705477783203126,0.16748952865600586,-0.012808799743652344,-0.019997358322143555
1787956246416322600,16.721322509765624,-0.6322605609893799,0.08535385131835938,0.2322150468826294
1787956246432854800,16.737854736328124,-1.2383334636688232,0.24857330322265625,0.4292179346084595
1787956246448924000,16.753923828125,-1.2371453046798706,0.3728618621826172,0.6373439431190491
1787956246464584700,16.769584716796874,-0.6426262855529785,0.5428228378295898,0.7556427121162415
1787956246480752400,16.78575244140625,0.23525190353393555,0.6369571685791016,0.659935712814331
1787956246496504600,16.801504638671876,1.1984760761260986,0.5987510681152344,0.4225867986679077
1787956246513086000,16.8180859375,1.6570696830749512,0.4036712646484375,0.28706979751586914
1787956246529057800,16.834057861328127,1.4278669357299805,0.18595409393310547,0.155096173286438
1787956246544695300,16.8496953125,0.921715497970581,0.00433349609375,0.28823012113571167
1787956246561060900,16.866060791015624,0.5215291976928711,-0.17070484161376953,0.17704784870147705
1787956246576744400,16.881744384765625,0.25137877464294434,-0.3341054916381836,0.029303550720214844
1787956246592969500,16.897969482421875,0.09659814834594727,-0.32221031188964844,0.10975861549377441
1787956246609272000,16.91427197265625,-0.2708919048309326,-0.2007770538330078,0.43807458877563477
1787956246624934700,16.9299345703125,-0.5571613311767578,-0.19707870483398438,0.798687219619751
1787956246641156900,16.946156982421876,-0.5652403831481934,-0.13959693908691406,0.745557963848114
1787956246656969700,16.9619697265625,-0.18973422050476074,-0.10693168640136719,0.42458295822143555
1787956246673122800,16.978122802734376,0.206695556640625,-0.03246307373046875,0.033479928970336914
1787956246689376300,16.994376220703124,0.4257364273071289,-0.03797435760498047,-0.24929744005203247
1787956246705098800,17.0100986328125,0.4464864730834961,-0.09931373596191406,-0.4749617576599121
1787956246721325000,17.026324951171876,0.28090929985046387,-0.1367177963256836,-0.48823773860931396
1787956246737292300,17.042292236328127,-0.019513368606567383,-0.12814617156982422,-0.5267001390457153
1787956246753450000,17.058449951171873,-0.2077336311340332,-0.1654348373413086,-0.4812784194946289
1787956246769655800,17.07465576171875,-0.19562125205993652,-0.14301586151123047,-0.49670130014419556
1787956246785312800,17.090312744140626,-0.08436846733093262,-0.04575824737548828,-0.6100731492042542
1787956246801576200,17.106576171875,0.07146716117858887,0.02399444580078125,-0.5438786149024963
1787956246817399800,17.12239990234375,0.12006807327270508,0.06295967102050781,-0.3170108199119568
1787956246833819000,17.13881884765625,0.10698604583740234,0.09434795379638672,-0.20846068859100342
1787956246849930000,17.154929931640623,0.09330201148986816,0.15586185455322266,-0.022915899753570557
1787956246865641000,17.170640869140627,0.12813067436218262,0.19895553588867188,0.160612553358078
1787956246881874700,17.186874755859375,0.05244159698486328,0.18768024444580078,0.32175976037979126
1787956246897631500,17.202631591796877,-0.00978708267211914,0.21838951110839844,0.4146466851234436
1787956246913981200,17.218981201171875,-0.0890357494354248,0.2184133529663086,0.45302754640579224
1787956246930095400,17.235095458984375,-0.045491695404052734,0.1880054473876953,0.490915983915329
1787956246945752300,17.25075244140625,-0.20482349395751953,0.06897640228271484,0.3780980110168457
1787956246962173200,17.267173095703125,-0.24312543869018555,0.05987834930419922,0.26440149545669556
1787956246977737500,17.282737548828123,-0.2667210102081299,0.019804954528808594,0.11492344737052917
1787956246994130400,17.29913037109375,-0.2890453338623047,0.032105445861816406,0.10364773869514465
1787956247010227500,17.3152275390625,-0.451143741607666,0.04152393341064453,0.14400923252105713
1787956247026328600,17.33132861328125,-0.687349796295166,0.12995433807373047,0.23094168305397034
1787956247042100700,17.347100830078126,-0.7287333011627197,0.21013927459716797,0.3293602764606476
1787956247058057500,17.363057373046875,-0.5729520320892334,0.2764158248901367,0.36535656452178955
1787956247074460400,17.37946044921875,-0.14679312705993652,0.2891530990600586,0.29941463470458984
1787956247090444300,17.3954443359375,0.23156023025512695,0.29526805877685547,0.19386720657348633
1787956247106123300,17.411123291015624,0.27387523651123047,0.2601470947265625,0.08013325929641724
1787956247122558200,17.42755810546875,0.0925588607788086,0.20788002014160156,0.0508747398853302
1787956247138184200,17.44318408203125,-0.15027427673339844,0.20253562927246094,0.10891017317771912
1787956247154412000,17.459412109375,-0.3495488166809082,0.15320205688476562,0.16495908796787262
1787956247170708000,17.4757080078125,-0.5668094158172607,0.1315469741821289,0.22219693660736084
1787956247186368800,17.49136865234375,-0.668776273727417,0.10369300842285156,0.13030484318733215
1787956247202608600,17.507608642578123,-0.4631369113922119,0.09083938598632812,-0.07639318704605103
1787956247218514200,17.52351416015625,-0.1877133846282959,0.044335365295410156,-0.24110209941864014
1787956247234932200,17.53993212890625,-0.06259608268737793,0.052689552307128906,-0.34724369645118713
1787956247250959000,17.555958984375,-0.27837443351745605,0.07721519470214844,-0.5302096009254456
1787956247266732300,17.571732177734376,-0.6365666389465332,0.1293487548828125,-0.8600152730941772
1787956247283054000,17.58805419921875,-0.6634433269500732,0.18957901000976562,-1.3483552932739258
1787956247298658600,17.603658447265627,-0.5610477924346924,0.19356918334960938,-1.7147905826568604
1787956247314849300,17.619849365234376,-0.3147895336151123,0.21490859985351562,-2.0599539279937744
1787956247331202000,17.6362021484375,-0.1905217170715332,0.1486663818359375,-2.337383985519409
1787956247346835700,17.651835693359374,0.03658580780029297,0.044816017150878906,-2.3932249546051025
1787956247363056000,17.66805615234375,0.014471292495727539,-0.0025548934936523438,-2.2022786140441895
1787956247378933800,17.683933837890624,0.2267749309539795,-0.07880783081054688,-2.1582038402557373
1787956247395093000,17.700093017578126,0.5850474834442139,-0.2334003448486328,-1.9756557941436768
1787956247411393500,17.7163935546875,0.9239118099212646,-0.5066061019897461,-1.8359861373901367
1787956247427054300,17.732054443359374,1.2895028591156006,-0.6571540832519531,-1.8091509342193604
1787956247443322600,17.748322509765625,1.5721075534820557,-0.7550573348999023,-1.7659850120544434
1787956247459035600,17.76403564453125,1.6988332271575928,-0.7512235641479492,-1.7779138088226318
1787956247475311900,17.780311767578127,1.5541431903839111,-0.7341585159301758,-1.861680507659912
1787956247491638500,17.796638427734376,1.439540147781372,-0.6172857284545898,-1.9717390537261963
1787956247507209200,17.812209228515623,1.3257687091827393,-0.40590476989746094,-1.9611396789550781
1787956247523413800,17.828413818359376,1.3346421718597412,-0.23162460327148438,-1.8357454538345337
1787956247539318000,17.844318115234376,1.7027373313903809,-0.07139015197753906,-1.7849092483520508
1787956247555489300,17.8604892578125,2.2012619972229004,0.11153221130371094,-1.5690240859985352
1787956247571763700,17.876763671875,2.600477933883667,0.1475820541381836,-1.6842845678329468
1787956247587915500,17.89291552734375,2.974820852279663,0.10488605499267578,-1.8922131061553955
1787956247603659800,17.90865966796875,3.0329246520996094,-0.0020895004272460938,-2.0028886795043945
1787956247619670300,17.924670166015623,2.827713966369629,-0.15672969818115234,-1.7985764741897583
1787956247635753500,17.94075341796875,2.5144901275634766,-0.22910213470458984,-1.3820013999938965
1787956247652028200,17.957028076171873,2.0910544395446777,-0.38962745666503906,-0.915485143661499
1787956247668014600,17.9730146484375,1.8184685707092285,-0.5217609405517578,-0.5817117691040039
1787956247683937300,17.988937255859376,1.6779963970184326,-0.6138439178466797,-0.3212921619415283
1787956247699740700,18.00474072265625,1.5773851871490479,-0.6454963684082031,-0.2734835147857666
1787956247715949600,18.020949462890623,1.3804664611816406,-0.6809282302856445,-0.29964137077331543
1787956247732257300,18.03725732421875,1.5737359523773193,-0.8042402267456055,-0.5422506332397461
1787956247747942000,18.05294189453125,2.110325813293457,-0.8558492660522461,-0.7792778015136719
1787956247764179200,18.06917919921875,2.4069173336029053,-0.9512052536010742,-0.6546385288238525
1787956247780183600,18.08518359375,2.3767645359039307,-0.9622182846069336,-0.493344783782959
1787956247796401000,18.10140087890625,2.1431705951690674,-1.0318126678466797,-0.285671591758728
1787956247812494000,18.117494140625,1.9083209037780762,-0.9942598342895508,-0.01232445240020752
1787956247828306000,18.133305908203123,1.5643432140350342,-0.8787631988525391,0.4543137550354004
1787956247844636400,18.149636474609373,1.014892339706421,-0.7469043731689453,0.8010929822921753
1787956247860206300,18.165206298828124,0.6439487934112549,-0.6154928207397461,0.9509518146514893
1787956247876437800,18.181437744140624,0.8286948204040527,-0.40482425689697266,1.0521950721740723
1787956247892771000,18.19777099609375,1.4552268981933594,-0.3247642517089844,1.3965049982070923
1787956247908484000,18.213484130859374,2.063929796218872,-0.3503580093383789,1.8402280807495117
1787956247924607200,18.229607177734376,2.243898630142212,-0.42270851135253906,2.4501230716705322
1787956247940424200,18.245424072265624,2.008840322494507,-0.5018281936645508,3.3101518154144287
1787956247956635000,18.261634765625,1.5898077487945557,-0.5126581192016602,3.5115363597869873
1787956247972867000,18.2778671875,0.992844820022583,-0.3774738311767578,3.380162239074707
1787956247988537000,18.293537109375,0.6542930603027344,-0.19961166381835938,3.449352502822876
1787956248004805600,18.3098056640625,0.5527522563934326,0.056494712829589844,3.521967887878418
1787956248020626400,18.32562646484375,0.22925996780395508,0.17078590393066406,3.33739972114563
1787956248036843800,18.34184375,-0.031464338302612305,0.4990072250366211,3.049555778503418
1787956248053150700,18.358150634765625,-0.24837565422058105,0.7199935913085938,2.5383119583129883
1787956248068820000,18.373820068359375,-0.06849980354309082,0.7058372497558594,1.8571603298187256
1787956248085083000,18.390082763671874,0.3507356643676758,0.7095766067504883,1.1077181100845337
1787956248101256200,18.406256103515624,1.3737938404083252,0.5112266540527344,0.9511585831642151
1787956248117053400,18.422053466796875,2.341362953186035,0.2620840072631836,0.813352644443512
1787956248133379000,18.438379150390624,2.805074691772461,-0.04606056213378906,0.9438003897666931
1787956248149444600,18.454444580078125,2.518881320953369,-0.17081069946289062,1.1920957565307617
1787956248165299500,18.470299560546874,1.8166635036468506,-0.16448402404785156,1.6638506650924683
1787956248181307100,18.48630712890625,1.1040160655975342,-0.0822458267211914,1.9769318103790283
1787956248197446100,18.502446044921875,0.7443137168884277,-0.09079837799072266,2.313023328781128
1787956248213694700,18.51869482421875,0.5250484943389893,-0.06098365783691406,2.4306421279907227
1787956248229354500,18.5343544921875,0.405348539352417,-0.038933753967285156,2.5986289978027344
1787956248245690000,18.550690185546873,0.5473382472991943,-0.04007148742675781,2.50846529006958
1787956248261369900,18.566369873046874,0.7476358413696289,0.00350189208984375,2.3345022201538086
1787956248277681700,18.582681640625,0.9210748672485352,0.010248184204101562,2.0404129028320312
1787956248293901800,18.59890185546875,1.127394437789917,0.039073944091796875,1.6775363683700562
1787956248309547300,18.61454736328125,1.2631275653839111,0.016900062561035156,1.5309556722640991
1787956248325851100,18.63085107421875,1.385216236114502,-0.010982513427734375,1.3058497905731201
1787956248341664800,18.646664794921875,1.414454698562622,-0.016689300537109375,1.2392319440841675
1787956248357792000,18.6627919921875,1.3716099262237549,-0.013415336608886719,1.30482017993927
1787956248374087700,18.679087646484376,1.1825988292694092,-0.11563491821289062,1.2970707416534424
1787956248389760500,18.694760498046875,0.9934155941009521,-0.15227890014648438,1.2459477186203003
1787956248406217700,18.7112177734375,0.7318832874298096,-0.11699104309082031,1.152226209640503
1787956248421721300,18.726721435546875,0.13947725296020508,-0.06901168823242188,1.0013633966445923
1787956248438027000,18.743027099609375,-0.46386218070983887,0.15211200714111328,0.9965303540229797
1787956248454236700,18.759236572265625,-0.6231768131256104,0.3596982955932617,1.007417917251587
1787956248469872400,18.774872314453123,-0.6032364368438721,0.5607671737670898,0.7150167226791382
1787956248486093800,18.79109375,-0.5076258182525635,0.7638063430786133,0.648301362991333
1787956248501869600,18.80686962890625,-0.3843986988067627,0.9238681793212891,0.35235100984573364
1787956248518122200,18.823122314453126,0.040132999420166016,0.964141845703125,0.1691601276397705
1787956248534349600,18.839349609375,0.5743823051452637,0.9207582473754883,-0.008697152137756348
1787956248550034700,18.85503466796875,1.1697404384613037,0.5443506240844727,0.2486567497253418
1787956248566286800,18.871286865234374,1.170179843902588,0.277435302734375,0.4590648412704468
1787956248582125300,18.887125244140623,0.6310117244720459,0.11466026306152344,0.5843505859375
1787956248598416400,18.90341650390625,-0.24832606315612793,0.04718208312988281,0.5819590091705322
1787956248614734800,18.91973486328125,-0.6993281841278076,-0.10060501098632812,0.4586191177368164
1787956248630345500,18.935345458984376,-1.0766980648040771,-0.06886959075927734,0.4340550899505615
1787956248646709200,18.951709228515625,-0.8694281578063965,-0.0733489990234375,0.534082293510437
1787956248662852600,18.9678525390625,-0.5383782386779785,-0.10936737060546875,0.8051473498344421
1787956248678561800,18.983561767578124,-0.3043797016143799,-0.16851043701171875,0.8275953531265259
1787956248694837500,18.99983740234375,-0.3605821132659912,-0.15543365478515625,0.5482569932937622
1787956248710536000,19.015535888671874,-0.2972884178161621,-0.052519798278808594,0.1211196780204773
1787956248726745300,19.031745361328124,-0.18695664405822754,-0.012345314025878906,-0.36493825912475586
1787956248742574000,19.047573974609374,-0.15723109245300293,-0.007351875305175781,-0.7990624904632568
1787956248759067000,19.06406689453125,-0.18039798736572266,-0.02947998046875,-0.980161190032959
1787956248775128600,19.080128662109374,-0.44204020500183105,-0.008479118347167969,-1.0260069370269775
1787956248790805000,19.095804931640625,-1.0338447093963623,0.029541969299316406,-0.7766667604446411
1787956248806941200,19.111941162109375,-1.7884401082992554,0.05585002899169922,-0.4496781826019287
1787956248822820900,19.12782080078125,-1.9914370775222778,0.09924793243408203,-0.237335205078125
1787956248838953000,19.143952880859374,-1.9413330554962158,0.09079456329345703,-0.010226249694824219
1787956248855287300,19.160287353515624,-1.6095521450042725,0.1497325897216797,0.3297858238220215
1787956248871274000,19.17627392578125,-1.1547436714172363,0.06245231628417969,0.2879573702812195
1787956248887097000,19.19209716796875,-0.743823766708374,-0.008441925048828125,0.16178464889526367
1787956248902988300,19.20798828125,-0.6078145503997803,-0.12264728546142578,-0.039832472801208496
1787956248919435800,19.224435791015626,-0.6405832767486572,-0.19791507720947266,-0.08098101615905762
1787956248935405000,19.240405029296873,-0.8558938503265381,-0.1327381134033203,-0.14180588722229004
1787956248951360800,19.25636083984375,-0.9662842750549316,-0.1692981719970703,-0.06759500503540039
1787956248967282000,19.272281982421877,-1.0113242864608765,-0.15315914154052734,-0.032869696617126465
1787956248983131400,19.28813134765625,-0.9490231275558472,-0.025777816772460938,-0.11813855171203613
1787956248999459600,19.30445947265625,-0.6279036998748779,0.011807441711425781,-0.08186280727386475
1787956249015614500,19.320614501953123,-0.05177664756774902,-0.012754440307617188,-0.15727436542510986
1787956249031288000,19.3362880859375,0.372086763381958,-0.05157184600830078,-0.2924015522003174
1787956249047768800,19.352768798828127,0.7299900054931641,-0.05628681182861328,-0.3699290156364441
1787956249063351800,19.368351806640625,0.4065127372741699,0.04797172546386719,-0.18244796991348267
1787956249079857000,19.38485693359375,-0.23459887504577637,0.30137062072753906,0.19866466522216797
1787956249095872800,19.400872802734376,-0.7206470966339111,0.4485893249511719,0.6325523257255554
1787956249111502000,19.416502197265626,-0.6734964847564697,0.5349597930908203,0.8354018926620483
1787956249127781000,19.432781005859376,-0.14969873428344727,0.5434780120849609,1.086888074874878
1787956249143611600,19.448611572265627,0.674370527267456,0.41288280487060547,1.2058289051055908
1787956249159941000,19.464941162109376,1.4845831394195557,0.24739742279052734,1.2760528326034546
1787956249176196400,19.4811962890625,1.7013568878173828,0.01985645294189453,1.3426587581634521
1787956249191850000,19.49685009765625,1.219597339630127,-0.1005868911743164,1.3574968576431274
1787956249208171500,19.513171630859375,0.2568802833557129,-0.16198444366455078,1.2986130714416504
1787956249224397800,19.529397705078125,-0.5384106636047363,-0.16303634643554688,1.1006062030792236
1787956249240285000,19.545284912109373,-1.0591622591018677,-0.11582660675048828,0.9178017377853394
1787956249256515600,19.561515625,-1.2273695468902588,-0.01852130889892578,0.8608569502830505
1787956249272290000,19.5772900390625,-1.1649665832519531,0.068572998046875,0.7245748043060303
1787956249288387000,19.593386962890627,-0.8426697254180908,0.18456268310546875,0.6691933870315552
1787956249304116700,19.60911669921875,-0.5003063678741455,0.20728588104248047,0.7092247009277344
1787956249320406800,19.62540673828125,-0.24742364883422852,0.25521278381347656,0.7593310475349426
1787956249336643300,19.641643310546876,0.12115979194641113,0.36945343017578125,0.7455272674560547
1787956249352525300,19.657525390625,0.43343257904052734,0.4636659622192383,0.7241712212562561
1787956249368493600,19.67349365234375,0.6092774868011475,0.49268531799316406,0.7485276460647583
1787956249384398000,19.689398193359374,0.6452145576477051,0.5461626052856445,0.6719540953636169
1787956249400647000,19.70564697265625,0.5938193798065186,0.5011110305786133,0.49288642406463623
1787956249416809000,19.72180908203125,0.6234898567199707,0.4696979522705078,0.2942369282245636
1787956249432467500,19.737467529296875,0.522397518157959,0.40361785888671875,0.18051351606845856
1787956249448681700,19.753681640625,0.19949793815612793,0.3021402359008789,0.1835661679506302
1787956249464520200,19.769520263671875,-0.03619885444641113,0.26811981201171875,0.06892098486423492
1787956249481030700,19.78603076171875,0.007886171340942383,0.2093982696533203,-0.06200578808784485
1787956249497034800,19.80203466796875,0.12056636810302734,0.11899471282958984,-0.22701749205589294
1787956249512663600,19.81766357421875,0.03247427940368652,0.13709449768066406,-0.1400628387928009
1787956249528865300,19.833865234375,-0.22392797470092773,0.1459951400756836,-0.10644669830799103
1787956249544731400,19.8497314453125,-0.4177579879760742,0.14933300018310547,-0.07919950038194656
1787956249560929000,19.865928955078125,-0.36905598640441895,0.14373397827148438,-0.02025017701089382
1787956249577246000,19.882245849609376,-0.1847364902496338,0.17997074127197266,-0.036827221512794495
1787956249592904700,19.89790478515625,0.001142740249633789,0.1359415054321289,0.11139818280935287
1787956249609134800,19.914134765625,0.13801884651184082,0.11873531341552734,0.10144348442554474
1787956249624967400,19.929967529296874,0.024736642837524414,0.06949234008789062,0.07360942661762238
1787956249641172500,19.94617236328125,-0.1064293384552002,0.13511180877685547,-0.11643034219741821
1787956249657501200,19.962501220703125,-0.06777429580688477,0.1796398162841797,-0.3963245153427124
