time,seconds_elapsed,z,y,x
1787956229845171500,0.15017138671875,0.021991148591041565,-0.04581489413976669,0.019547687843441963
1787956229860792800,0.165792724609375,0.021991148591041565,-0.04581489413976669,0.019547687843441963
1787956229876975000,0.18197509765625,0.021991148591041565,-0.04581489413976669,0.019547687843441963
1787956229892779000,0.197779052734375,0.021991148591041565,-0.04581489413976669,0.019547687843441963
1787956229909054700,0.2140546875,0.021991148591041565,-0.04581489413976669,0.019547687843441963
1787956229925240300,0.230240234375,0.021991148591041565,-0.04581489413976669,0.019547687843441963
1787956229940934400,0.245934326171875,0.021991148591041565,-0.04581489413976669,0.019547687843441963
1787956229957099300,0.262099365234375,0.0507018156349659,-0.025656340643763542,0.03237585723400116
1787956229972893400,0.2778935546875,0.03787364438176155,-0.015271631069481373,0.04092797264456749
1787956229989157600,0.29415771484375,0.006108652334660292,0.0024434609804302454,0.0354301854968071
1787956230005517600,0.310517578125,-0.01038470957428217,0.007941247895359993,-0.0006108652451075613
1787956230021019000,0.326018798828125,-0.014049900695681572,0.01160643994808197,-0.022602014243602753
1787956230037241300,0.342241455078125,-0.00366519158706069,-0.02932153269648552,-0.003054326167330146
1787956230053011000,0.358010986328125,-0.0006108652451075613,-0.059864792972803116,0.009162978269159794
1787956230069242400,0.374242431640625,0.001832595793530345,-0.045204028487205505,0.012828170321881771
1787956230085821200,0.3908212890625,-0.009162978269159794,-0.027488935738801956,0.01466076634824276
1787956230101386500,0.406386474609375,-0.01710422709584236,-0.015271631069481373,0.01710422709584236
1787956230117408300,0.422408203125,-0.012828170321881771,-0.03787364438176155,0.018936822190880775
1787956230133207800,0.438207763671875,-0.0006108652451075613,-0.06963863968849182,0.025045474991202354
1787956230149375700,0.454375732421875,0.01466076634824276,-0.059864792972803116,0.02626720629632473
1787956230165631700,0.4706318359375,0.016493361443281174,-0.05375614017248154,0.036651913076639175
1787956230181303300,0.48630322265625,0.007941247895359993,-0.0354301854968071,0.03481931984424591
1787956230197505800,0.502505859375,0.001832595793530345,-0.02687807008624077,0.02321287989616394
1787956230213449500,0.518449462890625,-0.006108652334660292,-0.02932153269648552,0.02321287989616394
1787956230229573600,0.53457373046875,-0.01771509274840355,-0.02932153269648552,0.016493361443281174
1787956230245918700,0.550918701171875,-0.01771509274840355,-0.021380282938480377,0.007941247895359993
1787956230261682000,0.566681884765625,-0.012828170321881771,-0.022602014243602753,0.00366519158706069
1787956230277827600,0.58282763671875,-0.015271631069481373,-0.02626720629632473,-0.013439035043120384
1787956230294080300,0.599080322265625,-0.012217304669320583,-0.016493361443281174,-0.04642575979232788
1787956230309864000,0.614864013671875,-0.01466076634824276,-0.025045474991202354,-0.0806342139840126
1787956230326200800,0.631200927734375,-0.013439035043120384,-0.02932153269648552,-0.08246681094169617
1787956230342371300,0.647371337890625,-0.028099801391363144,-0.025656340643763542,-0.022602014243602753
1787956230358199800,0.66319970703125,-0.03787364438176155,-0.016493361443281174,0.036651913076639175
1787956230373823700,0.67882373046875,-0.036651913076639175,-0.009162978269159794,0.03237585723400116
1787956230389962000,0.6949619140625,-0.02932153269648552,-0.028099801391363144,0.0024434609804302454
1787956230406246400,0.711246337890625,-0.019547687843441963,-0.04764748737215996,-0.025045474991202354
1787956230421883600,0.726883544921875,-0.0024434609804302454,-0.06963863968849182,-0.027488935738801956
1787956230438056000,0.743055908203125,-0.005497787147760391,-0.06658431142568588,-0.00855211354792118
1787956230454110200,0.759110107421875,-0.012217304669320583,-0.04948008432984352,0.0006108652451075613
1787956230470172400,0.77517236328125,-0.015882495790719986,-0.0354301854968071,0.012217304669320583
1787956230486383900,0.7913837890625,-0.012217304669320583,-0.04948008432984352,0.030543262138962746
1787956230502074000,0.80707421875,-0.012828170321881771,-0.045204028487205505,0.04459316283464432
1787956230518390300,0.823390380859375,-0.007941247895359993,-0.045204028487205505,0.03237585723400116
1787956230534188000,0.83918798828125,0.003054326167330146,-0.05375614017248154,0.01466076634824276
1787956230550311700,0.855311767578125,0.009162978269159794,-0.06475171446800232,0.01038470957428217
1787956230566615600,0.871615478515625,-0.003054326167330146,-0.06841690838336945,0.025656340643763542
1787956230582238200,0.88723828125,-0.018325956538319588,-0.059864792972803116,0.03481931984424591
1787956230598946800,0.90394677734375,-0.02626720629632473,-0.05253441259264946,0.03237585723400116
1787956230614395100,0.91939501953125,-0.02871066704392433,-0.039706241339445114,0.0354301854968071
1787956230630516000,0.935515869140625,-0.02871066704392433,-0.04459316283464432,0.03237585723400116
1787956230646977000,0.95197705078125,-0.022602014243602753,-0.0507018156349659,0.021380282938480377
1787956230663038000,0.968037841796875,-0.018936822190880775,-0.042760565876960754,0.009162978269159794
1787956230678862800,0.98386279296875,-0.019547687843441963,-0.031154127791523933,0.015882495790719986
1787956230694529800,0.99952978515625,-0.019547687843441963,-0.02382374368607998,0.028099801391363144
1787956230710723800,1.015723876953125,-0.01160643994808197,-0.03237585723400116,0.02687807008624077
1787956230727156700,1.03215673828125,0.0006108652451075613,-0.051312681287527084,0.021380282938480377
1787956230742731000,1.04773095703125,0.006719517521560192,-0.06169738993048668,0.021380282938480377
1787956230758892000,1.06389208984375,0.006719517521560192,-0.07269296050071716,0.015882495790719986
1787956230774746000,1.07974609375,0.0012217304902151227,-0.06719517707824707,0.0012217304902151227
1787956230791228000,1.096227783203125,-0.01038470957428217,-0.060475658625364304,-0.00855211354792118
1787956230807371500,1.11237158203125,-0.021380282938480377,-0.04886921867728233,-0.005497787147760391
1787956230822866400,1.127866455078125,-0.028099801391363144,-0.04214970022439957,0.0006108652451075613
1787956230839103200,1.144103271484375,-0.03298672288656235,-0.036041051149368286,0.009773843921720982
1787956230855419400,1.16041943359375,-0.029932396486401558,-0.0354301854968071,0.006108652334660292
1787956230871387100,1.17638720703125,-0.018325956538319588,-0.03298672288656235,-0.0012217304902151227
1787956230887306500,1.192306396484375,-0.001832595793530345,-0.04153883829712868,0.006108652334660292
1787956230903618300,1.208618408203125,0.0012217304902151227,-0.04642575979232788,0.006719517521560192
1787956230919221200,1.22422119140625,0,-0.036041051149368286,0.005497787147760391
1787956230935097000,1.24009716796875,-0.004886921960860491,-0.03787364438176155,0.00855211354792118
1787956230951312000,1.256311767578125,-0.007941247895359993,-0.03726277872920036,-0.00366519158706069
1787956230967747300,1.272747314453125,-0.0012217304902151227,-0.036651913076639175,-0.02076941914856434
1787956230983216400,1.28821630859375,0.01710422709584236,-0.06291911751031876,-0.018936822190880775
1787956230999478500,1.304478515625,0.0354301854968071,-0.1007927656173706,0.006719517521560192
1787956231015239700,1.32023974609375,0.02687807008624077,-0.08124507963657379,0.02626720629632473
1787956231031339000,1.336339111328125,0.01038470957428217,-0.04581489413976669,0.018325956538319588
1787956231047722500,1.352722412109375,-0.00366519158706069,-0.04398229718208313,0.010995574295520782
1787956231063397400,1.3683974609375,-0.010995574295520782,-0.04398229718208313,0.022602014243602753
1787956231079828000,1.384827880859375,-0.013439035043120384,-0.05009094998240471,0.029932396486401558
1787956231095698000,1.400697998046875,-0.024434609338641167,-0.04948008432984352,0.01466076634824276
1787956231111684400,1.416684326171875,-0.02932153269648552,-0.0403171069920063,-0.0024434609804302454
1787956231127979300,1.432979248046875,-0.02626720629632473,-0.04337143152952194,-0.006108652334660292
1787956231143465700,1.4484658203125,-0.02687807008624077,-0.036651913076639175,0.0024434609804302454
1787956231160073000,1.465072998046875,-0.02015855349600315,-0.03298672288656235,-0.0012217304902151227
1787956231175476000,1.48047607421875,-0.00855211354792118,-0.0354301854968071,0
1787956231191845400,1.496845458984375,0.00427605677396059,-0.04886921867728233,0.012828170321881771
1787956231207997400,1.51299755859375,0.00427605677396059,-0.04703662544488907,0.016493361443281174
1787956231223666200,1.528666259765625,0.00427605677396059,-0.02687807008624077,0.007941247895359993
1787956231240141300,1.545141357421875,0.00855211354792118,-0.033597588539123535,0.01038470957428217
1787956231255659500,1.560659423828125,0.012828170321881771,-0.03420845419168472,0.009162978269159794
1787956231271920400,1.57692041015625,0.01710422709584236,-0.031154127791523933,0.001832595793530345
1787956231288081200,1.5930810546875,0.014049900695681572,-0.04581489413976669,0.00427605677396059
1787956231303874600,1.60887451171875,0.015271631069481373,-0.05497787147760391,0.013439035043120384
1787956231319977700,1.624977783203125,0.016493361443281174,-0.05497787147760391,0.02321287989616394
1787956231335764700,1.6407646484375,0.001832595793530345,-0.03848451003432274,0.022602014243602753
1787956231351986000,1.65698583984375,0.0006108652451075613,-0.03726277872920036,0.016493361443281174
1787956231368291600,1.67329150390625,0.007941247895359993,-0.04398229718208313,0.021380282938480377
1787956231383941400,1.68894140625,0.015271631069481373,-0.045204028487205505,0.030543262138962746
1787956231400195000,1.705195068359375,0.02687807008624077,-0.054367005825042725,0.03420845419168472
1787956231416500700,1.721500732421875,0.027488935738801956,-0.05192354694008827,0.031154127791523933
1787956231432308500,1.73730859375,0.028099801391363144,-0.04764748737215996,0.03237585723400116
1787956231448559000,1.75355908203125,0.029932396486401558,-0.051312681287527084,0.028099801391363144
1787956231464153000,1.769153076171875,0.02871066704392433,-0.0555887371301651,0.027488935738801956
1787956231480810800,1.785810791015625,0.028099801391363144,-0.0507018156349659,0.01160643994808197
1787956231496307700,1.8013076171875,0.018325956538319588,-0.05497787147760391,0.0012217304902151227
1787956231512381400,1.81738134765625,0.029932396486401558,-0.07147123664617538,0.02076941914856434
1787956231528662300,1.833662353515625,0.03481931984424591,-0.07880161702632904,0.045204028487205505
1787956231544237800,1.84923779296875,0.04214970022439957,-0.06902777403593063,0.03298672288656235
1787956231560486400,1.865486328125,0.04092797264456749,-0.08368854224681854,0.018325956538319588
1787956231576288300,1.881288330078125,0.04092797264456749,-0.09834930300712585,0.01710422709584236
1787956231592581400,1.897581298828125,0.030543262138962746,-0.08735372871160507,0.02076941914856434
1787956231608715000,1.913715087890625,0.0012217304902151227,-0.08246681094169617,0.030543262138962746
1787956231624693000,1.92969287109375,-0.012828170321881771,-0.06658431142568588,0.021991148591041565
1787956231640918000,1.94591796875,-0.02382374368607998,-0.05375614017248154,0.001832595793530345
1787956231656705300,1.961705322265625,-0.024434609338641167,-0.07208210229873657,-0.009162978269159794
1787956231673148700,1.978148681640625,-0.01771509274840355,-0.09896016865968704,-0.01771509274840355
1787956231688991700,1.99399169921875,-0.02321287989616394,-0.11301007121801376,-0.01771509274840355
1787956231704756200,2.009756103515625,-0.02687807008624077,-0.11850785464048386,-0.010995574295520782
1787956231721290800,2.026290771484375,-0.024434609338641167,-0.13011430203914642,-0.0006108652451075613
1787956231736658400,2.041658447265625,-0.02321287989616394,-0.15027284622192383,0.00366519158706069
1787956231752855300,2.057855224609375,-0.021991148591041565,-0.14966198801994324,0.013439035043120384
1787956231769146600,2.074146728515625,-0.02382374368607998,-0.13561208546161652,0.022602014243602753
1787956231784681500,2.089681396484375,-0.021380282938480377,-0.14294247329235077,0.02871066704392433
1787956231800853500,2.105853515625,-0.02382374368607998,-0.13988813757896423,0.03298672288656235
1787956231816683800,2.121683837890625,-0.01710422709584236,-0.13988813757896423,0.03420845419168472
1787956231832988700,2.13798876953125,-0.014049900695681572,-0.1362229436635971,0.04153883829712868
1787956231849295600,2.154295654296875,-0.021991148591041565,-0.1362229436635971,0.0354301854968071
1787956231864856600,2.169856689453125,-0.024434609338641167,-0.13011430203914642,0.02382374368607998
1787956231881089500,2.186089599609375,-0.025045474991202354,-0.13255776464939117,0.014049900695681572
1787956231896941000,2.201941162109375,-0.021991148591041565,-0.11545353382825851,0.005497787147760391
1787956231913101600,2.2181015625,-0.009773843921720982,-0.10690141469240189,-0.0006108652451075613
1787956231929617200,2.2346171875,0.006108652334660292,-0.11728613078594208,0.00366519158706069
1787956231945068500,2.250068603515625,0.01160643994808197,-0.12461651116609573,0.007941247895359993
1787956231961268000,2.26626806640625,0.00733038317412138,-0.11911872029304504,-0.0024434609804302454
1787956231977190700,2.282190673828125,-0.02382374368607998,-0.10384709388017654,-0.027488935738801956
1787956231993289000,2.2982890625,-0.048258353024721146,-0.10384709388017654,-0.06414084881544113
1787956232009763300,2.314763427734375,-0.059864792972803116,-0.10934487730264664,-0.09162978827953339
1787956232025248500,2.33024853515625,-0.04459316283464432,-0.13072516024112701,-0.08796459436416626
1787956232041520400,2.346520263671875,-0.0354301854968071,-0.13866640627384186,-0.04337143152952194
1787956232057581000,2.3625810546875,-0.021991148591041565,-0.13377949595451355,0.00733038317412138
1787956232073805800,2.378805908203125,0.006719517521560192,-0.1111774742603302,0.04153883829712868
1787956232089906200,2.39490625,0.02687807008624077,-0.09651670604944229,0.08307767659425735
1787956232105444000,2.410444091796875,0.029932396486401558,-0.09712757170200348,0.09773843735456467
1787956232121658600,2.42665869140625,0.007941247895359993,-0.10934487730264664,0.039706241339445114
1787956232137714000,2.4427138671875,-0.009162978269159794,-0.15882496535778046,-0.04092797264456749
1787956232154012000,2.459011962890625,-0.02626720629632473,-0.1875356286764145,-0.08368854224681854
1787956232170000000,2.474999755859375,-0.03176499158143997,-0.20463985204696655,-0.08124507963657379
1787956232185902000,2.490902099609375,-0.00855211354792118,-0.2223549485206604,-0.04214970022439957
1787956232201878800,2.506878662109375,0.01160643994808197,-0.2577851414680481,-0.01466076634824276
1787956232217949700,2.52294970703125,0.024434609338641167,-0.24923302233219147,-0.021380282938480377
1787956232234381000,2.539381103515625,0.01160643994808197,-0.19853121042251587,-0.06475171446800232
1787956232250269700,2.555269775390625,0.001832595793530345,-0.15577064454555511,-0.1007927656173706
1787956232265985500,2.570985595703125,-0.009773843921720982,-0.13744467496871948,-0.12339477986097336
1787956232282087000,2.5870869140625,-0.005497787147760391,-0.13377949595451355,-0.11545353382825851
1787956232298098400,2.603098388671875,-0.01038470957428217,-0.11423180252313614,-0.09834930300712585
1787956232314097000,2.619096923828125,-0.018325956538319588,-0.09407325088977814,-0.09773843735456467
1787956232330359300,2.635359375,-0.04092797264456749,-0.07391469180583954,-0.12339477986097336
1787956232346107000,2.65110693359375,-0.06352998316287994,-0.08979719132184982,-0.17959438264369965
1787956232362326500,2.667326416015625,-0.06352998316287994,-0.1563815027475357,-0.2474004179239273
1787956232378137900,2.683137939453125,-0.056810468435287476,-0.23579397797584534,-0.2822197377681732
1787956232394177500,2.699177490234375,-0.029932396486401558,-0.28588494658470154,-0.2382374405860901
1787956232410671600,2.715671630859375,-0.02871066704392433,-0.23518311977386475,-0.15027284622192383
1787956232426228200,2.731228271484375,-0.036651913076639175,-0.12095131725072861,-0.021991148591041565
1787956232442428700,2.7474287109375,-0.03481931984424591,-0.03420845419168472,0.06108652427792549
1787956232458276600,2.763276611328125,-0.031154127791523933,0.01710422709584236,0.08857546001672745
1787956232474485500,2.779485595703125,-0.05192354694008827,0.07757988572120667,0.10690141469240189
1787956232490905600,2.795905517578125,-0.10262536257505417,0.17104226350784302,0.152105450630188
1787956232506455600,2.81145556640625,-0.152105450630188,0.2742784917354584,0.20830504596233368
1787956232522660000,2.82766015625,-0.18936823308467865,0.36163222789764404,0.2919935882091522
1787956232538579700,2.843579833984375,-0.192422553896904,0.40133845806121826,0.3805690407752991
1787956232554810600,2.859810546875,-0.15577064454555511,0.4282165467739105,0.44226643443107605
1787956232570984700,2.875984619140625,-0.11789698898792267,0.4386012554168701,0.44776421785354614
1787956232586760700,2.8917607421875,-0.04459316283464432,0.46792277693748474,0.39156460762023926
1787956232602898000,2.90789794921875,0.0708603709936142,0.3830125033855438,0.29626965522766113
1787956232618695400,2.9236953125,0.16737708449363708,0.28588494658470154,0.1966986060142517
1787956232634892000,2.93989208984375,0.26511552929878235,0.20402899384498596,0.10812314599752426
1787956232651324700,2.95632470703125,0.27611109614372253,0.13988813757896423,0.09285151958465576
1787956232667089400,2.97208935546875,0.21991148591041565,0.14477506279945374,0.11239920556545258
1787956232683253200,2.988253173828125,0.07880161702632904,0.2370157092809677,0.13561208546161652
1787956232699172400,3.00417236328125,-0.05497787147760391,0.2987131178379059,0.15271630883216858
1787956232715280100,3.020280029296875,-0.13011430203914642,0.313373863697052,0.152105450630188
1787956232731770400,3.036770263671875,-0.1569923609495163,0.34025195240974426,0.1270599663257599
1787956232747850800,3.052850830078125,-0.13866640627384186,0.3579670190811157,0.06780604273080826
1787956232763841500,3.068841552734375,-0.08368854224681854,0.32070425152778625,-0.013439035043120384
1787956232779393000,3.08439306640625,-0.0354301854968071,0.25595253705978394,-0.09651670604944229
1787956232795982600,3.100982666015625,0.00855211354792118,0.18997909128665924,-0.1612684279680252
1787956232811991800,3.11699169921875,0.05314527451992035,0.1362229436635971,-0.2064724564552307
1787956232827480000,3.13247998046875,0.0861319974064827,0.10873401165008545,-0.2223549485206604
1787956232844134000,3.1491337890625,0.10018189996480942,0.09896016865968704,-0.19914206862449646
1787956232859485700,3.164485595703125,0.08185594528913498,0.07819075137376785,-0.15393804013729095
1787956232875963600,3.180963623046875,0.04581489413976669,0.07757988572120667,-0.1362229436635971
1787956232892072700,3.19707275390625,0.01038470957428217,0.09407325088977814,-0.14477506279945374
1787956232907760600,3.2127607421875,-0.006108652334660292,0.10995574295520782,-0.16737708449363708
1787956232923794400,3.22879443359375,-0.01160643994808197,0.08796459436416626,-0.18020524084568024
1787956232939782400,3.244782470703125,-0.010995574295520782,0.06475171446800232,-0.19608774781227112
1787956232955906300,3.26090625,-0.005497787147760391,0.05619960278272629,-0.22052235901355743
1787956232972067300,3.2770673828125,-0.012828170321881771,0.048258353024721146,-0.22663100063800812
1787956232987777000,3.292777099609375,-0.01160643994808197,0.045204028487205505,-0.23518311977386475
1787956233004504300,3.30950439453125,-0.004886921960860491,0.04764748737215996,-0.25045475363731384
1787956233019981600,3.324981689453125,0.025045474991202354,0.013439035043120384,-0.23640485107898712
1787956233036044800,3.341044921875,0.05375614017248154,-0.05375614017248154,-0.192422553896904
1787956233052565200,3.357565185546875,0.07757988572120667,-0.06658431142568588,-0.14049901068210602
1787956233068041200,3.373041259765625,0.08491026610136032,-0.04337143152952194,-0.10201449692249298
1787956233084760600,3.389760498046875,0.09224065393209457,-0.039095375686883926,-0.06230825558304787
1787956233100192500,3.405192626953125,0.09285151958465576,-0.03420845419168472,-0.0006108652451075613
1787956233116299500,3.421299560546875,0.09651670604944229,-0.039095375686883926,0.07635815441608429
1787956233132625000,3.437625,0.09407325088977814,-0.07819075137376785,0.12767083942890167
1787956233148317000,3.45331689453125,0.0910189226269722,-0.11667526513338089,0.11545353382825851
1787956233164516000,3.46951611328125,0.0555887371301651,-0.20830504596233368,0.04581489413976669
1787956233180602400,3.485602294921875,0.054367005825042725,-0.29077184200286865,-0.018936822190880775
1787956233196482000,3.50148193359375,0.04703662544488907,-0.36224308609962463,-0.03481931984424591
1787956233212741000,3.5177412109375,0.05375614017248154,-0.4251621961593628,0.005497787147760391
1787956233228607200,3.533607177734375,0.05803219974040985,-0.3341432809829712,0.10873401165008545
1787956233244596500,3.549596435546875,0.08552113175392151,-0.35063666105270386,0.15515977144241333
1787956233260532500,3.565532470703125,0.13377949595451355,-0.4948008358478546,0.033597588539123535
1787956233276732700,3.581732666015625,0.04948008432984352,-0.5351179838180542,-0.15577064454555511
1787956233292921600,3.597921630859375,-0.08796459436416626,-0.48319441080093384,-0.251676470041275
1787956233309028900,3.61402880859375,-0.2174680233001709,-0.3988949954509735,-0.21991148591041565
1787956233324760800,3.6297607421875,-0.2474004179239273,-0.34086281061172485,-0.029932396486401558
1787956233340900600,3.645900634765625,-0.20952677726745605,-0.2431243658065796,0.22540926933288574
1787956233356783600,3.66178369140625,-0.1514945775270462,-0.1569923609495163,0.3897320330142975
1787956233373074700,3.67807470703125,-0.04459316283464432,-0.1319468915462494,0.4337143301963806
1787956233388748500,3.69374853515625,0.05803219974040985,-0.22418753802776337,0.36529740691185
1787956233405110800,3.71011083984375,0.10384709388017654,-0.3194825351238251,0.251676470041275
1787956233420917200,3.725917236328125,0.07452555745840073,-0.35246923565864563,0.12217304855585098
1787956233437191000,3.74219091796875,-0.006108652334660292,-0.3536909818649292,0.05314527451992035
1787956233453383700,3.7583837890625,-0.09712757170200348,-0.31642818450927734,0.021991148591041565
1787956233468977000,3.773976806640625,-0.20402899384498596,-0.26022860407829285,-0.005497787147760391
1787956233485149400,3.7901494140625,-0.2993239760398865,-0.17348572611808777,-0.04398229718208313
1787956233501039400,3.806039306640625,-0.35613444447517395,-0.07941248267889023,-0.08796459436416626
1787956233517482000,3.82248193359375,-0.35735616087913513,-0.03848451003432274,-0.10018189996480942
1787956233533532400,3.838532470703125,-0.323147714138031,-0.01160643994808197,-0.06291911751031876
1787956233549270000,3.85427001953125,-0.2681698501110077,-0.013439035043120384,0.004886921960860491
1787956233565954300,3.870954345703125,-0.21563543379306793,-0.016493361443281174,0.04581489413976669
1787956233581371000,3.886370849609375,-0.14049901068210602,-0.06291911751031876,0.04642575979232788
1787956233597486300,3.902486328125,-0.06230825558304787,-0.11789698898792267,0.019547687843441963
1787956233614037800,3.919037841796875,-0.03481931984424591,-0.13805554807186127,-0.012217304669320583
1787956233629566000,3.93456591796875,-0.04764748737215996,-0.16249015927314758,-0.05803219974040985
1787956233645783800,3.95078369140625,-0.06414084881544113,-0.19058994948863983,-0.11728613078594208
1787956233661582800,3.966582763671875,-0.08002334833145142,-0.16554448008537292,-0.16432274878025055
1787956233677695500,3.982695556640625,-0.08979719132184982,-0.11972958594560623,-0.17104226350784302
1787956233693992400,3.998992431640625,-0.1014036312699318,-0.04948008432984352,-0.1368338167667389
1787956233709702100,4.0147021484375,-0.08979719132184982,-0.005497787147760391,-0.07941248267889023
1787956233725923800,4.030923828125,-0.05803219974040985,0.009773843921720982,-0.02932153269648552
1787956233741762300,4.04676220703125,-0.014049900695681572,0,0.03787364438176155
1787956233758041000,4.063041015625,0.00366519158706069,0.04581489413976669,0.09712757170200348
1787956233774347500,4.079347412109375,0.005497787147760391,0.11728613078594208,0.12095131725072861
1787956233790026000,4.09502587890625,0.010995574295520782,0.1508837193250656,0.1062905490398407
1787956233806029300,4.111029296875,0.009162978269159794,0.15943582355976105,0.0757472887635231
1787956233822312700,4.127312744140625,0.001832595793530345,0.15577064454555511,0.05009094998240471
1787956233838163500,4.14316357421875,-0.009773843921720982,0.17592918872833252,0.021380282938480377
1787956233854356700,4.159356689453125,-0.012828170321881771,0.2272418737411499,0.05192354694008827
1787956233870086000,4.1750859375,-0.02015855349600315,0.423329621553421,0.16432274878025055
1787956233886268400,4.191268310546875,0.018325956538319588,0.43127086758613586,0.23579397797584534
1787956233902105600,4.207105712890625,0.1264491081237793,0.3481931984424591,0.13011430203914642
1787956233918238000,4.223238037109375,0.1765400618314743,0.2382374405860901,-0.06108652427792549
1787956233934542000,4.2395419921875,0.24068090319633484,0.09346238523721695,-0.1111774742603302
1787956233950343700,4.25534375,0.28588494658470154,-0.0012217304902151227,-0.04214970022439957
1787956233966914600,4.27191455078125,0.28038713335990906,-0.0012217304902151227,0.08979719132184982
1787956233982337000,4.2873369140625,0.24190263450145721,0.14355333149433136,0.18936823308467865
1787956233998776600,4.303776611328125,0.16859880089759827,0.35552358627319336,0.21991148591041565
1787956234014889700,4.3198896484375,0.1160643994808197,0.46303585171699524,0.13500121235847473
1787956234030499800,4.335499755859375,0.08674286305904388,0.49296826124191284,0.04153883829712868
1787956234046737200,4.351737060546875,0.06841690838336945,0.49724429845809937,-0.05253441259264946
1787956234062547200,4.367547119140625,0.09224065393209457,0.4612032473087311,-0.11423180252313614
1787956234079228200,4.384228271484375,0.1411098688840866,0.3903428912162781,-0.1466076523065567
1787956234095063800,4.400063720703125,0.18631389737129211,0.3396410644054413,-0.15943582355976105
1787956234110644200,4.415644287109375,0.22602014243602753,0.27611109614372253,-0.14844025671482086
1787956234127308500,4.43230859375,0.2321287989616394,0.18936823308467865,-0.1270599663257599
1787956234142696700,4.44769677734375,0.21502456068992615,0.13255776464939117,-0.1264491081237793
1787956234158968000,4.463968017578125,0.1716531366109848,0.1319468915462494,-0.1160643994808197
1787956234175296300,4.480296142578125,0.11362093687057495,0.1569923609495163,-0.07269296050071716
1787956234199010300,4.50401025390625,0.02932153269648552,0.16982053220272064,-0.03726277872920036
1787956234215238700,4.52023876953125,-0.00855211354792118,0.19425514340400696,-0.04337143152952194
1787956234231381000,4.536381103515625,-0.059864792972803116,0.19975294172763824,-0.0708603709936142
1787956234247201300,4.552201171875,-0.09407325088977814,0.19425514340400696,-0.11728613078594208
1787956234262993000,4.567992919921875,-0.10506882518529892,0.18509216606616974,-0.15332718193531036
1787956234279358500,4.5843583984375,-0.09957103431224823,0.16982053220272064,-0.16920967400074005
1787956234295500500,4.60050048828125,-0.06291911751031876,0.1111774742603302,-0.15882496535778046
1787956234311138300,4.61613818359375,-0.01771509274840355,0.06230825558304787,-0.10873401165008545
1787956234327371800,4.632371826171875,0.014049900695681572,0.024434609338641167,-0.045204028487205505
1787956234343329000,4.6483291015625,0.03848451003432274,0.0024434609804302454,0.031154127791523933
1787956234359467300,4.66446728515625,0.051312681287527084,-0.03787364438176155,0.08796459436416626
1787956234375960000,4.6809599609375,0.06658431142568588,-0.06352998316287994,0.1062905490398407
1787956234391302100,4.69630224609375,0.0659734457731247,-0.06169738993048668,0.14477506279945374
1787956234407577300,4.712577392578125,0.04459316283464432,-0.03298672288656235,0.17959438264369965
1787956234423416600,4.72841650390625,0.04092797264456749,-0.06352998316287994,0.16310101747512817
1787956234439678000,4.744677978515625,0.056810468435287476,-0.1569923609495163,0.09957103431224823
1787956234455992000,4.760991943359375,0.0910189226269722,-0.2730567753314972,0.01038470957428217
1787956234471613400,4.776613525390625,0.09285151958465576,-0.3701843321323395,-0.04214970022439957
1787956234488263000,4.793262939453125,0.09040805697441101,-0.38179078698158264,-0.03726277872920036
1787956234503665200,4.8086650390625,0.07757988572120667,-0.3176499307155609,0.03848451003432274
1787956234519812000,4.82481201171875,0.11545353382825851,-0.42088615894317627,0.036651913076639175
1787956234536479000,4.84147900390625,0.13744467496871948,-0.5009095072746277,-0.09224065393209457
1787956234551788000,4.8567880859375,0.006719517521560192,-0.44654250144958496,-0.22663100063800812
1787956234568103200,4.873103271484375,-0.152105450630188,-0.3677408695220947,-0.25106561183929443
1787956234583989800,4.88898974609375,-0.2583959996700287,-0.2938261926174164,-0.17898350954055786
1787956234600134700,4.905134765625,-0.33108896017074585,-0.19058994948863983,-0.00427605677396059
1787956234616599000,4.92159912109375,-0.3127630054950714,-0.09834930300712585,0.1973094791173935
1787956234632224500,4.937224609375,-0.1875356286764145,-0.11484266817569733,0.3078760802745819
1787956234648512800,4.9535126953125,-0.042760565876960754,-0.21380282938480377,0.2883284091949463
1787956234664176600,4.9691767578125,0.08918632566928864,-0.2871066629886627,0.1612684279680252
1787956234680389400,4.985389404296875,0.1062905490398407,-0.2877175211906433,0.03848451003432274
1787956234696882400,5.00188232421875,0.05619960278272629,-0.27488934993743896,-0.02076941914856434
1787956234712444200,5.017444091796875,-0.03481931984424591,-0.2272418737411499,-0.10873401165008545
1787956234728698600,5.03369873046875,-0.13255776464939117,-0.1417207419872284,-0.22296582162380219
1787956234744492000,5.049491943359375,-0.1716531366109848,-0.09407325088977814,-0.304210901260376
1787956234760755000,5.0657548828125,-0.18875735998153687,-0.0507018156349659,-0.33536502718925476
1787956234777202400,5.082202392578125,-0.2028072625398636,0.03787364438176155,-0.2724458873271942
1787956234793275100,5.098275146484375,-0.21502456068992615,0.13500121235847473,-0.16859880089759827
1787956234808883200,5.11388330078125,-0.2070833146572113,0.17592918872833252,-0.08429940044879913
1787956234824696800,5.12969677734375,-0.1814269721508026,0.1319468915462494,-0.03848451003432274
1787956234840870400,5.145870361328125,-0.13927727937698364,0.0403171069920063,-0.04337143152952194
1787956234857246700,5.162246826171875,-0.10567969083786011,-0.0354301854968071,-0.08979719132184982
1787956234872831700,5.177831787109375,-0.06291911751031876,-0.06169738993048668,-0.14233160018920898
1787956234889203200,5.194203125,-0.039095375686883926,-0.05375614017248154,-0.1612684279680252
1787956234904953900,5.209953857421875,-0.0507018156349659,-0.010995574295520782,-0.16798794269561768
1787956234921168000,5.22616796875,-0.07147123664617538,0.06536258012056351,-0.16432274878025055
1787956234937562600,5.242562744140625,-0.08552113175392151,0.14844025671482086,-0.14844025671482086
1787956234953108000,5.25810791015625,-0.08002334833145142,0.18814650177955627,-0.11484266817569733
1787956234969355000,5.27435498046875,-0.04886921867728233,0.18814650177955627,-0.04581489413976669
1787956234993276700,5.298276611328125,0.012828170321881771,0.10873401165008545,0.04214970022439957
1787956235009521200,5.314521240234375,0.033597588539123535,0.06780604273080826,0.08246681094169617
1787956235025354000,5.33035400390625,0,0.0806342139840126,0.12339477986097336
1787956235041558800,5.346558837890625,-0.02076941914856434,0.07696902006864548,0.11301007121801376
1787956235057990700,5.36299072265625,-0.013439035043120384,0.039095375686883926,0.02932153269648552
1787956235073809700,5.3788095703125,0.021991148591041565,-0.03726277872920036,-0.060475658625364304
1787956235089809700,5.3948095703125,0.04642575979232788,-0.0861319974064827,-0.10934487730264664
1787956235105581600,5.41058154296875,0.02932153269648552,-0.012217304669320583,-0.08979719132184982
1787956235121768400,5.4267685546875,-0.031154127791523933,0.21563543379306793,0.039095375686883926
1787956235138228500,5.443228515625,-0.03848451003432274,0.25534167885780334,0.11667526513338089
1787956235153837000,5.458837158203125,-0.036651913076639175,0.2834414839744568,0.010995574295520782
1787956235169883400,5.47488330078125,-0.00427605677396059,0.2889392673969269,-0.17531833052635193
1787956235185920300,5.490920166015625,0.07635815441608429,0.27977627515792847,-0.21624629199504852
1787956235202434800,5.507434814453125,0.13072516024112701,0.3023782968521118,-0.09957103431224823
1787956235218289200,5.5232890625,0.13744467496871948,0.47708576917648315,0.13377949595451355
1787956235234183200,5.53918310546875,0.12400564551353455,0.5723807215690613,0.2791654169559479
1787956235250473000,5.555472900390625,0.1258382350206375,0.6114761233329773,0.25106561183929443
1787956235266044000,5.5710439453125,0.12950342893600464,0.655458390712738,0.14355333149433136
1787956235282302000,5.587302001953125,0.1612684279680252,0.6334672570228577,0.07391469180583954
1787956235298763800,5.603763671875,0.19853121042251587,0.6023131608963013,0.06902777403593063
1787956235314386200,5.61938623046875,0.25106561183929443,0.5723807215690613,0.08246681094169617
1787956235330609400,5.635609375,0.2871066629886627,0.5338962078094482,0.07757988572120667
1787956235346249200,5.651249267578125,0.2981022298336029,0.5070181488990784,0.06414084881544113
1787956235362523600,5.667523681640625,0.3066543638706207,0.4544837474822998,0.05925392732024193
1787956235379008300,5.68400830078125,0.304210901260376,0.37568211555480957,0.05619960278272629
1787956235394612000,5.699612060546875,0.28527405858039856,0.31093040108680725,0.07757988572120667
1787956235411053600,5.716053466796875,0.25106561183929443,0.2773328125476837,0.09834930300712585
1787956235426585600,5.731585693359375,0.20525072515010834,0.26022860407829285,0.07696902006864548
1787956235442760700,5.7477607421875,0.17409659922122955,0.2535090744495392,0.010995574295520782
1787956235459269600,5.76426953125,0.15882496535778046,0.22907446324825287,-0.04153883829712868
1787956235474801000,5.77980078125,0.1514945775270462,0.15271630883216858,-0.08674286305904388
1787956235491001600,5.796001708984375,0.14416420459747314,0.045204028487205505,-0.13316862285137177
1787956235506876700,5.811876708984375,0.12095131725072861,-0.01038470957428217,-0.16920967400074005
1787956235522933000,5.82793310546875,0.0757472887635231,-0.00855211354792118,-0.20586158335208893
1787956235539288300,5.844288330078125,0.031154127791523933,-0.042760565876960754,-0.2370157092809677
1787956235554957800,5.859957763671875,-0.00366519158706069,-0.07941248267889023,-0.22540926933288574
1787956235571171800,5.876171875,-0.012828170321881771,-0.12400564551353455,-0.23273965716362
1787956235586976800,5.891976806640625,-0.02015855349600315,-0.14049901068210602,-0.2767219543457031
1787956235603228200,5.908228271484375,-0.07880161702632904,-0.09285151958465576,-0.26083946228027344
1787956235619698700,5.92469873046875,-0.0708603709936142,-0.016493361443281174,-0.18020524084568024
1787956235635398000,5.94039794921875,-0.036651913076639175,0.03420845419168472,-0.0659734457731247
1787956235651359200,5.956359130859375,0.01038470957428217,0.00427605677396059,0.048258353024721146
1787956235667197400,5.972197509765625,0.03176499158143997,-0.04337143152952194,0.11911872029304504
1787956235683458300,5.988458251953125,0.024434609338641167,-0.036651913076639175,0.11850785464048386
1787956235699956200,6.004956298828125,0.014049900695681572,-0.0910189226269722,0.0555887371301651
1787956235716001800,6.021001708984375,0.04092797264456749,-0.22968533635139465,0.039095375686883926
1787956235731789600,6.03678955078125,0.09712757170200348,-0.25961771607398987,0.14966198801994324
1787956235747423500,6.052423583984375,0.12889257073402405,-0.1820378452539444,0.31031954288482666
1787956235763651300,6.0686513671875,0.18020524084568024,-0.3530801236629486,0.14477506279945374
1787956235779976000,6.084975830078125,0.11362093687057495,-0.46670106053352356,-0.21930062770843506
1787956235795675600,6.100675537109375,-0.12828169763088226,-0.4758640229701996,-0.5277875661849976
1787956235812272400,6.1172724609375,-0.34147366881370544,-0.4178318381309509,-0.5277875661849976
1787956235827901200,6.132901123046875,-0.4355469346046448,-0.3280346393585205,-0.242513507604599
1787956235843839500,6.148839599609375,-0.39706242084503174,-0.23273965716362,0.2125810980796814
1787956235860284000,6.165283935546875,-0.24617868661880493,-0.26939156651496887,0.413555771112442
1787956235876025300,6.181025390625,-0.11239920556545258,-0.2278527319431305,0.2840523421764374
1787956235892079400,6.197079345703125,-0.036651913076639175,-0.17531833052635193,0.09162978827953339
1787956235907907800,6.212907958984375,0.006719517521560192,-0.1820378452539444,-0.04459316283464432
1787956235924256500,6.229256591796875,0.04642575979232788,-0.28955012559890747,-0.1111774742603302
1787956235940516000,6.24551611328125,0.06475171446800232,-0.37568211555480957,-0.12767083942890167
1787956235956102100,6.26110205078125,0.036041051149368286,-0.32681289315223694,-0.11484266817569733
1787956235972850200,6.27785009765625,-0.039706241339445114,-0.18448130786418915,-0.060475658625364304
1787956235988568800,6.29356884765625,-0.14233160018920898,-0.02076941914856434,0.012828170321881771
1787956236004448500,6.309448486328125,-0.24129177629947662,0.10873401165008545,0.039706241339445114
1787956236020921900,6.325921875,-0.3121521472930908,0.1459967941045761,-0.015271631069481373
1787956236036359200,6.341359130859375,-0.2974913716316223,0.07635815441608429,-0.08918632566928864
1787956236052654000,6.357654052734375,-0.2541199326515198,-0.027488935738801956,-0.11545353382825851
1787956236068366600,6.37336669921875,-0.1661553531885147,-0.14049901068210602,-0.09773843735456467
1787956236084639500,6.389639404296875,-0.1007927656173706,-0.2125810980796814,-0.07269296050071716
1787956236100983000,6.405983154296875,-0.05803219974040985,-0.24007004499435425,-0.07757988572120667
1787956236116694500,6.421694580078125,-0.03787364438176155,-0.251676470041275,-0.10201449692249298
1787956236133022200,6.438022216796875,-0.022602014243602753,-0.24556782841682434,-0.11850785464048386
1787956236148844000,6.453843994140625,-0.02015855349600315,-0.20891591906547546,-0.11362093687057495
1787956236164763100,6.46976318359375,-0.0354301854968071,-0.1612684279680252,-0.08796459436416626
1787956236181072000,6.48607177734375,-0.02932153269648552,-0.10201449692249298,-0.03176499158143997
1787956236197125400,6.50212548828125,-0.01771509274840355,-0.03787364438176155,0.03237585723400116
1787956236213029600,6.518029541015625,0.00855211354792118,0.039706241339445114,0.12339477986097336
1787956236228760800,6.5337607421875,0.027488935738801956,0.1111774742603302,0.21013765037059784
1787956236245113000,6.550113037109375,0.04153883829712868,0.1472185254096985,0.24923302233219147
1787956236261376300,6.566376220703125,0.048258353024721146,0.15821409225463867,0.21441370248794556
1787956236277531600,6.58253173828125,0.05925392732024193,0.09773843735456467,0.1313360333442688
1787956236293248000,6.598248046875,0.07024950534105301,0.027488935738801956,0.02626720629632473
1787956236308908500,6.613908447265625,0.05497787147760391,0.014049900695681572,-0.025656340643763542
1787956236325189400,6.630189453125,-0.02932153269648552,0.23029619455337524,0.06658431142568588
1787956236341516000,6.64651611328125,-0.13866640627384186,0.3891211748123169,0.24434609711170197
1787956236357245700,6.66224560546875,-0.12095131725072861,0.3591887652873993,0.18020524084568024
1787956236373493500,6.678493408203125,-0.04092797264456749,0.30543261766433716,-0.06658431142568588
1787956236389313300,6.694313232421875,0.08246681094169617,0.2669481039047241,-0.20830504596233368
1787956236405585700,6.710585693359375,0.21624629199504852,0.26022860407829285,-0.15454891324043274
1787956236421969200,6.72696923828125,0.2785545587539673,0.3549126982688904,0.029932396486401558
1787956236437660000,6.742659912109375,0.2583959996700287,0.543059229850769,0.29077184200286865
1787956236454273000,6.75927294921875,0.22968533635139465,0.5632177591323853,0.3836233615875244
1787956236469652200,6.77465234375,0.1966986060142517,0.5174028873443604,0.2822197377681732
1787956236485876500,6.79087646484375,0.13011430203914642,0.485027015209198,0.10445795953273773
1787956236502382000,6.807382080078125,0.07024950534105301,0.45875978469848633,-0.028099801391363144
1787956236517933000,6.82293310546875,0.04764748737215996,0.40683624148368835,-0.08979719132184982
1787956236534567400,6.8395673828125,0.04642575979232788,0.3445279896259308,-0.11850785464048386
1787956236549968000,6.8549677734375,0.0757472887635231,0.3280346393585205,-0.11056660860776901
1787956236566188300,6.871188232421875,0.14233160018920898,0.2926044464111328,-0.07513642311096191
1787956236582525000,6.88752490234375,0.21319197118282318,0.2174680233001709,-0.029932396486401558
1787956236598093300,6.90309326171875,0.2767219543457031,0.11423180252313614,0.02076941914856434
1787956236614318600,6.919318603515625,0.303600013256073,0.010995574295520782,0.06475171446800232
1787956236630348500,6.9353486328125,0.28588494658470154,-0.028099801391363144,0.09407325088977814
1787956236646373000,6.951373046875,0.21624629199504852,-0.00366519158706069,0.11484266817569733
1787956236662643700,6.967643798828125,0.12767083942890167,0.06291911751031876,0.11789698898792267
1787956236678360000,6.983360107421875,0.06352998316287994,0.11178833991289139,0.08307767659425735
1787956236694926000,6.999926025390625,0.025045474991202354,0.12461651116609573,0.039706241339445114
1787956236710385700,7.0153857421875,0.036041051149368286,0.06108652427792549,0.003054326167330146
1787956236726517800,7.031517822265625,0.05925392732024193,-0.00855211354792118,-0.0403171069920063
1787956236743007500,7.048007568359375,0.06963863968849182,-0.059864792972803116,-0.09468411654233932
1787956236758654700,7.06365478515625,0.06902777403593063,-0.0861319974064827,-0.11972958594560623
1787956236774831900,7.079831787109375,0.03298672288656235,-0.09407325088977814,-0.09407325088977814
1787956236791154200,7.096154296875,-0.003054326167330146,-0.1007927656173706,-0.05192354694008827
1787956236806840800,7.1118408203125,-0.04214970022439957,-0.1362229436635971,-0.04092797264456749
1787956236823173400,7.12817333984375,-0.07208210229873657,-0.12095131725072861,-0.0555887371301651
1787956236838902000,7.143902099609375,-0.07635815441608429,-0.1007927656173706,-0.06352998316287994
1787956236854992100,7.1599921875,-0.02687807008624077,-0.1362229436635971,-0.04092797264456749
1787956236870849800,7.175849853515625,0.04153883829712868,-0.22052235901355743,0.02076941914856434
1787956236886973400,7.191973388671875,0.07941248267889023,-0.3029891550540924,0.08307767659425735
1787956236903171600,7.208171630859375,0.08002334833145142,-0.38667771220207214,0.07941248267889023
1787956236918923500,7.223923583984375,0.03176499158143997,-0.3995058834552765,0.006108652334660292
1787956236935267000,7.24026708984375,-0.022602014243602753,-0.27061331272125244,-0.02321287989616394
1787956236959032600,7.264032470703125,-0.01466076634824276,-0.2987131178379059,-0.09529497474431992
1787956236975289900,7.280289794921875,0.006108652334660292,-0.37751471996307373,-0.28527405858039856
1787956236991030500,7.296030517578125,-0.06780604273080826,-0.3543018400669098,-0.41661009192466736
1787956237007301000,7.312301025390625,-0.16982053220272064,-0.2828305959701538,-0.32009339332580566
1787956237023720700,7.328720703125,-0.23090706765651703,-0.2626720666885376,-0.10873401165008545
1787956237039264800,7.3442646484375,-0.22540926933288574,-0.23640485107898712,0.17898350954055786
1787956237055428900,7.360428955078125,-0.17043140530586243,-0.20036379992961884,0.37079519033432007
1787956237071354400,7.376354248046875,-0.09162978827953339,-0.21624629199504852,0.39584067463874817
1787956237087971600,7.3929716796875,0.02382374368607998,-0.25595253705978394,0.28588494658470154
1787956237103985400,7.4089853515625,0.11667526513338089,-0.31093040108680725,0.15515977144241333
1787956237119360800,7.42436083984375,0.1716531366109848,-0.38117989897727966,0.10384709388017654
1787956237135705900,7.440705810546875,0.1765400618314743,-0.475253164768219,0.09224065393209457
1787956237151455500,7.45645556640625,0.09468411654233932,-0.5064072608947754,0.051312681287527084
1787956237167844900,7.472844970703125,-0.056810468435287476,-0.44104471802711487,-0.033597588539123535
1787956237184157200,7.4891572265625,-0.20586158335208893,-0.33597588539123535,-0.13011430203914642
1787956237200177400,7.505177490234375,-0.37140607833862305,-0.192422553896904,-0.21868975460529327
1787956237215916500,7.52091650390625,-0.4948008358478546,-0.04948008432984352,-0.2565633952617645
1787956237231760600,7.5367607421875,-0.5448917746543884,0.060475658625364304,-0.24923302233219147
1787956237247980800,7.552980712890625,-0.5204572081565857,0.09529497474431992,-0.20463985204696655
1787956237264272000,7.56927197265625,-0.4202753007411957,0.039095375686883926,-0.1368338167667389
1787956237280008400,7.585008544921875,-0.3084869384765625,-0.033597588539123535,-0.08002334833145142
1787956237296717600,7.601717529296875,-0.17470745742321014,-0.11423180252313614,-0.028099801391363144
1787956237312291000,7.617291015625,-0.04581489413976669,-0.18509216606616974,0.0012217304902151227
1787956237328338700,7.633338623046875,0.04337143152952194,-0.23884831368923187,0.0012217304902151227
1787956237344637200,7.64963720703125,0.05925392732024193,-0.2382374405860901,-0.015882495790719986
1787956237360534800,7.66553466796875,0.033597588539123535,-0.1722639948129654,-0.06963863968849182
1787956237376499700,7.681499755859375,-0.012217304669320583,-0.09896016865968704,-0.13316862285137177
1787956237392345300,7.697345458984375,-0.039095375686883926,-0.05009094998240471,-0.15332718193531036
1787956237408616700,7.71361669921875,-0.059864792972803116,-0.001832595793530345,-0.08857546001672745
1787956237424896300,7.729896240234375,-0.0959058403968811,0.03176499158143997,0.054367005825042725
1787956237440406300,7.74540625,-0.12461651116609573,0.042760565876960754,0.1472185254096985
1787956237456692500,7.7616923828125,-0.14294247329235077,0.05742133408784866,0.1820378452539444
1787956237472492800,7.777492919921875,-0.14782938361167908,0.10934487730264664,0.1820378452539444
1787956237488739000,7.793739013671875,-0.09529497474431992,0.13744467496871948,0.18081611394882202
1787956237505172000,7.810171875,-0.018325956538319588,0.16798794269561768,0.2125810980796814
1787956237520626200,7.825626220703125,0.06658431142568588,0.23273965716362,0.28955012559890747
1787956237536912600,7.84191259765625,0.13500121235847473,0.25473082065582275,0.3219259977340698
1787956237552791800,7.857791748046875,0.16798794269561768,0.304210901260376,0.33597588539123535
1787956237568902000,7.87390185546875,0.12095131725072861,0.3781255781650543,0.3640756905078888
1787956237585225700,7.890225830078125,0.09529497474431992,0.30054569244384766,0.2816088795661926
1787956237601133000,7.906133056640625,0.09773843735456467,0.22113321721553802,0.08796459436416626
1787956237617150000,7.92214990234375,0.06902777403593063,0.2028072625398636,-0.15454891324043274
1787956237632937200,7.937937255859375,0.05375614017248154,0.30604347586631775,-0.3078760802745819
1787956237649146600,7.954146728515625,0.04459316283464432,0.4153883755207062,-0.3017674386501312
1787956237665506300,7.97050634765625,0.033597588539123535,0.5051855444908142,-0.11667526513338089
1787956237681187300,7.986187255859375,0.00855211354792118,0.5564982295036316,0.15332718193531036
1787956237697379600,8.002379638671876,-0.005497787147760391,0.6145304441452026,0.31459560990333557
1787956237713294000,8.018294189453124,-0.021380282938480377,0.6805039048194885,0.31031954288482666
1787956237729510400,8.034510498046876,-0.014049900695681572,0.7086036801338196,0.19364428520202637
1787956237745672200,8.050672119140625,0.060475658625364304,0.6298020482063293,0.039706241339445114
1787956237761924400,8.06692431640625,0.15454891324043274,0.5607742667198181,-0.04948008432984352
1787956237777746700,8.08274658203125,0.2834414839744568,0.4703662395477295,-0.07757988572120667
1787956237793445000,8.098445068359375,0.42638394236564636,0.3439171314239502,-0.05864306539297104
1787956237809670700,8.114670654296875,0.5418374538421631,0.19547687470912933,-0.03787364438176155
1787956237826079700,8.131079833984375,0.6224716901779175,-0.009162978269159794,-0.015271631069481373
1787956237841533700,8.14653369140625,0.6102544069290161,-0.16371189057826996,0
1787956237857917000,8.1629169921875,0.49357911944389343,-0.19425514340400696,0.01466076634824276
1787956237873808400,8.178808349609374,0.3323107063770294,-0.0910189226269722,0.02382374368607998
1787956237889900800,8.19490087890625,0.12217304855585098,0.04764748737215996,0.01771509274840355
1787956237906131500,8.21113134765625,-0.02687807008624077,0.12400564551353455,-0.0006108652451075613
1787956237921786000,8.2267861328125,-0.10567969083786011,0.1417207419872284,-0.03726277872920036
1787956237938095900,8.243095947265624,-0.13316862285137177,0.1472185254096985,-0.07452555745840073
1787956237954175500,8.259175537109375,-0.09224065393209457,0.13377949595451355,-0.09773843735456467
1787956237970053000,8.27505322265625,-0.02321287989616394,0.09040805697441101,-0.08796459436416626
1787956237986337500,8.291337646484376,0.06658431142568588,0.01771509274840355,-0.05009094998240471
1787956238001943600,8.306943603515625,0.14233160018920898,-0.056810468435287476,-0.02015855349600315
1787956238018661000,8.3236611328125,0.1771509200334549,-0.10934487730264664,-0.015271631069481373
1787956238034012000,8.339011962890625,0.1869247704744339,-0.13316862285137177,-0.02687807008624077
1787956238050205000,8.355204833984375,0.16737708449363708,-0.14355333149433136,-0.01710422709584236
1787956238066475800,8.371475830078126,0.13072516024112701,-0.13316862285137177,0.019547687843441963
1787956238082116400,8.387116455078125,0.06230825558304787,-0.07819075137376785,0.05864306539297104
1787956238098506200,8.40350634765625,0.012217304669320583,-0.06169738993048668,0.06475171446800232
1787956238114279000,8.41927880859375,-0.019547687843441963,-0.07635815441608429,0.05864306539297104
1787956238130370000,8.4353701171875,-0.03481931984424591,-0.13500121235847473,0.06902777403593063
1787956238146690300,8.451690185546875,-0.03726277872920036,-0.20036379992961884,0.054367005825042725
1787956238162426600,8.467426513671874,-0.02687807008624077,-0.2620611786842346,0.0024434609804302454
1787956238178653400,8.4836533203125,-0.031154127791523933,-0.3017674386501312,-0.022602014243602753
1787956238194354400,8.4993544921875,-0.05314527451992035,-0.2675589919090271,-0.00733038317412138
1787956238211069200,8.516069091796876,-0.07269296050071716,-0.23945917189121246,0.00855211354792118
1787956238226848000,8.531847900390625,-0.029932396486401558,-0.3390302062034607,-0.10323622822761536
1787956238242720500,8.547720458984376,-0.03298672288656235,-0.42699480056762695,-0.3182607889175415
1787956238258818800,8.56381884765625,-0.10934487730264664,-0.47708576917648315,-0.48808133602142334
1787956238275138000,8.580137939453126,-0.19364428520202637,-0.46242499351501465,-0.5296201705932617
1787956238290995700,8.59599560546875,-0.25473082065582275,-0.4050036668777466,-0.4331034719944
1787956238307278300,8.6122783203125,-0.29993483424186707,-0.30604347586631775,-0.19792033731937408
1787956238322878500,8.62787841796875,-0.29993483424186707,-0.2028072625398636,0.00733038317412138
1787956238339494400,8.644494384765625,-0.2730567753314972,-0.1569923609495163,0.08429940044879913
1787956238355024000,8.66002392578125,-0.2217440903186798,-0.10812314599752426,0.14233160018920898
1787956238371332000,8.67633203125,-0.15454891324043274,-0.10384709388017654,0.17409659922122955
1787956238387688400,8.6926884765625,-0.07941248267889023,-0.1417207419872284,0.16065755486488342
1787956238403094800,8.7080947265625,0.007941247895359993,-0.23151792585849762,0.09407325088977814
1787956238419350000,8.72435009765625,0.0806342139840126,-0.38728857040405273,0.00366519158706069
1787956238435165400,8.74016552734375,0.09285151958465576,-0.4764748811721802,-0.05375614017248154
1787956238451502600,8.756502685546875,0.06658431142568588,-0.5326744914054871,-0.09957103431224823
1787956238467726600,8.7727265625,0.028099801391363144,-0.5381723046302795,-0.16004669666290283
1787956238483316000,8.78831591796875,-0.042760565876960754,-0.4642575979232788,-0.18081611394882202
1787956238499770400,8.804770263671875,-0.11056660860776901,-0.3591887652873993,-0.1459967941045761
1787956238515472000,8.820471923828125,-0.17287486791610718,-0.26572638750076294,-0.06780604273080826
1787956238531699700,8.83669970703125,-0.2028072625398636,-0.21441370248794556,-0.029932396486401558
1787956238548028200,8.853028076171874,-0.20402899384498596,-0.20586158335208893,-0.04948008432984352
1787956238563733200,8.868733154296875,-0.192422553896904,-0.21380282938480377,-0.10201449692249298
1787956238580385000,8.885385009765624,-0.1722639948129654,-0.26450464129447937,-0.1368338167667389
1787956238595787500,8.90078759765625,-0.1667662113904953,-0.3072652220726013,-0.16004669666290283
1787956238612030200,8.9170302734375,-0.16249015927314758,-0.3445279896259308,-0.18936823308467865
1787956238628444200,8.933444091796876,-0.18570303916931152,-0.375071257352829,-0.23457226157188416
1787956238643868400,8.948868408203126,-0.22663100063800812,-0.3433062732219696,-0.26572638750076294
1787956238660145700,8.965145751953125,-0.27122417092323303,-0.26145032048225403,-0.2742784917354584
1787956238675949800,8.98094970703125,-0.31581732630729675,-0.15454891324043274,-0.26511552929878235
1787956238692261600,8.99726171875,-0.3219259977340698,-0.08674286305904388,-0.22052235901355743
1787956238708546000,9.013546142578125,-0.3121521472930908,-0.042760565876960754,-0.1508837193250656
1787956238724324000,9.029323974609374,-0.2889392673969269,-0.00427605677396059,-0.06902777403593063
1787956238740438800,9.045438720703125,-0.26022860407829285,0.04398229718208313,0.004886921960860491
1787956238756368600,9.06136865234375,-0.22968533635139465,0.08735372871160507,0.06352998316287994
1787956238772723000,9.077722900390626,-0.18509216606616974,0.1368338167667389,0.1319468915462494
1787956238788750300,9.093750244140624,-0.15760323405265808,0.18387043476104736,0.2028072625398636
1787956238804690400,9.1096904296875,-0.14294247329235077,0.2321287989616394,0.24617868661880493
1787956238820652000,9.125652099609376,-0.1319468915462494,0.26022860407829285,0.25595253705978394
1787956238836940000,9.14193994140625,-0.11362093687057495,0.27000242471694946,0.2528982162475586
1787956238852702700,9.15770263671875,-0.09834930300712585,0.28955012559890747,0.26083946228027344
1787956238868786700,9.17378662109375,-0.10873401165008545,0.3286454975605011,0.2987131178379059
1787956238884498000,9.189497802734374,-0.14355333149433136,0.3885102868080139,0.34697145223617554
1787956238900933600,9.20593359375,-0.18631389737129211,0.4178318381309509,0.32986724376678467
1787956238916539400,9.221539306640626,-0.20891591906547546,0.42577308416366577,0.21563543379306793
1787956238932813600,9.2378134765625,-0.2125810980796814,0.4001167416572571,0.051312681287527084
1787956238949148400,9.2541484375,-0.1973094791173935,0.3243694305419922,-0.059864792972803116
1787956238964659200,9.2696591796875,-0.13561208546161652,0.21502456068992615,-0.09040805697441101
1787956238980931800,9.285931884765626,-0.05253441259264946,0.10201449692249298,-0.06719517707824707
1787956238996737800,9.30173779296875,0.006108652334660292,0.06108652427792549,-0.009773843921720982
1787956239012978400,9.317978515625,0.004886921960860491,0.08796459436416626,0.0555887371301651
1787956239029208600,9.33420849609375,-0.018325956538319588,0.1319468915462494,0.0757472887635231
1787956239044854000,9.34985400390625,-0.02382374368607998,0.13927727937698364,0.1014036312699318
1787956239061444600,9.366444580078126,-0.018325956538319588,0.09040805697441101,0.16737708449363708
1787956239077169700,9.382169677734375,0.007941247895359993,0.05375614017248154,0.23579397797584534
1787956239093638000,9.398637939453126,0.02932153269648552,0.05925392732024193,0.29077184200286865
1787956239109443600,9.414443603515625,0.04459316283464432,0.09285151958465576,0.31093040108680725
1787956239125032200,9.4300322265625,0.06414084881544113,0.12034045159816742,0.3170390725135803
1787956239141343200,9.44634326171875,0.08552113175392151,0.1472185254096985,0.32559117674827576
1787956239157196500,9.462196533203125,0.1215621829032898,0.1661553531885147,0.31581732630729675
1787956239173464600,9.478464599609374,0.1869247704744339,0.1411098688840866,0.2577851414680481
1787956239189649400,9.4946494140625,0.24068090319633484,0.0910189226269722,0.1661553531885147
1787956239205339600,9.510339599609376,0.3017674386501312,0.010995574295520782,0.02871066704392433
1787956239221563000,9.52656298828125,0.33536502718925476,-0.05925392732024193,-0.08918632566928864
1787956239237399800,9.54239990234375,0.3396410644054413,-0.07147123664617538,-0.13377949595451355
1787956239253826300,9.558826416015625,0.3225368559360504,-0.05864306539297104,-0.13805554807186127
1787956239270064000,9.575064208984376,0.28527405858039856,-0.029932396486401558,-0.08674286305904388
1787956239285869800,9.590869873046875,0.23518311977386475,0.009162978269159794,0.003054326167330146
1787956239301936400,9.606936279296875,0.15393804013729095,0.054367005825042725,0.07452555745840073
1787956239317832400,9.62283251953125,0.07757988572120667,0.07757988572120667,0.048258353024721146
1787956239334445600,9.639445556640625,0.02871066704392433,0.07880161702632904,-0.03298672288656235
1787956239350513700,9.655513671875,0.003054326167330146,0.0555887371301651,-0.08368854224681854
1787956239365973200,9.67097314453125,-0.014049900695681572,0.00855211354792118,-0.10262536257505417
1787956239382393600,9.6873935546875,-0.018936822190880775,-0.02687807008624077,-0.1258382350206375
1787956239398067200,9.703067138671875,-0.014049900695681572,-0.045204028487205505,-0.1569923609495163
1787956239414652700,9.719652587890625,0.010995574295520782,-0.05864306539297104,-0.18020524084568024
1787956239430515700,9.735515625,0.036041051149368286,-0.07635815441608429,-0.15577064454555511
1787956239446265000,9.75126513671875,0.06963863968849182,-0.09285151958465576,-0.10934487730264664
1787956239462387700,9.7673876953125,0.10995574295520782,-0.1215621829032898,-0.06291911751031876
1787956239478239000,9.783239013671874,0.1459967941045761,-0.12767083942890167,-0.006719517521560192
1787956239494424600,9.799424560546875,0.15393804013729095,-0.12278391420841217,0.06230825558304787
1787956239510910500,9.815910400390624,0.13377949595451355,-0.11911872029304504,0.14538592100143433
1787956239526367200,9.8313671875,0.09712757170200348,-0.13927727937698364,0.182648703455925
1787956239542619400,9.847619384765625,0.021380282938480377,-0.16737708449363708,0.17837265133857727
1787956239558701800,9.863701904296875,-0.03726277872920036,-0.17898350954055786,0.13805554807186127
1787956239574680600,9.8796806640625,-0.08246681094169617,-0.19608774781227112,0.08368854224681854
1787956239591064800,9.89606494140625,-0.08918632566928864,-0.24007004499435425,0.04642575979232788
1787956239606638800,9.911638916015624,-0.07391469180583954,-0.28649580478668213,0.03787364438176155
1787956239622807300,9.927807373046875,-0.05864306539297104,-0.2974913716316223,0.051312681287527084
1787956239638607000,9.943607177734375,-0.05497787147760391,-0.27611109614372253,0.06719517707824707
1787956239655303400,9.960303466796875,-0.06414084881544113,-0.2779437005519867,0.04764748737215996
1787956239671065600,9.976065673828124,-0.0757472887635231,-0.30970868468284607,-0.00733038317412138
1787956239686822400,9.991822509765624,-0.08918632566928864,-0.3378084897994995,-0.06352998316287994
1787956239703202800,10.008202880859375,-0.10018189996480942,-0.36590829491615295,-0.10201449692249298
1787956239719153700,10.024153564453124,-0.10995574295520782,-0.375071257352829,-0.10323622822761536
1787956239735137800,10.0401376953125,-0.1411098688840866,-0.3628539443016052,-0.07147123664617538
1787956239751701000,10.056700927734376,-0.1618792861700058,-0.35613444447517395,-0.00733038317412138
1787956239767123500,10.07212353515625,-0.17104226350784302,-0.35185837745666504,0.042760565876960754
1787956239783471900,10.088471923828125,-0.15515977144241333,-0.37201693654060364,0.08429940044879913
1787956239799235300,10.1042353515625,-0.1258382350206375,-0.43249258399009705,0.11178833991289139
1787956239815407000,10.120406982421875,-0.11545353382825851,-0.4862487316131592,0.13072516024112701
1787956239831741400,10.136741455078125,-0.1160643994808197,-0.5357288122177124,0.12828169763088226
1787956239847261200,10.15226123046875,-0.11850785464048386,-0.5992587804794312,0.06658431142568588
1787956239863614000,10.168614013671874,-0.10384709388017654,-0.6615670323371887,0
1787956239879838200,10.184838134765625,-0.07757988572120667,-0.7507534027099609,-0.03237585723400116
1787956239895742700,10.20074267578125,-0.05864306539297104,-0.8790351152420044,-0.015271631069481373
1787956239911996700,10.21699658203125,-0.056810468435287476,-1.0103710889816284,-0.01466076634824276
1787956239927703600,10.23270361328125,-0.07757988572120667,-1.0867292881011963,-0.04337143152952194
1787956239943626000,10.2486259765625,-0.11239920556545258,-1.1563678979873657,-0.07452555745840073
1787956239959480300,10.264480224609375,-0.14966198801994324,-1.263269305229187,-0.06780604273080826
1787956239975870500,10.280870361328125,-0.18814650177955627,-1.3518447875976562,-0.03848451003432274
1787956239991865600,10.296865478515626,-0.242513507604599,-1.4288138151168823,-0.030543262138962746
1787956240007806500,10.312806396484374,-0.2919935882091522,-1.4819591045379639,-0.04092797264456749
1787956240023935000,10.32893505859375,-0.33047810196876526,-1.5363260507583618,-0.04214970022439957
1787956240039751200,10.344751220703126,-0.3536909818649292,-1.6365079879760742,-0.04703662544488907
1787956240056025900,10.36102587890625,-0.36163222789764404,-1.7446311712265015,-0.06352998316287994
1787956240072142800,10.377142822265625,-0.3634648323059082,-1.797776460647583,-0.07635815441608429
1787956240087733500,10.3927333984375,-0.37079519033432007,-1.8429805040359497,-0.09529497474431992
1787956240104150300,10.409150390625,-0.3689626157283783,-1.8875735998153687,-0.10506882518529892
1787956240119969800,10.4249697265625,-0.36102136969566345,-1.9321668148040771,-0.10995574295520782
1787956240136103400,10.441103515625,-0.3585779070854187,-1.9523253440856934,-0.12095131725072861
1787956240152243500,10.457243408203125,-0.35246923565864563,-1.9541579484939575,-0.14966198801994324
1787956240168369700,10.47336962890625,-0.3634648323059082,-1.949881911277771,-0.1716531366109848
1787956240184254200,10.489254150390625,-0.36163222789764404,-1.9547687768936157,-0.18081611394882202
1787956240200180000,10.505179931640624,-0.35185837745666504,-1.9492709636688232,-0.18509216606616974
1787956240216298000,10.521298095703125,-0.33047810196876526,-1.9394971132278442,-0.18936823308467865
1787956240232609800,10.53760986328125,-0.3029891550540924,-1.9230037927627563,-0.17531833052635193
1787956240248188000,10.55318798828125,-0.24984388053417206,-1.935831904411316,-0.12767083942890167
1787956240264434000,10.569433837890625,-0.192422553896904,-1.9633208513259888,-0.08918632566928864
1787956240280268500,10.5852685546875,-0.17837265133857727,-1.9639317989349365,-0.08002334833145142
1787956240296510500,10.601510498046874,-0.1973094791173935,-1.9675970077514648,-0.09040805697441101
1787956240312773000,10.617773193359374,-0.23335053026676178,-1.9639317989349365,-0.10445795953273773
1787956240328432000,10.63343212890625,-0.28955012559890747,-1.9627100229263306,-0.11850785464048386
1787956240344660500,10.649660400390625,-0.3494149148464203,-1.9266690015792847,-0.13805554807186127
1787956240360490200,10.665490234375,-0.42699480056762695,-1.8362609148025513,-0.16493362188339233
1787956240376680000,10.681679931640625,-0.494189977645874,-1.7342463731765747,-0.18814650177955627
1787956240392990500,10.697990478515624,-0.5320636034011841,-1.6517796516418457,-0.19975294172763824
1787956240408583000,10.7135830078125,-0.5632177591323853,-1.5613715648651123,-0.1966986060142517
1787956240425342200,10.73034228515625,-0.5736024379730225,-1.474017858505249,-0.17531833052635193
1787956240440657200,10.7456572265625,-0.5742133259773254,-1.4092661142349243,-0.16004669666290283
1787956240456808400,10.761808349609375,-0.5693264007568359,-1.3231340646743774,-0.12767083942890167
1787956240473361200,10.778361083984375,-0.5546656250953674,-1.2583824396133423,-0.09957103431224823
1787956240488801800,10.7938017578125,-0.5363397002220154,-1.2278391122817993,-0.10690141469240189
1787956240504937000,10.80993701171875,-0.5192354321479797,-1.2198978662490845,-0.1160643994808197
1787956240520817000,10.82581689453125,-0.5229006409645081,-1.228450059890747,-0.11056660860776901
1787956240536959500,10.84195947265625,-0.5277875661849976,-1.2406673431396484,-0.11789698898792267
1787956240553296600,10.858296630859375,-0.5296201705932617,-1.2602150440216064,-0.12461651116609573
1787956240568821500,10.873821533203126,-0.5400048494338989,-1.2614367008209229,-0.12461651116609573
1787956240585121000,10.89012109375,-0.5583308339118958,-1.2327260971069336,-0.11545353382825851
1787956240600968700,10.90596875,-0.5864306092262268,-1.1753047704696655,-0.09896016865968704
1787956240617195300,10.9221953125,-0.6298020482063293,-1.0574077367782593,-0.09529497474431992
1787956240633535500,10.938535400390625,-0.6621779203414917,-0.9370672702789307,-0.07696902006864548
1787956240649085200,10.954085205078124,-0.6780604124069214,-0.8460483551025391,-0.048258353024721146
1787956240665485000,10.970485107421876,-0.6646214127540588,-0.8161159753799438,-0.00855211354792118
1787956240681155000,10.986155029296874,-0.6279694437980652,-0.8087855577468872,0.036041051149368286
1787956240697342000,11.002342041015625,-0.6010913848876953,-0.8185594081878662,0.0910189226269722
1787956240713846800,11.0188466796875,-0.5742133259773254,-0.8185594081878662,0.15577064454555511
1787956240729640700,11.034640625,-0.5467243790626526,-0.8106181621551514,0.1966986060142517
1787956240745383000,11.0503828125,-0.5277875661849976,-0.8045095205307007,0.1875356286764145
1787956240761584600,11.066584716796875,-0.5119050741195679,-0.8216137290000916,0.1160643994808197
1787956240777415200,11.082415283203124,-0.5180137157440186,-0.8112290501594543,0.006108652334660292
1787956240793811500,11.0988115234375,-0.5534439086914062,-0.7623597979545593,-0.08979719132184982
1787956240809345300,11.11434521484375,-0.5833762884140015,-0.6939429044723511,-0.14294247329235077
1787956240825639700,11.1306396484375,-0.578489363193512,-0.6383541822433472,-0.1514945775270462
1787956240841586700,11.146586669921875,-0.5314527750015259,-0.5968153476715088,-0.10384709388017654
1787956240857655800,11.16265576171875,-0.46670106053352356,-0.5870414972305298,-0.033597588539123535
1787956240874040800,11.179040771484376,-0.38728857040405273,-0.6133087277412415,0.06780604273080826
1787956240889512400,11.194512451171875,-0.323147714138031,-0.6102544069290161,0.13500121235847473
1787956240906305300,11.21130517578125,-0.2871066629886627,-0.627358615398407,0.14294247329235077
1787956240921658400,11.226658447265624,-0.2535090744495392,-0.6627888083457947,0.08124507963657379
1787956240938234000,11.243234130859374,-0.23335053026676178,-0.7263187766075134,0.00733038317412138
1787956240954185700,11.259185791015625,-0.24495697021484375,-0.7568620443344116,-0.027488935738801956
1787956240969794800,11.274794921875,-0.2828305959701538,-0.7330383062362671,-0.04642575979232788
1787956240986494000,11.291493896484376,-0.323147714138031,-0.7061602473258972,-0.04459316283464432
1787956241001897500,11.3068974609375,-0.3530801236629486,-0.6957755088806152,-0.018936822190880775
1787956241018107600,11.323107666015625,-0.3695734739303589,-0.6914994716644287,-0.005497787147760391
1787956241034402800,11.33940283203125,-0.3836233615875244,-0.7000515460968018,-0.00366519158706069
1787956241049920800,11.354920654296874,-0.40133845806121826,-0.7238753437995911,-0.010995574295520782
1787956241066208800,11.371208740234374,-0.42577308416366577,-0.7336491346359253,-0.018325956538319588
1787956241082088700,11.387088623046875,-0.47342056035995483,-0.7354817390441895,-0.036041051149368286
1787956241098312700,11.403312744140624,-0.4990769028663635,-0.7012733221054077,-0.02321287989616394
1787956241114515700,11.419515625,-0.4911356568336487,-0.6524040699005127,-0.0024434609804302454
1787956241130191600,11.435191650390625,-0.45753806829452515,-0.6108652353286743,-0.003054326167330146
1787956241146773800,11.451773681640624,-0.3878994286060333,-0.5723807215690613,-0.021380282938480377
1787956241162335500,11.46733544921875,-0.30604347586631775,-0.5424483418464661,-0.03176499158143997
1787956241178439700,11.483439697265625,-0.24495697021484375,-0.5265658497810364,-0.021991148591041565
1787956241195017500,11.500017578125,-0.17287486791610718,-0.4960225820541382,0.006108652334660292
1787956241210390300,11.515390380859374,-0.11301007121801376,-0.4453207552433014,0.04092797264456749
1787956241226713000,11.531713134765624,-0.09346238523721695,-0.4080579876899719,0.04642575979232788
1787956241243114000,11.548114013671874,-0.07330382615327835,-0.3793473243713379,0.056810468435287476
1787956241258725000,11.56372509765625,-0.04948008432984352,-0.38240164518356323,0.07757988572120667
1787956241274924500,11.579924560546875,-0.029932396486401558,-0.4001167416572571,0.09407325088977814
1787956241290688800,11.595688720703125,-0.001832595793530345,-0.4190535545349121,0.09712757170200348
1787956241306957800,11.611957763671874,0.029932396486401558,-0.4392121136188507,0.11239920556545258
1787956241322794800,11.627794677734375,0.05192354694008827,-0.4337143301963806,0.14294247329235077
1787956241338936800,11.643936767578126,0.0757472887635231,-0.39095374941825867,0.18387043476104736
1787956241355298300,11.66029833984375,0.09957103431224823,-0.3500257730484009,0.24007004499435425
1787956241370816000,11.67581591796875,0.13439035415649414,-0.32681289315223694,0.2840523421764374
1787956241387166700,11.692166748046875,0.1765400618314743,-0.33597588539123535,0.29016098380088806
1787956241402949000,11.70794921875,0.23396138846874237,-0.32131510972976685,0.294437050819397
1787956241419076600,11.72407666015625,0.2840523421764374,-0.3017674386501312,0.3323107063770294
1787956241435484200,11.740484130859375,0.3219259977340698,-0.3090978264808655,0.3604104816913605
1787956241451364000,11.756364013671876,0.36163222789764404,-0.31581732630729675,0.3494149148464203
1787956241467329500,11.77232958984375,0.39156460762023926,-0.36224308609962463,0.27550023794174194
1787956241483373300,11.788373291015626,0.3891211748123169,-0.4092797040939331,0.18081611394882202
1787956241499379000,11.80437890625,0.32131510972976685,-0.4043927788734436,0.07635815441608429
1787956241515756300,11.82075634765625,0.21807889640331268,-0.3494149148464203,0.0024434609804302454
1787956241531229000,11.83622900390625,0.1215621829032898,-0.251676470041275,-0.00855211354792118
1787956241547946800,11.85294677734375,0.04153883829712868,-0.16310101747512817,0.05009094998240471
1787956241563313400,11.8683134765625,0.029932396486401558,-0.11362093687057495,0.13561208546161652
1787956241579989500,11.884989501953125,0.06658431142568588,-0.09346238523721695,0.18081611394882202
1787956241595796200,11.900796142578125,0.1111774742603302,-0.07819075137376785,0.16004669666290283
1787956241611424500,11.916424560546876,0.14416420459747314,-0.06963863968849182,0.11728613078594208
1787956241627838700,11.932838623046875,0.15027284622192383,-0.04153883829712868,0.08674286305904388
1787956241643836200,11.948836181640624,0.12950342893600464,-0.02321287989616394,0.048258353024721146
1787956241659785200,11.96478515625,0.10690141469240189,0.001832595793530345,0.012217304669320583
1787956241676121600,11.98112158203125,0.07696902006864548,0.025045474991202354,-0.009162978269159794
1787956241691698000,11.996697998046875,0.06658431142568588,0.03726277872920036,-0.012828170321881771
1787956241708006100,12.013006103515625,0.05742133408784866,0.012217304669320583,0.02871066704392433
1787956241723708700,12.028708740234375,0.04886921867728233,-0.03237585723400116,0.10018189996480942
1787956241740059600,12.0450595703125,0.02932153269648552,-0.04092797264456749,0.12400564551353455
1787956241756142600,12.061142578125,0.00733038317412138,-0.04459316283464432,0.09346238523721695
1787956241771822600,12.076822509765625,-0.02321287989616394,-0.05742133408784866,0.03726277872920036
1787956241788106000,12.09310595703125,-0.06658431142568588,-0.042760565876960754,0.012217304669320583
1787956241804360400,12.1093603515625,-0.0959058403968811,-0.033597588539123535,0.015882495790719986
1787956241820130800,12.125130859375,-0.11545353382825851,-0.02382374368607998,0.012217304669320583
1787956241836438500,12.1414384765625,-0.1319468915462494,-0.013439035043120384,-0.014049900695681572
1787956241852025000,12.157025146484376,-0.14416420459747314,-0.009773843921720982,-0.0507018156349659
1787956241868287700,12.173287841796874,-0.14538592100143433,-0.027488935738801956,-0.08124507963657379
1787956241884287700,12.189287841796874,-0.14355333149433136,-0.036041051149368286,-0.09712757170200348
1787956241900359400,12.205359375,-0.12767083942890167,-0.060475658625364304,-0.10201449692249298
1787956241916571600,12.221571533203125,-0.10873401165008545,-0.09346238523721695,-0.11178833991289139
1787956241932493600,12.23749365234375,-0.08124507963657379,-0.11911872029304504,-0.11545353382825851
1787956241948577300,12.253577392578125,-0.06291911751031876,-0.14538592100143433,-0.11850785464048386
1787956241964585000,12.2695849609375,-0.04337143152952194,-0.152105450630188,-0.1111774742603302
1787956241980631300,12.28563134765625,-0.025656340643763542,-0.15760323405265808,-0.0959058403968811
1787956241996927000,12.301927001953125,-0.010995574295520782,-0.17409659922122955,-0.11178833991289139
1787956242013003000,12.3180029296875,-0.01466076634824276,-0.17837265133857727,-0.1459967941045761
1787956242028850200,12.33385009765625,-0.03298672288656235,-0.16798794269561768,-0.18997909128665924
1787956242044699400,12.349699462890625,-0.05497787147760391,-0.1411098688840866,-0.23640485107898712
1787956242061150000,12.36614990234375,-0.07513642311096191,-0.11484266817569733,-0.2632829248905182
1787956242076947700,12.38194775390625,-0.09162978827953339,-0.08796459436416626,-0.2528982162475586
1787956242092616700,12.39761669921875,-0.09834930300712585,-0.06414084881544113,-0.21807889640331268
1787956242108939000,12.41393896484375,-0.08552113175392151,-0.04764748737215996,-0.18875735998153687
1787956242124738000,12.429738037109376,-0.05497787147760391,-0.03298672288656235,-0.16004669666290283
1787956242140922400,12.44592236328125,-0.02076941914856434,-0.04092797264456749,-0.12217304855585098
1787956242157271300,12.462271240234376,-0.004886921960860491,-0.042760565876960754,-0.07635815441608429
1787956242172881000,12.477880859375,-0.003054326167330146,-0.02076941914856434,-0.04092797264456749
1787956242189134800,12.494134765625,-0.001832595793530345,-0.036041051149368286,-0.027488935738801956
1787956242204934000,12.509933837890625,-0.025045474991202354,-0.07696902006864548,-0.02687807008624077
1787956242221280800,12.52628076171875,-0.05742133408784866,-0.10567969083786011,-0.030543262138962746
1787956242237416000,12.542416015625,-0.09468411654233932,-0.1417207419872284,-0.042760565876960754
1787956242253072600,12.55807275390625,-0.1612684279680252,-0.12339477986097336,-0.051312681287527084
1787956242269552600,12.574552734375,-0.2076941877603531,-0.11545353382825851,-0.04153883829712868
1787956242285151000,12.59015087890625,-0.23884831368923187,-0.12400564551353455,-0.014049900695681572
1787956242301357800,12.60635791015625,-0.25595253705978394,-0.13500121235847473,0.03787364438176155
1787956242317838300,12.62283837890625,-0.24678955972194672,-0.1368338167667389,0.0806342139840126
1787956242333285400,12.638285400390625,-0.2168571650981903,-0.1319468915462494,0.12034045159816742
1787956242349424600,12.654424560546875,-0.1814269721508026,-0.12767083942890167,0.12339477986097336
1787956242365347800,12.670347900390626,-0.1508837193250656,-0.10018189996480942,0.09896016865968704
1787956242381587000,12.6865869140625,-0.14233160018920898,-0.06658431142568588,0.08796459436416626
1787956242397921000,12.702921142578125,-0.13866640627384186,-0.02076941914856434,0.06719517707824707
1787956242413411000,12.7184111328125,-0.1417207419872284,0.013439035043120384,0.06230825558304787
1787956242429869600,12.73486962890625,-0.152105450630188,0.022602014243602753,0.07452555745840073
1787956242445728800,12.750728759765625,-0.16493362188339233,0.039706241339445114,0.08185594528913498
1787956242461736700,12.76673681640625,-0.16920967400074005,0.05864306539297104,0.09285151958465576
1787956242478218000,12.783218017578125,-0.17409659922122955,0.07819075137376785,0.12034045159816742
1787956242493619000,12.798618896484374,-0.17592918872833252,0.11545353382825851,0.1661553531885147
1787956242510014500,12.815014404296875,-0.18325957655906677,0.15393804013729095,0.1973094791173935
1787956242525690000,12.830690185546874,-0.18020524084568024,0.17043140530586243,0.1716531366109848
1787956242542005200,12.847005126953125,-0.16371189057826996,0.1667662113904953,0.04642575979232788
1787956242558390800,12.863390869140625,-0.11972958594560623,0.20341812074184418,-0.14416420459747314
1787956242574329300,12.879329345703125,-0.05742133408784866,0.21380282938480377,-0.27000242471694946
1787956242590271700,12.895271728515626,0.030543262138962746,0.17104226350784302,-0.28955012559890747
1787956242606064000,12.911064208984374,0.13439035415649414,0.09346238523721695,-0.25961771607398987
1787956242622670800,12.9276708984375,0.1618792861700058,0.1007927656173706,-0.1062905490398407
1787956242638601700,12.943601806640626,0.1612684279680252,0.2076941877603531,0.08185594528913498
1787956242654258000,12.9592578125,0.10690141469240189,0.3335324227809906,0.2840523421764374
1787956242670439400,12.975439453125,0.09162978827953339,0.4153883755207062,0.3701843321323395
1787956242686230800,12.991230712890625,0.10934487730264664,0.4593706727027893,0.3628539443016052
1787956242702426400,13.00742626953125,0.17837265133857727,0.4495968222618103,0.3139847218990326
1787956242718908000,13.023907958984376,0.2840523421764374,0.4031710624694824,0.20952677726745605
1787956242734367700,13.03936767578125,0.403781920671463,0.2785545587539673,0.08674286305904388
1787956242750708700,13.055708740234374,0.4697553813457489,0.20586158335208893,0.021380282938480377
1787956242766419000,13.0714189453125,0.4709770977497101,0.13561208546161652,-0.009162978269159794
1787956242782696200,13.0876962890625,0.4031710624694824,0.08674286305904388,-0.03848451003432274
1787956242799107000,13.104107177734376,0.31459560990333557,0.06902777403593063,-0.07147123664617538
1787956242814597600,13.11959765625,0.18387043476104736,0.09834930300712585,-0.10445795953273773
1787956242831103500,13.136103515625,0.07024950534105301,0.1258382350206375,-0.12828169763088226
1787956242846578200,13.151578125,0.018325956538319588,0.10751228034496307,-0.13377949595451355
1787956242862820400,13.1678203125,0.005497787147760391,0.05864306539297104,-0.1362229436635971
1787956242879303700,13.1843037109375,0.03298672288656235,0.0006108652451075613,-0.16554448008537292
1787956242894672400,13.19967236328125,0.08368854224681854,-0.039706241339445114,-0.18997909128665924
1787956242910941200,13.215941162109376,0.13011430203914642,-0.0861319974064827,-0.182648703455925
1787956242926800100,13.231800048828125,0.16065755486488342,-0.0659734457731247,-0.17287486791610718
1787956242943137800,13.2481376953125,0.18997909128665924,-0.05925392732024193,-0.20402899384498596
1787956242959486200,13.264486328125,0.20463985204696655,-0.07819075137376785,-0.2217440903186798
1787956242975040800,13.280040771484375,0.22846360504627228,-0.11178833991289139,-0.20036379992961884
1787956242991147800,13.296147705078125,0.21074850857257843,-0.17776179313659668,-0.13927727937698364
1787956243007056000,13.312055908203124,0.20097467303276062,-0.2480112910270691,-0.10262536257505417
1787956243023144200,13.328144287109374,0.13011430203914642,-0.2883284091949463,-0.09285151958465576
1787956243039406300,13.34440625,0.01038470957428217,-0.3274237811565399,-0.03848451003432274
1787956243055661300,13.360661376953125,-0.0708603709936142,-0.342695415019989,0.05192354694008827
1787956243071328500,13.37632861328125,-0.15271630883216858,-0.3445279896259308,0.11545353382825851
1787956243087134000,13.392134033203124,-0.192422553896904,-0.32559117674827576,0.09896016865968704
1787956243103482400,13.408482421875,-0.2076941877603531,-0.32131510972976685,0.04886921867728233
1787956243119758600,13.424758544921875,-0.1973094791173935,-0.33169981837272644,-0.0024434609804302454
1787956243135808300,13.440808349609375,-0.14966198801994324,-0.323147714138031,0.028099801391363144
1787956243151761200,13.45676123046875,-0.0910189226269722,-0.3793473243713379,0.12400564551353455
1787956243167283200,13.472283203125,0.01771509274840355,-0.5809328556060791,0.10567969083786011
1787956243183828500,13.488828369140625,0.02871066704392433,-0.7428121566772461,-0.05009094998240471
1787956243199823600,13.50482373046875,-0.08918632566928864,-0.6450737118721008,-0.19975294172763824
1787956243215380500,13.52038037109375,-0.21135938167572021,-0.4856378734111786,-0.24556782841682434
1787956243231787500,13.53678759765625,-0.3127630054950714,-0.34147366881370544,-0.13500121235847473
1787956243247638800,13.552638671875,-0.33169981837272644,-0.24068090319633484,0.14416420459747314
1787956243263829000,13.5688291015625,-0.3194825351238251,-0.2321287989616394,0.36713001132011414
1787956243280071400,13.585071533203125,-0.25473082065582275,-0.23640485107898712,0.4856378734111786
1787956243295761200,13.60076123046875,-0.15515977144241333,-0.27061331272125244,0.4544837474822998
1787956243312125700,13.617125732421876,-0.06352998316287994,-0.32559117674827576,0.34574973583221436
1787956243328376300,13.633376220703125,0.04764748737215996,-0.41233405470848083,0.1661553531885147
1787956243344043500,13.64904345703125,0.12950342893600464,-0.5528330206871033,0.028099801391363144
1787956243360216800,13.665216796875,0.15454891324043274,-0.6866125464439392,-0.06719517707824707
1787956243375852800,13.680852783203125,0.11301007121801376,-0.7220427393913269,-0.13072516024112701
1787956243392667600,13.697667724609374,-0.003054326167330146,-0.6322455406188965,-0.17348572611808777
1787956243407964200,13.712964111328125,-0.17287486791610718,-0.42760565876960754,-0.1667662113904953
1787956243424369000,13.729368896484376,-0.3237585723400116,-0.2070833146572113,-0.10751228034496307
1787956243440658400,13.745658447265624,-0.45326200127601624,-0.02932153269648552,-0.04337143152952194
1787956243456247600,13.76124755859375,-0.4697553813457489,0.018936822190880775,0.00855211354792118
1787956243472538000,13.7775380859375,-0.39767327904701233,-0.03237585723400116,0.04764748737215996
1787956243488296400,13.79329638671875,-0.2889392673969269,-0.1014036312699318,0.09224065393209457
1787956243504490200,13.809490234375,-0.17531833052635193,-0.13072516024112701,0.1014036312699318
1787956243520936000,13.82593603515625,-0.08735372871160507,-0.1869247704744339,0.04764748737215996
1787956243536565500,13.8415654296875,-0.05009094998240471,-0.24862214922904968,-0.02687807008624077
1787956243552742400,13.857742431640625,-0.05192354694008827,-0.27488934993743896,-0.10873401165008545
1787956243568521700,13.873521728515625,-0.10018189996480942,-0.23640485107898712,-0.16249015927314758
1787956243584811500,13.8898115234375,-0.1563815027475357,-0.1472185254096985,-0.18325957655906677
1787956243601013000,13.906012939453126,-0.21013765037059784,-0.05619960278272629,-0.16982053220272064
1787956243616673300,13.92167333984375,-0.23640485107898712,-0.02932153269648552,-0.12095131725072861
1787956243633081900,13.938081787109375,-0.24190263450145721,-0.003054326167330146,-0.06841690838336945
1787956243648848000,13.953847900390626,-0.23518311977386475,0.021380282938480377,0.010995574295520782
1787956243664902400,13.96990234375,-0.22968533635139465,0.05497787147760391,0.10506882518529892
1787956243681168400,13.98616845703125,-0.2021963894367218,0.08857546001672745,0.17959438264369965
1787956243696811800,14.001811767578126,-0.1569923609495163,0.14477506279945374,0.2535090744495392
1787956243713159700,14.01815966796875,-0.08307767659425735,0.2125810980796814,0.27977627515792847
1787956243728896500,14.033896484375,0.006108652334660292,0.25106561183929443,0.2632829248905182
1787956243745513700,14.050513671875,0.05864306539297104,0.303600013256073,0.24862214922904968
1787956243761550000,14.066550048828125,0.05497787147760391,0.47219884395599365,0.28099802136421204
1787956243777055500,14.082055419921875,0.02015855349600315,0.48808133602142334,0.3066543638706207
1787956243793313500,14.0983134765625,0.05497787147760391,0.423329621553421,0.1820378452539444
1787956243809267700,14.114267822265624,0.10384709388017654,0.34513887763023376,-0.05925392732024193
1787956243825333000,14.1303330078125,0.18020524084568024,0.2015855312347412,-0.16432274878025055
1787956243841563600,14.146563720703124,0.26450464129447937,0.04642575979232788,-0.10262536257505417
1787956243857314300,14.162314208984375,0.2785545587539673,0.006108652334660292,0.11362093687057495
1787956243873991700,14.17899169921875,0.20952677726745605,0.09957103431224823,0.3390302062034607
1787956243889347300,14.194347412109375,0.1014036312699318,0.2730567753314972,0.4196644127368927
1787956243905568000,14.210568115234375,0.0006108652451075613,0.3952298164367676,0.3396410644054413
1787956243921965000,14.226965087890624,-0.06414084881544113,0.4239404797554016,0.18081611394882202
1787956243937436400,14.2424365234375,-0.04703662544488907,0.38728857040405273,0.05619960278272629
1787956243954133500,14.259133544921875,0.019547687843441963,0.32620203495025635,0.0024434609804302454
1787956243969725200,14.27472509765625,0.16432274878025055,0.24862214922904968,-0.042760565876960754
1787956243985731300,14.2907314453125,0.30482175946235657,0.17531833052635193,-0.08002334833145142
1787956244002044700,14.307044677734375,0.394008070230484,0.12767083942890167,-0.09712757170200348
1787956244017710000,14.3227099609375,0.43737950921058655,0.07819075137376785,-0.09957103431224823
1787956244034163700,14.339163818359374,0.4337143301963806,0.00733038317412138,-0.06169738993048668
1787956244049866200,14.3548662109375,0.3677408695220947,-0.039706241339445114,0.01771509274840355
1787956244066072300,14.371072265625,0.2871066629886627,-0.06108652427792549,0.07452555745840073
1787956244082441000,14.38744091796875,0.20586158335208893,-0.06475171446800232,0.059864792972803116
1787956244097969200,14.40296923828125,0.14416420459747314,-0.04886921867728233,-0.012217304669320583
1787956244114266400,14.419266357421876,0.10018189996480942,-0.015882495790719986,-0.06780604273080826
1787956244130109400,14.435109375,0.09040805697441101,-0.033597588539123535,-0.1014036312699318
1787956244146364000,14.451364013671874,0.10445795953273773,-0.08552113175392151,-0.10751228034496307
1787956244162506800,14.4675068359375,0.12400564551353455,-0.10262536257505417,-0.10506882518529892
1787956244178236000,14.48323583984375,0.13744467496871948,-0.12217304855585098,-0.1062905490398407
1787956244194932700,14.4999326171875,0.13866640627384186,-0.13316862285137177,-0.11728613078594208
1787956244210894600,14.51589453125,0.12461651116609573,-0.1508837193250656,-0.12950342893600464
1787956244226625800,14.531625732421874,0.09896016865968704,-0.17409659922122955,-0.13744467496871948
1787956244250348000,14.55534814453125,0.06719517707824707,-0.21563543379306793,-0.13500121235847473
1787956244266848300,14.57184814453125,0.059864792972803116,-0.23273965716362,-0.10018189996480942
1787956244282903000,14.587903076171875,0.06963863968849182,-0.2431243658065796,-0.03176499158143997
1787956244298612200,14.6036123046875,0.08185594528913498,-0.2919935882091522,0.027488935738801956
1787956244314881800,14.6198818359375,0.09346238523721695,-0.37751471996307373,0.06475171446800232
1787956244330723300,14.635723388671876,0.0959058403968811,-0.4398229718208313,0.03176499158143997
1787956244346833700,14.651833740234375,0.07330382615327835,-0.4538728892803192,-0.03420845419168472
1787956244363253800,14.668253662109375,0.02932153269648552,-0.4404338300228119,-0.09712757170200348
1787956244378863900,14.68386376953125,-0.0024434609804302454,-0.35246923565864563,-0.060475658625364304
1787956244394919400,14.69991943359375,-0.001832595793530345,-0.26511552929878235,0.031154127791523933
1787956244410872600,14.71587255859375,0.042760565876960754,-0.4251621961593628,-0.0024434609804302454
1787956244426930700,14.7319306640625,0.05497787147760391,-0.5687155723571777,-0.24129177629947662
1787956244443226400,14.748226318359375,-0.039095375686883926,-0.5326744914054871,-0.3927863538265228
1787956244458896600,14.763896728515626,-0.18936823308467865,-0.4404338300228119,-0.3854559659957886
1787956244475132400,14.78013232421875,-0.2938261926174164,-0.3830125033855438,-0.2565633952617645
1787956244491032600,14.796032470703125,-0.33597588539123535,-0.313373863697052,-0.02076941914856434
1787956244507668500,14.81266845703125,-0.34086281061172485,-0.25961771607398987,0.1918116807937622
1787956244523656200,14.82865625,-0.3225368559360504,-0.14966198801994324,0.39095374941825867
1787956244539182600,14.8441826171875,-0.2968805134296417,-0.036041051149368286,0.5271766781806946
1787956244555379500,14.86037939453125,-0.24495697021484375,-0.033597588539123535,0.5589417219161987
1787956244571188700,14.876188720703125,-0.15454891324043274,-0.11362093687057495,0.4709770977497101
1787956244587369500,14.892369384765624,-0.08918632566928864,-0.20402899384498596,0.2638937830924988
1787956244603937800,14.908937744140625,-0.05192354694008827,-0.29565876722335815,0.05803219974040985
1787956244619951600,14.92495166015625,-0.01038470957428217,-0.44165557622909546,-0.14294247329235077
1787956244635877400,14.94087744140625,0.00366519158706069,-0.5736024379730225,-0.21868975460529327
1787956244651805400,14.956805419921874,-0.04948008432984352,-0.5681046843528748,-0.18325957655906677
1787956244667751000,14.9727509765625,-0.14844025671482086,-0.46181413531303406,-0.08429940044879913
1787956244684075000,14.989074951171874,-0.2993239760398865,-0.28955012559890747,0.027488935738801956
1787956244699835400,15.00483544921875,-0.41661009192466736,-0.16249015927314758,0.07269296050071716
1787956244716166400,15.02116650390625,-0.47342056035995483,-0.1270599663257599,0.06719517707824707
1787956244732046000,15.037046142578125,-0.4801400899887085,-0.13866640627384186,0.028099801391363144
1787956244748245500,15.05324560546875,-0.45326200127601624,-0.16432274878025055,-0.005497787147760391
1787956244764265500,15.069265380859376,-0.41111230850219727,-0.17470745742321014,-0.016493361443281174
1787956244780158700,15.08515869140625,-0.35124751925468445,-0.15821409225463867,-0.03420845419168472
1787956244796175400,15.10117529296875,-0.2834414839744568,-0.10873401165008545,-0.07391469180583954
1787956244812179500,15.117179443359374,-0.22968533635139465,-0.05192354694008827,-0.11301007121801376
1787956244828335900,15.1333359375,-0.17287486791610718,-0.006719517521560192,-0.14905111491680145
1787956244844506600,15.149506591796875,-0.14294247329235077,0.02871066704392433,-0.16737708449363708
1787956244860204000,15.1652041015625,-0.11362093687057495,0.02626720629632473,-0.16310101747512817
1787956244876851200,15.181851318359374,-0.09040805697441101,0.04642575979232788,-0.14966198801994324
1787956244892232000,15.19723193359375,-0.05803219974040985,0.0659734457731247,-0.10506882518529892
1787956244908424200,15.213424072265624,-0.03420845419168472,0.12339477986097336,-0.01038470957428217
1787956244924728800,15.229728759765624,-0.02076941914856434,0.18631389737129211,0.07208210229873657
1787956244940385500,15.245385498046875,-0.01160643994808197,0.2889392673969269,0.12339477986097336
1787956244956648200,15.261648193359376,-0.00733038317412138,0.3842342495918274,0.13255776464939117
1787956244972421600,15.277421630859376,0.009162978269159794,0.4282165467739105,0.10873401165008545
1787956244988618500,15.293618408203125,0.0354301854968071,0.44226643443107605,0.0708603709936142
1787956245004849400,15.309849365234374,0.07330382615327835,0.42088615894317627,0.04337143152952194
1787956245020505900,15.325505859375,0.10506882518529892,0.44165557622909546,0.0403171069920063
1787956245036705300,15.341705322265625,0.11545353382825851,0.4966334402561188,0.07819075137376785
1787956245052573400,15.357573486328125,0.06719517707824707,0.5760459303855896,0.1612684279680252
1787956245068912600,15.37391259765625,0.030543262138962746,0.5271766781806946,0.12522737681865692
1787956245085167600,15.390167724609375,0.02382374368607998,0.513737678527832,-0.02932153269648552
1787956245100797000,15.405796875,0.02382374368607998,0.4807509481906891,-0.17959438264369965
1787956245117122600,15.42212255859375,0.08002334833145142,0.4031710624694824,-0.21013765037059784
1787956245133303800,15.4383037109375,0.13439035415649414,0.3280346393585205,-0.1472185254096985
1787956245149083600,15.454083740234376,0.12339477986097336,0.33719760179519653,0.004886921960860491
1787956245165314000,15.47031396484375,0.07024950534105301,0.3781255781650543,0.13744467496871948
1787956245181463800,15.4864638671875,0.05497787147760391,0.38606682419776917,0.18875735998153687
1787956245197212700,15.502212646484375,0.05864306539297104,0.3897320330142975,0.22052235901355743
1787956245213130000,15.5181298828125,0.05314527451992035,0.41233405470848083,0.23640485107898712
1787956245229404400,15.534404296875,0.05864306539297104,0.42699480056762695,0.20097467303276062
1787956245245728800,15.550728759765626,0.0910189226269722,0.3897320330142975,0.12522737681865692
1787956245261849000,15.56684912109375,0.12828169763088226,0.375071257352829,0.001832595793530345
1787956245277526000,15.582526123046875,0.16493362188339233,0.375071257352829,-0.11545353382825851
1787956245293455600,15.59845556640625,0.2223549485206604,0.35613444447517395,-0.18448130786418915
1787956245309511400,15.614511474609374,0.2974913716316223,0.3121521472930908,-0.20891591906547546
1787956245325997000,15.6309970703125,0.38667771220207214,0.2278527319431305,-0.17287486791610718
1787956245341524700,15.646524658203125,0.45265114307403564,0.14416420459747314,-0.1160643994808197
1787956245357787600,15.66278759765625,0.48869219422340393,0.1062905490398407,-0.05375614017248154
1787956245373935000,15.67893505859375,0.4660901725292206,0.14477506279945374,-0.01160643994808197
1787956245389842400,15.694842529296874,0.4080579876899719,0.18997909128665924,0.02321287989616394
1787956245406221300,15.71122119140625,0.3604104816913605,0.23640485107898712,0.04092797264456749
1787956245422385200,15.72738525390625,0.31581732630729675,0.2687807083129883,0.039706241339445114
1787956245438473000,15.743472900390625,0.32009339332580566,0.23335053026676178,0.00366519158706069
1787956245454225200,15.75922509765625,0.33658674359321594,0.17776179313659668,-0.04581489413976669
1787956245470136800,15.77513671875,0.36713001132011414,0.09285151958465576,-0.10445795953273773
1787956245486382600,15.791382568359374,0.39156460762023926,-0.006108652334660292,-0.14049901068210602
1787956245502241800,15.80724169921875,0.3799581825733185,-0.10812314599752426,-0.14966198801994324
1787956245518717400,15.823717529296875,0.32986724376678467,-0.20830504596233368,-0.1466076523065567
1787956245534034400,15.839034423828124,0.2577851414680481,-0.2577851414680481,-0.13561208546161652
1787956245550193200,15.855193115234375,0.19303341209888458,-0.313373863697052,-0.10995574295520782
1787956245566531600,15.871531494140624,0.13866640627384186,-0.35552358627319336,-0.054367005825042725
1787956245582370300,15.887370361328125,0.07757988572120667,-0.3836233615875244,0.04214970022439957
1787956245598421500,15.90342138671875,0.021991148591041565,-0.4153883755207062,0.1258382350206375
1787956245614232800,15.91923291015625,-0.029932396486401558,-0.4398229718208313,0.14294247329235077
1787956245630791200,15.935791259765624,-0.08857546001672745,-0.44593164324760437,0.11301007121801376
1787956245646620200,15.9516201171875,-0.1417207419872284,-0.46547931432724,0.07269296050071716
1787956245662370000,15.9673701171875,-0.17104226350784302,-0.49846604466438293,0.06719517707824707
1787956245678812200,15.983812255859375,-0.2064724564552307,-0.4489859640598297,0.12828169763088226
1787956245694734300,15.999734375,-0.25473082065582275,-0.294437050819397,0.1875356286764145
1787956245710662400,16.015662353515626,-0.25106561183929443,-0.26939156651496887,0.14905111491680145
1787956245726874600,16.03187451171875,-0.15515977144241333,-0.43188172578811646,-0.09773843735456467
1787956245742521000,16.04752099609375,-0.06780604273080826,-0.5803219676017761,-0.37079519033432007
1787956245758849500,16.063849609375,-0.02015855349600315,-0.6835582256317139,-0.5186246037483215
1787956245774541000,16.079541015625,-0.028099801391363144,-0.6487388610839844,-0.5302310585975647
1787956245790757000,16.095757080078126,-0.1111774742603302,-0.4807509481906891,-0.313373863697052
1787956245807101000,16.112100830078123,-0.20036379992961884,-0.2974913716316223,0.05253441259264946
1787956245822836500,16.12783642578125,-0.2272418737411499,-0.22113321721553802,0.304210901260376
1787956245839059500,16.1440595703125,-0.20586158335208893,-0.18631389737129211,0.40622538328170776
1787956245854851000,16.15985107421875,-0.17837265133857727,-0.14416420459747314,0.4031710624694824
1787956245871394600,16.17639453125,-0.16310101747512817,-0.09285151958465576,0.39767327904701233
1787956245887416600,16.19241650390625,-0.14844025671482086,-0.04948008432984352,0.41661009192466736
1787956245903123700,16.208123779296876,-0.11239920556545258,-0.08429940044879913,0.4239404797554016
1787956245919389400,16.224389404296875,-0.08185594528913498,-0.1472185254096985,0.36224308609962463
1787956245935075000,16.240074951171874,-0.051312681287527084,-0.23396138846874237,0.21563543379306793
1787956245951753700,16.256753662109375,-0.04642575979232788,-0.33719760179519653,0.0354301854968071
1787956245967736300,16.272736328125,-0.05314527451992035,-0.46792277693748474,-0.16737708449363708
1787956245983230200,16.288230224609375,-0.09285151958465576,-0.5057964324951172,-0.3170390725135803
1787956245999734000,16.304734130859377,-0.19975294172763824,-0.3988949954509735,-0.40744712948799133
1787956246015250000,16.32025,-0.3341432809829712,-0.18997909128665924,-0.3579670190811157
1787956246031691800,16.33669189453125,-0.40622538328170776,-0.01466076634824276,-0.1814269721508026
1787956246047947500,16.352947509765624,-0.42210787534713745,0.10812314599752426,0.039706241339445114
1787956246063710000,16.3687099609375,-0.35063666105270386,0.10445795953273773,0.14416420459747314
1787956246079838500,16.38483837890625,-0.2620611786842346,0.04948008432984352,0.15332718193531036
1787956246095454200,16.4004541015625,-0.16982053220272064,0.00366519158706069,0.12889257073402405
1787956246111720400,16.416720458984376,-0.08307767659425735,-0.0354301854968071,0.06414084881544113
1787956246128206000,16.4332060546875,-0.033597588539123535,-0.08368854224681854,-0.028099801391363144
1787956246143880000,16.4488798828125,-0.03420845419168472,-0.0910189226269722,-0.10445795953273773
1787956246159962600,16.464962646484373,-0.0910189226269722,-0.07269296050071716,-0.1667662113904953
1787956246175907300,16.4809072265625,-0.1765400618314743,-0.03420845419168472,-0.21319197118282318
1787956246191965400,16.49696533203125,-0.2474004179239273,0.021380282938480377,-0.2638937830924988
1787956246208428500,16.513428466796874,-0.31031954288482666,0.07513642311096191,-0.3170390725135803
1787956246224253200,16.529253173828124,-0.34758231043815613,0.1459967941045761,-0.34025195240974426
1787956246240183300,16.545183349609374,-0.3500257730484009,0.242513507604599,-0.3439171314239502
1787956246256445700,16.56144580078125,-0.30543261766433716,0.3579670190811157,-0.30054569244384766
1787956246272179000,16.577178955078125,-0.21991148591041565,0.4758640229701996,-0.17409659922122955
1787956246288543000,16.59354296875,-0.13744467496871948,0.578489363193512,-0.021991148591041565
1787956246304385300,16.60938525390625,-0.033597588539123535,0.6798930168151855,0.1014036312699318
1787956246320422100,16.625422119140627,0.06230825558304787,0.7684684991836548,0.13561208546161652
1787956246336139000,16.641138916015624,0.14538592100143433,0.8778133392333984,0.11911872029304504
1787956246352326700,16.65732666015625,0.19608774781227112,0.9266825914382935,0.12278391420841217
1787956246368683000,16.67368310546875,0.23273965716362,0.9230173826217651,0.16249015927314758
1787956246384456700,16.689456787109375,0.2168571650981903,0.8723155856132507,0.21930062770843506
1787956246400666400,16.705666259765625,0.18936823308467865,0.8057312369346619,0.24617868661880493
1787956246416398600,16.721398681640625,0.15943582355976105,0.7385360598564148,0.23945917189121246
1787956246433096700,16.7380966796875,0.12278391420841217,0.6414085030555725,0.15943582355976105
1787956246449166300,16.754166259765626,0.10934487730264664,0.5772676467895508,0.02076941914856434
1787956246464671500,16.76967138671875,0.08979719132184982,0.5619960427284241,-0.14049901068210602
1787956246480807200,16.78580712890625,0.07635815441608429,0.5705481171607971,-0.23029619455337524
1787956246496543000,16.80154296875,0.1160643994808197,0.5717698931694031,-0.23029619455337524
1787956246513269200,16.818269287109374,0.19547687470912933,0.5558874011039734,-0.13072516024112701
1787956246529112800,16.83411279296875,0.27488934993743896,0.5369505286216736,0.03298672288656235
1787956246544761600,16.84976171875,0.33658674359321594,0.5283984541893005,0.1563815027475357
1787956246561152500,16.866152587890625,0.35674530267715454,0.5229006409645081,0.2028072625398636
1787956246576825600,16.88182568359375,0.3646865487098694,0.49724429845809937,0.20525072515010834
1787956246593054500,16.898054443359374,0.375071257352829,0.4294382631778717,0.2028072625398636
1787956246609514200,16.91451416015625,0.3543018400669098,0.3237585723400116,0.1973094791173935
1787956246625027800,16.93002783203125,0.2938261926174164,0.24434609711170197,0.16004669666290283
1787956246641248000,16.946248046875,0.2028072625398636,0.22540926933288574,0.08368854224681854
1787956246657047000,16.962047119140625,0.13988813757896423,0.2590068578720093,0.02382374368607998
1787956246673203200,16.978203125,0.11911872029304504,0.2681698501110077,0.001832595793530345
1787956246689450000,16.994449951171877,0.13927727937698364,0.2321287989616394,0.019547687843441963
1787956246705175000,17.010175048828124,0.1716531366109848,0.2070833146572113,0.06352998316287994
1787956246721531400,17.026531494140624,0.19547687470912933,0.182648703455925,0.08796459436416626
1787956246737483500,17.0424833984375,0.2119702398777008,0.1313360333442688,0.0910189226269722
1787956246753840400,17.05884033203125,0.2070833146572113,0.1062905490398407,0.08185594528913498
1787956246769898200,17.074898193359374,0.19425514340400696,0.11728613078594208,0.060475658625364304
1787956246785394400,17.09039453125,0.18997909128665924,0.09407325088977814,0.02871066704392433
1787956246801668000,17.106668212890625,0.19914206862449646,0.03237585723400116,0.010995574295520782
1787956246817493500,17.122493408203123,0.20341812074184418,-0.031154127791523933,0.015271631069481373
1787956246833897200,17.138897216796874,0.20097467303276062,-0.0757472887635231,0.03176499158143997
1787956246850029300,17.155029296875,0.19792033731937408,-0.09834930300712585,0.04764748737215996
1787956246865782000,17.170781982421875,0.19364428520202637,-0.10201449692249298,0.06414084881544113
1787956246881971700,17.1869716796875,0.1722639948129654,-0.08857546001672745,0.08552113175392151
1787956246897724700,17.202724609375,0.14049901068210602,-0.059864792972803116,0.1014036312699318
1787956246914045000,17.219044921875,0.09773843735456467,-0.039095375686883926,0.08796459436416626
1787956246930186200,17.235186279296876,0.06352998316287994,-0.05314527451992035,0.0757472887635231
1787956246945919000,17.2509189453125,0.00855211354792118,-0.0507018156349659,0.07269296050071716
1787956246962302200,17.26730224609375,-0.03176499158143997,-0.04092797264456749,0.06291911751031876
1787956246977827600,17.28282763671875,-0.056810468435287476,-0.05314527451992035,0.05619960278272629
1787956246994210000,17.2992099609375,-0.06169738993048668,-0.09346238523721695,0.05619960278272629
1787956247010506200,17.31550634765625,-0.06291911751031876,-0.14355333149433136,0.05192354694008827
1787956247026570200,17.3315703125,-0.06169738993048668,-0.16371189057826996,0.04703662544488907
1787956247042194700,17.347194580078124,-0.06230825558304787,-0.1722639948129654,0.010995574295520782
1787956247058141700,17.3631416015625,-0.06658431142568588,-0.17104226350784302,-0.0403171069920063
1787956247074544600,17.379544677734376,-0.06902777403593063,-0.14538592100143433,-0.07513642311096191
1787956247090524000,17.39552392578125,-0.0555887371301651,-0.12339477986097336,-0.06475171446800232
1787956247106212900,17.411212890625,-0.027488935738801956,-0.11178833991289139,-0.01160643994808197
1787956247122748700,17.427748779296873,0.01160643994808197,-0.08918632566928864,0.03481931984424591
1787956247138250800,17.443250732421873,0.03481931984424591,-0.07269296050071716,0.05619960278272629
1787956247154614800,17.45961474609375,0.04398229718208313,-0.0555887371301651,0.05192354694008827
1787956247170816300,17.475816162109375,0.036041051149368286,-0.03420845419168472,0.02626720629632473
1787956247186567700,17.491567626953124,0.01771509274840355,0.00366519158706069,-0.01160643994808197
1787956247202694700,17.507694580078127,0.0012217304902151227,0.06230825558304787,-0.06108652427792549
1787956247218585300,17.52358544921875,0.0012217304902151227,0.11850785464048386,-0.0861319974064827
1787956247235171300,17.54017138671875,0.0024434609804302454,0.19914206862449646,-0.0757472887635231
1787956247251201800,17.556201904296874,0.01160643994808197,0.31520646810531616,-0.05742133408784866
1787956247266807800,17.571807861328125,0.00366519158706069,0.47769662737846375,-0.06475171446800232
1787956247283285000,17.588284912109376,-0.007941247895359993,0.5943718552589417,-0.09773843735456467
1787956247298739000,17.603739013671873,-0.018936822190880775,0.7086036801338196,-0.11911872029304504
1787956247314913500,17.61991357421875,-0.0012217304902151227,0.8570439219474792,-0.1258382350206375
1787956247331444500,17.636444580078123,0.05742133408784866,0.9731083512306213,-0.1514945775270462
1787956247346907400,17.651907470703126,0.1472185254096985,1.0757336616516113,-0.16249015927314758
1787956247363152600,17.668152587890624,0.24923302233219147,1.1936306953430176,-0.1508837193250656
1787956247379096300,17.684096435546873,0.33597588539123535,1.3298536539077759,-0.16493362188339233
1787956247395150000,17.700150146484376,0.39095374941825867,1.4672982692718506,-0.18448130786418915
1787956247411456800,17.716456787109376,0.4251621961593628,1.6383405923843384,-0.20097467303276062
1787956247427128600,17.732128662109375,0.43127086758613586,1.825876235961914,-0.18814650177955627
1787956247443382800,17.7483828125,0.42577308416366577,1.9639317989349365,-0.15760323405265808
1787956247459071500,17.764071533203126,0.413555771112442,2.0781636238098145,-0.11056660860776901
1787956247475369200,17.780369140625,0.413555771112442,2.158186912536621,-0.07391469180583954
1787956247491857400,17.796857421875,0.42577308416366577,2.1930062770843506,-0.06230825558304787
1787956247507252200,17.812252197265625,0.4593706727027893,2.194227933883667,-0.06841690838336945
1787956247523446800,17.82844677734375,0.49357911944389343,2.210721254348755,-0.12095131725072861
1787956247539367200,17.8443671875,0.5283984541893005,2.2290472984313965,-0.18020524084568024
1787956247555677700,17.860677734375,0.5534439086914062,2.298074960708618,-0.18997909128665924
1787956247571805700,17.8768056640625,0.5528330206871033,2.3597724437713623,-0.14782938361167908
1787956247588009200,17.89300927734375,0.5687155723571777,2.3805418014526367,-0.07880161702632904
1787956247603706000,17.9087060546875,0.6047565937042236,2.3353378772735596,-0.01710422709584236
1787956247619737300,17.9247373046875,0.6609562039375305,2.2876904010772705,0.054367005825042725
1787956247635819000,17.940819091796875,0.7055493593215942,2.2540926933288574,0.11728613078594208
1787956247652086800,17.957086669921875,0.7195992469787598,2.2375993728637695,0.14844025671482086
1787956247668084200,17.973084228515624,0.7147123217582703,2.2235496044158936,0.1466076523065567
1787956247684007400,17.98900732421875,0.6792821288108826,2.2650883197784424,0.13316862285137177
1787956247699814100,18.004814208984374,0.6322455406188965,2.342057466506958,0.12522737681865692
1787956247716014800,18.021014892578126,0.6102544069290161,2.406809091567993,0.09407325088977814
1787956247732339500,18.03733935546875,0.6041457056999207,2.48988676071167,0.018325956538319588
1787956247748023300,18.053023193359376,0.6389650702476501,2.5082128047943115,-0.0354301854968071
1787956247764254500,18.06925439453125,0.6914994716644287,2.476447820663452,-0.04153883829712868
1787956247780243000,18.085242919921875,0.7452555894851685,2.464841365814209,-0.018936822190880775
1787956247796579300,18.101579345703126,0.79840087890625,2.478891134262085,-0.00733038317412138
1787956247812560000,18.117559814453124,0.8417723178863525,2.5277602672576904,-0.010995574295520782
1787956247828394200,18.133394287109375,0.8778133392333984,2.5747969150543213,-0.001832595793530345
1787956247844949000,18.149948974609377,0.8778133392333984,2.5888469219207764,0.003054326167330146
1787956247860274400,18.1652744140625,0.8741481900215149,2.5583035945892334,-0.07635815441608429
1787956247876514600,18.1815146484375,0.8680394887924194,2.4678955078125,-0.19853121042251587
1787956247892985300,18.1979853515625,0.8704829812049866,2.3744332790374756,-0.31459560990333557
1787956247908576500,18.213576416015623,0.856433093547821,2.306016206741333,-0.3549126982688904
1787956247924695300,18.2296953125,0.8240572214126587,2.275473117828369,-0.32070425152778625
1787956247940518000,18.245517822265626,0.7385360598564148,2.298074960708618,-0.2474004179239273
1787956247956707000,18.26170703125,0.5962044596672058,2.3878722190856934,-0.19486601650714874
1787956247972942600,18.277942626953124,0.4605923891067505,2.440406560897827,-0.18081611394882202
1787956247988596200,18.29359619140625,0.37201693654060364,2.4715607166290283,-0.21563543379306793
1787956248004873500,18.30987353515625,0.2883284091949463,2.439795732498169,-0.23335053026676178
1787956248020707000,18.32570703125,0.2376265823841095,2.375044107437134,-0.21441370248794556
1787956248037038000,18.3420380859375,0.23640485107898712,2.333505153656006,-0.21930062770843506
1787956248053339400,18.35833935546875,0.28588494658470154,2.2510383129119873,-0.28588494658470154
1787956248068909800,18.373909912109376,0.36163222789764404,2.216830015182495,-0.35674530267715454
1787956248085182200,18.39018212890625,0.45142942667007446,2.1502456665039062,-0.4495968222618103
1787956248101497900,18.406497802734375,0.5839871764183044,2.074498414993286,-0.5442809462547302
1787956248117141500,18.4221416015625,0.685390830039978,2.012190103530884,-0.5088507533073425
1787956248133572600,18.438572509765624,0.7623597979545593,1.9895881414413452,-0.384845107793808
1787956248149614300,18.4546142578125,0.8130616545677185,1.985922932624817,-0.192422553896904
1787956248165382400,18.47038232421875,0.8020660877227783,1.929112434387207,-0.045204028487205505
1787956248181574000,18.486573974609374,0.7641924023628235,1.8832975625991821,0.019547687843441963
1787956248197528800,18.50252880859375,0.7214318513870239,1.813048005104065,0.02321287989616394
1787956248213937200,18.518937255859374,0.646906316280365,1.7757853269577026,0.00427605677396059
1787956248229565000,18.53456494140625,0.5754350423812866,1.7721201181411743,-0.022602014243602753
1787956248245778400,18.5507783203125,0.4996877610683441,1.7831156253814697,-0.05375614017248154
1787956248261418200,18.566418212890625,0.41661009192466736,1.817324161529541,-0.07880161702632904
1787956248277726200,18.582726318359374,0.35735616087913513,1.8509217500686646,-0.08368854224681854
1787956248293959400,18.59895947265625,0.32681289315223694,1.8503108024597168,-0.07147123664617538
1787956248309615600,18.61461572265625,0.3243694305419922,1.8270978927612305,-0.048258353024721146
1787956248325923600,18.630923583984377,0.3390302062034607,1.814269781112671,-0.018325956538319588
1787956248341731000,18.64673095703125,0.36163222789764404,1.8002198934555054,0.01466076634824276
1787956248357850000,18.66285009765625,0.3830125033855438,1.82404363155365,0.05619960278272629
1787956248374246000,18.679245849609377,0.3903428912162781,1.8411478996276855,0.09407325088977814
1787956248389822200,18.694822265625,0.37751471996307373,1.8936822414398193,0.13805554807186127
1787956248406530300,18.7115302734375,0.35735616087913513,1.9309450387954712,0.15821409225463867
1787956248421775600,18.726775634765627,0.33658674359321594,1.8979582786560059,0.16004669666290283
1787956248438080800,18.743080810546875,0.30115658044815063,1.8564194440841675,0.10873401165008545
1787956248454296800,18.759296875,0.2767219543457031,1.8295414447784424,0.015271631069481373
1787956248469933000,18.77493310546875,0.23090706765651703,1.7318029403686523,-0.09529497474431992
1787956248486160000,18.791159912109375,0.2174680233001709,1.6352862119674683,-0.20952677726745605
1787956248501915000,18.806914794921877,0.21380282938480377,1.557706356048584,-0.2932153046131134
1787956248518191000,18.823191162109374,0.2632829248905182,1.4679092168807983,-0.38667771220207214
1787956248534380300,18.83938037109375,0.33108896017074585,1.350012183189392,-0.44593164324760437
1787956248550077700,18.85507763671875,0.42210787534713745,1.2797627449035645,-0.4153883755207062
1787956248566335500,18.87133544921875,0.48380526900291443,1.2687671184539795,-0.2565633952617645
1787956248582184000,18.887183837890625,0.5082398653030396,1.2760975360870361,-0.03726277872920036
1787956248598470700,18.903470703125,0.4948008358478546,1.2205088138580322,0.12400564551353455
1787956248614826200,18.919826171875,0.4740314185619354,1.1386528015136719,0.16065755486488342
1787956248630425900,18.93542578125,0.45753806829452515,1.0335839986801147,0.13988813757896423
1787956248646772700,18.951772705078124,0.44287729263305664,0.9132435321807861,0.08429940044879913
1787956248662968300,18.96796826171875,0.4105014503002167,0.837496280670166,0.0708603709936142
1787956248678607600,18.983607666015626,0.3219259977340698,0.8436049222946167,0.09224065393209457
1787956248694888700,18.999888671875,0.20586158335208893,0.8918632864952087,0.12461651116609573
1787956248710709800,19.015709716796874,0.11911872029304504,0.9248499870300293,0.12400564551353455
1787956248726810600,19.031810546875,0.04948008432984352,0.9388998746871948,0.11789698898792267
1787956248742652400,19.04765234375,0.02932153269648552,0.9028588533401489,0.1319468915462494
1787956248759138300,19.06413818359375,0.051312681287527084,0.8356636762619019,0.1508837193250656
1787956248775370500,19.08037060546875,0.08979719132184982,0.7275404930114746,0.18570303916931152
1787956248790885600,19.0958857421875,0.1270599663257599,0.6236934065818787,0.2070833146572113
1787956248807021600,19.112021484375,0.14538592100143433,0.5094616413116455,0.16554448008537292
1787956248822883300,19.12788330078125,0.1514945775270462,0.4196644127368927,0.0708603709936142
1787956248839044600,19.144044677734374,0.14844025671482086,0.35552358627319336,-0.07635815441608429
1787956248855529700,19.16052978515625,0.13561208546161652,0.3286454975605011,-0.20463985204696655
1787956248871371500,19.17637158203125,0.10201449692249298,0.3445279896259308,-0.2724458873271942
1787956248887191000,19.19219091796875,0.10018189996480942,0.36713001132011414,-0.2987131178379059
1787956248903078100,19.208078125,0.1215621829032898,0.39156460762023926,-0.27611109614372253
1787956248919678000,19.224677978515626,0.1667662113904953,0.45142942667007446,-0.2223549485206604
1787956248935485700,19.240485595703124,0.22479841113090515,0.4447098970413208,-0.16920967400074005
1787956248951447000,19.256447021484377,0.29626965522766113,0.3793473243713379,-0.1563815027475357
1787956248967363300,19.27236328125,0.34513887763023376,0.3219259977340698,-0.16859880089759827
1787956248983332600,19.28833251953125,0.37751471996307373,0.3182607889175415,-0.2070833146572113
1787956248999680300,19.30468017578125,0.41172316670417786,0.3243694305419922,-0.2474004179239273
1787956249015857000,19.32085693359375,0.42577308416366577,0.2968805134296417,-0.2632829248905182
1787956249031378700,19.336378662109375,0.44654250144958496,0.2620611786842346,-0.2321287989616394
1787956249047916500,19.35291650390625,0.46853363513946533,0.1966986060142517,-0.13255776464939117
1787956249063696000,19.36869580078125,0.4856378734111786,0.14355333149433136,-0.006108652334660292
1787956249080055300,19.38505517578125,0.4813618063926697,0.09957103431224823,0.06108652427792549
1787956249096115000,19.401114990234376,0.4392121136188507,0.0708603709936142,0.04642575979232788
1787956249111726600,19.4167265625,0.39095374941825867,0.05314527451992035,-0.06414084881544113
1787956249128095000,19.433094970703124,0.35246923565864563,-0.021380282938480377,-0.18448130786418915
1787956249143791900,19.4487919921875,0.303600013256073,-0.11789698898792267,-0.29504790902137756
1787956249160039400,19.465039306640627,0.2583959996700287,-0.16859880089759827,-0.30054569244384766
1787956249176438800,19.481438720703125,0.20525072515010834,-0.1869247704744339,-0.17898350954055786
1787956249192032300,19.4970322265625,0.152105450630188,-0.15760323405265808,-0.039706241339445114
1787956249208363800,19.51336376953125,0.10262536257505417,-0.10995574295520782,0.07880161702632904
1787956249224524300,19.529524169921874,0.06963863968849182,-0.07696902006864548,0.09957103431224823
1787956249240388400,19.545388427734373,0.06536258012056351,-0.0708603709936142,0.0555887371301651
1787956249256698600,19.56169873046875,0.06169738993048668,-0.08307767659425735,-0.02076941914856434
1787956249272379100,19.577379150390627,0.059864792972803116,-0.1160643994808197,-0.08979719132184982
1787956249288469800,19.5934697265625,0.06414084881544113,-0.18081611394882202,-0.1411098688840866
1787956249304196900,19.60919677734375,0.060475658625364304,-0.23945917189121246,-0.19486601650714874
1787956249320488000,19.625488037109374,0.04092797264456749,-0.28527405858039856,-0.21624629199504852
1787956249336817400,19.6418173828125,0.016493361443281174,-0.3121521472930908,-0.21868975460529327
1787956249352600800,19.657600830078124,-0.006108652334660292,-0.35246923565864563,-0.19425514340400696
1787956249368594200,19.67359423828125,-0.03726277872920036,-0.3793473243713379,-0.14844025671482086
1787956249384480000,19.68947998046875,-0.07513642311096191,-0.3579670190811157,-0.09773843735456467
