time,seconds_elapsed,z,y,x
1787956229833383700,0.1383837890625,70.44300079345703,-42.569000244140625,32.38300323486328
1787956229849599000,0.154598876953125,77.51200103759766,-81.12700653076172,34.682003021240234
1787956229865661000,0.170660888671875,76.41600036621094,-80.281005859375,33.67300033569336
1787956229881546500,0.18654638671875,79.09600067138672,-80.81000518798828,34.479000091552734
1787956229897661200,0.2026611328125,77.09200286865234,-82.42000579833984,34.060001373291016
1787956229913651500,0.2186513671875,78.53700256347656,-80.39500427246094,33.46500015258789
1787956229929702100,0.2347021484375,77.71400451660156,-81.99800109863281,33.656002044677734
1787956229945772500,0.2507724609375,77.89400482177734,-81.4780044555664,32.540000915527344
1787956229961666300,0.266666259765625,79.19400024414062,-82.22000122070312,33.24400329589844
1787956229977735400,0.2827353515625,78.33600616455078,-81.25200653076172,33.45800018310547
1787956229993742000,0.2987421875,79.36800384521484,-80.73100280761719,32.44200134277344
1787956230009800700,0.31480078125,76.6300048828125,-81.9020004272461,32.74100112915039
1787956230025879600,0.330879638671875,79.57300567626953,-81.16800689697266,31.827001571655273
1787956230041788700,0.34678857421875,81.0530014038086,-80.85100555419922,31.726001739501953
1787956230057866000,0.362865966796875,78.29200744628906,-79.87300109863281,32.349002838134766
1787956230073876500,0.37887646484375,77.9070053100586,-80.6050033569336,33.66800308227539
1787956230089967400,0.39496728515625,79.30400085449219,-81.78600311279297,33.656002044677734
1787956230106002000,0.411001953125,78.6290054321289,-79.7540054321289,33.26700210571289
1787956230121911800,0.426911865234375,78.84000396728516,-79.97200012207031,33.06100082397461
1787956230137997000,0.4429970703125,78.95500183105469,-81.91200256347656,32.229000091552734
1787956230153962500,0.45896240234375,79.49100494384766,-81.47700500488281,32.74100112915039
1787956230170039800,0.475039794921875,80.02800750732422,-81.25800323486328,33.150001525878906
1787956230186135300,0.49113525390625,78.3080062866211,-81.48500061035156,32.03000259399414
1787956230202061600,0.5070615234375,79.81700134277344,-80.82500457763672,33.46000289916992
1787956230218159400,0.523159423828125,77.67100524902344,-80.18700408935547,32.85700225830078
1787956230234139100,0.53913916015625,80.13900756835938,-82.5530014038086,32.527000427246094
1787956230250231300,0.555231201171875,77.89000701904297,-81.37200164794922,32.439002990722656
1787956230266335200,0.571335205078125,79.39100646972656,-80.60900115966797,33.564002990722656
1787956230282267100,0.58726708984375,78.62300109863281,-80.94700622558594,32.23800277709961
1787956230298371000,0.60337109375,80.0060043334961,-79.6510009765625,33.16400146484375
1787956230314360600,0.619360595703125,79.60400390625,-80.60900115966797,33.564002990722656
1787956230330461400,0.63546142578125,77.47500610351562,-80.39300537109375,33.46600341796875
1787956230346528500,0.651528564453125,77.16700744628906,-81.79100036621094,33.047000885009766
1787956230362428700,0.6674287109375,78.73300170898438,-81.0530014038086,32.3390007019043
1787956230378502100,0.683502197265625,77.25100708007812,-80.72400665283203,32.75100326538086
1787956230394505500,0.69950537109375,77.29100036621094,-81.45600128173828,34.069000244140625
1787956230410565400,0.7155654296875,78.50200653076172,-79.5510025024414,32.454002380371094
1787956230426646000,0.73164599609375,78.11700439453125,-81.2550048828125,33.152000427246094
1787956230442551800,0.7475517578125,78.18600463867188,-80.52200317382812,31.93600082397461
1787956230458633700,0.7636337890625,78.51200103759766,-80.41000366210938,32.34400177001953
1787956230474645000,0.77964501953125,79.52200317382812,-80.91800689697266,34.47800064086914
1787956230490715400,0.79571533203125,79.1760025024414,-81.69100189208984,32.7400016784668
1787956230506805800,0.8118056640625,79.40300750732422,-80.81800079345703,33.970001220703125
1787956230522717400,0.827717529296875,79.07200622558594,-81.69000244140625,32.842002868652344
1787956230538802000,0.843802001953125,79.4000015258789,-80.27900695800781,34.178001403808594
1787956230554820900,0.85982080078125,78.79500579833984,-79.9990005493164,31.023000717163086
1787956230570900700,0.875900634765625,78.87000274658203,-81.46700286865234,33.45500183105469
1787956230587000000,0.892,78.6310043334961,-81.3740005493164,32.336002349853516
1787956230602928600,0.9079287109375,78.7560043334961,-81.2550048828125,33.25400161743164
1787956230619029800,0.92402978515625,80.01400756835938,-81.0510025024414,32.643001556396484
1787956230635015200,0.94001513671875,79.3790054321289,-80.50900268554688,33.055999755859375
1787956230651103500,0.956103515625,78.13899993896484,-81.67500305175781,33.862003326416016
1787956230667214800,0.97221484375,76.4050064086914,-81.26100158691406,32.54300308227539
1787956230683149600,0.988149658203125,80.31700134277344,-80.08800506591797,32.54899978637695
1787956230699263000,1.004262939453125,78.83700561523438,-80.406005859375,32.650001525878906
1787956230715259000,1.0202587890625,78.94100189208984,-81.3800048828125,31.928001403808594
1787956230731362600,1.036362548828125,78.22600555419922,-81.14600372314453,33.35700225830078
1787956230747432700,1.0524326171875,78.7560043334961,-81.36400604248047,33.1510009765625
1787956230763328500,1.06832861328125,78.22400665283203,-79.85000610351562,34.082000732421875
1787956230779445000,1.084445068359375,79.06400299072266,-81.15400695800781,32.84700012207031
1787956230795444500,1.100444580078125,79.71700286865234,-80.93000030517578,33.663002014160156
1787956230811553500,1.116553466796875,78.54800415039062,-82.00900268554688,32.94200134277344
1787956230827626500,1.13262646484375,78.86900329589844,-80.927001953125,33.7660026550293
1787956230843520000,1.14852001953125,79.07300567626953,-80.9330062866211,33.358001708984375
1787956230859600100,1.16460009765625,77.06400299072266,-81.24800109863281,33.56100082397461
1787956230875615200,1.180615234375,80.02300262451172,-80.72100067138672,33.25699996948242
1787956230891686700,1.196686767578125,77.47400665283203,-81.47400665283203,32.74400329589844
1787956230907775000,1.21277490234375,79.29600524902344,-81.35900115966797,33.55800247192383
1787956230923686100,1.22868603515625,79.59600067138672,-81.69500732421875,32.53499984741211
1787956230939772400,1.2447724609375,77.22400665283203,-80.41600036621094,31.735000610351562
1787956230955796000,1.2607958984375,77.70100402832031,-81.57400512695312,33.354000091552734
1787956230971874000,1.2768740234375,78.5510025024414,-79.9540023803711,34.38600158691406
1787956230987968000,1.292968017578125,77.79900360107422,-80.82200622558594,33.46200180053711
1787956231003883800,1.3088837890625,81.70700073242188,-79.97600555419922,33.057003021240234
1787956231019880400,1.32488037109375,76.93400573730469,-80.5060043334961,32.957000732421875
1787956231035856000,1.34085595703125,78.302001953125,-79.75900268554688,32.86000061035156
1787956231051932700,1.3569326171875,80.34800720214844,-81.36600494384766,33.14900207519531
1787956231068015000,1.37301513671875,76.21900177001953,-82.21700286865234,33.145999908447266
1787956231083939600,1.388939697265625,76.83800506591797,-80.60800170898438,33.3640022277832
1787956231100036000,1.4050361328125,78.75100708007812,-79.85400390625,33.87700271606445
1787956231116015000,1.42101513671875,79.93800354003906,-80.92400360107422,34.070003509521484
1787956231132105500,1.43710546875,78.73200225830078,-80.83700561523438,32.44200134277344
1787956231148165400,1.453165283203125,78.03300476074219,-81.0260009765625,34.275001525878906
1787956231164104200,1.469104248046875,77.8030014038086,-80.06400299072266,34.08000183105469
1787956231180216000,1.485216064453125,78.56300354003906,-80.81100463867188,34.37800216674805
1787956231196210200,1.501210205078125,76.29600524902344,-80.93800354003906,32.64800262451172
1787956231212308200,1.51730810546875,76.42900085449219,-81.57000732421875,33.457000732421875
1787956231228376300,1.533376220703125,76.5060043334961,-79.75100708007812,33.27000045776367
1787956231244319000,1.549319091796875,77.36700439453125,-81.25800323486328,32.84800338745117
1787956231260432000,1.565431884765625,78.09700012207031,-79.97100067138672,33.0620002746582
1787956231276432000,1.581431884765625,78.54000091552734,-81.47300720214844,32.94600296020508
1787956231292489700,1.59748974609375,78.22700500488281,-81.36100006103516,33.25300216674805
1787956231308566300,1.613566162109375,78.5320053100586,-79.7490005493164,33.67500305175781
1787956231324489500,1.629489501953125,79.39600372314453,-80.60600280761719,33.768001556396484
1787956231340558800,1.645558837890625,76.61000061035156,-80.72500610351562,32.54800033569336
1787956231356558800,1.661558837890625,76.84700012207031,-80.38600158691406,33.875
1787956231372620000,1.6776201171875,78.11700439453125,-80.60700225830078,33.566001892089844
1787956231388695800,1.69369580078125,76.92400360107422,-80.62000274658203,32.44600296020508
1787956231404601900,1.709601806640625,78.54500579833984,-82.01000213623047,32.84000015258789
1787956231420685300,1.725685302734375,77.78300476074219,-81.58900451660156,32.233001708984375
1787956231436701700,1.74170166015625,76.72900390625,-80.50200653076172,33.26300048828125
1787956231452780800,1.75778076171875,78.3060073852539,-82.0270004272461,31.617000579833984
1787956231468871400,1.773871337890625,77.80400085449219,-81.14400482177734,33.45900344848633
1787956231484786000,1.789785888671875,78.41300201416016,-80.29700469970703,32.75300216674805
1787956231500787000,1.805786865234375,78.21300506591797,-81.37000274658203,32.64200210571289
1787956231516807700,1.8218076171875,79.06700134277344,-81.8010025024414,32.53499984741211
1787956231532890000,1.83789013671875,78.52000427246094,-81.16100311279297,32.236000061035156
1787956231548988000,1.85398779296875,79.39000701904297,-81.69000244140625,32.84100341796875
1787956231564905700,1.86990576171875,76.83500671386719,-81.69000244140625,32.53900146484375
1787956231581001500,1.88600146484375,76.84600067138672,-81.14400482177734,33.35900115966797
1787956231596981500,1.9019814453125,76.39000701904297,-80.4050064086914,32.44900131225586
1787956231613072400,1.918072265625,76.2020034790039,-81.14700317382812,33.05400085449219
1787956231629165000,1.9341650390625,76.9330062866211,-80.93900299072266,32.647003173828125
1787956231645100800,1.950100830078125,77.2560043334961,-81.26100158691406,32.64400100708008
1787956231661205000,1.966205078125,75.98500061035156,-80.28500366210938,33.367000579833984
1787956231677198600,1.982198486328125,78.11200714111328,-81.9070053100586,32.53600311279297
1787956231693296400,1.99829638671875,76.9260025024414,-79.43000030517578,33.272003173828125
1787956231709368800,2.014368896484375,77.16800689697266,-81.57400512695312,33.25300216674805
1787956231725267000,2.030266845703125,77.1780014038086,-82.4330062866211,33.143001556396484
1787956231741338400,2.04633837890625,77.2560043334961,-81.36900329589844,32.54100036621094
1787956231757338000,2.062338134765625,77.04600524902344,-81.25900268554688,32.746002197265625
1787956231773442800,2.07844287109375,76.16500091552734,-81.2770004272461,31.321001052856445
1787956231789513200,2.09451318359375,77.16100311279297,-80.71400451660156,33.4640007019043
1787956231805408800,2.11040869140625,78.30500030517578,-81.59500122070312,31.825000762939453
1787956231821491700,2.12649169921875,76.4990005493164,-81.26800537109375,32.034000396728516
1787956231837500200,2.142500244140625,75.80000305175781,-82.1050033569336,33.454002380371094
1787956231853563000,2.15856298828125,75.76900482177734,-80.39400482177734,33.163002014160156
1787956231869651000,2.17465087890625,77.4540023803711,-80.19000244140625,32.65299987792969
1787956231885561600,2.1905615234375,78.51800537109375,-80.51400756835938,32.547000885009766
1787956231901648000,2.20664794921875,76.51200103759766,-81.04400634765625,32.749000549316406
1787956231917668000,2.222668212890625,77.8030014038086,-81.25200653076172,33.35700225830078
1787956231933742300,2.238742431640625,77.48800659179688,-82.0060043334961,33.04500198364258
1787956231949832400,2.25483251953125,76.48600006103516,-81.2760009765625,31.423002243041992
1787956231965744400,2.270744384765625,75.02000427246094,-81.26200103759766,32.34100341796875
1787956231981828000,2.286828125,77.78700256347656,-81.58600616455078,32.4370002746582
1787956231997806800,2.302806884765625,76.3810043334961,-81.16700744628906,31.5260009765625
1787956232013890000,2.31889013671875,77.00700378417969,-80.41800689697266,31.531002044677734
1787956232029994000,2.334993896484375,76.18000030517578,-80.51200103759766,32.448001861572266
1787956232045918000,2.35091796875,75.7300033569336,-80.5260009765625,31.328001022338867
1787956232062014500,2.367014404296875,76.81100463867188,-81.92100524902344,31.315000534057617
1787956232077995500,2.38299560546875,75.31600189208984,-81.16700744628906,31.42500114440918
1787956232094086000,2.3990859375,75.78700256347656,-81.68000030517578,33.152000427246094
1787956232110201900,2.415201904296875,74.89000701904297,-80.51900482177734,31.737001419067383
1787956232126140400,2.431140380859375,76.0510025024414,-80.5250015258789,31.430002212524414
1787956232142252800,2.447252685546875,74.49200439453125,-81.69100189208984,32.236000061035156
1787956232158242600,2.46324267578125,76.1500015258789,-79.99000549316406,31.434001922607422
1787956232174335500,2.47933544921875,74.28300476074219,-81.58000183105469,32.441001892089844
1787956232190384000,2.495384033203125,76.49800109863281,-81.16100311279297,32.03499984741211
1787956232206324500,2.511324462890625,75.31100463867188,-80.9540023803711,31.325000762939453
1787956232222436600,2.5274365234375,74.04100036621094,-81.59800720214844,31.117000579833984
1787956232238428700,2.5434287109375,75.73400115966797,-80.95600128173828,31.22300148010254
1787956232254531000,2.559531005859375,73.83600616455078,-81.26900482177734,31.630001068115234
1787956232270600400,2.575600341796875,75.75200653076172,-81.48500061035156,31.727001190185547
1787956232286496300,2.591496337890625,75.52000427246094,-81.71300506591797,30.707000732421875
1787956232302564000,2.607564208984375,74.88800048828125,-81.06100463867188,31.325000762939453
1787956232318563600,2.6235634765625,75.83700561523438,-80.74200439453125,31.224000930786133
1787956232334630400,2.63963037109375,74.26700592041016,-81.91400146484375,31.522001266479492
1787956232350718700,2.65571875,73.09400177001953,-82.02400207519531,31.21700096130371
1787956232366628000,2.671628173828125,73.58000183105469,-79.7820053100586,30.625001907348633
1787956232382714600,2.687714599609375,74.87000274658203,-80.74700164794922,30.716001510620117
1787956232398772000,2.70377197265625,72.88300323486328,-81.48200225830078,31.62900161743164
1787956232414846700,2.7198466796875,72.52799987792969,-80.63900756835938,30.516000747680664
1787956232430926600,2.735926513671875,74.7300033569336,-80.11900329589844,29.601001739501953
1787956232446839300,2.75183935546875,72.29400634765625,-79.89600372314453,30.014001846313477
1787956232462927400,2.76792724609375,73.48500061035156,-80.42400360107422,30.72100067138672
1787956232478952400,2.783952392578125,74.01500701904297,-79.99300384521484,30.928001403808594
1787956232495033000,2.800033203125,72.76800537109375,-79.97500610351562,32.152000427246094
1787956232511139000,2.81613916015625,74.66699981689453,-81.06600189208984,30.917001724243164
1787956232527070200,2.8320703125,72.97300720214844,-81.2760009765625,31.020002365112305
1787956232543176400,2.848176513671875,74.89800262451172,-81.81100463867188,31.31800079345703
1787956232559192800,2.86419287109375,74.06000518798828,-81.15400695800781,32.242000579833984
1787956232575293400,2.88029345703125,75.97400665283203,-81.69600677490234,32.031002044677734
1787956232591403800,2.89640380859375,75.77100372314453,-82.33900451660156,32.025001525878906
1787956232607330600,2.91233056640625,76.41600036621094,-82.5510025024414,32.22600173950195
1787956232623440100,2.928440185546875,77.6780014038086,-81.69600677490234,32.23200225830078
1787956232639477000,2.94447705078125,77.68700408935547,-82.8790054321289,31.91600227355957
1787956232655577600,2.96057763671875,78.54600524902344,-81.9020004272461,32.94200134277344
1787956232671686700,2.976686767578125,76.62300109863281,-82.8790054321289,31.816001892089844
1787956232687670800,2.9926708984375,78.12300109863281,-83.19700622558594,32.21900177001953
1787956232703789800,3.008789794921875,76.8340072631836,-81.79900360107422,32.43600082397461
1787956232719791900,3.0247919921875,79.37200164794922,-81.70100402832031,32.0260009765625
1787956232735896600,3.040896484375,76.22600555419922,-83.4010009765625,32.72800064086914
1787956232752009000,3.057009033203125,77.5060043334961,-82.96800231933594,33.2400016784668
1787956232767954400,3.072954345703125,78.34900665283203,-82.32500457763672,33.34600067138672
1787956232784034600,3.08903466796875,79.4000015258789,-83.19800567626953,32.319000244140625
1787956232800052200,3.10505224609375,77.906005859375,-82.01100158691406,32.7390022277832
1787956232816120300,3.121120361328125,79.38900756835938,-82.44700622558594,32.32500076293945
1787956232832200200,3.1372001953125,77.92500305175781,-82.86400604248047,33.03700256347656
1787956232848151000,3.153151123046875,77.95100402832031,-82.95600128173828,34.156002044677734
1787956232864142600,3.169142578125,78.7550048828125,-82.44500732421875,32.428001403808594
1787956232880167700,3.185167724609375,78.00900268554688,-81.14800262451172,33.15400314331055
1787956232896248000,3.201248046875,78.53900146484375,-81.69000244140625,32.74100112915039
1787956232912347100,3.21734716796875,77.4540023803711,-82.67500305175781,31.10300064086914
1787956232928271600,3.233271728515625,75.79500579833984,-81.24400329589844,33.76700210571289
1787956232944365600,3.249365478515625,76.42000579833984,-83.19700622558594,32.01700210571289
1787956232960346600,3.2653466796875,77.6050033569336,-81.78400421142578,33.65800094604492
1787956232976436200,3.281436279296875,77.49200439453125,-82.11200714111328,33.145999908447266
1787956232992549600,3.297549560546875,78.56300354003906,-81.9990005493164,33.65500259399414
1787956233008483300,3.3134833984375,77.58300018310547,-81.36500549316406,32.948001861572266
1787956233024594000,3.329593994140625,76.61900329589844,-80.72000122070312,32.95500183105469
1787956233040589800,3.34558984375,78.31700134277344,-81.1550064086914,32.64400100708008
1787956233056693000,3.36169287109375,79.50100708007812,-81.68800354003906,33.04500198364258
1787956233072764700,3.3777646484375,78.63800048828125,-81.37000274658203,32.6410026550293
1787956233088736800,3.39373681640625,77.26399993896484,-81.47300720214844,32.84600067138672
1787956233104845000,3.409844970703125,78.83500671386719,-80.4070053100586,32.54800033569336
1787956233120840200,3.425840087890625,76.39000701904297,-81.7020034790039,31.623001098632812
1787956233136945200,3.441945068359375,76.6310043334961,-82.11700439453125,32.637001037597656
1787956233153019000,3.458018798828125,77.97000122070312,-81.2800064086914,31.319002151489258
1787956233168920000,3.473920166015625,76.99800109863281,-81.07200622558594,30.711002349853516
1787956233184990700,3.48999072265625,76.51900482177734,-82.66100311279297,32.022003173828125
1787956233201005800,3.506005859375,75.25700378417969,-82.54400634765625,32.63500213623047
1787956233217065000,3.52206494140625,77.97500610351562,-81.49300384521484,31.41900062561035
1787956233233144000,3.53814404296875,76.79500579833984,-81.2820053100586,31.01500129699707
1787956233249051100,3.554051025390625,77.01200103759766,-81.60400390625,31.012001037597656
1787956233265133800,3.5701337890625,77.4000015258789,-80.76200103759766,29.898000717163086
1787956233281149400,3.5861494140625,76.4000015258789,-82.23600769042969,31.720001220703125
1787956233297220000,3.60222021484375,74.89700317382812,-81.3790054321289,31.5260009765625
1787956233313301200,3.61830126953125,74.68600463867188,-82.13500213623047,31.112001419067383
1787956233329252600,3.634252685546875,74.21000671386719,-80.76000213623047,29.698001861572266
1787956233345338000,3.650338134765625,76.54200744628906,-80.44200134277344,29.698001861572266
1787956233361398000,3.66639794921875,76.3290023803711,-79.9020004272461,30.009000778198242
1787956233377474000,3.68247412109375,74.41699981689453,-80.9800033569336,29.28900146484375
1787956233393560000,3.69856005859375,74.65400695800781,-80.96500396728516,30.40900230407715
1787956233409518600,3.7145185546875,74.84100341796875,-80.98100280761719,29.288002014160156
1787956233425612500,3.730612548828125,73.78500366210938,-81.19200134277344,29.389001846313477
1787956233441634000,3.746634033203125,75.16100311279297,-81.41300201416016,29.080001831054688
1787956233457715700,3.7627158203125,74.47400665283203,-79.6050033569336,27.976001739501953
1787956233473794800,3.778794921875,75.89000701904297,-80.01800537109375,29.295001983642578
1787956233489716700,3.794716796875,75.69000244140625,-81.41500091552734,28.97800064086914
1787956233505818400,3.810818359375,76.31200408935547,-80.34400177001953,28.98600196838379
1787956233521799200,3.826799072265625,74.1820068359375,-79.37200164794922,29.303001403808594
1787956233537885400,3.842885498046875,72.69499969482422,-79.37000274658203,29.305002212524414
1787956233553992700,3.85899267578125,73.36500549316406,-80.10700225830078,30.316001892089844
1787956233569933300,3.874933349609375,75.33000183105469,-79.38600158691406,28.38500213623047
1787956233586042600,3.891042724609375,73.85100555419922,-78.94700622558594,29.00200080871582
1787956233602072000,3.907072021484375,75.32100677490234,-78.9590072631836,28.28700065612793
1787956233618165200,3.923165283203125,75.0040054321289,-78.85000610351562,28.39000129699707
1787956233634244900,3.939244873046875,74.36800384521484,-78.95600128173828,28.39000129699707
1787956233650188800,3.955188720703125,74.83900451660156,-77.58800506591797,26.56800079345703
1787956233666307000,3.97130712890625,72.84100341796875,-76.7090072631836,28.00400161743164
1787956233682303700,3.9873037109375,73.49100494384766,-78.10700225830078,27.685001373291016
1787956233698411800,4.003411865234375,73.26000213623047,-77.25300598144531,27.38800048828125
1787956233714480600,4.019480712890625,75.27400207519531,-77.1510009765625,27.284000396728516
1787956233730388500,4.035388427734375,75.09600067138672,-78.64300537109375,27.882001876831055
1787956233746467300,4.05146728515625,74.81900024414062,-77.60100555419922,25.6510009765625
1787956233762496000,4.06749609375,75.052001953125,-76.94000244140625,26.981000900268555
1787956233778564900,4.08356494140625,75.47600555419922,-76.72500610351562,27.084001541137695
1787956233794623000,4.099623046875,74.42900085449219,-77.36200714111328,27.38500213623047
1787956233810536400,4.115536376953125,76.64400482177734,-77.0510025024414,26.876001358032227
1787956233826621000,4.131620849609375,76.86200714111328,-76.83200073242188,27.285001754760742
1787956233842636500,4.147636474609375,76.54500579833984,-76.93800354003906,27.284000396728516
1787956233858706400,4.16370654296875,77.26000213623047,-76.84900665283203,26.062002182006836
1787956233874799000,4.179799072265625,76.08800506591797,-76.74100494384766,25.96200180053711
1787956233890717400,4.195717529296875,78.10000610351562,-76.20700073242188,26.066001892089844
1787956233906805800,4.2118056640625,77.92400360107422,-77.48200225830078,26.8700008392334
1787956233922815500,4.2278154296875,79.0580062866211,-75.55900573730469,26.580001831054688
1787956233938897400,4.2438974609375,77.0250015258789,-76.21400451660156,25.45600128173828
1787956233954979300,4.259979248046875,78.21700286865234,-76.84900665283203,26.16200065612793
1787956233970946000,4.275946044921875,76.17000579833984,-75.9990005493164,25.358001708984375
1787956233987044900,4.292044921875,77.47200012207031,-75.87600708007812,26.681001663208008
1787956234003073500,4.308073486328125,76.70800018310547,-75.67200469970703,25.869001388549805
1787956234019169800,4.324169677734375,78.86000061035156,-77.06300354003906,26.262001037597656
1787956234035255300,4.34025537109375,78.85000610351562,-76.2040023803711,26.371002197265625
1787956234051237400,4.3562373046875,77.03400421142578,-77.5050048828125,25.038002014160156
1787956234067353000,4.37235302734375,78.2090072631836,-76.74600219726562,25.858001708984375
1787956234083351300,4.388351318359375,79.98900604248047,-74.38700103759766,26.1820011138916
1787956234099453000,4.404452880859375,78.31200408935547,-76.5320053100586,25.85900115966797
1787956234115521300,4.420521240234375,79.3550033569336,-75.46400451660156,25.66400146484375
1787956234131422500,4.43642236328125,79.82100677490234,-77.2770004272461,26.360000610351562
1787956234147546000,4.452546142578125,79.60600280761719,-77.27799987792969,26.259000778198242
1787956234163551700,4.4685517578125,78.01300048828125,-76.73600006103516,26.571001052856445
1787956234179616500,4.484616455078125,77.79600524902344,-75.44100189208984,27.194002151489258
1787956234195703000,4.500703125,79.28500366210938,-76.95500183105469,26.36400032043457
1787956234211614000,4.516614013671875,80.78300476074219,-76.08600616455078,27.38800048828125
1787956234227695400,4.5326953125,79.13500213623047,-75.9010009765625,25.049001693725586
1787956234243708000,4.5487080078125,80.00800323486328,-75.7800064086914,26.170001983642578
1787956234259778800,4.56477880859375,80.92200469970703,-77.03900146484375,28.297000885009766
1787956234275871200,4.580871337890625,80.19700622558594,-76.81100463867188,29.216001510620117
1787956234291787500,4.59678759765625,81.10000610351562,-75.6550064086914,27.595001220703125
1787956234307878700,4.612878662109375,80.49500274658203,-77.14800262451172,28.09200096130371
1787956234323902000,4.62890185546875,81.22100067138672,-77.70000457763672,26.966001510620117
1787956234339979800,4.644979736328125,79.21500396728516,-76.9330062866211,27.994001388549805
1787956234356081000,4.661080810546875,79.72200012207031,-76.19200134277344,27.389001846313477
1787956234372014600,4.6770146484375,80.70600128173828,-74.44700622558594,29.746002197265625
1787956234388124000,4.6931240234375,79.74500274658203,-77.36700439453125,27.684001922607422
1787956234404130600,4.709130615234375,82.4000015258789,-76.72200012207031,28.09400177001953
1787956234420225300,4.725225341796875,79.75800323486328,-76.49400329589844,28.812002182006836
1787956234436331800,4.741331787109375,79.7560043334961,-75.52300262451172,29.330001831054688
1787956234452263400,4.757263427734375,81.14600372314453,-76.16800689697266,29.323001861572266
1787956234468368100,4.7733681640625,79.97400665283203,-77.03300476074219,28.60300064086914
1787956234484361000,4.78936083984375,79.35600280761719,-76.4800033569336,29.83100128173828
1787956234500459000,4.805458984375,79.4260025024414,-77.79900360107422,27.375001907348633
1787956234516527900,4.82152783203125,79.8290023803711,-75.54400634765625,27.802001953125
1787956234532499200,4.837499267578125,77.76600646972656,-77.34000396728516,29.418001174926758
1787956234548609800,4.85360986328125,80.9260025024414,-75.84800720214844,29.224000930786133
1787956234564654600,4.869654541015625,76.68600463867188,-77.45800018310547,28.50200080871582
1787956234580794400,4.88579443359375,78.61700439453125,-76.58500671386719,29.933000564575195
1787956234596880400,4.90188037109375,77.75,-77.13400268554688,28.809001922607422
1787956234612816100,4.917816162109375,80.36000061035156,-74.89600372314453,28.214000701904297
1787956234628893400,4.9338935546875,77.83100128173828,-75.31200408935547,28.825000762939453
1787956234644942300,4.9499423828125,78.17300415039062,-76.3790054321289,29.22300148010254
1787956234661008600,4.966008544921875,79.77400207519531,-75.83600616455078,29.93800163269043
1787956234677077000,4.982076904296875,80.0570068359375,-75.75,28.411001205444336
1787956234693030700,4.99803076171875,78.06300354003906,-75.73300170898438,29.4320011138916
1787956234709115600,5.01411572265625,80.20600128173828,-76.80500030517578,29.624000549316406
1787956234725137400,5.030137451171875,77.74500274658203,-76.16400146484375,29.22500228881836
1787956234741214200,5.046214111328125,77.32600402832031,-76.052001953125,29.532001495361328
1787956234757313800,5.062313720703125,80.3030014038086,-74.86600494384766,30.45600128173828
1787956234773266700,5.0782666015625,79.01500701904297,-74.87200164794922,29.84600067138672
1787956234789359600,5.094359619140625,76.91700744628906,-75.71800231933594,30.452001571655273
1787956234805381600,5.110381591796875,79.3340072631836,-74.22400665283203,30.259000778198242
1787956234821465300,5.12646533203125,77.46300506591797,-75.16900634765625,31.47500228881836
1787956234837557200,5.14255712890625,76.81200408935547,-74.63600158691406,31.17500114440918
1787956234853521700,5.158521728515625,78.52900695800781,-76.78900146484375,30.645002365112305
1787956234869615400,5.174615478515625,78.67200469970703,-76.11900329589844,32.6879997253418
1787956234885594000,5.190593994140625,77.89300537109375,-76.68000030517578,30.748001098632812
1787956234901679900,5.206679931640625,77.47700500488281,-75.16100311279297,32.08700180053711
1787956234917784600,5.22278466796875,78.20100402832031,-74.30900573730469,31.788002014160156
1787956234933719300,5.23871923828125,76.39700317382812,-74.19700622558594,31.893001556396484
1787956234949819000,5.25481884765625,79.3070068359375,-75.14800262451172,33.20500183105469
1787956234965803000,5.270802978515625,76.7030029296875,-74.09700012207031,31.384000778198242
1787956234981901600,5.286901611328125,78.73200225830078,-74.09400177001953,31.891000747680664
1787956234997969400,5.302969482421875,77.59200286865234,-73.96700286865234,33.217002868652344
1787956235013947400,5.318947509765625,78.13899993896484,-75.36200714111328,33.10300064086914
1787956235030036000,5.335035888671875,79.48100280761719,-72.9020004272461,32.919002532958984
1787956235046034000,5.351033935546875,77.47100067138672,-73.43500518798828,32.91699981689453
1787956235062148900,5.36714892578125,77.15900421142578,-75.37600708007812,31.983001708984375
1787956235078235400,5.3832353515625,78.01399993896484,-74.29300689697266,32.90800094604492
1787956235094176300,5.39917626953125,77.17300415039062,-74.61100006103516,33.11000061035156
1787956235110253300,5.41525341796875,79.75100708007812,-74.59700012207031,34.432003021240234
1787956235126290200,5.431290283203125,78.36100006103516,-75.03300476074219,33.71600341796875
1787956235142355700,5.447355712890625,79.64400482177734,-75.02900695800781,34.12200164794922
1787956235158451700,5.46345166015625,80.156005859375,-74.61000061035156,33.513999938964844
1787956235174391600,5.4793916015625,78.9020004272461,-74.92000579833984,34.22600173950195
1787956235190476800,5.495476806640625,78.2540054321289,-73.6290054321289,34.544002532958984
1787956235206526700,5.511526611328125,76.76300048828125,-73.19600677490234,34.6510009765625
1787956235222605300,5.527605224609375,75.70800018310547,-74.48700714111328,34.13199996948242
1787956235238688000,5.54368798828125,77.1300048828125,-75.54500579833984,35.34300231933594
1787956235254649000,5.559649169921875,77.56400299072266,-74.89200592041016,36.163002014160156
1787956235270743800,5.575743896484375,78.69900512695312,-73.29300689697266,35.66699981689453
1787956235286810400,5.591810302734375,80.61700439453125,-74.80400085449219,35.040000915527344
1787956235302891800,5.607891845703125,80.22300720214844,-75.00200653076172,36.26100158691406
1787956235318992600,5.62399267578125,80.34600067138672,-75.09900665283203,36.97300338745117
1787956235334919400,5.63991943359375,80.95500183105469,-75.01000213623047,35.75100326538086
1787956235351020300,5.656020263671875,81.5060043334961,-75.53800201416016,36.35600280761719
1787956235367052000,5.672052001953125,81.1760025024414,-75.3290023803711,35.95100021362305
1787956235383140900,5.688140869140625,79.38500213623047,-75.85800170898438,36.255001068115234
1787956235399254000,5.70425390625,81.08200073242188,-75.21300506591797,36.564002990722656
1787956235415187200,5.720187255859375,82.48400115966797,-75.63400268554688,37.270999908447266
1787956235431291000,5.736290771484375,81.75100708007812,-76.38400268554688,37.2660026550293
1787956235447302400,5.752302490234375,82.69800567626953,-75.74200439453125,37.27000045776367
1787956235463396400,5.768396240234375,82.4000015258789,-75.94500732421875,38.08400344848633
1787956235479490800,5.78449072265625,81.93600463867188,-75.53600311279297,36.560001373291016
1787956235495464400,5.80046435546875,82.06300354003906,-77.03700256347656,36.54600143432617
1787956235511583200,5.816583251953125,80.12700653076172,-76.29199981689453,35.944000244140625
1787956235527623700,5.832623779296875,83.31300354003906,-75.97200012207031,36.147003173828125
1787956235543734000,5.848734130859375,79.81800079345703,-76.28600311279297,36.35200119018555
1787956235559801300,5.86480126953125,82.57200622558594,-75.32100677490234,36.663002014160156
1787956235575694600,5.880694580078125,81.28700256347656,-75.54199981689453,36.051002502441406
1787956235591772400,5.8967724609375,81.11600494384766,-75.0840072631836,38.195003509521484
1787956235607783200,5.912783203125,82.26400756835938,-75.74700164794922,36.86300277709961
1787956235623853000,5.92885302734375,80.47600555419922,-74.54400634765625,38.40400314331055
1787956235639930400,5.944930419921875,79.81000518798828,-75.4260025024414,36.56300354003906
1787956235655870500,5.960870361328125,80.6290054321289,-73.5,36.37600326538086
1787956235671956200,5.976956298828125,80.1820068359375,-76.25900268554688,38.388999938964844
1787956235688010000,5.993010009765625,79.09100341796875,-74.65400695800781,38.099002838134766
1787956235704083000,6.0090830078125,83.31400299072266,-75.21500396728516,36.663002014160156
1787956235720158200,6.025158203125,79.3030014038086,-74.65400695800781,38.099002838134766
1787956235736112600,6.041112548828125,78.56700134277344,-75.51300048828125,37.88800048828125
1787956235752120600,6.05712060546875,79.91200256347656,-74.24000549316406,37.08300018310547
1787956235768134700,6.073134765625,81.44900512695312,-76.26500701904297,38.082000732421875
1787956235784221200,6.08922119140625,80.27100372314453,-76.37700653076172,37.573001861572266
1787956235800306700,6.105306640625,79.17900085449219,-75.20500183105469,36.974002838134766
1787956235816269000,6.12126904296875,77.45800018310547,-73.59400177001953,36.9900016784668
1787956235832369700,6.13736962890625,78.83700561523438,-72.94900512695312,37.30000305175781
1787956235848386300,6.15338623046875,77.5790023803711,-74.66600036621094,36.980003356933594
1787956235864472300,6.169472412109375,78.10000610351562,-74.781005859375,36.46900177001953
1787956235880567000,6.185567138671875,77.58900451660156,-74.2280044555664,37.69700241088867
1787956235896541000,6.201541015625,79.4070053100586,-74.9800033569336,37.790000915527344
1787956235912649700,6.217649658203125,76.61400604248047,-74.45500183105469,36.678001403808594
1787956235928684500,6.2336845703125,77.82600402832031,-74.21300506591797,38.81800079345703
1787956235944779800,6.24977978515625,79.26400756835938,-73.16400146484375,37.297000885009766
1787956235960887300,6.26588720703125,78.74100494384766,-74.34800720214844,36.880001068115234
1787956235976829700,6.28182958984375,78.39900207519531,-74.68500518798828,35.65500259399414
1787956235992951800,6.297951904296875,78.10700225830078,-73.58900451660156,37.499000549316406
1787956236008991500,6.313991455078125,77.8810043334961,-74.46100616455078,36.371002197265625
1787956236025047800,6.3300478515625,79.375,-73.16200256347656,37.50100326538086
1787956236041111300,6.346111328125,77.4530029296875,-73.0570068359375,37.09700012207031
1787956236057051000,6.36205078125,78.11700439453125,-74.01500701904297,37.69900131225586
1787956236073122300,6.378122314453125,77.90300750732422,-73.25800323486328,38.11300277709961
1787956236089129000,6.39412890625,78.62100219726562,-72.41000366210938,37.50800323486328
1787956236105190000,6.41018994140625,78.91700744628906,-73.07300567626953,36.07600021362305
1787956236121273900,6.42627392578125,77.23800659179688,-73.81500244140625,36.479000091552734
1787956236137181700,6.442181640625,77.27100372314453,-74.76700592041016,37.387001037597656
1787956236153270500,6.4582705078125,79.01900482177734,-71.45500183105469,36.90500259399414
1787956236169283600,6.47428369140625,77.87700653076172,-71.9780044555664,37.717002868652344
1787956236185358000,6.490358154296875,77.86300659179688,-72.31000518798828,36.89900207519531
1787956236201457700,6.506457763671875,79.05900573730469,-73.70000457763672,37.29300308227539
1787956236217380600,6.522380615234375,79.0270004272461,-71.88200378417969,37.00300216674805
1787956236233478100,6.53847802734375,77.66900634765625,-73.48800659179688,36.99100112915039
1787956236249502500,6.55450244140625,80.31600189208984,-72.95600128173828,36.992000579833984
1787956236265586000,6.5705859375,78.10600280761719,-74.02100372314453,37.189002990722656
1787956236281689300,6.586689453125,78.92500305175781,-73.60900115966797,36.07100296020508
1787956236297623800,6.602623779296875,78.70800018310547,-73.28700256347656,36.07400131225586
1787956236313725000,6.618724853515625,80.87000274658203,-73.8070068359375,37.49300003051758
1787956236329752600,6.634752685546875,78.08300018310547,-73.71100616455078,36.37700271606445
1787956236345845500,6.650845458984375,79.8010025024414,-73.59400177001953,37.29300308227539
1787956236361960000,6.6669599609375,80.75700378417969,-73.92000579833984,37.08500289916992
1787956236377924600,6.682924560546875,79.91500091552734,-73.80599975585938,37.49400329589844
1787956236394035700,6.69903564453125,79.38500213623047,-73.58800506591797,37.70100021362305
1787956236410061000,6.71506103515625,79.98900604248047,-74.14900207519531,35.861000061035156
1787956236426169300,6.73116943359375,80.10200500488281,-73.49700164794922,36.58000183105469
1787956236442261000,6.747260986328125,80.99300384521484,-74.98600006103516,37.483001708984375
1787956236458248400,6.76324853515625,80.64200592041016,-74.14100646972656,36.57400131225586
1787956236474367700,6.77936767578125,82.0300064086914,-74.3550033569336,36.77400207519531
1787956236490413600,6.79541357421875,82.34200286865234,-73.71100616455078,36.88100051879883
1787956236506525200,6.811525146484375,83.64800262451172,-73.69300079345703,38.30600357055664
1787956236522643000,6.827642822265625,83.01200103759766,-74.44800567626953,37.89200210571289
1787956236538551000,6.843551025390625,82.97600555419922,-74.14600372314453,36.46900177001953
1787956236554635800,6.8596357421875,80.91100311279297,-75.7280044555664,38.08700180053711
1787956236570660900,6.875660888671875,83.9780044555664,-74.87600708007812,38.09100341796875
1787956236586738000,6.891738037109375,81.93700408935547,-75.64300537109375,36.55900192260742
1787956236602834700,6.907834716796875,83.83300018310547,-74.6830062866211,36.4630012512207
1787956236618751200,6.923751220703125,83.62600708007812,-75.54400634765625,36.150001525878906
1787956236634840000,6.939840087890625,83.01300048828125,-75.63700103759766,37.169002532958984
1787956236650867200,6.9558671875,82.26900482177734,-75.31100463867188,37.37600326538086
1787956236666948000,6.971947998046875,81.93500518798828,-75.96900177001953,36.25
1787956236683022300,6.988022216796875,83.94900512695312,-75.86600494384766,36.147003173828125
1787956236698974200,7.00397412109375,83.32500457763672,-76.5060043334961,36.34600067138672
1787956236715069000,7.02006884765625,85.87600708007812,-76.72400665283203,36.34000015258789
1787956236731093000,7.036093017578125,82.52100372314453,-77.34100341796875,37.867000579833984
1787956236747176400,7.052176513671875,83.86400604248047,-75.96100616455078,37.06300354003906
1787956236763279600,7.068279541015625,84.05400085449219,-74.46200561523438,36.974002838134766
1787956236779211300,7.084211181640625,82.79700469970703,-74.5580062866211,37.68800354003906
1787956236795318800,7.10031884765625,81.62500762939453,-76.07100677490234,36.55500030517578
1787956236811310300,7.116310302734375,84.29300689697266,-76.06700134277344,37.163002014160156
1787956236827398700,7.132398681640625,83.94300079345703,-75.0050048828125,36.46000289916992
1787956236843508000,7.148508056640625,81.64300537109375,-75.73600006103516,37.577003479003906
1787956236859418600,7.164418701171875,84.68400573730469,-75.656005859375,35.944000244140625
1787956236875530500,7.180530517578125,83.6760025024414,-77.24300384521484,37.35700225830078
1787956236891522800,7.196522705078125,83.2280044555664,-76.82400512695312,36.547000885009766
1787956236907625700,7.212625732421875,83.7490005493164,-76.29000091552734,36.44900131225586
1787956236923696600,7.228696533203125,84.50800323486328,-77.2550048828125,36.54100036621094
1787956236939588400,7.24458837890625,81.92400360107422,-76.84000396728516,35.224002838134766
1787956236955705900,7.260705810546875,81.1760025024414,-76.19300079345703,35.43400192260742
1787956236971729400,7.2767294921875,82.26500701904297,-76.1780014038086,36.65500259399414
1787956236987832000,7.29283203125,81.73200225830078,-77.47600555419922,35.72800064086914
1787956237003913700,7.308913818359375,81.81700134277344,-76.6240005493164,35.3280029296875
1787956237019840800,7.3248408203125,83.18700408935547,-76.20000457763672,35.12600326538086
1787956237035916000,7.340916015625,82.54700469970703,-75.66100311279297,35.33500289916992
1787956237051954700,7.35695458984375,81.08800506591797,-76.1820068359375,36.249000549316406
1787956237068023300,7.373023193359375,82.33900451660156,-75.11800384521484,35.85000228881836
1787956237084095700,7.389095703125,79.9310073852539,-76.49700164794922,36.55400085449219
1787956237100050700,7.40505078125,83.35000610351562,-77.3550033569336,36.94900131225586
1787956237116141000,7.42114111328125,81.50100708007812,-76.62200164794922,35.43000030517578
1787956237132155100,7.437155029296875,80.74800109863281,-76.73500061035156,34.92100143432617
1787956237148233000,7.45323291015625,81.27300262451172,-76.6310043334961,34.717002868652344
1787956237164324000,7.469323974609375,81.36700439453125,-76.42300415039062,34.3120002746582
1787956237180242000,7.485241943359375,81.48100280761719,-75.98600006103516,34.926002502441406
1787956237196337000,7.5013369140625,81.16300201416016,-76.20100402832031,34.823001861572266
1787956237212365300,7.517365234375,81.34800720214844,-75.35400390625,34.117000579833984
1787956237228452400,7.533452392578125,82.45000457763672,-76.62800598144531,35.12300109863281
1787956237244561000,7.549560791015625,81.67900085449219,-74.48200225830078,35.24500274658203
1787956237260531500,7.565531494140625,81.9320068359375,-76.61900329589844,35.73500061035156
1787956237276635600,7.5816357421875,81.46800231933594,-74.26399993896484,35.45100021362305
1787956237292665000,7.5976650390625,81.50900268554688,-75.86100006103516,36.25200271606445
1787956237308765000,7.613764892578125,79.44500732421875,-74.48100280761719,35.044002532958984
1787956237324872000,7.629871826171875,81.04900360107422,-75.98900604248047,34.621002197265625
1787956237340810000,7.64581005859375,79.11600494384766,-74.27000427246094,34.74100112915039
1787956237356925000,7.661925048828125,80.84100341796875,-75.33800506591797,35.2390022277832
1787956237372924200,7.677924072265625,82.28500366210938,-74.1780014038086,34.025001525878906
1787956237389026600,7.694026611328125,82.01800537109375,-75.65800476074219,35.43800354003906
1787956237405103000,7.71010302734375,79.36700439453125,-74.89600372314453,36.05900192260742
1787956237420990700,7.72599072265625,82.22700500488281,-74.36400604248047,36.060001373291016
1787956237437067500,7.742067626953125,79.76600646972656,-74.156005859375,35.35200119018555
1787956237453095700,7.758095703125,79.87100219726562,-74.58900451660156,35.04300308227539
1787956237469204200,7.774204345703125,81.8810043334961,-74.3800048828125,34.8380012512207
1787956237485283600,7.79028369140625,81.32200622558594,-73.31600189208984,34.237003326416016
1787956237501219000,7.806218994140625,80.49700164794922,-72.6510009765625,35.772003173828125
1787956237517306600,7.822306640625,81.67500305175781,-74.37600708007812,35.14400100708008
1787956237533322500,7.838322509765625,82.36200714111328,-75.64400482177734,36.55800247192383
1787956237549395700,7.854395751953125,82.94700622558594,-75.02799987792969,34.62700271606445
1787956237565473300,7.870473388671875,82.35100555419922,-75.54199981689453,36.152000427246094
1787956237581398300,7.886398193359375,84.53600311279297,-74.60000610351562,34.73100280761719
1787956237597491500,7.902491455078125,84.88500213623047,-75.33900451660156,35.6410026550293
1787956237613561900,7.918561767578125,85.05900573730469,-75.47100067138672,33.805999755859375
1787956237629642000,7.93464208984375,84.54700469970703,-74.91800689697266,35.034000396728516
1787956237645730600,7.95073046875,82.75900268554688,-75.66100311279297,35.33500289916992
1787956237661685200,7.966685302734375,84.3550033569336,-75.01399993896484,35.84800338745117
1787956237677777700,7.982777587890625,84.4320068359375,-74.70700073242188,34.730003356933594
1787956237693796600,7.998796630859375,85.71600341796875,-74.48700714111328,35.342002868652344
1787956237709885200,8.01488525390625,86.06400299072266,-74.2540054321289,36.77000045776367
1787956237725976300,8.030976318359375,86.36400604248047,-75.56200408935547,35.12800216674805
1787956237741948200,8.0469482421875,86.3790054321289,-75.01300048828125,36.1510009765625
1787956237758052400,8.06305224609375,85.74300384521484,-74.2550048828125,36.66800308227539
1787956237774042600,8.079042724609375,85.96100616455078,-75.87200164794922,35.94000244140625
1787956237790141700,8.0951416015625,86.13500213623047,-75.0320053100586,34.72500228881836
1787956237806252000,8.111251953125,89.00700378417969,-74.92500305175781,35.02799987792969
1787956237822239700,8.12723974609375,89.16200256347656,-76.625,36.13300323486328
1787956237838358800,8.14335888671875,86.6820068359375,-75.23800659179688,35.33400344848633
1787956237854359300,8.159359375,86.60100555419922,-77.49300384521484,35.00800323486328
1787956237870468000,8.175468017578124,89.13400268554688,-77.07400512695312,34.60200119018555
1787956237886532600,8.19153271484375,85.33500671386719,-77.81000518798828,35.211002349853516
1787956237902432300,8.207432373046874,88.7090072631836,-77.07300567626953,34.60200119018555
1787956237918503200,8.223503173828124,88.17500305175781,-76.85800170898438,34.605003356933594
1787956237934503400,8.23950341796875,89.23400115966797,-75.34800720214844,35.432003021240234
1787956237950566000,8.25556591796875,87.85200500488281,-75.88700103759766,35.020999908447266
1787956237966648300,8.2716484375,88.41900634765625,-76.51500701904297,36.237003326416016
1787956237982547200,8.287547119140624,89.12800598144531,-76.96900177001953,34.39900207519531
1787956237998623500,8.30362353515625,88.07100677490234,-76.31700134277344,35.01700210571289
1787956238014634200,8.31963427734375,88.08000183105469,-76.85100555419922,35.1140022277832
1787956238030712600,8.335712646484374,88.29600524902344,-77.39000701904297,34.90500259399414
1787956238046807000,8.35180712890625,89.1300048828125,-77.61700439453125,34.08700180053711
1787956238062724000,8.36772412109375,89.34200286865234,-77.61700439453125,34.08700180053711
1787956238078804000,8.383803955078125,88.69900512695312,-76.32300567626953,34.60900115966797
1787956238094816000,8.39981591796875,89.59900665283203,-77.3740005493164,36.22800064086914
1787956238110890000,8.415889892578125,88.04800415039062,-76.97900390625,33.58500289916992
1787956238126964000,8.4319638671875,87.24400329589844,-78.13899993896484,34.900001525878906
1787956238142905900,8.44790576171875,88.30900573730469,-77.70600128173828,35.310001373291016
1787956238158995200,8.4639951171875,88.0560073852539,-75.89300537109375,34.61300277709961
1787956238174978300,8.479978271484375,88.42100524902344,-78.4590072631836,35.10000228881836
1787956238191066400,8.49606640625,87.21900177001953,-77.28900146484375,34.29600143432617
1787956238207174100,8.512174072265625,86.9050064086914,-76.96200561523438,34.707000732421875
1787956238223109400,8.528109375,88.70700073242188,-76.75,34.707000732421875
1787956238239223600,8.5442236328125,87.23500061035156,-77.17100524902344,35.112003326416016
1787956238255252000,8.560251953125,88.41900634765625,-77.81200408935547,35.41100311279297
1787956238271355400,8.57635546875,88.20100402832031,-77.38300323486328,35.415000915527344
1787956238287455200,8.592455322265625,85.73700714111328,-76.63600158691406,34.915000915527344
1787956238303437600,8.6084375,86.14400482177734,-76.53900146484375,34.2030029296875
1787956238319556400,8.624556396484374,87.21800231933594,-77.72200012207031,33.987003326416016
1787956238335593500,8.640593505859375,85.97000122070312,-76.83900451660156,35.72800064086914
1787956238351690500,8.6566904296875,86.60400390625,-77.2750015258789,35.316001892089844
1787956238367806700,8.672806640625,87.45500183105469,-76.73500061035156,35.72700119018555
1787956238383743500,8.688743408203125,86.9010009765625,-75.23500061035156,35.638999938964844
1787956238399816400,8.70481640625,88.06800079345703,-75.4540023803711,35.432003021240234
1787956238415828500,8.720828369140625,87.22100067138672,-75.99100494384766,35.22500228881836
1787956238431894300,8.736894287109376,86.49400329589844,-77.49300384521484,35.009002685546875
1787956238447983000,8.752983154296874,86.781005859375,-75.0270004272461,35.13199996948242
1787956238463931400,8.768931396484374,85.34700775146484,-77.1550064086914,36.134002685546875
1787956238480016600,8.7850166015625,86.03900146484375,-76.43000030517578,34.305999755859375
1787956238496084700,8.801084716796876,86.14800262451172,-75.7800064086914,34.820003509521484
1787956238512166700,8.817166748046875,85.62500762939453,-75.5580062866211,35.332000732421875
1787956238528267300,8.833267333984375,84.86900329589844,-75.781005859375,34.61800003051758
1787956238544186600,8.8491865234375,84.656005859375,-75.24100494384766,34.92900085449219
1787956238560280000,8.865280029296875,85.73200225830078,-75.45000457763672,35.435001373291016
1787956238576352500,8.8813525390625,85.20600128173828,-75.98600006103516,35.329002380371094
1787956238592435200,8.897435302734374,84.25700378417969,-75.656005859375,35.84300231933594
1787956238608545000,8.913544921875,82.66600036621094,-76.08500671386719,35.637001037597656
1787956238624473000,8.92947314453125,82.78400421142578,-75.7540054321289,36.35300064086914
1787956238640573700,8.94557373046875,84.66300201416016,-75.4520034790039,35.13100051879883
1787956238656558000,8.96155810546875,83.06900024414062,-74.15400695800781,35.85700225830078
1787956238672643300,8.977643310546876,82.06400299072266,-73.10100555419922,34.34000015258789
1787956238688750600,8.99375048828125,82.75200653076172,-74.47700500488281,35.75300216674805
1787956238704687400,9.009687255859374,82.97900390625,-75.22400665283203,35.95000076293945
1787956238720795000,9.025794921875,81.39400482177734,-75.21800231933594,36.25800323486328
1787956238736759600,9.041759521484375,82.96800231933594,-74.04300689697266,36.16400146484375
1787956238752858400,9.0578583984375,82.61500549316406,-73.41400146484375,35.05000305175781
1787956238768976000,9.073975830078124,82.69300079345703,-74.77200317382812,37.68600082397461
1787956238784913400,9.089913330078126,83.58800506591797,-73.29800415039062,35.8640022277832
1787956238801029600,9.106029541015625,83.92300415039062,-74.36900329589844,35.95600128173828
1787956238817031700,9.12203173828125,80.61600494384766,-72.75200653076172,36.28000259399414
1787956238833132500,9.138132568359374,85.94900512695312,-73.82600402832031,36.672000885009766
1787956238849210000,9.154210205078124,83.4070053100586,-74.14200592041016,36.77400207519531
1787956238865111000,9.170111083984375,82.82300567626953,-71.2560043334961,36.189002990722656
1787956238881187800,9.186187744140625,85.8330078125,-73.29199981689453,36.57500076293945
1787956238897190700,9.202190673828126,83.41400146484375,-74.13800048828125,37.08000183105469
1787956238913255000,9.2182548828125,84.4590072631836,-74.25800323486328,36.262001037597656
1787956238929325800,9.234325927734375,84.56900024414062,-72.5270004272461,37.5
1787956238945273300,9.2502734375,85.7550048828125,-72.19400024414062,38.52000045776367
1787956238961356500,9.2663564453125,85.0570068359375,-72.55400085449219,35.56300354003906
1787956238977403000,9.28240283203125,84.12200164794922,-71.24300384521484,37.30800247192383
1787956238993474300,9.298474365234375,85.44100189208984,-72.51500701904297,38.51700210571289
1787956239009554200,9.31455419921875,84.45700073242188,-73.07100677490234,36.884002685546875
1787956239025469400,9.330469482421876,84.05400085449219,-72.51700592041016,38.2140007019043
1787956239041559300,9.346559326171874,87.3290023803711,-73.28800201416016,36.980003356933594
1787956239057576400,9.362576416015624,85.88900756835938,-74.98700714111328,37.986000061035156
1787956239073659100,9.3786591796875,85.72600555419922,-73.07600402832031,36.678001403808594
1787956239089753600,9.394753662109375,87.23300170898438,-72.41699981689453,38.00699996948242
1787956239105677000,9.410677001953125,86.781005859375,-71.56900024414062,37.302001953125
1787956239121772000,9.42677197265625,88.29000091552734,-72.85400390625,37.492000579833984
1787956239137802000,9.442802001953124,85.81800079345703,-72.54400634765625,36.37700271606445
1787956239153898800,9.458898681640624,86.68800354003906,-73.1820068359375,36.880001068115234
1787956239170013700,9.475013671875,86.16800689697266,-73.28300476074219,37.28700256347656
1787956239185948700,9.49094873046875,86.29900360107422,-73.91600036621094,37.99500274658203
1787956239202057500,9.507057373046875,88.06500244140625,-73.94200134277344,36.26000213623047
1787956239218048000,9.523048095703125,87.23200225830078,-73.93099975585938,36.97500228881836
1787956239234146800,9.539146728515625,87.34800720214844,-73.81700134277344,37.48500061035156
1787956239250251500,9.55525146484375,85.87200164794922,-74.13300323486328,37.790000915527344
1787956239266237400,9.571237548828124,87.14300537109375,-74.677001953125,37.27400207519531
1787956239282361000,9.587361083984375,86.84200286865234,-74.34200286865234,38.29600143432617
1787956239298364200,9.6033642578125,87.36900329589844,-76.1820068359375,36.95500183105469
1787956239314470700,9.619470703125,86.2040023803711,-75.74600219726562,37.367000579833984
1787956239330587100,9.635587158203125,86.2040023803711,-75.09800720214844,37.781002044677734
1787956239346523000,9.65152294921875,86.83600616455078,-74.23700714111328,38.09300231933594
1787956239362646000,9.66764599609375,87.25900268554688,-74.88800048828125,37.577003479003906
1787956239378659800,9.683659912109375,86.21100616455078,-74.76900482177734,38.29300308227539
1787956239394729000,9.69972900390625,86.18900299072266,-74.67400360107422,37.37700271606445
1787956239410803500,9.715803466796874,84.36200714111328,-74.36100006103516,36.56700134277344
1787956239426720800,9.731720703125,86.59000396728516,-73.9330062866211,36.772003173828125
1787956239442810600,9.747810546875,84.57600402832031,-73.49600219726562,37.18600082397461
1787956239458834700,9.763834716796875,86.07200622558594,-74.68099975585938,36.86800003051758
1787956239474914800,9.779914794921876,86.90800476074219,-74.36600494384766,36.46200180053711
1787956239491012900,9.796012939453124,86.26800537109375,-74.47500610351562,36.25800323486328
1787956239506942200,9.811942138671874,87.0060043334961,-74.26300048828125,36.15700149536133
1787956239523039500,9.82803955078125,86.29900360107422,-74.13200378417969,37.8910026550293
1787956239539066600,9.844066650390625,87.00700378417969,-75.01900482177734,35.74300003051758
1787956239555149000,9.860149169921876,86.2560043334961,-73.8340072631836,36.16200256347656
1787956239571243800,9.876243896484375,87.76800537109375,-75.11800384521484,36.454002380371094
1787956239587216100,9.892216064453125,86.70100402832031,-74.14600372314453,36.87200164794922
1787956239603321000,9.908321044921875,86.58600616455078,-74.80000305175781,36.051002502441406
1787956239619311000,9.92431103515625,86.59800720214844,-75.00900268554688,36.457000732421875
1787956239635407600,9.94040771484375,87.35700225830078,-75.64900207519531,36.75600051879883
1787956239651521500,9.956521484375,87.1290054321289,-74.03700256347656,37.07600021362305
1787956239667459300,9.972459228515625,83.49400329589844,-74.69500732421875,35.54600143432617
1787956239683569200,9.988569091796874,85.33700561523438,-75.64700317382812,36.656002044677734
1787956239699560200,10.004560302734374,85.08500671386719,-74.26600646972656,35.75200271606445
1787956239715663000,10.0206630859375,85.11500549316406,-74.57200622558594,36.87000274658203
1787956239731733500,10.0367333984375,84.77200317382812,-73.83000183105469,36.2660026550293
1787956239747718400,10.052718505859374,83.2820053100586,-72.7490005493164,36.78600311279297
1787956239763827500,10.068827392578125,84.24800109863281,-73.82500457763672,36.57200241088867
1787956239779826700,10.08482666015625,84.75900268554688,-74.37800598144531,35.34400177001953
1787956239795933000,10.100932861328126,84.11600494384766,-74.59700012207031,34.935001373291016
1787956239812006100,10.117006103515624,83.83800506591797,-75.22000122070312,36.35600280761719
1787956239827901200,10.132901123046874,84.68400573730469,-75.11600494384766,36.25400161743164
1787956239843983600,10.148983642578125,80.94300079345703,-74.36800384521484,35.65400314331055
1787956239859988500,10.164988525390624,84.25200653076172,-74.14600372314453,36.569000244140625
1787956239876053200,10.18105322265625,80.61400604248047,-74.05000305175781,35.35200119018555
1787956239892137000,10.197136962890625,82.72200012207031,-73.73900604248047,34.84300231933594
1787956239908045000,10.213045166015625,82.7280044555664,-73.41000366210938,35.355003356933594
1787956239924039700,10.229039794921874,81.0250015258789,-73.08600616455078,35.36000061035156
1787956239940054000,10.245053955078125,80.60100555419922,-74.92200469970703,34.224002838134766
1787956239956126500,10.26112646484375,82.10700225830078,-73.72400665283203,35.862003326416016
1787956239972173300,10.27717333984375,78.90300750732422,-74.48700714111328,34.53499984741211
1787956239988094200,10.29309423828125,78.03400421142578,-73.3080062866211,34.445003509521484
1787956240004187100,10.309187255859374,78.76700592041016,-73.85600280761719,33.624000549316406
1787956240020209200,10.325209228515625,77.99300384521484,-73.11700439453125,32.71500015258789
1787956240036286700,10.34128662109375,77.32200622558594,-71.83900451660156,32.013999938964844
1787956240052385500,10.357385498046876,75.32400512695312,-72.04100036621094,32.72800064086914
1787956240068317000,10.37331689453125,75.19900512695312,-72.80900573730469,31.397001266479492
1787956240084416300,10.389416259765625,73.60000610351562,-72.91800689697266,31.093002319335938
1787956240100448500,10.405448486328124,71.80900573730469,-73.55500030517578,31.293001174926758
1787956240116533200,10.421533203125,72.27900695800781,-72.94400024414062,28.955001831054688
1787956240132641000,10.43764111328125,71.76399993896484,-72.61000061035156,29.875001907348633
1787956240148571600,10.453571533203124,72.03700256347656,-71.66500091552734,28.457000732421875
1787956240164675300,10.46967529296875,70.52799987792969,-70.81200408935547,27.957000732421875
1787956240180660700,10.48566064453125,69.77400207519531,-72.22200012207031,26.621002197265625
1787956240196754200,10.501754150390624,69.54000091552734,-72.12700653076172,25.70600128173828
1787956240212869600,10.51786962890625,67.93900299072266,-71.37200164794922,25.816001892089844
1787956240228804900,10.533804931640624,66.94200134277344,-70.531005859375,24.501001358032227
1787956240244918300,10.549918212890624,67.79700469970703,-72.36700439453125,23.567001342773438
1787956240260911400,10.565911376953125,65.81999969482422,-69.80900573730469,22.267000198364258
1787956240277016600,10.5820166015625,67.3550033569336,-71.94400024414062,23.062000274658203
1787956240293089500,10.598089599609375,62.92200469970703,-69.5,21.052001953125
1787956240309038300,10.614038330078126,64.28800201416016,-71.13200378417969,19.405000686645508
1787956240325160200,10.63016015625,64.80000305175781,-70.38800048828125,19.00400161743164
1787956240341168600,10.646168701171876,63.05500411987305,-70.19700622558594,17.07200050354004
1787956240357232600,10.662232666015624,63.01000213623047,-69.25100708007812,15.655000686645508
1787956240373315300,10.6783154296875,61.13900375366211,-70.84500122070312,16.45800018310547
1787956240389220600,10.694220703125,61.78000259399414,-70.9520034790039,16.558000564575195
1787956240405303300,10.71030322265625,62.78700256347656,-68.60900115966797,15.559000968933105
1787956240421319000,10.72631884765625,61.156002044677734,-69.49400329589844,13.312000274658203
1787956240437389000,10.74238916015625,60.12700271606445,-69.68900299072266,14.636000633239746
1787956240453477000,10.75847705078125,60.23600387573242,-70.44400024414062,14.32300090789795
1787956240469398800,10.774398681640625,61.445003509521484,-68.32400512695312,12.711000442504883
1787956240485400800,10.79040087890625,60.90500259399414,-68.65299987792969,12.097000122070312
1787956240501427500,10.806427490234375,60.97300338745117,-68.02799987792969,10.778000831604004
1787956240517503700,10.822503662109375,60.768001556396484,-68.45500183105469,10.87700080871582
1787956240533589200,10.83858935546875,59.58500289916992,-68.0300064086914,10.475000381469727
1787956240549514000,10.854513916015625,59.54900360107422,-67.83600616455078,8.947999954223633
1787956240565611800,10.87061181640625,59.42900466918945,-68.70800018310547,7.820000171661377
1787956240581591800,10.886591796875,60.46200180053711,-67.43000030517578,7.321000576019287
1787956240597682700,10.9026826171875,60.59300231933594,-69.36100006103516,7.202000141143799
1787956240613792800,10.918792724609375,59.10000228881836,-68.71400451660156,7.311000347137451
1787956240629725400,10.934725341796875,59.38200378417969,-67.11500549316406,6.714000225067139
1787956240645825000,10.950824951171874,59.62000274658203,-68.28900146484375,7.1110005378723145
1787956240661806800,10.966806884765624,57.16100311279297,-68.40400695800781,6.298000335693359
1787956240677899300,10.982899169921875,58.72300338745117,-67.7770004272461,5.283000469207764
1787956240693963300,10.99896337890625,57.583003997802734,-68.83800506591797,5.886000156402588
1787956240709857300,11.014857177734376,59.87800216674805,-67.35400390625,4.979000091552734
1787956240725883600,11.030883544921876,60.853004455566406,-67.7760009765625,5.586000442504883
1787956240741878500,11.04687841796875,58.91200256347656,-67.2509994506836,4.574000358581543
1787956240757938700,11.062938720703125,58.4630012512207,-67.1570053100586,3.557000160217285
1787956240774014200,11.07901416015625,59.73800277709961,-68.34700012207031,2.8320000171661377
1787956240789916400,11.09491650390625,59.95000457763672,-68.02300262451172,3.0380001068115234
1787956240806037500,11.11103759765625,59.50300216674805,-68.03600311279297,2.0199999809265137
1787956240822085000,11.127085205078124,58.54600143432617,-67.81900024414062,2.125
1787956240838153000,11.143153076171876,61.10600280761719,-68.14000701904297,2.4240000247955322
1787956240854224400,11.159224365234374,59.2650032043457,-67.83500671386719,1.003000020980835
1787956240870176000,11.175176025390625,60.21900177001953,-67.4050064086914,1.2090001106262207
1787956240886257400,11.19125732421875,58.0420036315918,-68.88300323486328,2.625000238418579
1787956240902274800,11.20727490234375,59.11300277709961,-67.32200622558594,-0.7230000495910645
1787956240918350600,11.2233505859375,58.43300247192383,-68.79600524902344,1.1990000009536743
1787956240934435600,11.239435546875,61.8180046081543,-67.83600616455078,1.2040001153945923
1787956240950344000,11.255343994140626,58.83200454711914,-68.7040023803711,0.07900000363588333
1787956240966438700,11.271438720703125,60.92900466918945,-67.96700286865234,-0.6290000081062317
1787956240982462200,11.287462158203125,60.81200408935547,-67.54100036621094,-0.8290000557899475
1787956240998544600,11.303544677734376,59.00300216674805,-67.21600341796875,-0.8240000605583191
1787956241014644000,11.31964404296875,60.595001220703125,-67.86700439453125,-1.2390000820159912
1787956241030564600,11.335564697265625,61.01100158691406,-68.19800567626953,-1.8540000915527344
1787956241046662700,11.35166259765625,61.4530029296875,-68.29600524902344,-1.1420000791549683
1787956241062644700,11.367644775390625,61.202003479003906,-68.1030044555664,-2.7700002193450928
1787956241078738200,11.38373828125,60.57400131225586,-67.77300262451172,-2.1550002098083496
1787956241094850800,11.399850830078124,59.93700408935547,-67.77200317382812,-2.1540000438690186
1787956241110787300,11.415787353515626,59.81900405883789,-68.1030044555664,-2.870000123977661
1787956241126898700,11.431898681640625,61.42100143432617,-69.28800201416016,-3.188000202178955
1787956241142889500,11.447889404296875,60.11700439453125,-68.76399993896484,-4.200000286102295
1787956241158989000,11.463989013671876,62.038002014160156,-67.35600280761719,-2.866000175476074
1787956241175060000,11.48006005859375,60.561004638671875,-68.53600311279297,-3.180000066757202
1787956241191007000,11.496007080078124,60.19900131225586,-68.99500274658203,-5.425000190734863
1787956241207129300,11.51212939453125,60.96200180053711,-68.76800537109375,-4.40500020980835
1787956241223135200,11.52813525390625,61.37400436401367,-68.66800689697266,-4.914000034332275
1787956241239244800,11.544244873046875,59.74700164794922,-67.82200622558594,-5.923000335693359
1787956241255321000,11.560321044921874,62.21600341796875,-68.13400268554688,-4.9110002517700195
1787956241271217400,11.576217529296875,62.52300262451172,-67.92500305175781,-5.317000389099121
1787956241287295200,11.592295166015624,62.44700241088867,-69.31200408935547,-4.819000244140625
1787956241303306500,11.608306396484375,63.066001892089844,-68.67500305175781,-5.2220001220703125
1787956241319372800,11.624372802734374,60.51900100708008,-68.77799987792969,-5.220000267028809
1787956241335464400,11.64046435546875,61.54500198364258,-67.8290023803711,-6.2310004234313965
1787956241351380500,11.65638037109375,63.474002838134766,-68.79400634765625,-6.039000511169434
1787956241367472600,11.67247265625,60.928001403808594,-69.11300659179688,-6.140000343322754
1787956241383499000,11.6884990234375,62.0780029296875,-70.42300415039062,-7.783000469207764
1787956241399576600,11.70457666015625,61.853004455566406,-69.56500244140625,-7.77500057220459
1787956241415680500,11.720680419921875,60.163002014160156,-67.5040054321289,-6.125000476837158
1787956241431607800,11.73660791015625,61.13300323486328,-70.19800567626953,-7.169000148773193
1787956241447706000,11.7527060546875,63.44000244140625,-68.27400207519531,-7.256000518798828
1787956241463688400,11.7686884765625,61.84300231933594,-69.46300506591797,-8.182000160217285
1787956241479778600,11.784778564453125,62.005001068115234,-69.53800201416016,-5.738000392913818
1787956241495890200,11.80089013671875,61.42000198364258,-69.78500366210938,-8.28600025177002
1787956241511829000,11.8168291015625,62.99400329589844,-69.04300689697266,-8.689000129699707
1787956241527934200,11.832934326171875,62.53900146484375,-69.16900634765625,-10.11500072479248
1787956241543919000,11.848919189453126,63.31200408935547,-68.39500427246094,-8.276000022888184
1787956241560014800,11.865014892578126,62.435001373291016,-68.51900482177734,-9.600000381469727
1787956241576081700,11.88108154296875,60.44000244140625,-69.1500015258789,-8.992000579833984
1787956241592027400,11.89702734375,64.24600219726562,-68.95000457763672,-9.606000900268555
1787956241608136000,11.913135986328125,61.83200454711914,-69.68600463867188,-8.795000076293945
1787956241624133000,11.929133056640625,63.83900451660156,-70.02000427246094,-9.51300048828125
1787956241640238600,11.945238525390625,62.78600311279297,-70.33700561523438,-9.31100082397461
1787956241656312300,11.961312255859376,63.94200134277344,-69.80599975585938,-9.51200008392334
1787956241672258300,11.97725830078125,62.669002532958984,-69.91100311279297,-9.511000633239746
1787956241688377000,11.993377197265625,62.7130012512207,-69.99200439453125,-7.576000213623047
1787956241704376000,12.0093759765625,62.53900146484375,-69.81700134277344,-10.529000282287598
1787956241720441000,12.025441162109376,62.77300262451172,-69.91200256347656,-9.613000869750977
1787956241736523500,12.0415234375,63.967002868652344,-69.35800170898438,-8.081000328063965
1787956241752429800,12.057429931640625,62.25200271606445,-70.33800506591797,-9.41200065612793
1787956241768508000,12.0735078125,64.14900207519531,-69.59300231933594,-9.612000465393066
1787956241784523800,12.089523681640625,64.06400299072266,-70.44499969482422,-9.212000846862793
1787956241800591400,12.10559130859375,65.34200286865234,-70.44400024414062,-9.010000228881836
1787956241816677000,12.121677001953126,63.6300048828125,-68.8280029296875,-8.586000442504883
1787956241832599300,12.137599365234376,64.1500015258789,-69.16000366210938,-9.302000045776367
1787956241848695300,12.1536953125,64.73200225830078,-70.75100708007812,-7.993000507354736
1787956241864715800,12.1697158203125,63.95700454711914,-69.58000183105469,-8.695000648498535
1787956241880802300,12.18580224609375,65.11900329589844,-69.4780044555664,-8.89900016784668
1787956241896909600,12.20190966796875,63.63300323486328,-70.66400146484375,-9.621000289916992
1787956241912840400,12.21784033203125,62.255001068115234,-69.68800354003906,-8.897000312805176
1787956241928936700,12.233936767578125,63.19900131225586,-69.04800415039062,-8.995000839233398
1787956241944961800,12.2499619140625,63.09800338745117,-69.36900329589844,-8.997000694274902
1787956241961051000,12.26605078125,63.85700225830078,-70.00900268554688,-8.697999954223633
1787956241977160400,12.282160400390625,65.7490005493164,-68.51000213623047,-8.586000442504883
1787956241993090600,12.298090576171875,62.967002868652344,-69.38400268554688,-10.118000030517578
1787956242009197800,12.31419775390625,63.301002502441406,-69.05000305175781,-9.19800090789795
1787956242025187600,12.3301875,64.04000091552734,-68.08200073242188,-8.782999992370605
1787956242041287200,12.346287109375,62.87600326538086,-69.3740005493164,-9.405000686645508
1787956242057353500,12.362353515625,64.57200622558594,-69.48699951171875,-9.611000061035156
1787956242073291500,12.37829150390625,63.397003173828125,-67.97600555419922,-8.985000610351562
1787956242089404000,12.39440380859375,62.36300277709961,-68.82200622558594,-8.278000831604004
1787956242105404200,12.410404052734375,63.816001892089844,-69.06100463867188,-9.91200065612793
1787956242121513500,12.426513427734376,63.7400016784668,-68.93400573730469,-8.485000610351562
1787956242137590500,12.442590576171876,63.208003997802734,-68.71800231933594,-8.380000114440918
1787956242153491000,12.458490966796875,62.965003967285156,-69.92500305175781,-10.530000686645508
1787956242169612800,12.47461279296875,63.60400390625,-68.41200256347656,-9.499000549316406
1787956242185615400,12.490615478515625,64.27799987792969,-69.79500579833984,-8.697000503540039
1787956242201675500,12.506675537109375,63.333003997802734,-69.57100677490234,-8.083000183105469
1787956242217761000,12.522760986328125,61.18700408935547,-69.25700378417969,-8.892000198364258
1787956242233677300,12.53867724609375,63.9530029296875,-69.79900360107422,-9.00200080871582
1787956242249765400,12.554765380859376,61.715003967285156,-69.69200134277344,-9.304000854492188
1787956242265784300,12.570784423828124,64.46500396728516,-68.406005859375,-8.991000175476074
1787956242281860900,12.58686083984375,62.651004791259766,-68.40900421142578,-9.396000862121582
1787956242297953300,12.602953369140625,62.349002838134766,-68.29000091552734,-8.579000473022461
1787956242313873000,12.618872802734375,63.79600143432617,-68.10000610351562,-10.209000587463379
1787956242329883600,12.634883544921875,64.79900360107422,-70.55900573730469,-9.621000289916992
1787956242345870300,12.650870361328124,62.02000427246094,-69.70100402832031,-9.916000366210938
1787956242361953800,12.666953857421875,65.31900024414062,-68.4050064086914,-8.788000106811523
1787956242378042400,12.68304248046875,63.927001953125,-68.73400115966797,-9.50200080871582
1787956242393970200,12.69897021484375,64.88200378417969,-68.19600677490234,-9.193000793457031
1787956242410070800,12.71507080078125,64.04000091552734,-68.7300033569336,-9.197000503540039
1787956242426057500,12.731057373046875,63.013004302978516,-69.78800201416016,-8.288000106811523
1787956242442177800,12.747177734375,62.97300338745117,-69.16400146484375,-9.708000183105469
1787956242458294500,12.76329443359375,64.26900482177734,-68.93700408935547,-8.588000297546387
1787956242474237400,12.779237548828124,63.42400360107422,-69.58100128173828,-8.796000480651855
1787956242490352000,12.79535205078125,62.44400405883789,-69.48600006103516,-9.812000274658203
1787956242506346000,12.811345947265625,62.81700134277344,-70.64200592041016,-8.0910005569458
1787956242522446000,12.827446044921874,62.185001373291016,-71.1780014038086,-8.197000503540039
1787956242538517500,12.843517578125,63.67500305175781,-70.0979995727539,-7.375000476837158
1787956242554463000,12.859462890625,63.95500183105469,-69.58200073242188,-8.797000885009766
1787956242570587100,12.875587158203125,64.30000305175781,-70.53900146484375,-8.194000244140625
1787956242586618600,12.89161865234375,66.21400451660156,-70.7560043334961,-8.199000358581543
1787956242602731000,12.90773095703125,64.2820053100586,-69.5770034790039,-8.388999938964844
1787956242618835000,12.9238349609375,63.0160026550293,-69.46200561523438,-7.979000568389893
1787956242634768400,12.939768310546874,63.651004791259766,-69.0320053100586,-7.773000240325928
1787956242650849500,12.955849609375,62.275001525878906,-69.35100555419922,-7.77400016784668
1787956242666898400,12.9718984375,61.75300216674805,-70.64200592041016,-8.192000389099121
1787956242682964700,12.98796484375,65.85700225830078,-68.61800384521484,-8.587000846862793
1787956242699034600,13.00403466796875,64.92100524902344,-68.71200561523438,-7.771000385284424
1787956242714975000,13.01997509765625,61.66100311279297,-69.552001953125,-6.8580002784729
1787956242731054600,13.0360546875,64.73900604248047,-70.42300415039062,-7.4810004234313965
1787956242747068000,13.05206787109375,62.506004333496094,-69.98900604248047,-7.372000217437744
1787956242763139600,13.0681396484375,63.381004333496094,-70.51500701904297,-6.563000202178955
1787956242779232500,13.084232421875,62.83000183105469,-70.41800689697266,-7.37600040435791
1787956242795142400,13.100142333984374,61.971004486083984,-68.58500671386719,-6.646000385284424
1787956242811238100,13.116238037109374,64.74500274658203,-69.8790054321289,-6.865000247955322
1787956242827259400,13.13225927734375,63.7650032043457,-70.21600341796875,-8.190999984741211
1787956242843335700,13.148335693359375,62.71400451660156,-69.34400177001953,-7.163000106811523
1787956242859427000,13.164427001953126,62.86100387573242,-70.1830062866211,-5.8460001945495605
1787956242875335000,13.1803349609375,63.77000427246094,-69.13200378417969,-7.264000415802002
1787956242891432000,13.196431884765625,63.44000244140625,-68.59900665283203,-7.463000297546387
1787956242907409200,13.2124091796875,64.91800689697266,-69.14600372314453,-8.183000564575195
1787956242923496400,13.228496337890626,63.90500259399414,-69.54700469970703,-6.249000072479248
1787956242939583700,13.244583740234376,63.480003356933594,-68.35800170898438,-5.525000095367432
1787956242955511000,13.260510986328125,64.72600555419922,-67.83700561523438,-6.439000129699707
1787956242971614000,13.276614013671875,61.53900146484375,-68.37300109863281,-6.8470001220703125
1787956242987595300,13.29259521484375,62.38500213623047,-69.13300323486328,-7.466000556945801
1787956243003686700,13.308686767578125,65.5770034790039,-68.59400177001953,-6.854000091552734
1787956243019755800,13.324755859375,63.85600280761719,-68.17200469970703,-7.562000274658203
1787956243035651800,13.34065185546875,63.42500305175781,-68.71500396728516,-8.177000045776367
1787956243051769600,13.35676953125,64.94100189208984,-69.02400207519531,-7.061000347137451
1787956243067765800,13.372765869140625,64.51000213623047,-68.91900634765625,-7.26300048828125
1787956243083871500,13.38887158203125,64.08300018310547,-68.92000579833984,-7.365000247955322
1787956243099937500,13.4049375,64.2509994506836,-68.29900360107422,-8.98900032043457
1787956243115880000,13.4208798828125,64.72000122070312,-69.56900024414062,-7.779000282287598
1787956243131911000,13.436910888671875,63.81900405883789,-68.41100311279297,-9.397000312805176
1787956243147917000,13.4529169921875,63.45000457763672,-69.0250015258789,-7.26300048828125
1787956243163986200,13.468986083984374,65.87300109863281,-69.79600524902344,-8.597000122070312
1787956243180078300,13.485078369140625,65.96200561523438,-69.15900421142578,-8.999000549316406
1787956243195989200,13.5009892578125,64.44100189208984,-68.2040023803711,-9.906000137329102
1787956243212072200,13.517072265625,67.08500671386719,-68.10700225830078,-10.315000534057617
1787956243228127000,13.533126953125,66.17000579833984,-69.37800598144531,-9.307000160217285
1787956243244202800,13.54920263671875,63.608001708984375,-69.70600128173828,-10.121000289916992
1787956243260288500,13.56528857421875,64.04400634765625,-69.052001953125,-9.199000358581543
1787956243276254000,13.58125390625,65.5009994506836,-68.20800018310547,-10.009000778198242
1787956243292345600,13.597345703125,63.36300277709961,-68.32100677490234,-10.720000267028809
1787956243308416300,13.613416259765625,66.9780044555664,-69.83700561523438,-11.451000213623047
1787956243324497000,13.629496826171875,65.08399963378906,-69.60700225830078,-10.530000686645508
1787956243340587000,13.6455869140625,65.91500091552734,-69.0790023803711,-11.03600025177002
1787956243356501000,13.6615009765625,66.78600311279297,-68.96000671386719,-10.017000198364258
1787956243372602400,13.677602294921876,66.53700256347656,-68.98100280761719,-11.647000312805176
1787956243388627500,13.69362744140625,67.40299987792969,-69.83700561523438,-11.452000617980957
1787956243404718300,13.70971826171875,66.57100677490234,-70.47400665283203,-11.04900074005127
1787956243420815000,13.725815185546875,66.31600189208984,-69.2020034790039,-12.158000946044922
1787956243436786400,13.741786376953126,66.71600341796875,-68.56900024414062,-12.866000175476074
1787956243452894200,13.757894287109375,66.94400024414062,-69.31700134277344,-12.669000625610352
1787956243468878600,13.773878662109375,67.17200469970703,-70.17200469970703,-12.473000526428223
1787956243484975600,13.7899755859375,66.97100067138672,-69.19200134277344,-11.344000816345215
1787956243501065500,13.8060654296875,66.96600341796875,-69.62800598144531,-11.857000350952148
1787956243517047000,13.822047119140626,66.86700439453125,-69.83900451660156,-11.655000686645508
1787956243533161700,13.83816162109375,66.67200469970703,-70.26100158691406,-11.14900016784668
1787956243549154800,13.85415478515625,65.9010009765625,-71.35700225830078,-13.093000411987305
1787956243565262300,13.870262451171875,68.23800659179688,-70.2800064086914,-12.373000144958496
1787956243581330700,13.88633056640625,66.74300384521484,-68.98600006103516,-11.953001022338867
1787956243597231900,13.90223193359375,66.9520034790039,-70.28400421142578,-12.881000518798828
1787956243613303600,13.918303466796875,68.66000366210938,-69.09300231933594,-11.75200080871582
1787956243629310500,13.934310546875,68.44300079345703,-69.74400329589844,-12.369000434875488
1787956243645376000,13.9503759765625,66.5570068359375,-70.91500091552734,-11.969000816345215
1787956243661481200,13.966481201171876,67.37200164794922,-69.09900665283203,-12.362000465393066
1787956243677392600,13.982392578125,67.20000457763672,-71.66900634765625,-12.181000709533691
1787956243693478700,13.998478759765625,68.86400604248047,-69.96300506591797,-12.677000999450684
1787956243709498000,14.014498046875,65.72700500488281,-71.00900268554688,-11.154000282287598
1787956243725579500,14.03057958984375,67.3010025024414,-69.83399963378906,-11.248000144958496
1787956243741679000,14.04667919921875,67.3030014038086,-70.48200225830078,-11.559000968933105
1787956243757602800,14.062602783203126,67.61199951171875,-70.59600067138672,-12.070000648498535
1787956243773697800,14.07869775390625,67.54300689697266,-70.79000091552734,-10.543000221252441
1787956243789724700,14.094724609375,66.91100311279297,-71.6500015258789,-10.856000900268555
1787956243805805800,14.110805908203124,68.18500518798828,-71.6520004272461,-10.858000755310059
1787956243821884700,14.126884765625,66.81200408935547,-70.67300415039062,-9.930000305175781
1787956243837837000,14.142837158203125,68.5300064086914,-71.74500274658203,-9.738000869750977
1787956243853933800,14.158933837890626,67.6550064086914,-69.92200469970703,-9.721000671386719
1787956243869996800,14.174996826171874,68.81800079345703,-71.2229995727539,-10.753000259399414
1787956243886076400,14.191076416015624,69.33500671386719,-69.71900177001953,-10.434000968933105
1787956243902169600,14.207169677734376,67.22200012207031,-70.14200592041016,-10.232000350952148
1787956243918137300,14.223137451171874,67.84900665283203,-69.71700286865234,-10.433000564575195
1787956243934243600,14.23924365234375,65.32600402832031,-70.56200408935547,-9.826000213623047
1787956243950230500,14.25523046875,67.6820068359375,-71.5260009765625,-9.532000541687012
1787956243966329300,14.271329345703125,66.09600067138672,-71.19600677490234,-9.017000198364258
1787956243982394400,14.287394287109375,65.76600646972656,-70.33800506591797,-9.009000778198242
1787956243998372000,14.3033720703125,68.1050033569336,-71.09600067138672,-9.325000762939453
1787956244014478800,14.319478759765625,66.5300064086914,-71.73100280761719,-8.921000480651855
1787956244030510000,14.335510009765626,65.34200286865234,-70.2280044555664,-8.906000137329102
1787956244046608600,14.351608642578125,66.18400573730469,-69.69400024414062,-8.902000427246094
1787956244062678300,14.36767822265625,66.8010025024414,-70.57100677490234,-10.337000846862793
1787956244078574800,14.383574951171875,66.79800415039062,-69.70899963378906,-9.922000885009766
1787956244094675200,14.39967529296875,66.07400512695312,-69.80400085449219,-9.107000350952148
1787956244110726000,14.415725830078125,67.12800598144531,-70.35100555419922,-9.826000213623047
1787956244126796300,14.43179638671875,65.39900207519531,-69.82600402832031,-10.838000297546387
1787956244142889500,14.447889404296875,67.63500213623047,-70.25800323486328,-10.845000267028809
1787956244158809300,14.463809326171875,66.9990005493164,-71.01300048828125,-11.258000373840332
1787956244174902800,14.47990283203125,64.24200439453125,-69.81700134277344,-10.327000617980957
1787956244190924300,14.49592431640625,68.28800201416016,-69.81700134277344,-9.82300090789795
1787956244207003400,14.51200341796875,67.22600555419922,-70.24800109863281,-10.131000518798828
1787956244223105000,14.52810498046875,68.48100280761719,-69.07200622558594,-10.224000930786133
1787956244239026700,14.544026611328125,67.81900024414062,-69.73500061035156,-11.757000923156738
1787956244255123000,14.560123046875,67.96500396728516,-69.27900695800781,-9.7160005569458
1787956244271104800,14.576104736328125,67.2020034790039,-69.1820068359375,-10.529000282287598
1787956244287194400,14.5921943359375,68.0510025024414,-69.61600494384766,-10.839000701904297
1787956244303303000,14.608302978515624,67.80500030517578,-68.33900451660156,-11.541000366210938
1787956244319198700,14.62419873046875,68.13200378417969,-68.65800476074219,-11.34000015258789
1787956244335300000,14.640300048828125,66.86199951171875,-68.43800354003906,-11.031000137329102
1787956244351288300,14.656288330078125,68.34700012207031,-68.98100280761719,-11.445000648498535
1787956244367382300,14.67238232421875,70.57300567626953,-67.906005859375,-10.929000854492188
1787956244383493400,14.688493408203126,68.88500213623047,-69.51800537109375,-11.451000213623047
1787956244399430700,14.7044306640625,67.58000183105469,-69.10200500488281,-12.566000938415527
1787956244415452200,14.7204521484375,67.17500305175781,-69.84700012207031,-12.165000915527344
1787956244431444000,14.73644384765625,69.08800506591797,-68.66000366210938,-11.342000961303711
1787956244447539700,14.752539794921875,68.63400268554688,-68.677001953125,-12.665000915527344
1787956244463636200,14.76863623046875,69.677001953125,-68.14900207519531,-13.171000480651855
1787956244479604200,14.784604248046875,70.12700653076172,-67.7020034790039,-11.742000579833984
1787956244495715300,14.80071533203125,70.12800598144531,-69.53900146484375,-12.879000663757324
1787956244511758800,14.8167587890625,69.06600189208984,-68.56500244140625,-12.258000373840332
1787956244527864000,14.832864013671875,70.09500122070312,-69.01800537109375,-13.995000839233398
1787956244543931100,14.84893115234375,69.58900451660156,-68.35400390625,-12.460000991821289
1787956244559870000,14.864869873046874,69.94300079345703,-70.06300354003906,-11.9660005569458
1787956244575941600,14.880941650390625,69.39700317382812,-68.45000457763672,-11.646000862121582
1787956244592010200,14.89701025390625,69.4000015258789,-69.8530044555664,-12.371000289916992
1787956244608121000,14.91312109375,69.56900024414062,-69.8790054321289,-14.307001113891602
1787956244624204000,14.9292041015625,70.20800018310547,-68.47500610351562,-13.379000663757324
1787956244640148000,14.94514794921875,70.86000061035156,-69.54700469970703,-13.38900089263916
1787956244656228000,14.96122802734375,69.18500518798828,-70.28700256347656,-12.782000541687012
1787956244672280300,14.9772802734375,70.0050048828125,-69.00900268554688,-13.281001091003418
1787956244688352000,14.99335205078125,69.68000030517578,-69.87700653076172,-14.10300064086914
1787956244704443400,15.009443359375,72.30900573730469,-70.0040054321289,-15.330000877380371
1787956244720359200,15.025359130859375,71.37300109863281,-69.7750015258789,-14.308000564575195
1787956244736448500,15.041448486328125,67.76900482177734,-69.8740005493164,-14.101000785827637
1787956244752511500,15.057511474609376,71.58800506591797,-69.125,-13.794000625610352
1787956244768589000,15.073589111328126,70.95800018310547,-69.98400115966797,-14.004000663757324
1787956244784677000,15.089677001953126,68.61800384521484,-68.68600463867188,-13.379000663757324
1787956244800606700,15.105606689453126,70.01700592041016,-70.08200073242188,-13.393000602722168
1787956244816710000,15.1217099609375,71.2030029296875,-70.72100067138672,-12.992000579833984
1787956244832695000,15.137695068359376,71.8280029296875,-70.83800506591797,-13.605000495910645
1787956244848787200,15.153787109375,70.77300262451172,-70.50800323486328,-13.092000961303711
1787956244864900600,15.169900634765625,70.32200622558594,-69.875,-13.9010009765625
1787956244880840400,15.18584033203125,72.03400421142578,-69.0050048828125,-12.77500057220459
1787956244896952800,15.201952880859375,71.17500305175781,-69.33300018310547,-13.38800048828125
1787956244912917500,15.21791748046875,69.47900390625,-70.19400024414062,-13.800000190734863
1787956244929012000,15.234011962890625,70.01500701904297,-69.21900177001953,-12.97800064086914
1787956244945076000,15.250075927734375,69.81999969482422,-70.5050048828125,-12.98900032043457
1787956244960971500,15.265971435546875,69.5979995727539,-69.32100677490234,-12.672000885009766
1787956244977094000,15.282093994140626,70.24400329589844,-69.96500396728516,-12.679000854492188
1787956244993097000,15.298096923828124,69.39400482177734,-69.42400360107422,-12.367000579833984
1787956245009159000,15.314158935546875,69.94600677490234,-70.92500305175781,-12.381000518798828
1787956245025238500,15.330238525390625,68.85700225830078,-68.99500274658203,-12.363000869750977
1787956245041134000,15.346134033203125,69.17000579833984,-70.18800354003906,-13.393000602722168
1787956245057215000,15.362215087890625,70.14700317382812,-69.63600158691406,-12.065000534057617
1787956245073282000,15.378281982421875,69.22400665283203,-71.34300231933594,-11.671000480651855
1787956245089348600,15.3943486328125,69.20100402832031,-68.9800033569336,-11.243000984191895
1787956245105424100,15.410424072265625,67.95800018310547,-71.12000274658203,-11.158000946044922
1787956245121363200,15.42636328125,70.18099975585938,-70.80400085449219,-11.260000228881836
1787956245137452000,15.4424521484375,70.27000427246094,-69.19300079345703,-11.042000770568848
1787956245153520000,15.45852001953125,70.73100280761719,-69.82100677490234,-9.826000213623047
1787956245169593900,15.47459375,69.83800506591797,-69.9540023803711,-11.863000869750977
1787956245185680600,15.4906806640625,69.75800323486328,-69.72200012207031,-10.53700065612793
1787956245201648600,15.506648681640625,67.83500671386719,-69.0770034790039,-10.631000518798828
1787956245217744600,15.52274462890625,69.34400177001953,-68.85000610351562,-9.510000228881836
1787956245233815300,15.538815185546875,69.35100555419922,-69.71000671386719,-9.721000671386719
1787956245249900000,15.554900146484375,68.89900207519531,-69.18600463867188,-10.633000373840332
1787956245266007800,15.5710078125,69.0270004272461,-69.281005859375,-9.717000007629395
1787956245281942000,15.58694189453125,68.22100067138672,-70.00900268554688,-8.195000648498535
1787956245298049800,15.6030498046875,68.50900268554688,-69.27200317382812,-9.105000495910645
1787956245314082000,15.61908203125,68.16400146484375,-69.17900085449219,-10.224000930786133
1787956245330174200,15.63517431640625,68.59100341796875,-68.63800048828125,-9.813000679016113
1787956245346260000,15.651260009765625,67.95800018310547,-67.77000427246094,-9.0910005569458
1787956245362237700,15.66723779296875,67.01900482177734,-67.54199981689453,-8.171000480651855
1787956245378346200,15.68334619140625,68.26500701904297,-68.10200500488281,-9.808000564575195
1787956245394334700,15.699334716796875,66.88500213623047,-67.34300231933594,-9.290000915527344
1787956245410430700,15.7154306640625,69.54300689697266,-69.07400512695312,-10.225000381469727
1787956245426543900,15.7315439453125,67.66100311279297,-68.72900390625,-8.692000389099121
1787956245442483700,15.747483642578125,68.04800415039062,-67.13200378417969,-9.391000747680664
1787956245458601200,15.763601318359376,67.427001953125,-67.44499969482422,-8.884000778198242
1787956245474604500,15.7796044921875,68.38600158691406,-66.68800354003906,-8.267000198364258
1787956245490712300,15.79571240234375,69.1300048828125,-67.12100219726562,-8.476000785827637
1787956245506788400,15.811788330078125,66.76600646972656,-67.0260009765625,-9.694000244140625
1787956245522694400,15.8276943359375,67.06700134277344,-65.95700073242188,-9.78700065612793
1787956245538684200,15.84368408203125,67.80900573730469,-65.5260009765625,-9.581000328063965
1787956245554694400,15.8596943359375,67.08000183105469,-67.0300064086914,-9.89900016784668
1787956245570759400,15.875759521484374,68.64300537109375,-65.86199951171875,-10.50100040435791
1787956245586842600,15.891842529296875,68.4540023803711,-66.927001953125,-10.10300064086914
1787956245602759000,15.907759033203124,66.84900665283203,-66.71600341796875,-10.507000923156738
1787956245618846000,15.923845947265624,69.51500701904297,-66.71300506591797,-10.00100040435791
1787956245634864600,15.93986474609375,69.73100280761719,-66.81999969482422,-9.90000057220459
1787956245650932700,15.9559326171875,69.75300598144531,-68.86000061035156,-10.224000930786133
1787956245667025700,15.972025634765625,69.18000030517578,-66.50700378417969,-10.610000610351562
1787956245682942700,15.987942626953124,67.5570068359375,-65.98200225830078,-11.622000694274902
1787956245699031600,16.004031494140627,68.6300048828125,-65.97700500488281,-11.11400032043457
1787956245715096800,16.020096923828124,69.94200134277344,-67.68600463867188,-10.519000053405762
1787956245731177000,16.036177001953124,69.48500061035156,-66.84000396728516,-11.428000450134277
1787956245747266800,16.052266845703127,67.77200317382812,-66.9540023803711,-12.140000343322754
1787956245763179500,16.068179443359377,71.26100158691406,-66.86000061035156,-12.755001068115234
1787956245779278600,16.084278564453125,71.59800720214844,-67.06600189208984,-12.044000625610352
1787956245795337700,16.100337646484373,68.29600524902344,-66.31000518798828,-12.033000946044922
1787956245811422200,16.116422119140626,67.5270004272461,-65.46000671386719,-12.636000633239746
1787956245827517400,16.132517333984374,67.65900421142578,-67.82200622558594,-12.962000846862793
1787956245843486500,16.148486572265625,68.18400573730469,-66.85400390625,-12.64900016784668
1787956245859590400,16.16459033203125,71.04900360107422,-66.75200653076172,-12.6510009765625
1787956245875619300,16.180619384765624,70.1830062866211,-66.22000122070312,-13.053000450134277
1787956245891712300,16.196712158203123,70.12300109863281,-66.73200225830078,-11.326000213623047
1787956245907796200,16.212796142578124,68.83800506591797,-66.9530029296875,-11.937000274658203
1787956245923689000,16.22868896484375,70.42500305175781,-67.39100646972656,-12.453001022338867
1787956245939800600,16.244800537109374,68.76300048828125,-68.01500701904297,-11.234000205993652
1787956245955803100,16.26080322265625,70.2280044555664,-68.78700256347656,-12.668000221252441
1787956245971863300,16.27686328125,72.4320068359375,-67.72500610351562,-13.171000480651855
1787956245987941000,16.292941162109376,70.10000610351562,-66.42200469970703,-12.13800048828125
1787956246003876600,16.308876708984375,71.77000427246094,-67.09100341796875,-13.878000259399414
1787956246019958000,16.3249580078125,70.49000549316406,-65.36300659179688,-13.046000480651855
1787956246036008400,16.341008544921873,70.04000091552734,-65.37700653076172,-14.166000366210938
1787956246052074500,16.357074462890626,70.38600158691406,-65.36100006103516,-12.944000244140625
1787956246068146700,16.373146728515625,70.6240005493164,-67.39900207519531,-13.064001083374023
1787956246084104000,16.38910400390625,72.74600219726562,-66.7560043334961,-12.756000518798828
1787956246100190700,16.405190673828123,70.73600006103516,-67.28800201416016,-12.758000373840332
1787956246116254500,16.42125439453125,74.12800598144531,-67.72900390625,-13.27500057220459
1787956246132356000,16.437356201171873,70.20700073242188,-66.31300354003906,-12.035000801086426
1787956246148444000,16.45344384765625,70.83800506591797,-65.67000579833984,-11.929000854492188
1787956246164374300,16.469374267578125,71.7040023803711,-67.38999938964844,-12.250000953674316
1787956246180478000,16.48547802734375,70.52100372314453,-65.99200439453125,-12.033000946044922
1787956246196464400,16.50146435546875,71.46200561523438,-65.89500427246094,-12.644001007080078
1787956246212557000,16.51755712890625,70.63200378417969,-66.31400299072266,-12.03600025177002
1787956246228674000,16.533674072265626,71.05000305175781,-66.31900024414062,-12.342000961303711
1787956246244605700,16.549605712890624,69.05400085449219,-65.76200103759766,-11.010000228881836
1787956246260709600,16.565709716796874,69.24600219726562,-65.88300323486328,-12.030000686645508
1787956246276740000,16.581739990234375,69.1570053100586,-66.30500030517578,-11.52500057220459
1787956246292837400,16.59783740234375,69.7040023803711,-65.97200012207031,-10.606000900268555
1787956246308904400,16.613904541015625,69.98800659179688,-64.80400085449219,-11.41100025177002
1787956246324841200,16.62984130859375,69.60000610351562,-64.99700164794922,-9.884000778198242
1787956246340865500,16.645865478515624,70.00100708007812,-65.12000274658203,-11.006000518798828
1787956246356853800,16.661853759765624,68.64200592041016,-65.97000122070312,-10.604000091552734
1787956246372954600,16.67795458984375,68.10600280761719,-64.78300476074219,-10.084000587463379
1787956246389071000,16.694071044921873,67.93099975585938,-67.13800048828125,-9.901000022888184
1787956246405018000,16.71001806640625,71.44000244140625,-66.70800018310547,-9.392000198364258
1787956246421143300,16.726143310546874,67.83200073242188,-65.7280044555664,-8.666000366210938
1787956246437186800,16.742186767578126,68.58100128173828,-66.26700592041016,-8.773000717163086
1787956246453294300,16.75829443359375,67.0790023803711,-65.84100341796875,-9.175000190734863
1787956246469394000,16.774393798828125,66.67900085449219,-66.47400665283203,-8.467000007629395
1787956246485294000,16.790294189453125,67.08900451660156,-64.7540054321289,-8.045000076293945
1787956246501368000,16.8063681640625,67.78300476074219,-67.20700073242188,-7.049000263214111
1787956246517415000,16.822414794921876,66.48400115966797,-65.38300323486328,-7.031000137329102
1787956246533478400,16.838478515625,66.92500305175781,-66.23800659179688,-6.835000514984131
1787956246549550800,16.85455078125,67.17300415039062,-66.21700286865234,-5.206000328063965
1787956246565460500,16.87046044921875,67.45800018310547,-64.61600494384766,-5.701000213623047
1787956246581547300,16.88654736328125,66.81600189208984,-65.69900512695312,-6.627000331878662
1787956246597566700,16.902566650390625,67.46400451660156,-65.04500579833984,-5.705000400543213
1787956246613641700,16.918641845703124,68.01700592041016,-65.78900146484375,-5.203000068664551
1787956246629743900,16.934743896484374,68.76700592041016,-66.11100006103516,-5.105000019073486
1787956246645673500,16.950673583984376,69.36500549316406,-65.27100372314453,-6.321000099182129
1787956246661678300,16.96667822265625,67.72900390625,-66.5270004272461,-4.2920002937316895
1787956246677708800,16.982708740234376,65.68400573730469,-66,-5.202000141143799
1787956246693801000,16.998801025390627,66.43800354003906,-65.4540023803711,-4.383000373840332
1787956246709904400,17.014904296875,68.97000122070312,-65.46800231933594,-5.099000453948975
1787956246725838800,17.0308388671875,67.406005859375,-66.20500183105469,-4.289000034332275
1787956246741945900,17.04694580078125,67.5050048828125,-65.56000518798828,-4.182000160217285
1787956246757932000,17.06293212890625,66.1240005493164,-64.69400024414062,-3.6630001068115234
1787956246774026800,17.07902685546875,66.3290023803711,-65.7800064086914,-4.690999984741211
1787956246790144000,17.09514404296875,67.80000305175781,-65.14300537109375,-4.993000030517578
1787956246806086000,17.1110859375,66.12700653076172,-64.04400634765625,-3.1480002403259277
1787956246822195700,17.12719580078125,66.6570053100586,-66.09900665283203,-4.491000175476074
1787956246838191400,17.14319140625,66.41100311279297,-65.03800201416016,-5.2960004806518555
1787956246854300700,17.15930078125,65.8800048828125,-64.49700164794922,-4.985000133514404
1787956246870371800,17.175371826171876,66.52900695800781,-64.38300323486328,-4.374000072479248
1787956246886270500,17.1912705078125,66.64100646972656,-66.10900115966797,-5.204000473022461
1787956246902398000,17.20739794921875,66.43900299072266,-65.56100463867188,-4.384000301361084
1787956246918405000,17.223405029296874,67.11000061035156,-66.19000244140625,-3.2700002193450928
1787956246934470400,17.239470458984375,68.54800415039062,-64.81700134277344,-4.584000110626221
1787956246950555000,17.255554931640624,66.74100494384766,-64.49200439453125,-4.4770002365112305
1787956246966461700,17.271461669921877,67.62100219726562,-66.2040023803711,-4.187000274658203
1787956246982544100,17.287544189453126,66.23900604248047,-65.12100219726562,-3.565000057220459
1787956246998562000,17.30356201171875,68.86900329589844,-64.49200439453125,-4.276000022888184
1787956247014636500,17.319636474609375,67.25800323486328,-64.82500457763672,-5.295000076293945
1787956247030728200,17.335728271484374,68.64500427246094,-64.17400360107422,-4.578000068664551
1787956247046643700,17.351643798828125,65.875,-65.14800262451172,-5.6020002365112305
1787956247062735000,17.367735107421876,67.58600616455078,-66.00800323486328,-5.612000465393066
1787956247078763500,17.383763427734376,67.36900329589844,-65.36199951171875,-5.402000427246094
1787956247094844400,17.399844482421877,66.10900115966797,-65.56800079345703,-4.89300012588501
1787956247110953500,17.415953369140624,67.2760009765625,-66.3270034790039,-5.410000324249268
1787956247126890800,17.431890869140624,65.99200439453125,-66.43900299072266,-5.919000148773193
1787956247143000300,17.448000244140626,65.66900634765625,-64.9280014038086,-5.192000389099121
1787956247158986200,17.463986328125,68.5770034790039,-65.77200317382812,-3.879000186920166
1787956247175076900,17.480076904296876,68.01000213623047,-65.14500427246094,-5.095000267028809
1787956247191184600,17.4961845703125,68.01200103759766,-65.79199981689453,-5.4070000648498535
1787956247207120100,17.5121201171875,66.45000457763672,-66.5270004272461,-4.494000434875488
1787956247223232000,17.52823193359375,67.69499969482422,-65.03400421142578,-4.890000343322754
1787956247239225600,17.5442255859375,67.83500671386719,-65.55400085449219,-3.6730000972747803
1787956247255331000,17.5603310546875,65.80599975585938,-65.99000549316406,-4.48900032043457
1787956247271399400,17.5763994140625,65.35600280761719,-65.0320053100586,-4.98900032043457
1787956247287343400,17.59234326171875,66.44200134277344,-64.58700561523438,-3.6620001792907715
1787956247303458800,17.608458740234376,66.46900177001953,-65.43500518798828,-2.957000255584717
1787956247319464200,17.624464111328123,66.99000549316406,-64.9010009765625,-3.055000066757202
1787956247335572500,17.640572509765626,66.2760009765625,-66.8280029296875,-2.9690001010894775
1787956247351651600,17.656651611328126,66.79199981689453,-65.54100036621094,-2.8560001850128174
1787956247367577300,17.672577392578123,68.58000183105469,-63.50100326538086,-2.3310000896453857
1787956247383699700,17.68869970703125,64.46900177001953,-64.23200225830078,-1.4160000085830688
1787956247399702800,17.704702880859376,67.03900146484375,-65.08800506591797,-1.0190000534057617
1787956247415814400,17.720814453125,65.67400360107422,-63.45500183105469,0.7280000448226929
1787956247431892200,17.736892333984375,66.93400573730469,-63.57400131225586,0.012000000104308128
1787956247447839000,17.7528388671875,67.08600616455078,-64.08700561523438,1.7390000820159912
1787956247463925500,17.768925537109375,65.42300415039062,-64.17100524902344,3.2690000534057617
1787956247479937300,17.784937255859376,65.30500030517578,-63.638004302978516,3.070000171661377
1787956247496008700,17.8010087890625,65.86900329589844,-63.72600173950195,4.494000434875488
1787956247512096500,17.817096435546876,67.177001953125,-64.57200622558594,5.504000186920166
1787956247528013800,17.833013916015624,65.68099975585938,-63.06200408935547,6.029000282287598
1787956247544105700,17.849105712890626,67.13800048828125,-64.63899993896484,8.458000183105469
1787956247560130300,17.86513037109375,66.35800170898438,-62.823001861572266,7.965000152587891
1787956247576212000,17.8812119140625,65.94900512695312,-63.78600311279297,8.059000015258789
1787956247592317400,17.8973173828125,66.8270034790039,-63.01400375366211,9.797000885009766
1787956247608250000,17.91325,68.0320053100586,-63.10100173950195,11.42400074005127
1787956247624350200,17.92935009765625,65.83700561523438,-64.80500030517578,11.921000480651855
1787956247640329700,17.945329833984374,68.59200286865234,-63.19200134277344,12.645000457763672
1787956247656422400,17.96142236328125,67.79199981689453,-64.45800018310547,14.06100082397461
1787956247672529000,17.97752880859375,68.1259994506836,-64.77300262451172,14.567000389099121
1787956247688460500,17.99346044921875,67.74600219726562,-66.04199981689453,15.779000282287598
1787956247704567300,18.0095673828125,69.79700469970703,-63.64800262451172,18.75200080871582
1787956247720554000,18.025553955078124,69.6290054321289,-65.88999938964844,19.343000411987305
1787956247736648700,18.041648681640623,69.11100006103516,-66.20500183105469,19.748001098632812
1787956247752763600,18.057763671875,71.23300170898438,-64.91300201416016,20.470001220703125
1787956247768705500,18.07370556640625,72.09500122070312,-65.33900451660156,20.7710018157959
1787956247784819200,18.089819091796876,71.3010025024414,-66.38400268554688,22.59600067138672
1787956247800813600,18.1058134765625,71.74400329589844,-67.67100524902344,22.584001541137695
1787956247816915200,18.121915283203126,74.32000732421875,-66.9020004272461,24.32000160217285
1787956247832984300,18.137984375,75.36900329589844,-67.23600006103516,23.501001358032227
1787956247848929000,18.153928955078126,73.69900512695312,-67.86400604248047,24.41400146484375
1787956247865045200,18.170045166015626,76.3080062866211,-68.4800033569336,26.748001098632812
1787956247881045800,18.186045654296876,76.18900299072266,-70.21600341796875,25.10300064086914
1787956247897153500,18.202153564453123,78.84800720214844,-67.84100341796875,26.750001907348633
1787956247913230800,18.21823095703125,77.83600616455078,-69.86199951171875,27.753002166748047
1787956247929134000,18.234134033203127,79.34600067138672,-70.39000701904297,28.459001541137695
1787956247945210600,18.250210693359374,80.94400024414062,-71.5780029296875,27.937002182006836
1787956247961224200,18.26622412109375,82.11100769042969,-69.2030029296875,29.38300132751465
1787956247977292500,18.28229248046875,80.1030044555664,-69.41000366210938,29.689001083374023
1787956247993376500,18.29837646484375,81.72700500488281,-70.1510009765625,30.597002029418945
1787956248009334500,18.31433447265625,85.21500396728516,-70.49000549316406,29.673002243041992
1787956248025424400,18.33042431640625,84.8080062866211,-70.47900390625,30.489002227783203
1787956248041450000,18.346449951171873,85.98700714111328,-71.55500030517578,30.274002075195312
1787956248057527800,18.36252783203125,87.38200378417969,-70.35900115966797,31.709001541137695
1787956248073625600,18.37862548828125,90.04300689697266,-71.656005859375,31.185001373291016
1787956248089547300,18.39454736328125,88.77800750732422,-71,32.00699996948242
1787956248105642500,18.410642578125,89.12800598144531,-73.25100708007812,31.987001419067383
1787956248121662700,18.426662841796876,92.44200134277344,-72.05400085449219,33.72500228881836
1787956248137749200,18.442749267578126,93.50100708007812,-72.38200378417969,33.415000915527344
1787956248153845500,18.458845458984374,92.62200164794922,-72.50700378417969,31.989002227783203
1787956248169825500,18.474825439453124,93.69200134277344,-73.47600555419922,31.775001525878906
1787956248185935400,18.490935302734375,94.94200134277344,-73.38400268554688,30.756000518798828
1787956248201966800,18.506966796875,97.72300720214844,-74.13300323486328,31.15300178527832
1787956248218065000,18.52306494140625,96.34600830078125,-74.88500213623047,30.843002319335938
1787956248234175500,18.539175537109376,98.77800750732422,-74.46300506591797,30.64000129699707
1787956248250121200,18.555121337890625,97.9320068359375,-75.86500549316406,29.915000915527344
1787956248266240300,18.571240234375,100.07000732421875,-75.75100708007812,30.626001358032227
1787956248282242300,18.5872421875,101.75700378417969,-75.11200714111328,30.52800178527832
1787956248298350800,18.603350830078124,100.72400665283203,-75.85000610351562,31.338001251220703
1787956248314410500,18.619410400390624,102.22900390625,-77.35400390625,31.22100067138672
1787956248330308900,18.635308837890626,101.31300354003906,-76.8530044555664,28.578001022338867
1787956248346424800,18.6514248046875,103.052001953125,-77.26300048828125,30.10000228881836
1787956248362427000,18.667427001953126,102.14500427246094,-76.54100036621094,27.968000411987305
1787956248378533000,18.683533203125,105.01900482177734,-76.75700378417969,28.167001724243164
1787956248394608400,18.6996083984375,105.21800231933594,-76.76500701904297,27.555002212524414
1787956248410508500,18.715508544921875,106.92900848388672,-77.3010025024414,27.75200080871582
1787956248426579200,18.7315791015625,106.8290023803711,-76.75700378417969,28.36800193786621
1787956248442620200,18.7476201171875,108.61600494384766,-77.09500122070312,27.34400177001953
1787956248458681600,18.763681640625,109.552001953125,-77.97300720214844,25.909000396728516
1787956248474753800,18.77975390625,109.96000671386719,-76.47000122070312,26.125001907348633
1787956248490664000,18.795663818359376,112.51300811767578,-76.58000183105469,26.22300148010254
1787956248506751000,18.8117509765625,112.19700622558594,-77.98300170898438,25.498001098632812
1787956248522764300,18.827764404296875,113.39300537109375,-75.76300048828125,23.37700080871582
1787956248538838300,18.84383837890625,111.32300567626953,-77.34800720214844,24.792001724243164
1787956248554929700,18.8599296875,111.83900451660156,-78.22200012207031,23.56100082397461
1787956248570888200,18.87588818359375,111.41700744628906,-77.78800201416016,23.97300148010254
1787956248586982000,18.89198193359375,112.4580078125,-79.20700073242188,22.125001907348633
1787956248603025700,18.908025634765625,114.04400634765625,-79.1050033569336,21.920001983642578
1787956248619102000,18.92410205078125,114.80400848388672,-79.31300354003906,22.529001235961914
1787956248635187200,18.940187255859374,114.61100769042969,-80.3810043334961,22.72300148010254
1787956248651144400,18.95614453125,114.2540054321289,-79.54000091552734,21.509000778198242
1787956248667235600,18.972235595703125,116.14700317382812,-80.74200439453125,19.968000411987305
1787956248683211000,18.9882109375,116.27200317382812,-80.62300109863281,20.886001586914062
1787956248699293400,19.00429345703125,115.1820068359375,-80.20600128173828,19.87200164794922
1787956248715392800,19.020392822265624,115.677001953125,-78.39200592041016,19.378000259399414
1787956248731315700,19.036315673828124,117.50900268554688,-79.67500305175781,19.772001266479492
1787956248747422200,19.052422119140626,117.73800659179688,-80.74600219726562,19.86400032043457
1787956248763403000,19.068403076171876,117.90900421142578,-79.58300018310547,18.753000259399414
1787956248779495000,19.084494873046875,118.4260025024414,-79.91600036621094,17.935001373291016
1787956248795556600,19.100556640625,117.58000183105469,-80.1290054321289,17.93400001525879
1787956248811486000,19.11648583984375,118.32300567626953,-79.59000396728516,18.244001388549805
1787956248827551500,19.132551513671874,115.9850082397461,-79.80400085449219,18.041000366210938
1787956248843595300,19.14859521484375,117.39400482177734,-81.84200286865234,18.020999908447266
1787956248859656000,19.164656005859374,116.73100280761719,-79.47900390625,18.34800148010254
1787956248875725300,19.180725341796876,118.62800598144531,-79.92300415039062,17.42500114440918
1787956248891633400,19.19663330078125,118.50300598144531,-79.61000061035156,16.817001342773438
1787956248907708200,19.212708251953124,117.54600524902344,-80.47400665283203,16.19900131225586
1787956248923727600,19.2287275390625,118.07200622558594,-80.47700500488281,15.995000839233398
1787956248939803100,19.24480322265625,117.10700225830078,-79.29300689697266,16.312000274658203
1787956248955903500,19.260903564453123,117.94300842285156,-80.2750015258789,15.080000877380371
1787956248971825700,19.27682568359375,117.9330062866211,-79.41600036621094,15.190000534057617
1787956248987920100,19.292920166015627,117.8320083618164,-79.6290054321289,15.290000915527344
1787956249003898000,19.308898193359376,117.72100830078125,-80.60400390625,14.4660005569458
1787956249019983400,19.3249833984375,118.14900207519531,-79.84700012207031,15.084000587463379
1787956249036087800,19.341087890625,117.6310043334961,-80.91900634765625,14.973000526428223
1787956249052057000,19.35705712890625,119.01500701904297,-81.0270004272461,15.072000503540039
1787956249068161500,19.37316162109375,117.83100891113281,-80.17000579833984,14.87700080871582
1787956249084150300,19.389150390625,117.08700561523438,-80.9260025024414,14.362000465393066
1787956249100242400,19.405242431640627,116.77000427246094,-81.57300567626953,14.051000595092773
1787956249116337400,19.42133740234375,118.781005859375,-82.22900390625,13.330000877380371
1787956249132311000,19.43731103515625,116.77800750732422,-81.35200500488281,14.563000679016113
1787956249148427000,19.453427001953123,115.9050064086914,-82.44600677490234,12.822000503540039
1787956249164461000,19.4694609375,117.42500305175781,-82.21200561523438,14.452000617980957
1787956249180567300,19.4855673828125,118.90000915527344,-82.22100067138672,13.941000938415527
1787956249196679700,19.5016796875,117.19700622558594,-83.51800537109375,12.91300106048584
1787956249212665900,19.517665771484374,118.70100402832031,-82.64500427246094,14.243000984191895
1787956249228783600,19.53378369140625,116.34100341796875,-82.22400665283203,13.4350004196167
1787956249244821800,19.54982177734375,118.68700408935547,-81.68000030517578,14.25200080871582
1787956249260885200,19.56588525390625,117.73800659179688,-82.64800262451172,13.939001083374023
1787956249276954000,19.5819541015625,118.1300048828125,-81.04800415039062,13.443000793457031
1787956249292854500,19.5978544921875,115.47400665283203,-80.50300598144531,13.757000923156738
1787956249308935400,19.613935302734376,116.8810043334961,-82.21900177001953,13.842000961303711
1787956249324942600,19.629942626953124,118.64300537109375,-82.89600372314453,11.491000175476074
1787956249341013200,19.64601318359375,116.76900482177734,-82.0060043334961,13.742000579833984
1787956249357104400,19.6621044921875,114.97700500488281,-82.75200653076172,13.840001106262207
1787956249373016300,19.678016357421875,114.86100769042969,-83.08100128173828,13.226000785827637
1787956249389099000,19.69409912109375,115.41000366210938,-82.85600280761719,14.144001007080078
1787956249405116400,19.710116455078126,115.92000579833984,-82.97700500488281,13.123001098632812
1787956249421199400,19.726199462890627,116.69700622558594,-83.49800109863281,14.340001106262207
1787956249437274600,19.742274658203126,117.01200866699219,-82.8530044555664,14.54900074005127
1787956249453195300,19.7581953125,115.16800689697266,-81.03600311279297,13.956000328063965
1787956249469294000,19.774294189453126,116.88700866699219,-81.9990005493164,14.25100040435791
1787956249485320400,19.790320556640626,115.99600219726562,-82.39100646972656,16.897001266479492
1787956249501405700,19.80640576171875,116.37500762939453,-83.06700134277344,14.446001052856445
1787956249517513700,19.822513671875,116.80000305175781,-81.77100372314453,15.272000312805176
1787956249533442800,19.83844287109375,115.24300384521484,-82.5040054321289,16.38800048828125
1787956249549543000,19.85454296875,117.34900665283203,-81.43700408935547,16.293001174926758
1787956249565523700,19.870523681640623,115.14300537109375,-83.14800262451172,16.2810001373291
1787956249581616000,19.8866162109375,116.85000610351562,-81.74100494384766,17.51300048828125
1787956249597728800,19.902728759765626,115.01900482177734,-80.56500244140625,17.119001388549805
1787956249613670100,19.918670166015627,116.90200805664062,-80.8010025024414,15.688000679016113
1787956249629782500,19.934782470703126,115.65800476074219,-80.99700164794922,16.910001754760742
1787956249645778400,19.9507783203125,114.79300689697266,-80.89700317382812,16.301000595092773
1787956249661881000,19.966881103515625,115.78300476074219,-82.71500396728516,16.69099998474121
1787956249677943600,19.982943603515626,115.01400756835938,-80.35200500488281,17.019001007080078
1787956249693886500,19.998886474609375,115.24200439453125,-80.34200286865234,17.731000900268555
1787956249710002200,20.015002197265623,115.56100463867188,-80.34300231933594,17.731000900268555
1787956249725997300,20.030997314453124,115.01800537109375,-79.48500061035156,17.73900032043457
1787956249742103800,20.047103759765626,115.11100769042969,-80.03300476074219,16.81800079345703
1787956249758177000,20.063177001953125,117.16800689697266,-81.20100402832031,17.822999954223633
1787956249774125000,20.079125,115.677001953125,-80.87800598144531,17.828001022338867
1787956249790203000,20.095202880859375,115.6830062866211,-80.98200225830078,18.0310001373291
1787956249806216000,20.1112158203125,115.27800750732422,-80.1050033569336,19.46500015258789
1787956249822288000,20.127287841796875,115.22500610351562,-80.56900024414062,16.81300163269043
1787956249838349600,20.143349609375,117.79500579833984,-80.01900482177734,18.138999938964844
1787956249854257700,20.159257568359376,115.71100616455078,-81.39700317382812,19.046001434326172
1787956249870347300,20.17534716796875,115.9850082397461,-80.12800598144531,17.834001541137695
1787956249886365700,20.19136572265625,116.34900665283203,-80.31700134277344,19.768001556396484
1787956249902443000,20.207443115234376,116.10800170898438,-81.19800567626953,17.927000045776367
1787956249918541600,20.22354150390625,115.79300689697266,-81.73600769042969,17.718000411987305
1787956249934463700,20.239463623046873,115.99400329589844,-81.74400329589844,17.209001541137695
1787956249950559500,20.2555595703125,116.21200561523438,-81.52400207519531,17.618000030517578
1787956249966538500,20.27153857421875,115.34900665283203,-80.34200286865234,17.731000900268555
1787956249982624000,20.2876240234375,114.59300231933594,-81.42900085449219,16.5
1787956249998728400,20.303728515625,113.85700225830078,-80.99100494384766,17.11600112915039
1787956250014656000,20.319656005859375,113.87700653076172,-82.2760009765625,17.207000732421875
1787956250030754800,20.3357548828125,115.07400512695312,-83.34200286865234,17.8070011138916
1787956250046738400,20.351738525390626,114.94900512695312,-82.81200408935547,17.303001403808594
1787956250062832000,20.36783203125,114.37000274658203,-81.00300598144531,16.301000595092773
1787956250078947000,20.383947021484374,114.93900299072266,-81.9540023803711,17.41200065612793
1787956250094884000,20.399884033203126,113.78400421142578,-82.70100402832031,17.509000778198242
1787956250110993700,20.41599365234375,116.02700805664062,-83.34400177001953,17.70400047302246
1787956250126983200,20.431983154296876,112.93800354003906,-82.26500701904297,17.921001434326172
1787956250143078700,20.44807861328125,114.3320083618164,-83.12300109863281,18.013999938964844
1787956250159141000,20.46414111328125,114.6050033569336,-81.31400299072266,17.112001419067383
1787956250175084800,20.480084716796874,112.59000396728516,-82.49800109863281,16.493000030517578
1787956250191201300,20.496201171875,114.60400390625,-82.39500427246094,16.39000129699707
1787956250207203000,20.512203125,114.13300323486328,-83.11500549316406,18.625
1787956250223266600,20.5282666015625,115.03900909423828,-81.84900665283203,17.209001541137695
1787956250239343600,20.544343505859374,114.29200744628906,-82.06700134277344,16.902999877929688
1787956250255249400,20.56024951171875,112.30500793457031,-83.23400115966797,17.506000518798828
1787956250271328800,20.576328857421874,113.4260025024414,-81.53500366210938,16.501001358032227
1787956250287339800,20.59233984375,113.99600219726562,-82.052001953125,17.922000885009766
1787956250303410200,20.60841015625,113.05300903320312,-83.44800567626953,17.60500144958496
1787956250319498500,20.62449853515625,113.16300201416016,-83.2300033569336,17.91200065612793
1787956250335407600,20.64040771484375,115.1570053100586,-80.87000274658203,18.338001251220703
1787956250351409400,20.656409423828126,115.47300720214844,-83.14200592041016,16.790000915527344
1787956250367426300,20.67242626953125,114.427001953125,-81.50900268554688,18.53700065612793
1787956250383507000,20.6885068359375,115.59000396728516,-82.59500122070312,17.60900115966797
1787956250399605000,20.70460498046875,116.31700897216797,-81.74100494384766,17.41200065612793
1787956250415526400,20.7205263671875,116.156005859375,-82.35800170898438,19.34200096130371
1787956250431629300,20.73662939453125,113.89700317382812,-81.72400665283203,18.43400001525879
1787956250447700700,20.75270068359375,116.9330062866211,-79.26900482177734,18.04400062561035
1787956250463782000,20.768781982421874,116.6030044555664,-81.54500579833984,16.089000701904297
1787956250479872300,20.784872314453125,116.54800415039062,-81.94700622558594,18.123001098632812
1787956250495843300,20.80084326171875,116.89300537109375,-81.06600189208984,19.862001419067383
1787956250511949000,20.816948974609375,116.09000396728516,-80.56100463867188,17.525001525878906
1787956250527969500,20.832969482421873,117.0050048828125,-83.00800323486328,18.928001403808594
1787956250544062200,20.849062255859376,116.43000793457031,-80.44000244140625,18.54400062561035
