time,seconds_elapsed,z,y,x
1787735930682294000,0.3642939453125,-0.09834930300712585,-0.07941248267889023,-0.0012217304902151227
1787735930698280200,0.3802802734375,-0.09834930300712585,-0.07941248267889023,-0.0012217304902151227
1787735930730256400,0.41225634765625,-0.09834930300712585,-0.07941248267889023,-0.0012217304902151227
1787735930746403300,0.4284033203125,-0.09834930300712585,-0.07941248267889023,-0.0012217304902151227
1787735930762265000,0.44426513671875,-0.09834930300712585,-0.07941248267889023,-0.0012217304902151227
1787735930778245400,0.460245361328125,-0.09834930300712585,-0.07941248267889023,-0.0012217304902151227
1787735930794228200,0.476228271484375,0.4153883755207062,0.24678955972194672,-0.14844025671482086
1787735930810214100,0.492214111328125,0.4697553813457489,0.2321287989616394,-0.2174680233001709
1787735930826358500,0.508358642578125,0.47219884395599365,0.18814650177955627,-0.21441370248794556
1787735930842206700,0.524206787109375,0.47769662737846375,0.10506882518529892,-0.17470745742321014
1787735930858192000,0.54019189453125,0.4550946056842804,-0.09896016865968704,-0.12217304855585098
1787735930874179600,0.5561796875,0.38606682419776917,-0.25961771607398987,-0.06475171446800232
1787735930890211300,0.57221142578125,0.2987131178379059,-0.29504790902137756,-0.03787364438176155
1787735930906365000,0.588364990234375,0.11484266817569733,-0.2620611786842346,0.05375614017248154
1787735930922215000,0.60421484375,0.025045474991202354,-0.22479841113090515,0.15332718193531036
1787735930938204000,0.620203857421875,-0.022602014243602753,-0.19425514340400696,0.19975294172763824
1787735930954202600,0.63620263671875,-0.05253441259264946,-0.2767219543457031,0.14233160018920898
1787735930970196500,0.652196533203125,-0.08002334833145142,-0.2736676335334778,0.05192354694008827
1787735930986352600,0.6683525390625,-0.10323622822761536,-0.2638937830924988,-0.01038470957428217
1787735931002256600,0.684256591796875,-0.13255776464939117,-0.242513507604599,-0.03726277872920036
1787735931018253000,0.700253173828125,-0.15577064454555511,-0.2076941877603531,-0.030543262138962746
1787735931034243800,0.716243896484375,-0.14355333149433136,-0.19547687470912933,-0.021380282938480377
1787735931050231000,0.73223095703125,-0.11423180252313614,-0.19792033731937408,0.0354301854968071
1787735931066378200,0.748378173828125,-0.1062905490398407,-0.13744467496871948,0.1111774742603302
1787735931090208300,0.772208251953125,-0.10384709388017654,-0.004886921960860491,0.24007004499435425
1787735931106390500,0.788390625,-0.08674286305904388,0.03237585723400116,0.2687807083129883
1787735931121954600,0.80395458984375,-0.06841690838336945,0.04337143152952194,0.26511552929878235
1787735931138241300,0.8202412109375,-0.04459316283464432,0.05314527451992035,0.23457226157188416
1787735931153994800,0.835994873046875,-0.025656340643763542,0.04581489413976669,0.19303341209888458
1787735931170152700,0.852152587890625,-0.01038470957428217,0.060475658625364304,0.14477506279945374
1787735931186443500,0.868443603515625,0.0012217304902151227,0.028099801391363144,0.07147123664617538
1787735931201960400,0.88396044921875,0.0024434609804302454,-0.031154127791523933,-0.004886921960860491
1787735931217971200,0.89997119140625,-0.015271631069481373,-0.051312681287527084,-0.048258353024721146
1787735931234007000,0.916007080078125,-0.01710422709584236,-0.03176499158143997,-0.0659734457731247
1787735931250345500,0.932345458984375,-0.012828170321881771,0.02382374368607998,-0.08552113175392151
1787735931266515700,0.948515625,-0.012828170321881771,0.05253441259264946,-0.10690141469240189
1787735931282220500,0.964220458984375,-0.036041051149368286,0.05497787147760391,-0.0910189226269722
1787735931298040300,0.980040283203125,-0.06536258012056351,0.028099801391363144,-0.045204028487205505
1787735931314100700,0.996100830078125,-0.08307767659425735,-0.012828170321881771,0.014049900695681572
1787735931338426600,1.020426513671875,-0.08918632566928864,-0.06291911751031876,0.06536258012056351
1787735931354456600,1.03645654296875,-0.0910189226269722,-0.07147123664617538,0.045204028487205505
1787735931370482200,1.052482177734375,-0.08796459436416626,-0.051312681287527084,-0.001832595793530345
1787735931386667000,1.0686669921875,-0.08368854224681854,-0.033597588539123535,-0.056810468435287476
1787735931402556000,1.084555908203125,-0.06352998316287994,-0.04886921867728233,-0.12522737681865692
1787735931418540300,1.100540283203125,-0.06475171446800232,-0.11911872029304504,-0.17287486791610718
1787735931434566100,1.116566162109375,-0.09346238523721695,-0.1966986060142517,-0.1820378452539444
1787735931450550500,1.132550537109375,-0.12461651116609573,-0.17287486791610718,-0.17470745742321014
1787735931466693600,1.148693603515625,-0.13866640627384186,-0.12950342893600464,-0.1820378452539444
1787735931482570500,1.164570556640625,-0.12889257073402405,-0.08918632566928864,-0.17837265133857727
1787735931506705200,1.188705078125,-0.08429940044879913,-0.08246681094169617,-0.1716531366109848
1787735931522207500,1.20420751953125,-0.05925392732024193,-0.09407325088977814,-0.1612684279680252
1787735931538195000,1.22019482421875,-0.03298672288656235,-0.1007927656173706,-0.13744467496871948
1787735931554223900,1.236223876953125,0.006108652334660292,-0.11056660860776901,-0.08552113175392151
1787735931570304500,1.252304443359375,0.039706241339445114,-0.15332718193531036,0.0024434609804302454
1787735931586713600,1.268713623046875,0.042760565876960754,-0.15332718193531036,0.08429940044879913
1787735931602252000,1.284251953125,0.03787364438176155,-0.13744467496871948,0.1667662113904953
1787735931618214400,1.30021435546875,0.03237585723400116,-0.13561208546161652,0.20341812074184418
1787735931634252300,1.316252197265625,0.033597588539123535,-0.1472185254096985,0.19975294172763824
1787735931650303000,1.332302978515625,0.028099801391363144,-0.1569923609495163,0.16004669666290283
1787735931666733600,1.348733642578125,0.02076941914856434,-0.16982053220272064,0.09712757170200348
1787735931682269000,1.36426904296875,0.006108652334660292,-0.17348572611808777,0.00855211354792118
1787735931706719500,1.388719482421875,-0.03237585723400116,-0.12767083942890167,-0.07696902006864548
1787735931722569500,1.404569580078125,-0.06230825558304787,-0.15271630883216858,-0.11362093687057495
1787735931738556700,1.420556640625,-0.06475171446800232,-0.18814650177955627,-0.1014036312699318
1787735931762208000,1.4442080078125,-0.0354301854968071,-0.14416420459747314,-0.018325956538319588
1787735931778215000,1.46021484375,0.021380282938480377,-0.1014036312699318,0.0757472887635231
1787735931802534700,1.48453466796875,0.10018189996480942,-0.07269296050071716,0.18997909128665924
1787735931818522400,1.5005224609375,0.13988813757896423,-0.09346238523721695,0.24434609711170197
1787735931834513700,1.516513671875,0.1661553531885147,-0.12217304855585098,0.27488934993743896
1787735931850503200,1.532503173828125,0.1716531366109848,-0.16310101747512817,0.2779437005519867
1787735931866651000,1.54865087890625,0.17409659922122955,-0.18570303916931152,0.2675589919090271
1787735931882499800,1.564499755859375,0.1612684279680252,-0.19975294172763824,0.23945917189121246
1787735931898493700,1.58049365234375,0.12095131725072861,-0.2382374405860901,0.17409659922122955
1787735931914494200,1.596494140625,0.0659734457731247,-0.2370157092809677,0.08124507963657379
1787735931930477800,1.612477783203125,0.033597588539123535,-0.22540926933288574,-0.010995574295520782
1787735931946627000,1.628626953125,0.02076941914856434,-0.21991148591041565,-0.054367005825042725
1787735931962501600,1.644501708984375,0.013439035043120384,-0.23518311977386475,-0.03848451003432274
1787735931978496800,1.660496826171875,0.014049900695681572,-0.22479841113090515,0.04214970022439957
1787735931994492200,1.6764921875,0.027488935738801956,-0.18997909128665924,0.15943582355976105
1787735932010542800,1.69254296875,0.02871066704392433,-0.17470745742321014,0.2528982162475586
1787735932026716700,1.708716552734375,0.019547687843441963,-0.1661553531885147,0.29138273000717163
1787735932042623700,1.724623779296875,0.019547687843441963,-0.14233160018920898,0.2822197377681732
1787735932058622500,1.74062255859375,0.033597588539123535,-0.12461651116609573,0.2382374405860901
1787735932074625500,1.75662548828125,0.04948008432984352,-0.09407325088977814,0.22052235901355743
1787735932090661600,1.77266162109375,0.05314527451992035,-0.07269296050071716,0.21380282938480377
1787735932106826200,1.788826171875,0.054367005825042725,-0.0861319974064827,0.2021963894367218
1787735932122750700,1.804750732421875,0.05253441259264946,-0.14782938361167908,0.1661553531885147
1787735932138758100,1.820758056640625,0.0659734457731247,-0.17776179313659668,0.11972958594560623
1787735932154803000,1.836802978515625,0.09407325088977814,-0.19608774781227112,0.0861319974064827
1787735932170827800,1.852827880859375,0.10995574295520782,-0.17043140530586243,0.12461651116609573
1787735932187061500,1.8690615234375,0.1062905490398407,-0.1508837193250656,0.18020524084568024
1787735932202934800,1.884934814453125,0.1007927656173706,-0.15027284622192383,0.2168571650981903
1787735932219017200,1.901017333984375,0.08735372871160507,-0.14782938361167908,0.22663100063800812
1787735932235128000,1.917128173828125,0.048258353024721146,-0.13377949595451355,0.23029619455337524
1787735932251214000,1.933214111328125,0.00427605677396059,-0.15515977144241333,0.20097467303276062
1787735932267431400,1.949431396484375,-0.02687807008624077,-0.1368338167667389,0.1508837193250656
1787735932283420200,1.965420166015625,-0.056810468435287476,-0.11239920556545258,0.10751228034496307
1787735932299474200,1.98147412109375,-0.09040805697441101,-0.10873401165008545,0.07269296050071716
1787735932315558700,1.99755859375,-0.10812314599752426,-0.11301007121801376,0.039095375686883926
1787735932331582200,2.013582275390625,-0.09346238523721695,-0.09346238523721695,0.015271631069481373
1787735932347802000,2.029802001953125,-0.06841690838336945,-0.08918632566928864,0.005497787147760391
1787735932363675100,2.045675048828125,-0.039095375686883926,-0.11301007121801376,0.010995574295520782
1787735932379683800,2.061683837890625,-0.009162978269159794,-0.14355333149433136,0.015882495790719986
1787735932403420700,2.085420654296875,0.04703662544488907,-0.16310101747512817,-0.007941247895359993
1787735932427904800,2.10990478515625,0.08368854224681854,-0.19792033731937408,-0.03481931984424591
1787735932451545300,2.13354541015625,0.11178833991289139,-0.24129177629947662,-0.07024950534105301
1787735932499432700,2.1814326171875,0.06291911751031876,-0.2767219543457031,-0.06352998316287994
1787735932515783200,2.197783203125,0.05375614017248154,-0.25473082065582275,-0.06536258012056351
1787735932539799600,2.221799560546875,0.059864792972803116,-0.17531833052635193,-0.03237585723400116
1787735932555868700,2.23786865234375,0.05253441259264946,-0.16432274878025055,0.029932396486401558
1787735932571883300,2.25388330078125,0.042760565876960754,-0.19120082259178162,0.09651670604944229
1787735932588060700,2.270060791015625,0.0354301854968071,-0.22663100063800812,0.1612684279680252
1787735932603958500,2.28595849609375,0.01710422709584236,-0.23640485107898712,0.19425514340400696
1787735932619941400,2.30194140625,0.00366519158706069,-0.23518311977386475,0.1869247704744339
1787735932635959600,2.31795947265625,-0.012217304669320583,-0.23090706765651703,0.1417207419872284
1787735932651936000,2.33393603515625,-0.02687807008624077,-0.21868975460529327,0.08429940044879913
1787735932668129000,2.35012890625,-0.039706241339445114,-0.20402899384498596,0.04764748737215996
1787735932684006400,2.36600634765625,-0.059864792972803116,-0.20036379992961884,0.033597588539123535
1787735932700020000,2.38202001953125,-0.07330382615327835,-0.2119702398777008,0.025045474991202354
1787735932716024000,2.398024169921875,-0.07330382615327835,-0.24068090319633484,0.02015855349600315
1787735932732015400,2.414015380859375,-0.06902777403593063,-0.2541199326515198,0.05192354694008827
1787735932748161800,2.430161865234375,-0.07635815441608429,-0.26083946228027344,0.08796459436416626
1787735932771684900,2.453684814453125,-0.056810468435287476,-0.2638937830924988,0.07635815441608429
1787735932788146700,2.470146728515625,-0.027488935738801956,-0.22602014243602753,0.05925392732024193
1787735932803754800,2.485754638671875,-0.012828170321881771,-0.22540926933288574,0.036651913076639175
1787735932820075000,2.502074951171875,-0.0012217304902151227,-0.2376265823841095,0.022602014243602753
1787735932835815000,2.51781494140625,0.00855211354792118,-0.26083946228027344,0.014049900695681572
1787735932851851000,2.53385107421875,0.01160643994808197,-0.26572638750076294,0.021380282938480377
1787735932868421600,2.550421630859375,-0.0006108652451075613,-0.23884831368923187,0.06536258012056351
1787735932884213000,2.566212890625,-0.022602014243602753,-0.2168571650981903,0.11423180252313614
1787735932900240000,2.582239990234375,-0.025656340643763542,-0.20525072515010834,0.14844025671482086
1787735932916386000,2.598385986328125,-0.02321287989616394,-0.18448130786418915,0.16798794269561768
1787735932932531700,2.61453173828125,-0.01771509274840355,-0.182648703455925,0.18448130786418915
1787735932948994300,2.630994384765625,0.00733038317412138,-0.2028072625398636,0.1869247704744339
1787735932964577000,2.646576904296875,0.025656340643763542,-0.21319197118282318,0.1973094791173935
1787735932989053200,2.67105322265625,-0.006719517521560192,-0.2021963894367218,0.21441370248794556
1787735933004966000,2.6869658203125,-0.06658431142568588,-0.21868975460529327,0.2174680233001709
1787735933021025300,2.703025390625,-0.12095131725072861,-0.2431243658065796,0.192422553896904
1787735933037116700,2.71911669921875,-0.15332718193531036,-0.2590068578720093,0.1508837193250656
1787735933053195000,2.735195068359375,-0.16371189057826996,-0.28955012559890747,0.11362093687057495
1787735933069438000,2.75143798828125,-0.14233160018920898,-0.2834414839744568,0.08124507963657379
1787735933085313300,2.767313232421875,-0.1062905490398407,-0.2535090744495392,0.04948008432984352
1787735933101322800,2.78332275390625,-0.08307767659425735,-0.2767219543457031,-0.00366519158706069
1787735933117327400,2.799327392578125,-0.07208210229873657,-0.2718350291252136,-0.02015855349600315
1787735933133341000,2.8153408203125,-0.07330382615327835,-0.24923302233219147,0.009773843921720982
1787735933149568500,2.831568603515625,-0.09834930300712585,-0.1973094791173935,0.07330382615327835
1787735933165475600,2.8474755859375,-0.13011430203914642,-0.19853121042251587,0.1270599663257599
1787735933181493200,2.8634931640625,-0.13866640627384186,-0.26022860407829285,0.1466076523065567
1787735933197518000,2.87951806640625,-0.1362229436635971,-0.2785545587539673,0.14844025671482086
1787735933213536500,2.89553662109375,-0.13866640627384186,-0.24617868661880493,0.13744467496871948
1787735933229770500,2.9117705078125,-0.1411098688840866,-0.20402899384498596,0.10445795953273773
1787735933245795600,2.927795654296875,-0.12522737681865692,-0.192422553896904,0.07452555745840073
1787735933261814000,2.94381396484375,-0.1111774742603302,-0.14844025671482086,0.10751228034496307
1787735933277843500,2.959843505859375,-0.1160643994808197,-0.14844025671482086,0.16371189057826996
1787735933293819600,2.975819580078125,-0.11911872029304504,-0.1417207419872284,0.22540926933288574
1787735933310052000,2.992052001953125,-0.11789698898792267,-0.1062905490398407,0.27122417092323303
1787735933333687800,3.015687744140625,-0.06841690838336945,-0.07513642311096191,0.2834414839744568
1787735933350085600,3.032085693359375,-0.012217304669320583,-0.05009094998240471,0.2877175211906433
1787735933365652500,3.047652587890625,0.030543262138962746,-0.0403171069920063,0.303600013256073
1787735933381985300,3.0639853515625,0.05009094998240471,-0.07941248267889023,0.3323107063770294
1787735933397900500,3.079900634765625,0.08368854224681854,-0.16432274878025055,0.3982841372489929
1787735933413815300,3.095815185546875,0.1160643994808197,-0.10506882518529892,0.5247332453727722
1787735933430259700,3.112259765625,0.12217304855585098,-0.012217304669320583,0.6310238242149353
1787735933445865200,3.127865234375,0.10690141469240189,0.07024950534105301,0.6841690540313721
1787735933461784800,3.143784912109375,0.06108652427792549,0.11911872029304504,0.6737843751907349
1787735933486123300,3.168123291015625,-0.027488935738801956,0.12400564551353455,0.5974262356758118
1787735933502106600,3.184106689453125,-0.05925392732024193,0.10995574295520782,0.5510004758834839
1787735933518095600,3.200095703125,-0.05925392732024193,0.14294247329235077,0.5082398653030396
1787735933534078700,3.21607861328125,-0.04092797264456749,0.08368854224681854,0.44837507605552673
1787735933550224400,3.232224365234375,-0.03237585723400116,0.1264491081237793,0.42271876335144043
1787735933566118700,3.24811865234375,-0.024434609338641167,0.2632829248905182,0.38667771220207214
1787735933582103300,3.264103271484375,-0.012217304669320583,0.3481931984424591,0.34147366881370544
1787735933598091500,3.280091552734375,-0.009773843921720982,0.4495968222618103,0.3781255781650543
1787735933614085000,3.296085205078125,0.0012217304902151227,0.384845107793808,0.4447098970413208
1787735933630230500,3.31223046875,-0.0024434609804302454,0.24129177629947662,0.48808133602142334
1787735933653723400,3.335723388671875,-0.036041051149368286,0.16371189057826996,0.4917465150356293
1787735933678065200,3.360065185546875,-0.04886921867728233,0.11728613078594208,0.2779437005519867
1787735933694049800,3.3760498046875,-0.07147123664617538,0.16065755486488342,0.12217304855585098
1787735933710106000,3.392106201171875,-0.11178833991289139,0.18570303916931152,0.001832595793530345
1787735933733612300,3.4156123046875,-0.14294247329235077,0.23335053026676178,-0.05803219974040985
1787735933750115600,3.432115478515625,-0.11667526513338089,0.3481931984424591,0.05497787147760391
1787735933765707800,3.447707763671875,-0.04153883829712868,0.4288274049758911,0.22357667982578278
1787735933781646600,3.463646484375,0.07880161702632904,0.33108896017074585,0.3805690407752991
1787735933797833200,3.479833251953125,0.1918116807937622,0.14049901068210602,0.6090326309204102
1787735933830136300,3.51213623046875,0.2583959996700287,0.12400564551353455,1.0995573997497559
1787735933853964300,3.53596435546875,0.3390302062034607,0.0806342139840126,1.1612548828125
1787735933877670700,3.559670654296875,0.3194825351238251,0.01466076634824276,0.9511171579360962
1787735933894061000,3.57606103515625,0.2883284091949463,-0.04153883829712868,0.7122688889503479
1787735933910280200,3.5922802734375,0.2767219543457031,-0.13500121235847473,0.6499606370925903
1787735933925959700,3.607959716796875,0.4911356568336487,-0.5760459303855896,0.7006624341011047
1787735933942361600,3.624361572265625,0.8649851679801941,-0.5760459303855896,0.6426302194595337
1787735933958152000,3.64015185546875,0.7165449261665344,-0.1472185254096985,0.6017022728919983
1787735933982364200,3.6643642578125,0.26511552929878235,0.025656340643763542,0.588263213634491
1787735933998372600,3.68037255859375,0.15760323405265808,0.1313360333442688,0.6548475623130798
1787735934014364200,3.6963642578125,0.012828170321881771,0.05864306539297104,0.6285803318023682
1787735934030526500,3.7125263671875,-0.13255776464939117,-0.07513642311096191,0.543059229850769
1787735934046391000,3.72839111328125,-0.21991148591041565,-0.11789698898792267,0.45814892649650574
1787735934062409000,3.744408935546875,-0.18509216606616974,-0.1111774742603302,0.3378084897994995
1787735934078414600,3.76041455078125,-0.1362229436635971,-0.0507018156349659,0.18936823308467865
1787735934094421500,3.77642138671875,-0.12828169763088226,0.036651913076639175,0.13744467496871948
1787735934110570200,3.7925703125,-0.14416420459747314,-0.09346238523721695,0.1368338167667389
1787735934126485800,3.80848583984375,-0.11178833991289139,-0.3274237811565399,0.1466076523065567
1787735934142496500,3.82449658203125,-0.06291911751031876,-0.46670106053352356,0.1820378452539444
1787735934158575400,3.840575439453125,-0.02382374368607998,-0.4355469346046448,0.2174680233001709
1787735934174678000,3.856677978515625,0.007941247895359993,-0.23945917189121246,0.25473082065582275
1787735934190856000,3.87285595703125,0.045204028487205505,-0.045204028487205505,0.28527405858039856
1787735934206766300,3.888766357421875,0.06841690838336945,0.013439035043120384,0.3433062732219696
1787735934222825500,3.904825439453125,0.06536258012056351,-0.09162978827953339,0.4141666293144226
1787735934238901500,3.920901611328125,0.04764748737215996,-0.21807889640331268,0.4807509481906891
1787735934254882800,3.9368828125,0.05864306539297104,-0.4398229718208313,0.5076290369033813
1787735934278686000,3.96068603515625,0.14294247329235077,-0.5406157374382019,0.5192354321479797
1787735934294658000,3.976657958984375,0.20341812074184418,-0.48747047781944275,0.4691445231437683
1787735934311121000,3.993120849609375,0.23273965716362,-0.37079519033432007,0.41111230850219727
1787735934326694700,4.008694580078125,0.2321287989616394,-0.2981022298336029,0.39156460762023926
1787735934342682400,4.024682373046875,0.2590068578720093,-0.20463985204696655,0.38179078698158264
1787735934374902000,4.056902099609375,0.15271630883216858,0.2828305959701538,0.4147774875164032
1787735934399282400,4.081282470703125,0.0024434609804302454,0.3634648323059082,0.16371189057826996
1787735934415258000,4.097258056640625,-0.07330382615327835,0.23640485107898712,-0.06536258012056351
1787735934438955300,4.120955322265625,-0.10567969083786011,-0.2626720666885376,-0.30604347586631775
1787735934455255800,4.137255859375,0.015271631069481373,-0.6719517707824707,-0.43615779280662537
1787735934471402200,4.15340234375,0.11423180252313614,-0.6951646208763123,-0.4129449129104614
1787735934486987000,4.168987060546875,0.10567969083786011,-0.3500257730484009,-0.17287486791610718
1787735934503211000,4.1852109375,0.006719517521560192,0.00427605677396059,0.1411098688840866
1787735934518937900,4.200937744140625,-0.09040805697441101,0.2480112910270691,0.403781920671463
1787735934534970600,4.216970703125,-0.09712757170200348,0.2626720666885376,0.42699480056762695
1787735934551382300,4.23338232421875,-0.07819075137376785,0.08979719132184982,0.32070425152778625
1787735934566912500,4.24891259765625,-0.08918632566928864,-0.015271631069481373,0.2767219543457031
1787735934582877700,4.264877685546875,-0.14966198801994324,-0.09224065393209457,0.21991148591041565
1787735934607213000,4.289213134765625,-0.08979719132184982,-0.19853121042251587,0.07147123664617538
1787735934623200800,4.30520068359375,-0.0959058403968811,-0.35124751925468445,-0.09468411654233932
1787735934639214000,4.321214111328125,-0.1062905490398407,-0.4092797040939331,-0.22540926933288574
1787735934662861000,4.344861083984375,-0.10934487730264664,-0.29504790902137756,-0.2834414839744568
1787735934678867000,4.360866943359375,-0.10506882518529892,-0.11728613078594208,-0.2638937830924988
1787735934703196200,4.385196044921875,-0.12217304855585098,0.11484266817569733,-0.14844025671482086
1787735934719186200,4.401186279296875,-0.13927727937698364,0.07147123664617538,-0.10384709388017654
1787735934735179000,4.417178955078125,-0.1264491081237793,-0.025045474991202354,-0.04459316283464432
1787735934751336200,4.433336181640625,-0.04642575979232788,-0.09468411654233932,0.018936822190880775
1787735934774875600,4.456875732421875,0.09346238523721695,-0.13805554807186127,0.060475658625364304
1787735934791340300,4.47334033203125,0.1563815027475357,-0.15882496535778046,0.03176499158143997
1787735934806878000,4.4888779296875,0.14538592100143433,-0.2028072625398636,-0.02382374368607998
1787735934831336000,4.5133359375,0.031154127791523933,-0.16737708449363708,-0.09651670604944229
1787735934847197400,4.529197509765625,-0.001832595793530345,0.018936822190880775,-0.1661553531885147
1787735934863197700,4.54519775390625,-0.010995574295520782,0.2583959996700287,-0.2681698501110077
1787735934879189800,4.561189697265625,-0.031154127791523933,0.3646865487098694,-0.3225368559360504
1787735934895189500,4.577189453125,-0.02871066704392433,0.2223549485206604,-0.303600013256073
1787735934927234000,4.609234130859375,0.08429940044879913,0.00733038317412138,-0.19486601650714874
1787735934943234000,4.625234130859375,0.1417207419872284,-0.019547687843441963,-0.20952677726745605
1787735934959238000,4.64123779296875,0.21930062770843506,0.0659734457731247,-0.28038713335990906
1787735934975246000,4.65724609375,0.27550023794174194,0.14477506279945374,-0.3286454975605011
1787735934991412500,4.67341259765625,0.22663100063800812,0.22479841113090515,-0.24556782841682434
1787735935007262200,4.68926220703125,0.09773843735456467,0.42760565876960754,-0.07819075137376785
1787735935023264800,4.7052646484375,-0.07757988572120667,0.5962044596672058,0.04642575979232788
1787735935039280000,4.721280029296875,-0.1966986060142517,0.5687155723571777,-0.05497787147760391
1787735935055285200,4.73728515625,-0.24129177629947662,0.49724429845809937,-0.2974913716316223
1787735935071461000,4.753461181640625,-0.24068090319633484,0.3646865487098694,-0.5222898125648499
1787735935087339000,4.769339111328125,-0.22540926933288574,0.2474004179239273,-0.5949827432632446
1787735935103342300,4.78534228515625,-0.20036379992961884,0.15577064454555511,-0.5442809462547302
1787735935127130000,4.809130126953125,-0.15943582355976105,0.2638937830924988,-0.2565633952617645
1787735935143136000,4.825135986328125,-0.09896016865968704,0.37201693654060364,-0.06780604273080826
1787735935159160000,4.84116015625,-0.019547687843441963,0.3677408695220947,0.025656340643763542
1787735935175149600,4.857149658203125,0.0555887371301651,0.2474004179239273,0.03420845419168472
1787735935191556900,4.873556884765625,0.11789698898792267,0.06169738993048668,-0.007941247895359993
1787735935207086000,4.889086181640625,0.15577064454555511,-0.09162978827953339,-0.06414084881544113
1787735935223045400,4.90504541015625,0.17959438264369965,-0.28099802136421204,-0.15882496535778046
1787735935239067000,4.92106689453125,0.18875735998153687,-0.5088507533073425,-0.2687807083129883
1787735935255071700,4.93707177734375,0.17592918872833252,-0.7147123217582703,-0.37568211555480957
1787735935271535600,4.95353564453125,0.14844025671482086,-0.749531626701355,-0.39706242084503174
1787735935287102500,4.9691025390625,0.10873401165008545,-0.6023131608963013,-0.3139847218990326
1787735935303041300,4.985041259765625,0.08185594528913498,-0.32620203495025635,-0.192422553896904
1787735935319387400,5.001387451171875,0.08552113175392151,-0.1160643994808197,-0.10690141469240189
1787735935335068700,5.017068603515625,0.08552113175392151,-0.060475658625364304,-0.02871066704392433
1787735935351526700,5.033526611328125,0.06963863968849182,-0.15577064454555511,0.06902777403593063
1787735935367065300,5.0490654296875,0.05742133408784866,-0.21441370248794556,0.15821409225463867
1787735935383023600,5.065023681640625,0.07880161702632904,-0.2583959996700287,0.16798794269561768
1787735935399055000,5.08105517578125,0.14782938361167908,-0.29626965522766113,0.07147123664617538
1787735935415048700,5.097048583984375,0.19547687470912933,-0.3127630054950714,-0.014049900695681572
1787735935431523800,5.11352392578125,0.20952677726745605,-0.28649580478668213,-0.04214970022439957
1787735935447108600,5.129108642578125,0.21563543379306793,-0.27061331272125244,-0.07330382615327835
1787735935463043800,5.1450439453125,0.21074850857257843,-0.28099802136421204,-0.1417207419872284
1787735935479035100,5.16103515625,0.19303341209888458,-0.3170390725135803,-0.20402899384498596
1787735935495029500,5.177029541015625,0.1820378452539444,-0.2981022298336029,-0.2174680233001709
1787735935511477200,5.193477294921875,0.2021963894367218,-0.182648703455925,-0.17287486791610718
1787735935527311600,5.2093115234375,0.24923302233219147,-0.09224065393209457,-0.10873401165008545
1787735935542956500,5.22495654296875,0.32070425152778625,-0.03176499158143997,-0.030543262138962746
1787735935559115500,5.241115478515625,0.3995058834552765,-0.14355333149433136,-0.03237585723400116
1787735935575281400,5.257281494140625,0.503963828086853,-0.3433062732219696,-0.09224065393209457
1787735935591432000,5.273431884765625,0.5772676467895508,-0.45631635189056396,-0.09834930300712585
1787735935606944500,5.288944580078125,0.6035348773002625,-0.4092797040939331,0.001832595793530345
1787735935622902800,5.30490283203125,0.5479460954666138,-0.14416420459747314,0.19120082259178162
1787735935638993200,5.3209931640625,0.46547931432724,0.1111774742603302,0.3017674386501312
1787735935654967000,5.336967041015625,0.4300491213798523,0.2272418737411499,0.1771509200334549
1787735935679277800,5.36127783203125,0.3243694305419922,-0.07819075137376785,-0.33047810196876526
1787735935695260000,5.377260009765625,0.152105450630188,-0.49235737323760986,-0.7073819637298584
1787735935711412700,5.393412841796875,-0.001832595793530345,-0.6035348773002625,-0.8448266386985779
1787735935727315700,5.409315673828125,-0.1215621829032898,-0.3952298164367676,-0.656680166721344
1787735935743295500,5.42529541015625,-0.11545353382825851,0.056810468435287476,-0.17470745742321014
1787735935759291000,5.441290771484375,0.016493361443281174,0.44593164324760437,0.3805690407752991
1787735935775269000,5.45726904296875,0.20586158335208893,0.5393940210342407,0.8002334833145142
1787735935791425000,5.473425048828125,0.3494149148464203,0.4251621961593628,0.96883225440979
1787735935807273700,5.489273681640625,0.44593164324760437,0.1270599663257599,0.8888089060783386
1787735935823263000,5.505262939453125,0.4508185386657715,-0.20525072515010834,0.5943718552589417
1787735935839257900,5.5212578125,0.3188716471195221,-0.5247332453727722,0.25473082065582275
1787735935855240400,5.537240478515625,0.08246681094169617,-0.7165449261665344,0.00733038317412138
1787735935871396900,5.55339697265625,-0.10751228034496307,-0.6475171446800232,-0.09651670604944229
1787735935887253200,5.569253173828125,-0.2834414839744568,-0.44715335965156555,-0.17531833052635193
1787735935903240700,5.58524072265625,-0.41233405470848083,-0.22052235901355743,-0.2669481039047241
1787735935926921700,5.608921630859375,-0.513737678527832,-0.09529497474431992,-0.33597588539123535
1787735935942916600,5.62491650390625,-0.5161811113357544,-0.07880161702632904,-0.2431243658065796
1787735935959047200,5.641047119140625,-0.46670106053352356,-0.04153883829712868,-0.08491026610136032
1787735935975140600,5.657140625,-0.3695734739303589,-0.029932396486401558,0.016493361443281174
1787735935991519700,5.673519775390625,-0.27000242471694946,-0.0659734457731247,0.04153883829712868
1787735936007036700,5.68903662109375,-0.16432274878025055,-0.13805554807186127,0.028099801391363144
1787735936023071700,5.70507177734375,-0.12950342893600464,-0.22052235901355743,-0.02015855349600315
1787735936039063300,5.721063232421875,-0.14233160018920898,-0.28038713335990906,-0.11239920556545258
1787735936055124000,5.7371240234375,-0.17959438264369965,-0.23579397797584534,-0.21319197118282318
1787735936071605800,5.753605712890625,-0.2015855312347412,-0.18020524084568024,-0.31093040108680725
1787735936087481000,5.769481201171875,-0.1918116807937622,-0.12217304855585098,-0.40072759985923767
1787735936103207700,5.785207763671875,-0.14782938361167908,-0.1459967941045761,-0.4196644127368927
1787735936119224800,5.801224853515625,-0.08796459436416626,-0.13439035415649414,-0.2968805134296417
1787735936135229200,5.817229248046875,0.001832595793530345,-0.15332718193531036,-0.11545353382825851
1787735936151687200,5.833687255859375,0.09407325088977814,-0.1618792861700058,0.05925392732024193
1787735936167193600,5.849193603515625,0.1771509200334549,-0.20525072515010834,0.23273965716362
1787735936191677400,5.873677490234375,0.16982053220272064,-0.33597588539123535,0.28649580478668213
1787735936215332600,5.89733251953125,-0.0024434609804302454,-0.2070833146572113,0.18570303916931152
1787735936231688700,5.913688720703125,-0.10384709388017654,0.0757472887635231,0.17592918872833252
1787735936255525600,5.937525634765625,-0.2070833146572113,0.3488040566444397,0.11056660860776901
1787735936271674400,5.95367431640625,-0.22602014243602753,0.2632829248905182,0.021380282938480377
1787735936303551000,5.985551025390625,-0.15760323405265808,-0.20097467303276062,-0.05192354694008827
1787735936319537000,6.001536865234375,-0.14294247329235077,-0.15821409225463867,0.04642575979232788
1787735936335520500,6.0175205078125,-0.13805554807186127,0.05925392732024193,0.14905111491680145
1787735936351665700,6.033665771484375,-0.11484266817569733,0.18509216606616974,0.16065755486488342
1787735936367551700,6.0495517578125,-0.04703662544488907,0.1258382350206375,0.11239920556545258
1787735936383527700,6.065527587890625,0.0354301854968071,-0.08185594528913498,0.042760565876960754
1787735936399522300,6.081522216796875,0.07024950534105301,-0.26022860407829285,-0.027488935738801956
1787735936415507200,6.097507080078125,0.04337143152952194,-0.34025195240974426,-0.09834930300712585
1787735936431650000,6.113650146484375,-0.012217304669320583,-0.2932153046131134,-0.1258382350206375
1787735936447499300,6.129499267578125,-0.09529497474431992,-0.20341812074184418,-0.10934487730264664
1787735936463473700,6.1454736328125,-0.17531833052635193,-0.09834930300712585,-0.001832595793530345
1787735936479377400,6.16137744140625,-0.21013765037059784,0.03237585723400116,0.1918116807937622
1787735936495358700,6.177358642578125,-0.1814269721508026,0.12034045159816742,0.3933972120285034
1787735936511503000,6.193503173828125,-0.11667526513338089,0.08491026610136032,0.5100724697113037
1787735936527365400,6.209365478515625,-0.02687807008624077,-0.07391469180583954,0.5406157374382019
1787735936543356400,6.2253564453125,0.042760565876960754,-0.16737708449363708,0.5540547966957092
1787735936559344000,6.24134423828125,0.0555887371301651,-0.21074850857257843,0.5540547966957092
1787735936575320000,6.257320068359375,0.0403171069920063,-0.21074850857257843,0.5198463201522827
1787735936591474400,6.273474365234375,0.018325956538319588,-0.18814650177955627,0.4306600093841553
1787735936607325000,6.289324951171875,-0.01771509274840355,-0.1618792861700058,0.32681289315223694
1787735936623307800,6.305307861328125,-0.04581489413976669,-0.13072516024112701,0.2632829248905182
1787735936639302100,6.32130224609375,-0.02687807008624077,-0.07513642311096191,0.21807889640331268
1787735936655287300,6.337287353515625,0.016493361443281174,-0.06414084881544113,0.1661553531885147
1787735936671437000,6.35343701171875,0.06780604273080826,-0.1313360333442688,0.1160643994808197
1787735936687309000,6.36930908203125,0.07941248267889023,-0.22907446324825287,0.06475171446800232
1787735936703294200,6.385294189453125,0.05253441259264946,-0.24129177629947662,0.04459316283464432
1787735936719287600,6.40128759765625,0.027488935738801956,-0.17104226350784302,0.036041051149368286
1787735936735276800,6.41727685546875,0.02871066704392433,-0.11362093687057495,0.018936822190880775
1787735936751430700,6.4334306640625,0.05864306539297104,-0.17531833052635193,-0.04703662544488907
1787735936767322600,6.449322509765625,0.12522737681865692,-0.375071257352829,-0.13561208546161652
1787735936783309800,6.465309814453125,0.182648703455925,-0.45326200127601624,-0.09957103431224823
1787735936799308500,6.48130859375,0.2278527319431305,-0.3597996234893799,0.08368854224681854
1787735936815292200,6.497292236328125,0.2718350291252136,-0.16432274878025055,0.27488934993743896
1787735936831460900,6.5134609375,0.3139847218990326,-0.15027284622192383,0.3787364661693573
1787735936847342300,6.52934228515625,0.3078760802745819,-0.3488040566444397,0.3072652220726013
1787735936863355400,6.54535546875,0.1875356286764145,-0.4948008358478546,0.17776179313659668
1787735936879366400,6.561366455078125,-0.060475658625364304,-0.5754350423812866,-0.04764748737215996
1787735936895361500,6.577361572265625,-0.27611109614372253,-0.5082398653030396,-0.23640485107898712
1787735936911526400,6.5935263671875,-0.4966334402561188,-0.1563815027475357,-0.24129177629947662
1787735936927375400,6.609375244140625,-0.6487388610839844,0.23151792585849762,-0.05314527451992035
1787735936943373000,6.625373046875,-0.6615670323371887,0.4398229718208313,0.15943582355976105
1787735936959382800,6.6413828125,-0.5186246037483215,0.4502076804637909,0.3286454975605011
1787735936975387400,6.657387451171875,-0.34697145223617554,0.3237585723400116,0.4184426963329315
1787735936991566300,6.67356640625,-0.15760323405265808,0.03298672288656235,0.42210787534713745
1787735937007438600,6.6894384765625,-0.004886921960860491,-0.28099802136421204,0.36713001132011414
1787735937023457000,6.70545703125,0.06719517707824707,-0.5155702829360962,0.2431243658065796
1787735937039479000,6.72147900390625,0.048258353024721146,-0.6126978397369385,0.06780604273080826
1787735937055494100,6.737494140625,-0.036041051149368286,-0.646906316280365,-0.0910189226269722
1787735937071639800,6.753639892578125,-0.16982053220272064,-0.5308418869972229,-0.23396138846874237
1787735937087489500,6.769489501953125,-0.26511552929878235,-0.3341432809829712,-0.32498031854629517
1787735937103488500,6.785488525390625,-0.3078760802745819,-0.11789698898792267,-0.3286454975605011
1787735937119563300,6.801563232421875,-0.3029891550540924,0.022602014243602753,-0.3176499307155609
1787735937135587600,6.817587646484375,-0.2541199326515198,0.05009094998240471,-0.30482175946235657
1787735937151740000,6.833739990234375,-0.18448130786418915,0.006719517521560192,-0.27550023794174194
1787735937167617500,6.849617431640625,-0.08857546001672745,-0.027488935738801956,-0.20036379992961884
1787735937183600600,6.8656005859375,0.021380282938480377,-0.05619960278272629,-0.14477506279945374
1787735937199615000,6.881614990234375,0.09224065393209457,-0.1618792861700058,-0.1508837193250656
1787735937215613200,6.89761328125,0.0708603709936142,-0.23335053026676178,-0.13072516024112701
1787735937231757600,6.913757568359375,-0.028099801391363144,-0.21624629199504852,-0.0959058403968811
1787735937247607000,6.92960693359375,-0.11667526513338089,-0.192422553896904,-0.11728613078594208
1787735937263585800,6.945585693359375,-0.1661553531885147,0.09957103431224823,-0.05619960278272629
1787735937287282400,6.969282470703125,-0.08918632566928864,0.44226643443107605,0.15943582355976105
1787735937303230000,6.98522998046875,0.02626720629632473,0.413555771112442,0.3023782968521118
1787735937319279400,7.001279296875,0.152105450630188,0.23457226157188416,0.34086281061172485
1787735937335280400,7.0172802734375,0.24862214922904968,0.1014036312699318,0.3072652220726013
1787735937351752000,7.033751953125,0.3188716471195221,0.04398229718208313,0.251676470041275
1787735937367281000,7.049281005859375,0.30054569244384766,0.10445795953273773,0.23335053026676178
1787735937383229400,7.0652294921875,0.192422553896904,0.28099802136421204,0.27488934993743896
1787735937399250200,7.081250244140625,0.09162978827953339,0.3280346393585205,0.17592918872833252
1787735937415259400,7.09725927734375,0.09529497474431992,0.16371189057826996,-0.08002334833145142
1787735937431702000,7.113701904296875,0.1722639948129654,-0.10018189996480942,-0.38179078698158264
1787735937447202600,7.12920263671875,0.19486601650714874,-0.25473082065582275,-0.4740314185619354
1787735937463612000,7.14561181640625,0.1472185254096985,-0.1313360333442688,-0.2779437005519867
1787735937479377000,7.161376953125,0.11911872029304504,0.13500121235847473,0.0012217304902151227
1787735937495684000,7.17768408203125,0.1417207419872284,0.2779437005519867,0.13927727937698364
1787735937511849700,7.193849609375,0.16798794269561768,0.24678955972194672,0.12767083942890167
1787735937527452400,7.209452392578125,0.15271630883216858,0.04398229718208313,-0.0659734457731247
1787735937551863800,7.23386376953125,0.07635815441608429,-0.05619960278272629,-0.3597996234893799
1787735937567725300,7.249725341796875,0.03787364438176155,-0.045204028487205505,-0.5369505286216736
1787735937583817200,7.265817138671875,0.036651913076639175,-0.04214970022439957,-0.6120869517326355
1787735937599872300,7.281872314453125,0.05742133408784866,-0.031154127791523933,-0.5338962078094482
1787735937615859700,7.297859619140625,0.08857546001672745,-0.07880161702632904,-0.39706242084503174
1787735937632009200,7.31400927734375,0.14538592100143433,-0.12278391420841217,-0.21135938167572021
1787735937647858700,7.329858642578125,0.20341812074184418,-0.1270599663257599,-0.11362093687057495
1787735937663861800,7.34586181640625,0.23335053026676178,-0.1270599663257599,-0.1062905490398407
1787735937687563800,7.369563720703125,0.2119702398777008,-0.09468411654233932,-0.07757988572120667
1787735937703573500,7.385573486328125,0.17776179313659668,-0.08491026610136032,-0.04703662544488907
1787735937719899100,7.401899169921875,0.1411098688840866,-0.13561208546161652,-0.0555887371301651
1787735937735583700,7.417583740234375,0.1062905490398407,-0.1472185254096985,-0.07147123664617538
1787735937752082400,7.43408251953125,0.11178833991289139,-0.16004669666290283,-0.1215621829032898
1787735937767588600,7.449588623046875,0.19120082259178162,-0.1667662113904953,-0.19058994948863983
1787735937783839000,7.4658388671875,0.24984388053417206,-0.27061331272125244,-0.19792033731937408
1787735937808113000,7.49011279296875,0.18814650177955627,-0.31642818450927734,0.03420845419168472
1787735937824131800,7.5061318359375,0.12950342893600464,-0.2571742534637451,0.20341812074184418
1787735937840236000,7.522236083984375,0.08674286305904388,-0.15577064454555511,0.27488934993743896
1787735937856295700,7.538295654296875,0.06536258012056351,-0.152105450630188,0.20036379992961884
1787735937872504000,7.554504150390625,0.04459316283464432,-0.24068090319633484,0.07391469180583954
1787735937888488000,7.570488037109375,0.0403171069920063,-0.42577308416366577,-0.08918632566928864
1787735937904532700,7.58653271484375,0.08552113175392151,-0.6322455406188965,-0.26450464129447937
1787735937920529700,7.60252978515625,0.19975294172763824,-0.7043276429176331,-0.3585779070854187
1787735937936557300,7.618557373046875,0.2840523421764374,-0.5845980644226074,-0.26633724570274353
1787735937952732200,7.634732177734375,0.25961771607398987,-0.38728857040405273,-0.0006108652451075613
1787735937968599300,7.650599365234375,0.19853121042251587,-0.3597996234893799,0.20830504596233368
1787735937984607000,7.66660693359375,0.22052235901355743,-0.43799036741256714,0.12400564551353455
1787735938000622800,7.682622802734375,0.22296582162380219,-0.5729916095733643,-0.2174680233001709
1787735938016639000,7.698638916015625,0.14538592100143433,-0.6762278079986572,-0.6621779203414917
1787735938032788700,7.714788818359375,0.08796459436416626,-0.49724429845809937,-0.8118399381637573
1787735938048625000,7.730625,0.054367005825042725,-0.1918116807937622,-0.655458390712738
1787735938072771000,7.75477099609375,0.05925392732024193,0.06841690838336945,0.00366519158706069
1787735938088304000,7.77030419921875,0.04886921867728233,0.09529497474431992,0.4703662395477295
1787735938112731400,7.7947314453125,0.033597588539123535,0.0806342139840126,0.5864306092262268
1787735938128602400,7.810602294921875,0.05803219974040985,0.0861319974064827,0.39156460762023926
1787735938144583200,7.826583251953125,0.09407325088977814,0.02871066704392433,0.1111774742603302
1787735938160565800,7.842565673828125,0.11423180252313614,-0.12950342893600464,-0.14844025671482086
1787735938176543200,7.858543212890625,0.08735372871160507,-0.3243694305419922,-0.30115658044815063
1787735938192690700,7.874690673828125,0.025656340643763542,-0.3500257730484009,-0.3280346393585205
1787735938208565200,7.890565185546875,-0.08918632566928864,-0.2822197377681732,-0.2871066629886627
1787735938224543000,7.90654296875,-0.22907446324825287,-0.16004669666290283,-0.22602014243602753
1787735938240526800,7.92252685546875,-0.3683517575263977,-0.015271631069481373,-0.18570303916931152
1787735938256512000,7.938511962890625,-0.47219884395599365,0.11423180252313614,-0.15760323405265808
1787735938272657200,7.9546572265625,-0.48747047781944275,0.19792033731937408,-0.12095131725072861
1787735938288547600,7.970547607421875,-0.42760565876960754,0.2974913716316223,-0.051312681287527084
1787735938304535300,7.986535400390625,-0.31459560990333557,0.2932153046131134,-0.001832595793530345
1787735938320527400,8.00252734375,-0.17104226350784302,0.2070833146572113,0.039706241339445114
1787735938336512800,8.0185126953125,-0.00733038317412138,0.07696902006864548,0.059864792972803116
1787735938352659500,8.034659423828124,0.13011430203914642,-0.039706241339445114,0.0555887371301651
1787735938384489700,8.06648974609375,0.25473082065582275,-0.09712757170200348,0.17837265133857727
1787735938400475000,8.082474853515626,0.2278527319431305,0.01771509274840355,0.2626720666885376
1787735938416463000,8.098463134765625,0.16920967400074005,0.10690141469240189,0.32009339332580566
1787735938432618800,8.11461865234375,0.13988813757896423,0.1007927656173706,0.32009339332580566
1787735938448484900,8.13048486328125,0.13561208546161652,0.06475171446800232,0.27611109614372253
1787735938464470800,8.146470703125,0.11362093687057495,0.031154127791523933,0.18448130786418915
1787735938480461300,8.16246142578125,0.07024950534105301,0.0403171069920063,0.09285151958465576
1787735938496443000,8.17844287109375,0.05497787147760391,0.11789698898792267,0.07635815441608429
1787735938512703000,8.194702880859374,0.03298672288656235,0.3903428912162781,0.192422553896904
1787735938528567300,8.2105673828125,0.024434609338641167,0.6206390857696533,0.34208452701568604
1787735938544563500,8.2265634765625,0.06291911751031876,0.5369505286216736,0.23945917189121246
1787735938560558000,8.24255810546875,0.10812314599752426,0.1563815027475357,-0.09529497474431992
1787735938576548400,8.25854833984375,0.09407325088977814,-0.21930062770843506,-0.4489859640598297
1787735938592711700,8.274711669921874,0.04092797264456749,-0.294437050819397,-0.5674937963485718
1787735938608561000,8.290560791015626,-0.021380282938480377,-0.10201449692249298,-0.3995058834552765
1787735938624539000,8.306538818359375,0.02015855349600315,0.13866640627384186,-0.09468411654233932
1787735938640533800,8.32253369140625,0.1313360333442688,0.19303341209888458,0.13011430203914642
1787735938656517400,8.338517333984376,0.17959438264369965,0.07024950534105301,0.1869247704744339
1787735938672673300,8.35467333984375,0.1368338167667389,-0.14477506279945374,0.13927727937698364
1787735938688516400,8.370516357421875,0.04886921867728233,-0.2620611786842346,0.03787364438176155
1787735938704543200,8.386543212890626,-0.0006108652451075613,-0.182648703455925,-0.06780604273080826
1787735938720572700,8.40257275390625,-0.00855211354792118,-0.01710422709584236,-0.08796459436416626
1787735938736566800,8.41856689453125,-0.006108652334660292,0.0861319974064827,-0.00733038317412138
1787735938752741000,8.4347412109375,0.00855211354792118,0.10445795953273773,0.1472185254096985
1787735938768606000,8.45060595703125,0.045204028487205505,0.02871066704392433,0.2681698501110077
1787735938784616000,8.466615966796875,0.09529497474431992,-0.051312681287527084,0.31093040108680725
1787735938800624000,8.4826240234375,0.13866640627384186,-0.09468411654233932,0.32498031854629517
1787735938816639000,8.498638916015626,0.16737708449363708,-0.12522737681865692,0.33719760179519653
1787735938832810200,8.514810302734375,0.1716531366109848,-0.15577064454555511,0.33597588539123535
1787735938848680400,8.530680419921875,0.11972958594560623,-0.17776179313659668,0.30543261766433716
1787735938864685000,8.54668505859375,0.02321287989616394,-0.20097467303276062,0.22479841113090515
1787735938880789500,8.56278955078125,-0.06291911751031876,-0.192422553896904,0.11056660860776901
1787735938896814000,8.57881396484375,-0.09040805697441101,-0.10201449692249298,0.02321287989616394
1787735938912986000,8.594986083984375,-0.05497787147760391,-0.024434609338641167,0.012828170321881771
1787735938928877000,8.610876953125,0.0024434609804302454,-0.02015855349600315,0.06658431142568588
1787735938944903700,8.626903564453125,0.039095375686883926,-0.10323622822761536,0.15515977144241333
1787735938960887800,8.6428876953125,0.0507018156349659,-0.17776179313659668,0.21930062770843506
1787735938976866000,8.658865966796874,0.05009094998240471,-0.1716531366109848,0.2168571650981903
1787735938993034200,8.6750341796875,0.025656340643763542,-0.1716531366109848,0.18570303916931152
1787735939008921900,8.690921875,-0.03848451003432274,-0.18997909128665924,0.11484266817569733
1787735939024913400,8.706913330078125,-0.09468411654233932,-0.21563543379306793,-0.00427605677396059
1787735939040927000,8.722927001953124,-0.10262536257505417,-0.26022860407829285,-0.1417207419872284
1787735939056900400,8.738900390625,-0.06414084881544113,-0.29077184200286865,-0.1869247704744339
1787735939073051000,8.75505078125,-0.029932396486401558,-0.27000242471694946,-0.09529497474431992
1787735939089006800,8.7710068359375,0.042760565876960754,-0.24678955972194672,0.07696902006864548
1787735939104985900,8.78698583984375,0.15577064454555511,-0.1472185254096985,0.29138273000717163
1787735939120970000,8.802969970703124,0.20891591906547546,-0.2119702398777008,0.3903428912162781
1787735939136945700,8.818945556640625,0.20402899384498596,-0.3280346393585205,0.2583959996700287
1787735939153091600,8.835091552734376,0.15821409225463867,-0.4178318381309509,-0.07513642311096191
1787735939168986000,8.850986083984376,0.06475171446800232,-0.4789183437824249,-0.6096435189247131
1787735939184960300,8.866960205078126,-0.021991148591041565,-0.37201693654060364,-0.9517280459403992
1787735939200938800,8.882938720703125,-0.10323622822761536,-0.12950342893600464,-0.8979719281196594
1787735939216917000,8.8989169921875,-0.15821409225463867,0.025045474991202354,-0.6096435189247131
1787735939233063000,8.91506298828125,-0.16554448008537292,0.13866640627384186,-0.13072516024112701
1787735939248929000,8.930928955078125,-0.11972958594560623,0.18448130786418915,0.2736676335334778
1787735939264907800,8.94690771484375,-0.036651913076639175,0.14538592100143433,0.4294382631778717
1787735939280891100,8.96289111328125,0.02076941914856434,0.04581489413976669,0.37629300355911255
1787735939296869400,8.978869384765625,0.009773843921720982,-0.09712757170200348,0.21930062770843506
1787735939313020000,8.99502001953125,-0.042760565876960754,-0.2779437005519867,-0.030543262138962746
1787735939328912600,9.01091259765625,-0.08124507963657379,-0.29077184200286865,-0.192422553896904
1787735939344889300,9.026889404296876,-0.08429940044879913,-0.1771509200334549,-0.19425514340400696
1787735939360873000,9.042873046875,-0.07269296050071716,-0.05375614017248154,-0.06352998316287994
1787735939376847600,9.05884765625,-0.05497787147760391,-0.015271631069481373,0.06291911751031876
1787735939392993300,9.0749931640625,-0.025045474991202354,-0.04214970022439957,0.1459967941045761
1787735939408840000,9.09083984375,-0.00733038317412138,-0.04764748737215996,0.18509216606616974
1787735939424816000,9.106816162109375,-0.005497787147760391,-0.006719517521560192,0.1875356286764145
1787735939440796200,9.122796142578125,0.012217304669320583,0.02382374368607998,0.13439035415649414
1787735939456776400,9.1387763671875,0.05192354694008827,0.029932396486401558,0.06108652427792549
1787735939472928300,9.15492822265625,0.1411098688840866,-0.016493361443281174,-0.02626720629632473
1787735939488774100,9.170774169921875,0.2528982162475586,-0.06780604273080826,-0.10567969083786011
1787735939504757500,9.186757568359376,0.313373863697052,-0.10018189996480942,-0.1368338167667389
1787735939520740000,9.202739990234376,0.313373863697052,-0.03420845419168472,-0.10567969083786011
1787735939536719000,9.218718994140625,0.2785545587539673,0.05375614017248154,-0.054367005825042725
1787735939552868000,9.2348681640625,0.20891591906547546,0.18448130786418915,0.04214970022439957
1787735939568714800,9.25071484375,0.1411098688840866,0.29138273000717163,0.10995574295520782
1787735939584726000,9.26672607421875,0.09346238523721695,0.3084869384765625,0.17348572611808777
1787735939600746800,9.282746826171875,0.08124507963657379,0.2541199326515198,0.2064724564552307
1787735939616754400,9.29875439453125,0.06475171446800232,0.14538592100143433,0.18509216606616974
1787735939632947200,9.314947265625,0.02076941914856434,-0.015882495790719986,0.14477506279945374
1787735939648798000,9.3307978515625,-0.03420845419168472,-0.0354301854968071,0.12217304855585098
1787735939664795100,9.346795166015625,-0.09346238523721695,0.2577851414680481,0.18997909128665924
1787735939680793000,9.36279296875,-0.1111774742603302,0.27061331272125244,0.2767219543457031
1787735939696796400,9.37879638671875,0.03481931984424591,-0.05497787147760391,0.17776179313659668
1787735939712964400,9.39496435546875,0.2718350291252136,-0.46303585171699524,-0.11056660860776901
1787735939728832000,9.41083203125,0.3194825351238251,-0.656069278717041,-0.20097467303276062
1787735939744830200,9.426830322265625,0.22907446324825287,-0.4605923891067505,-0.06963863968849182
1787735939760839000,9.4428388671875,0.12767083942890167,-0.07147123664617538,0.13316862285137177
1787735939776880000,9.458880126953124,0.05925392732024193,0.31520646810531616,0.3176499307155609
1787735939793054000,9.475053955078126,0.07696902006864548,0.384845107793808,0.323147714138031
1787735939808912600,9.49091259765625,0.11056660860776901,0.252287358045578,0.18081611394882202
1787735939824890000,9.50689013671875,0.1111774742603302,0.08429940044879913,0.02382374368607998
1787735939840908500,9.522908447265625,0.13011430203914642,0.03726277872920036,-0.07330382615327835
1787735939856937200,9.538937255859375,0.18448130786418915,0.08857546001672745,-0.1014036312699318
1787735939873126400,9.55512646484375,0.26511552929878235,0.14538592100143433,-0.06780604273080826
1787735939888999000,9.5709990234375,0.3243694305419922,0.07513642311096191,0.018325956538319588
1787735939905016000,9.58701611328125,0.3530801236629486,-0.0910189226269722,0.11056660860776901
1787735939921002200,9.603002197265624,0.3445279896259308,-0.19364428520202637,0.21013765037059784
1787735939936990000,9.618989990234375,0.3286454975605011,-0.20525072515010834,0.3170390725135803
1787735939953139700,9.6351396484375,0.3029891550540924,-0.16432274878025055,0.41722095012664795
1787735939976951000,9.658950927734375,0.23945917189121246,-0.11484266817569733,0.4294382631778717
1787735939993143300,9.675143310546876,0.14844025671482086,-0.11545353382825851,0.3194825351238251
1787735940008692700,9.690692626953124,0.045204028487205505,-0.11667526513338089,0.15332718193531036
1787735940024720400,9.706720458984375,-0.015882495790719986,-0.16859880089759827,-0.015882495790719986
1787735940040874500,9.72287451171875,-0.02382374368607998,-0.17470745742321014,-0.0959058403968811
1787735940056663300,9.738663330078126,-0.012217304669320583,-0.15943582355976105,-0.09834930300712585
1787735940073103000,9.75510302734375,0.007941247895359993,-0.13011430203914642,-0.03787364438176155
1787735940088597500,9.770597412109375,0.03237585723400116,-0.1472185254096985,0.00855211354792118
1787735940104585700,9.786585693359376,0.021991148591041565,-0.22663100063800812,0.01771509274840355
1787735940120647000,9.80264697265625,-0.02382374368607998,-0.2675589919090271,0.01771509274840355
1787735940144940500,9.8269404296875,-0.036041051149368286,-0.10751228034496307,-0.02015855349600315
1787735940160955400,9.842955322265626,0.00427605677396059,-0.06536258012056351,-0.09224065393209457
1787735940176940000,9.85893994140625,0.08368854224681854,-0.10567969083786011,-0.18020524084568024
1787735940193089300,9.87508935546875,0.18814650177955627,-0.16493362188339233,-0.16493362188339233
1787735940208973800,9.890973876953124,0.3017674386501312,-0.14049901068210602,0.04886921867728233
1787735940224952600,9.90695263671875,0.403781920671463,-0.07635815441608429,0.35674530267715454
1787735940240946400,9.922946533203126,0.46731191873550415,-0.1618792861700058,0.42638394236564636
1787735940256929800,9.9389296875,0.4948008358478546,-0.30604347586631775,0.2278527319431305
1787735940280618500,9.962618408203125,0.2828305959701538,-0.4697553813457489,-0.2718350291252136
1787735940296617200,9.9786171875,-0.010995574295520782,-0.5607742667198181,-0.5876523852348328
1787735940313054700,9.9950546875,-0.2675589919090271,-0.35063666105270386,-0.6976081132888794
1787735940328546600,10.010546630859375,-0.4282165467739105,-0.015271631069481373,-0.6768386960029602
1787735940344570600,10.026570556640625,-0.4550946056842804,0.15454891324043274,-0.5357288122177124
1787735940360675300,10.04267529296875,-0.39706242084503174,0.19914206862449646,-0.2981022298336029
1787735940376583400,10.05858349609375,-0.2889392673969269,0.12522737681865692,-0.025045474991202354
1787735940393004500,10.075004638671874,-0.16798794269561768,-0.0757472887635231,0.10445795953273773
1787735940408608500,10.0906083984375,-0.11423180252313614,-0.3029891550540924,0.08002334833145142
1787735940424820700,10.10682080078125,-0.12278391420841217,-0.4105014503002167,-0.036041051149368286
1787735940440503800,10.12250390625,-0.16493362188339233,-0.4001167416572571,-0.18081611394882202
1787735940456502800,10.138502685546875,-0.24434609711170197,-0.3536909818649292,-0.3445279896259308
1787735940472958700,10.154958740234376,-0.35124751925468445,-0.2718350291252136,-0.40072759985923767
1787735940488478000,10.17047802734375,-0.44776421785354614,-0.20891591906547546,-0.3836233615875244
1787735940512946400,10.194946533203124,-0.4764748811721802,-0.1661553531885147,-0.3500257730484009
1787735940528796000,10.2107958984375,-0.3982841372489929,-0.1319468915462494,-0.31093040108680725
1787735940544787700,10.22678759765625,-0.30543261766433716,-0.08552113175392151,-0.22052235901355743
1787735940560781600,10.242781494140624,-0.22907446324825287,-0.0507018156349659,-0.10506882518529892
1787735940576777500,10.258777587890625,-0.1508837193250656,-0.07880161702632904,-0.02076941914856434
1787735940592925000,10.274925048828125,-0.029932396486401558,-0.1466076523065567,0.04153883829712868
1787735940608795600,10.290795654296875,0.07024950534105301,-0.22907446324825287,0.036651913076639175
1787735940624795600,10.306795654296875,0.13927727937698364,-0.29016098380088806,-0.015271631069481373
1787735940640801000,10.322801025390625,0.16493362188339233,-0.30970868468284607,-0.08368854224681854
1787735940656804600,10.3388046875,0.14538592100143433,-0.31154128909111023,-0.12217304855585098
1787735940672971000,10.354970947265626,0.1111774742603302,-0.30482175946235657,-0.13316862285137177
1787735940688839200,10.370839111328126,0.08735372871160507,-0.24068090319633484,-0.09040805697441101
1787735940704844300,10.38684423828125,0.07147123664617538,-0.11484266817569733,0.004886921960860491
1787735940720857600,10.402857666015626,0.08491026610136032,-0.004886921960860491,0.12034045159816742
1787735940736863700,10.41886376953125,0.14538592100143433,-0.015882495790719986,0.22479841113090515
1787735940753038300,10.435038330078125,0.19975294172763824,-0.14477506279945374,0.31520646810531616
1787735940768892000,10.450891845703126,0.18325957655906677,-0.08918632566928864,0.4092797040939331
1787735940784896300,10.466896240234375,0.08185594528913498,0.0861319974064827,0.4440990388393402
1787735940800909600,10.48290966796875,-0.05192354694008827,0.14538592100143433,0.21991148591041565
1787735940816920600,10.498920654296874,-0.12400564551353455,0.045204028487205505,-0.19853121042251587
1787735940833103000,10.51510302734375,-0.1466076523065567,-0.2064724564552307,-0.5931501388549805
1787735940849000200,10.531000244140625,-0.18325957655906677,-0.2583959996700287,-0.6261368989944458
1787735940864977000,10.546976806640625,-0.20341812074184418,-0.11911872029304504,-0.3604104816913605
1787735940880957400,10.56295751953125,-0.14905111491680145,0.10934487730264664,0.06230825558304787
1787735940896939800,10.578939697265625,-0.03298672288656235,0.23029619455337524,0.39645153284072876
1787735940913087500,10.59508740234375,0.05009094998240471,0.1007927656173706,0.4660901725292206
1787735940928935000,10.610934814453126,0.07696902006864548,-0.02626720629632473,0.3805690407752991
1787735940944912000,10.626911865234375,0.056810468435287476,0.00427605677396059,0.2871066629886627
1787735940960892200,10.64289208984375,0.03726277872920036,0.07757988572120667,0.17837265133857727
1787735940976884500,10.658884521484374,0.05864306539297104,0.13805554807186127,0.1258382350206375
1787735940993032000,10.675031982421874,0.12461651116609573,0.12767083942890167,0.14966198801994324
1787735941008922400,10.69092236328125,0.19547687470912933,0.04092797264456749,0.21563543379306793
1787735941024908500,10.706908447265626,0.24190263450145721,-0.02871066704392433,0.2632829248905182
1787735941040897500,10.7228974609375,0.24984388053417206,-0.1160643994808197,0.2681698501110077
1787735941056879000,10.738879150390625,0.19975294172763824,-0.152105450630188,0.19486601650714874
1787735941073030100,10.755030029296876,0.1062905490398407,-0.13927727937698364,0.06352998316287994
1787735941088902100,10.770902099609375,-0.006108652334660292,-0.07757988572120667,-0.07696902006864548
1787735941104891400,10.786891357421876,-0.08796459436416626,-0.025045474991202354,-0.1973094791173935
1787735941120878300,10.80287841796875,-0.15393804013729095,0.021380282938480377,-0.2877175211906433
1787735941136865800,10.81886572265625,-0.1667662113904953,0.025656340643763542,-0.27488934993743896
1787735941153014000,10.835013916015624,-0.13927727937698364,0.018325956538319588,-0.17959438264369965
1787735941168861700,10.85086181640625,-0.08307767659425735,-0.025045474991202354,-0.0959058403968811
1787735941184850200,10.86685009765625,-0.03420845419168472,-0.08674286305904388,-0.03726277872920036
1787735941200840700,10.8828408203125,-0.009162978269159794,-0.15577064454555511,0.03176499158143997
1787735941216831000,10.8988310546875,-0.009162978269159794,-0.1667662113904953,0.10445795953273773
1787735941232981200,10.914981201171875,-0.006719517521560192,-0.17104226350784302,0.17531833052635193
1787735941248832800,10.930832763671875,0.007941247895359993,-0.13439035415649414,0.21135938167572021
1787735941264821200,10.9468212890625,0.01771509274840355,-0.1258382350206375,0.19792033731937408
1787735941280813000,10.96281298828125,0.02687807008624077,-0.19058994948863983,0.09162978827953339
1787735941296796000,10.9787958984375,0.06841690838336945,-0.2974913716316223,-0.03420845419168472
1787735941312971300,10.99497119140625,0.11667526513338089,-0.40744712948799133,-0.054367005825042725
1787735941328863700,11.01086376953125,0.16920967400074005,-0.45692721009254456,0.08674286305904388
1787735941344844500,11.026844482421875,0.21319197118282318,-0.31093040108680725,0.3579670190811157
1787735941360834300,11.042834228515625,0.21502456068992615,-0.16859880089759827,0.6316346526145935
1787735941376818700,11.058818603515626,0.23090706765651703,-0.15271630883216858,0.646906316280365
1787735941392971300,11.07497119140625,0.22113321721553802,-0.22663100063800812,0.37262779474258423
1787735941408839400,11.09083935546875,0.0708603709936142,-0.38728857040405273,-0.009773843921720982
1787735941424820000,11.106820068359376,-0.18020524084568024,-0.3995058834552765,-0.34147366881370544
1787735941440811300,11.122811279296876,-0.3384193480014801,-0.13011430203914642,-0.3982841372489929
1787735941456800300,11.13880029296875,-0.3677408695220947,0.12217304855585098,-0.27550023794174194
1787735941472955100,11.154955078125,-0.28527405858039856,0.2626720666885376,0.039706241339445114
1787735941488802300,11.17080224609375,-0.18081611394882202,0.2272418737411499,0.384845107793808
1787735941504792000,11.1867919921875,-0.0507018156349659,0.04642575979232788,0.6713408827781677
1787735941520788200,11.202788330078125,0.05619960278272629,-0.18448130786418915,0.749531626701355
1787735941536783600,11.21878369140625,0.10262536257505417,-0.34574973583221436,0.6621779203414917
1787735941552946000,11.23494580078125,0.0959058403968811,-0.44593164324760437,0.4550946056842804
1787735941568793900,11.2507939453125,0.0659734457731247,-0.4697553813457489,0.29016098380088806
1787735941584792600,11.26679248046875,0.006719517521560192,-0.4593706727027893,0.18631389737129211
1787735941600799000,11.282799072265625,-0.05803219974040985,-0.3585779070854187,0.1569923609495163
1787735941624494600,11.30649462890625,-0.17104226350784302,-0.2382374405860901,0.1111774742603302
1787735941640496600,11.32249658203125,-0.252287358045578,-0.1918116807937622,0.06841690838336945
1787735941664829700,11.34682958984375,-0.2987131178379059,-0.14294247329235077,0.06475171446800232
1787735941680841000,11.362841064453125,-0.2321287989616394,-0.02382374368607998,0.2021963894367218
1787735941696858000,11.378858154296875,-0.059864792972803116,0.08552113175392151,0.37079519033432007
1787735941713010200,11.39501025390625,0.09957103431224823,0.04948008432984352,0.503963828086853
1787735941728882700,11.410882568359375,0.20891591906547546,-0.06658431142568588,0.5467243790626526
1787735941744895700,11.426895751953126,0.28955012559890747,-0.21074850857257843,0.4917465150356293
1787735941760919800,11.442919921875,0.3194825351238251,-0.22663100063800812,0.4306600093841553
1787735941776945000,11.45894482421875,0.29016098380088806,-0.12217304855585098,0.4001167416572571
1787735941793136000,11.47513623046875,0.19853121042251587,0.09529497474431992,0.42149701714515686
1787735941808982500,11.490982421875,0.1270599663257599,0.2816088795661926,0.4288274049758911
1787735941824973800,11.506973876953126,0.09468411654233932,0.38728857040405273,0.4288274049758911
1787735941840952300,11.522952392578125,0.0708603709936142,0.242513507604599,0.4593706727027893
1787735941856945700,11.538945556640625,0.03787364438176155,-0.11056660860776901,0.5149593949317932
1787735941880597800,11.56259765625,0.027488935738801956,-0.5363397002220154,0.5393940210342407
1787735941896603600,11.578603759765626,-0.025656340643763542,-0.2376265823841095,0.5607742667198181
1787735941920909000,11.602908935546875,-0.13011430203914642,0.31520646810531616,0.5485569834709167
1787735941936890000,11.61889013671875,-0.15393804013729095,0.18325957655906677,0.43799036741256714
1787735941953038000,11.6350380859375,-0.12461651116609573,-0.2632829248905182,0.304210901260376
1787735941968918500,11.65091845703125,-0.10934487730264664,-0.5161811113357544,0.2638937830924988
1787735941984906500,11.666906494140624,-0.04214970022439957,-0.543059229850769,0.30054569244384766
1787735942000891000,11.682890869140625,0.07391469180583954,-0.2834414839744568,0.4098905920982361
1787735942016877600,11.698877685546876,0.14233160018920898,-0.09957103431224823,0.504574716091156
1787735942040559600,11.7225595703125,0.04581489413976669,-0.2675589919090271,0.46853363513946533
1787735942056874200,11.738874267578124,-0.09529497474431992,-0.33169981837272644,0.3090978264808655
1787735942073022700,11.755022705078124,-0.1411098688840866,-0.17287486791610718,0.15027284622192383
1787735942088545000,11.770544921875,-0.11911872029304504,0.010995574295520782,0.17348572611808777
1787735942104534000,11.786533935546874,-0.04764748737215996,0.09896016865968704,0.3836233615875244
1787735942120551000,11.802551025390626,0.021380282938480377,-0.02687807008624077,0.6163630485534668
1787735942136595200,11.81859521484375,0.08796459436416626,-0.17898350954055786,0.7837401032447815
1787735942153017900,11.835017822265625,0.04886921867728233,-0.342695415019989,0.9089674949645996
1787735942168550000,11.8505498046875,0.01466076634824276,-0.26939156651496887,0.9920451641082764
1787735942184491000,11.866490966796874,-0.0024434609804302454,-0.39217549562454224,0.9334021210670471
1787735942200564000,11.88256396484375,-0.05925392732024193,-0.3396410644054413,0.7648032903671265
1787735942216531700,11.89853173828125,-0.1014036312699318,-0.24617868661880493,0.4697553813457489
1787735942233011200,11.91501123046875,-0.12095131725072861,-0.17470745742321014,0.24068090319633484
1787735942248558600,11.93055859375,-0.15821409225463867,-0.10934487730264664,0.06780604273080826
1787735942264496000,11.94649609375,-0.15393804013729095,-0.08857546001672745,0.028099801391363144
1787735942280506400,11.96250634765625,-0.06414084881544113,-0.05742133408784866,0.06230825558304787
1787735942296509400,11.978509521484375,0.3029891550540924,-0.43737950921058655,0.6261368989944458
1787735942312956400,11.994956298828125,0.2076941877603531,-0.5546656250953674,0.5858197808265686
1787735942328469800,12.0104697265625,0.23335053026676178,-0.9608910083770752,0.8142833709716797
1787735942344448800,12.02644873046875,0.1014036312699318,-1.3255776166915894,0.8949176073074341
1787735942360808200,12.04280810546875,0.025045474991202354,-0.9657779335975647,0.8723155856132507
1787735942376447700,12.05844775390625,0.05314527451992035,-0.5497786998748779,0.7458664774894714
1787735942392955600,12.07495556640625,0.03298672288656235,-0.3445279896259308,0.4282165467739105
1787735942408543200,12.090543212890625,0.15760323405265808,-0.04703662544488907,0.07391469180583954
1787735942424510500,12.106510498046875,0.23945917189121246,0.21991148591041565,-0.1667662113904953
1787735942440603100,12.12260302734375,0.24495697021484375,0.35674530267715454,-0.22296582162380219
1787735942456572700,12.13857275390625,0.10323622822761536,0.49785518646240234,-0.056810468435287476
1787735942473118500,12.155118408203125,-0.04153883829712868,0.5076290369033813,0.13011430203914642
1787735942488667600,12.170667724609375,-0.03848451003432274,0.3390302062034607,0.06963863968849182
1787735942504685000,12.18668505859375,-0.10751228034496307,0.48808133602142334,-0.313373863697052
1787735942520713200,12.202713134765625,-0.09407325088977814,0.37629300355911255,-0.79840087890625
1787735942536834600,12.21883447265625,0.005497787147760391,0.7159340381622314,-1.2015719413757324
1787735942553282800,12.23528271484375,0.15332718193531036,1.0806206464767456,-1.0519099235534668
1787735942568815400,12.2508154296875,0.14782938361167908,1.0115928649902344,-0.484416127204895
1787735942584981500,12.2669814453125,0.05619960278272629,0.3878994286060333,0.3378084897994995
1787735942601023500,12.2830234375,0.07880161702632904,-0.20586158335208893,0.9175195693969727
1787735942617303300,12.29930322265625,0.1417207419872284,-0.4392121136188507,1.084285855293274
1787735942633501700,12.315501708984375,0.1918116807937622,-0.33597588539123535,0.9272934198379517
1787735942648996900,12.330996826171875,0.22602014243602753,-0.1814269721508026,0.7110471725463867
1787735942665002800,12.347002685546874,0.16371189057826996,-0.2791654169559479,0.4996877610683441
1787735942681049300,12.36304931640625,0.06963863968849182,-0.5809328556060791,0.34208452701568604
1787735942697110500,12.379110595703125,-0.02321287989616394,-0.6579018831253052,0.16310101747512817
1787735942713567000,12.39556689453125,-0.051312681287527084,-0.5436700582504272,-0.04764748737215996
1787735942729123800,12.411123779296876,-0.04948008432984352,-0.2773328125476837,-0.22846360504627228
1787735942745067300,12.4270673828125,-0.030543262138962746,0.01710422709584236,-0.43127086758613586
1787735942761101800,12.443101806640625,-0.04764748737215996,0.16493362188339233,-0.5442809462547302
1787735942777071900,12.45907177734375,-0.14233160018920898,0.1215621829032898,-0.5021312236785889
1787735942793539300,12.475539306640625,-0.22846360504627228,0.15882496535778046,-0.34086281061172485
1787735942809146600,12.491146728515625,-0.23945917189121246,0.10262536257505417,-0.18081611394882202
1787735942825037300,12.507037353515624,-0.19120082259178162,0.01160643994808197,-0.11239920556545258
1787735942841056300,12.52305615234375,-0.059864792972803116,-0.022602014243602753,-0.15393804013729095
1787735942857031000,12.539031005859375,0.09651670604944229,-0.021991148591041565,-0.16493362188339233
1787735942873573000,12.555572998046875,0.192422553896904,-0.12034045159816742,-0.059864792972803116
1787735942889112300,12.5711123046875,0.23579397797584534,-0.18448130786418915,0.08185594528913498
1787735942905295600,12.587295654296875,0.25595253705978394,-0.13988813757896423,0.22663100063800812
1787735942921172200,12.603172119140625,0.24373523890972137,-0.09162978827953339,0.35185837745666504
1787735942937095000,12.619094970703125,0.18325957655906677,-0.009773843921720982,0.40744712948799133
1787735942953571800,12.63557177734375,0.0959058403968811,0.04092797264456749,0.3781255781650543
1787735942969083000,12.651082763671875,0.0659734457731247,0.05742133408784866,0.2926044464111328
1787735942985097500,12.667097412109374,0.060475658625364304,0.0861319974064827,0.1612684279680252
1787735943001254400,12.68325439453125,0.03726277872920036,0.09285151958465576,0.05803219974040985
1787735943017106400,12.6991064453125,0.018936822190880775,0.20341812074184418,0.00733038317412138
1787735943033571000,12.715571044921875,-0.004886921960860491,0.3885102868080139,0.024434609338641167
1787735943049046000,12.7310458984375,0.013439035043120384,0.41722095012664795,0.00855211354792118
1787735943065073700,12.74707373046875,0.06536258012056351,0.21868975460529327,-0.0959058403968811
1787735943081146400,12.763146484375,0.06902777403593063,-0.0555887371301651,-0.1661553531885147
1787735943097085200,12.779085205078125,0.025656340643763542,-0.06963863968849182,-0.11056660860776901
1787735943113549300,12.79554931640625,0.012217304669320583,0.06902777403593063,-0.04398229718208313
1787735943129376000,12.8113759765625,0.02687807008624077,0.24190263450145721,0.0659734457731247
1787735943145059300,12.827059326171875,0.045204028487205505,0.2431243658065796,0.1459967941045761
1787735943161041400,12.84304150390625,0.05864306539297104,0.13866640627384186,0.13561208546161652
1787735943177339600,12.859339599609376,0.054367005825042725,0.001832595793530345,0.0354301854968071
1787735943193490000,12.875489990234374,0.025045474991202354,-0.08368854224681854,-0.04337143152952194
1787735943209013500,12.891013427734375,-0.02382374368607998,-0.060475658625364304,-0.09346238523721695
1787735943224968400,12.906968505859375,-0.0507018156349659,-0.018325956538319588,-0.12767083942890167
1787735943240996900,12.922996826171875,-0.04337143152952194,0.036041051149368286,-0.13866640627384186
1787735943256967200,12.93896728515625,0.001832595793530345,0.10812314599752426,-0.12095131725072861
1787735943273458200,12.955458251953125,0.09040805697441101,0.10690141469240189,-0.036651913076639175
1787735943288960000,12.9709599609375,0.18631389737129211,-0.013439035043120384,0.1014036312699318
1787735943304962000,12.986962158203125,0.23579397797584534,-0.1459967941045761,0.21868975460529327
1787735943320960000,13.0029599609375,0.20402899384498596,-0.20402899384498596,0.2626720666885376
1787735943336925700,13.01892578125,0.11850785464048386,-0.2278527319431305,0.24190263450145721
1787735943353421800,13.035421875,0.02015855349600315,-0.23457226157188416,0.16493362188339233
1787735943368950000,13.050949951171875,-0.06963863968849182,-0.22540926933288574,0.02076941914856434
1787735943384996600,13.06699658203125,-0.13805554807186127,-0.18387043476104736,-0.08307767659425735
1787735943400950500,13.082950439453125,-0.1514945775270462,-0.1258382350206375,-0.09529497474431992
1787735943416904000,13.098904052734374,-0.10934487730264664,-0.12034045159816742,-0.015882495790719986
1787735943433405200,13.1154052734375,-0.04214970022439957,-0.1459967941045761,0.0659734457731247
1787735943448910600,13.13091064453125,0.04398229718208313,-0.1869247704744339,0.1417207419872284
1787735943480942300,13.1629423828125,0.182648703455925,-0.33169981837272644,0.15515977144241333
1787735943496966100,13.178966064453125,0.24556782841682434,-0.3390302062034607,0.15943582355976105
1787735943513531600,13.19553173828125,0.3121521472930908,-0.3182607889175415,0.13011430203914642
1787735943529077500,13.211077392578124,0.35735616087913513,-0.3378084897994995,0.08735372871160507
1787735943545066000,13.22706591796875,0.36163222789764404,-0.4355469346046448,0.08491026610136032
1787735943561058300,13.243058349609376,0.3433062732219696,-0.42699480056762695,0.12889257073402405
1787735943593560800,13.275560791015625,0.26083946228027344,-0.051312681287527084,0.22846360504627228
1787735943617420800,13.2994208984375,0.252287358045578,0.2767219543457031,0.3701843321323395
1787735943633607700,13.315607666015625,0.3023782968521118,0.22479841113090515,0.3237585723400116
1787735943649479200,13.331479248046875,0.3494149148464203,-0.15821409225463867,0.05192354694008827
1787735943665495800,13.347495849609375,0.2626720666885376,-0.6230825781822205,-0.30482175946235657
1787735943681518000,13.36351806640625,0.0659734457731247,-0.6762278079986572,-0.4807509481906891
1787735943697494500,13.37949462890625,-0.16371189057826996,-0.39645153284072876,-0.5387831330299377
1787735943713642000,13.39564208984375,-0.29993483424186707,-0.1472185254096985,-0.50335294008255
1787735943729496000,13.41149609375,-0.39645153284072876,-0.00855211354792118,-0.2968805134296417
1787735943745472000,13.427471923828126,-0.40683624148368835,0.06414084881544113,-0.07513642311096191
1787735943761454000,13.4434541015625,-0.32009339332580566,0.09712757170200348,0.06291911751031876
1787735943777430300,13.45943017578125,-0.18325957655906677,0.009773843921720982,0.09407325088977814
1787735943801101300,13.483101318359376,0.0024434609804302454,-0.3029891550540924,0.16371189057826996
1787735943817082600,13.49908251953125,0.07269296050071716,-0.4129449129104614,0.2431243658065796
1787735943833558000,13.51555810546875,0.10445795953273773,-0.40256020426750183,0.2571742534637451
1787735943849052200,13.53105224609375,0.07147123664617538,-0.3885102868080139,0.24678955972194672
1787735943865238300,13.54723828125,0.016493361443281174,-0.3182607889175415,0.19853121042251587
1787735943881048000,13.563048095703126,-0.0555887371301651,-0.2119702398777008,0.10445795953273773
1787735943897071900,13.57907177734375,-0.12950342893600464,-0.08002334833145142,-0.0006108652451075613
1787735943929014000,13.611013916015626,-0.22113321721553802,0.10812314599752426,-0.15454891324043274
1787735943945339600,13.627339599609375,-0.18448130786418915,0.16859880089759827,-0.18020524084568024
1787735943961088500,13.643088623046875,-0.07024950534105301,0.1319468915462494,-0.1918116807937622
1787735943977033200,13.659033203125,0.06291911751031876,0.042760565876960754,-0.15882496535778046
1787735943993503700,13.675503662109374,0.20830504596233368,-0.0757472887635231,-0.10506882518529892
1787735944009032200,13.6910322265625,0.31093040108680725,-0.1411098688840866,-0.022602014243602753
1787735944024979200,13.706979248046874,0.3689626157283783,-0.15882496535778046,0.0659734457731247
1787735944049319000,13.73131884765625,0.3194825351238251,-0.01771509274840355,0.09040805697441101
1787735944073447400,13.755447509765625,0.17776179313659668,0.25106561183929443,-0.013439035043120384
1787735944097273600,13.779273681640625,0.03787364438176155,0.4129449129104614,-0.0861319974064827
1787735944113420500,13.795420654296874,0.02015855349600315,0.4141666293144226,-0.1014036312699318
1787735944145245700,13.82724560546875,0.1667662113904953,0.17043140530586243,0.003054326167330146
1787735944161238500,13.843238525390625,0.24495697021484375,0.07269296050071716,0.1514945775270462
1787735944177219000,13.859218994140624,0.24984388053417206,0.1007927656173706,0.26633724570274353
1787735944193375700,13.875375732421874,0.22418753802776337,0.16798794269561768,0.3139847218990326
1787735944209219800,13.8912197265625,0.16859880089759827,0.08185594528913498,0.192422553896904
1787735944225204200,13.907204345703125,0.08368854224681854,-0.0555887371301651,0.007941247895359993
1787735944241194800,13.92319482421875,0.01160643994808197,-0.10018189996480942,-0.14966198801994324
1787735944257183500,13.93918359375,-0.02871066704392433,-0.05192354694008827,-0.15882496535778046
1787735944273345000,13.955344970703125,-0.05375614017248154,0.06536258012056351,-0.03787364438176155
1787735944289190100,13.971190185546876,-0.0403171069920063,0.14844025671482086,0.08552113175392151
1787735944313324300,13.99532421875,-0.019547687843441963,0.12217304855585098,0.15393804013729095
1787735944328944000,14.010944091796874,-0.02015855349600315,0.10934487730264664,0.1258382350206375
1787735944344891600,14.0268916015625,-0.01160643994808197,0.10812314599752426,0.07391469180583954
1787735944360875800,14.042875732421875,0,0.11239920556545258,0.05619960278272629
1787735944376875800,14.058875732421875,0.03848451003432274,0.09285151958465576,0.0806342139840126
1787735944393375500,14.07537548828125,0.09468411654233932,0.1014036312699318,0.13011430203914642
1787735944408892200,14.09089208984375,0.14782938361167908,0.08918632566928864,0.19975294172763824
1787735944425116400,14.107116455078126,0.18875735998153687,0.06230825558304787,0.25595253705978394
1787735944440933400,14.122933349609376,0.20341812074184418,0.04642575979232788,0.28099802136421204
1787735944457076500,14.139076416015625,0.1722639948129654,0.03237585723400116,0.2724458873271942
1787735944473424000,14.155423828125,0.11972958594560623,0.06291911751031876,0.2217440903186798
1787735944488963300,14.17096337890625,0.04153883829712868,0.051312681287527084,0.14905111491680145
1787735944513424400,14.19542431640625,-0.07819075137376785,0.06536258012056351,0.09040805697441101
1787735944529296000,14.2112958984375,-0.13011430203914642,0.08918632566928864,0.030543262138962746
1787735944545310200,14.227310302734375,-0.1563815027475357,0.06963863968849182,-0.04214970022439957
1787735944561327600,14.24332763671875,-0.13500121235847473,0.02932153269648552,-0.09468411654233932
1787735944577347600,14.25934765625,-0.09712757170200348,-0.054367005825042725,-0.07269296050071716
1787735944593526800,14.27552685546875,-0.05803219974040985,-0.11178833991289139,-0.0006108652451075613
1787735944609406500,14.291406494140626,-0.015271631069481373,-0.09285151958465576,0.036041051149368286
1787735944625396000,14.30739599609375,0.01466076634824276,-0.09957103431224823,0.04092797264456749
1787735944641371000,14.323370849609375,0.036041051149368286,-0.12828169763088226,0.036651913076639175
1787735944657368300,14.339368408203125,0.04764748737215996,-0.11728613078594208,0.06108652427792549
1787735944673512000,14.355511962890626,0.07696902006864548,-0.11789698898792267,0.0910189226269722
1787735944689358000,14.371358154296875,0.13500121235847473,-0.16737708449363708,0.06291911751031876
1787735944705343200,14.38734326171875,0.24678955972194672,-0.27611109614372253,-0.015271631069481373
1787735944721330000,14.403329833984374,0.3384193480014801,-0.342695415019989,-0.022602014243602753
1787735944737309700,14.419309814453126,0.41233405470848083,-0.3323107063770294,0.05253441259264946
1787735944753459000,14.435458984375,0.43188172578811646,-0.23579397797584534,0.22418753802776337
1787735944777034000,14.459033935546875,0.3701843321323395,-0.04092797264456749,0.2938261926174164
1787735944793447700,14.47544775390625,0.2877175211906433,-0.08185594528913498,0.0555887371301651
1787735944808957000,14.49095703125,0.13805554807186127,-0.20463985204696655,-0.22418753802776337
1787735944824960500,14.50696044921875,-0.03481931984424591,-0.2974913716316223,-0.46792277693748474
1787735944841118700,14.52311865234375,-0.17348572611808777,-0.21624629199504852,-0.5198463201522827
1787735944857135600,14.539135498046875,-0.29077184200286865,0.03848451003432274,-0.37262779474258423
1787735944873400800,14.55540087890625,-0.31642818450927734,0.2730567753314972,-0.12095131725072861
1787735944888904000,14.570904052734376,-0.2528982162475586,0.3323107063770294,0.11178833991289139
1787735944904907800,14.58690771484375,-0.14477506279945374,0.19914206862449646,0.2779437005519867
1787735944921056500,14.603056396484375,-0.07635815441608429,0.04459316283464432,0.34025195240974426
1787735944936901600,14.618901611328125,-0.03481931984424591,-0.027488935738801956,0.3488040566444397
1787735944953376300,14.635376220703124,0.004886921960860491,-0.08002334833145142,0.2638937830924988
1787735944968869400,14.650869384765626,0.039706241339445114,-0.16920967400074005,0.16982053220272064
1787735944984954600,14.66695458984375,0.06414084881544113,-0.2681698501110077,0.05375614017248154
1787735945000916000,14.682916015625,0.060475658625364304,-0.304210901260376,-0.02932153269648552
1787735945017207800,14.699207763671875,0.03176499158143997,-0.28099802136421204,-0.08124507963657379
1787735945033356300,14.715356201171875,-0.00366519158706069,-0.23518311977386475,-0.09712757170200348
1787735945048870400,14.730870361328124,-0.05314527451992035,-0.17409659922122955,-0.060475658625364304
1787735945065178000,14.74717822265625,-0.10812314599752426,-0.0659734457731247,-0.015882495790719986
1787735945080839200,14.762839111328125,-0.13866640627384186,0.08735372871160507,-0.027488935738801956
1787735945096857900,14.77885791015625,-0.12828169763088226,0.18631389737129211,-0.06536258012056351
1787735945113328000,14.795328125,-0.0757472887635231,0.16798794269561768,-0.0861319974064827
1787735945128859100,14.810859130859376,0.00427605677396059,0.06841690838336945,-0.0910189226269722
1787735945144813300,14.826813232421875,0.07330382615327835,-0.030543262138962746,-0.07208210229873657
1787735945160963000,14.842963134765625,0.13377949595451355,-0.051312681287527084,-0.060475658625364304
1787735945176899600,14.858899658203125,0.1569923609495163,-0.03848451003432274,-0.056810468435287476
1787735945193297200,14.875297119140624,0.11056660860776901,0.012217304669320583,-0.02932153269648552
1787735945208825300,14.890825439453126,0.022602014243602753,0.15577064454555511,-0.039095375686883926
1787735945224793000,14.90679296875,-0.05803219974040985,0.25106561183929443,-0.05253441259264946
1787735945240812500,14.9228125,-0.10445795953273773,0.34697145223617554,-0.07513642311096191
1787735945256806400,14.938806396484376,-0.0806342139840126,0.34574973583221436,-0.11423180252313614
1787735945273283300,14.955283447265625,-0.01710422709584236,0.18936823308467865,-0.07024950534105301
1787735945288841700,14.970841796875,0.10262536257505417,0.04459316283464432,0.01771509274840355
1787735945304833000,14.9868330078125,0.1973094791173935,-0.039095375686883926,0.1368338167667389
1787735945321168400,15.00316845703125,0.2064724564552307,-0.06536258012056351,0.28955012559890747
1787735945336914200,15.0189140625,0.09651670604944229,0.12461651116609573,0.3878994286060333
1787735945353333000,15.0353330078125,-0.04092797264456749,0.30054569244384766,0.33536502718925476
1787735945368902400,15.05090234375,-0.13561208546161652,0.28038713335990906,0.12889257073402405
1787735945384895000,15.06689501953125,-0.1771509200334549,0.036651913076639175,-0.12278391420841217
1787735945409188000,15.09118798828125,-0.1966986060142517,-0.2767219543457031,-0.3597996234893799
1787735945425189400,15.107189453125,-0.1814269721508026,-0.20402899384498596,-0.27977627515792847
1787735945441171700,15.123171630859375,-0.14538592100143433,-0.007941247895359993,-0.04764748737215996
1787735945457180400,15.139180419921875,-0.07024950534105301,0.03848451003432274,0.11423180252313614
1787735945473354000,15.15535400390625,-0.003054326167330146,-0.14233160018920898,0.09712757170200348
1787735945489257000,15.171257080078124,0.006719517521560192,-0.2528982162475586,0.033597588539123535
1787735945505267700,15.187267822265625,-0.019547687843441963,-0.18875735998153687,0.005497787147760391
1787735945521286700,15.20328662109375,-0.0659734457731247,-0.039095375686883926,0.00427605677396059
1787735945537312300,15.219312255859375,-0.06841690838336945,0.0806342139840126,0.009773843921720982
1787735945553496300,15.235496337890625,-0.031154127791523933,0.06108652427792549,-0.007941247895359993
1787735945569378000,15.2513779296875,0.01710422709584236,-0.06658431142568588,-0.0354301854968071
1787735945585363000,15.267363037109375,0.054367005825042725,-0.1771509200334549,-0.048258353024721146
1787735945609018000,15.29101806640625,0.08857546001672745,-0.21807889640331268,0.00366519158706069
1787735945625133800,15.3071337890625,0.07391469180583954,-0.1472185254096985,0.04398229718208313
1787735945641346600,15.3233466796875,0.04581489413976669,-0.07391469180583954,0.04153883829712868
1787735945657051400,15.339051513671874,0.004886921960860491,-0.1062905490398407,-0.01160643994808197
1787735945681318700,15.363318603515625,-0.05803219974040985,-0.19547687470912933,-0.09957103431224823
1787735945697303300,15.37930322265625,-0.04642575979232788,-0.18570303916931152,-0.12828169763088226
1787735945713450500,15.395450439453125,0.003054326167330146,-0.1722639948129654,-0.1160643994808197
1787735945729334500,15.41133447265625,0.0708603709936142,-0.21074850857257843,-0.05619960278272629
1787735945745320400,15.427320556640625,0.12339477986097336,-0.2382374405860901,-0.007941247895359993
1787735945761302300,15.44330224609375,0.14355333149433136,-0.2718350291252136,-0.009162978269159794
1787735945777285600,15.45928564453125,0.10690141469240189,-0.2938261926174164,-0.04703662544488907
1787735945793430800,15.4754306640625,0.05497787147760391,-0.2638937830924988,-0.06780604273080826
1787735945809332500,15.49133251953125,0.036651913076639175,-0.2431243658065796,-0.09773843735456467
1787735945825340000,15.50733984375,0.056810468435287476,-0.21380282938480377,-0.09773843735456467
1787735945841358600,15.523358642578126,0.10567969083786011,-0.1722639948129654,-0.0507018156349659
1787735945857369900,15.539369873046875,0.2076941877603531,-0.17348572611808777,-0.015882495790719986
1787735945873514000,15.555513916015625,0.3500257730484009,-0.32559117674827576,-0.0012217304902151227
1787735945889393000,15.571392822265626,0.4599815309047699,-0.4954117238521576,0.06230825558304787
1787735945905370400,15.587370361328125,0.5051855444908142,-0.50335294008255,0.17043140530586243
1787735945921357000,15.603357177734376,0.4495968222618103,-0.23273965716362,0.35185837745666504
1787735945937335800,15.619335693359375,0.34513887763023376,0.04764748737215996,0.3481931984424591
1787735945953485800,15.63548583984375,0.30543261766433716,0.06841690838336945,0.13255776464939117
1787735945969379300,15.65137939453125,0.22907446324825287,-0.29077184200286865,-0.16920967400074005
1787735945985361400,15.667361328125,0.09896016865968704,-0.5381723046302795,-0.36163222789764404
1787735946001347300,15.683347412109375,-0.07880161702632904,-0.45265114307403564,-0.4306600093841553
1787735946017327000,15.6993271484375,-0.24129177629947662,-0.1472185254096985,-0.3225368559360504
1787735946033479000,15.71547900390625,-0.3139847218990326,0.04581489413976669,-0.1514945775270462
1787735946049335300,15.731335205078125,-0.28649580478668213,0.0659734457731247,0.07147123664617538
1787735946065319000,15.74731884765625,-0.22907446324825287,0.010995574295520782,0.27061331272125244
1787735946081312500,15.7633125,-0.12828169763088226,-0.04459316283464432,0.3878994286060333
1787735946097300500,15.779300537109375,-0.02871066704392433,-0.17409659922122955,0.36224308609962463
1787735946113459700,15.795459716796875,0.05619960278272629,-0.3604104816913605,0.2571742534637451
1787735946129304800,15.811304931640626,0.08552113175392151,-0.5180137157440186,0.1569923609495163
1787735946145286000,15.827285888671875,0.0507018156349659,-0.5564982295036316,0.10201449692249298
1787735946161277700,15.843277587890626,-0.02871066704392433,-0.4966334402561188,0.039706241339445114
1787735946177268000,15.85926806640625,-0.12217304855585098,-0.384845107793808,-0.012828170321881771
1787735946193422600,15.875422607421875,-0.18570303916931152,-0.24007004499435425,-0.06841690838336945
1787735946209275100,15.891275146484375,-0.21441370248794556,-0.1508837193250656,-0.11056660860776901
1787735946225275100,15.907275146484375,-0.2223549485206604,-0.08918632566928864,-0.12889257073402405
1787735946241273600,15.923273681640625,-0.18814650177955627,-0.030543262138962746,-0.16065755486488342
1787735946257258200,15.93925830078125,-0.1215621829032898,0.04948008432984352,-0.17287486791610718
1787735946273423400,15.95542333984375,-0.02382374368607998,0.08002334833145142,-0.16432274878025055
1787735946289288000,15.971287841796874,0.08918632566928864,0.03420845419168472,-0.13744467496871948
1787735946305342000,15.987342041015625,0.22907446324825287,-0.09224065393209457,-0.10201449692249298
1787735946321354800,16.003354736328124,0.33719760179519653,-0.16249015927314758,-0.06108652427792549
1787735946337377300,16.019377197265626,0.39767327904701233,-0.1612684279680252,-0.05253441259264946
1787735946353551600,16.035551513671876,0.39767327904701233,-0.17409659922122955,-0.03298672288656235
1787735946369418500,16.05141845703125,0.37079519033432007,-0.18570303916931152,0.001832595793530345
1787735946385429200,16.06742919921875,0.30115658044815063,-0.11484266817569733,0.06719517707824707
1787735946401431300,16.083431396484375,0.2217440903186798,-0.019547687843441963,0.04581489413976669
1787735946417438500,16.0994384765625,0.15943582355976105,-0.007941247895359993,-0.013439035043120384
1787735946433613000,16.115613037109377,0.11056660860776901,-0.09162978827953339,-0.0708603709936142
1787735946449486000,16.131486083984374,0.0959058403968811,-0.23640485107898712,-0.1111774742603302
1787735946465493500,16.147493408203125,0.09896016865968704,-0.3891211748123169,-0.10323622822761536
1787735946489230300,16.171230224609374,0.018936822190880775,-0.3579670190811157,0.09896016865968704
1787735946505449500,16.187449462890626,-0.08674286305904388,-0.07696902006864548,0.2431243658065796
1787735946521362200,16.203362060546876,-0.13744467496871948,0.09224065393209457,0.14294247329235077
1787735946537234400,16.219234375,-0.08857546001672745,-0.20525072515010834,-0.16432274878025055
1787735946553684000,16.23568408203125,-0.04581489413976669,-0.5259549617767334,-0.29626965522766113
1787735946569176600,16.251176513671876,-0.03237585723400116,-0.53328537940979,-0.22968533635139465
1787735946585148200,16.267148193359375,-0.025656340643763542,-0.2877175211906433,-0.05925392732024193
1787735946609555700,16.2915556640625,0.02076941914856434,0.0024434609804302454,0.1215621829032898
1787735946625527600,16.307527587890625,0.03420845419168472,-0.07452555745840073,0.12461651116609573
1787735946641519000,16.32351904296875,0.036651913076639175,-0.16859880089759827,0.048258353024721146
1787735946657499100,16.3394990234375,0.012217304669320583,-0.10873401165008545,0.029932396486401558
1787735946673645600,16.3556455078125,0.001832595793530345,0.003054326167330146,0.08368854224681854
1787735946689488400,16.37148828125,0.015882495790719986,0.0354301854968071,0.13866640627384186
1787735946705471200,16.38747119140625,0.04214970022439957,-0.012828170321881771,0.15515977144241333
1787735946721453000,16.403453125,0.05742133408784866,-0.04948008432984352,0.16065755486488342
1787735946737439500,16.419439453125,0.05314527451992035,-0.01710422709584236,0.17531833052635193
1787735946753606100,16.435606201171876,0.0659734457731247,-0.006108652334660292,0.18387043476104736
1787735946769480000,16.45147998046875,0.08796459436416626,-0.019547687843441963,0.17409659922122955
1787735946785453300,16.467453369140625,0.15515977144241333,0.01038470957428217,0.182648703455925
1787735946801432300,16.483432373046874,0.20402899384498596,-0.036651913076639175,0.2590068578720093
1787735946817408500,16.499408447265626,0.23273965716362,-0.23396138846874237,0.303600013256073
1787735946833564700,16.515564697265624,0.19975294172763824,-0.43188172578811646,0.24068090319633484
1787735946849451500,16.531451416015624,0.15882496535778046,-0.5265658497810364,0.10873401165008545
1787735946865426200,16.54742626953125,0.08491026610136032,-0.5106833577156067,-0.039706241339445114
1787735946881408800,16.56340869140625,-0.021380282938480377,-0.4282165467739105,-0.10690141469240189
1787735946897386000,16.579385986328123,-0.10445795953273773,-0.40683624148368835,-0.1062905490398407
1787735946913534200,16.5955341796875,-0.13316862285137177,-0.4856378734111786,-0.03726277872920036
1787735946929381000,16.611381103515626,-0.1508837193250656,-0.6792821288108826,0.04764748737215996
1787735946945370000,16.6273701171875,-0.18509216606616974,-0.8985827565193176,0.13316862285137177
1787735946969028900,16.65102880859375,-0.21319197118282318,-1.0280861854553223,0.19364428520202637
1787735946985001500,16.66700146484375,-0.18387043476104736,-1.1453723907470703,0.20525072515010834
1787735947001043500,16.68304345703125,-0.16004669666290283,-1.4294246435165405,0.23579397797584534
1787735947017008600,16.699008544921874,-0.1270599663257599,-1.8106045722961426,0.2321287989616394
1787735947041304800,16.723304931640627,-0.11056660860776901,-2.1795670986175537,0.20525072515010834
1787735947057291000,16.739291015625,-0.14049901068210602,-2.326174736022949,0.2773328125476837
1787735947073437000,16.75543701171875,-0.04459316283464432,-2.031737804412842,0.3695734739303589
1787735947089305300,16.771305419921877,0.08674286305904388,-1.6481144428253174,0.33169981837272644
1787735947105280300,16.7872802734375,0.04886921867728233,-1.7482963800430298,0.0861319974064827
1787735947121259000,16.803259033203126,-0.07208210229873657,-2.0305161476135254,-0.2632829248905182
1787735947137246700,16.819246826171874,-0.14233160018920898,-2.334116220474243,-0.494189977645874
1787735947153394700,16.835394775390625,-0.23884831368923187,-2.3774874210357666,-0.37140607833862305
1787735947169242000,16.8512421875,-0.5027421116828918,-2.1899518966674805,0.06108652427792549
1787735947185222700,16.86722265625,-0.759305477142334,-1.8405369520187378,0.5589417219161987
1787735947201209900,16.8832099609375,-0.8686503767967224,-1.709811806678772,0.969443142414093
1787735947217199400,16.899199462890625,-0.8191702961921692,-1.966986060142517,1.1722503900527954
1787735947233360000,16.91535986328125,-0.7183775305747986,-2.406809091567993,1.1985175609588623
1787735947249205500,16.93120556640625,-0.6414085030555725,-2.791043281555176,1.2504411935806274
1787735947265199600,16.94719970703125,-0.5057964324951172,-3.121521472930908,1.2968668937683105
1787735947281199600,16.96319970703125,-0.323147714138031,-3.233309745788574,1.2986994981765747
1787735947297197600,16.979197509765626,-0.1661553531885147,-3.3964107036590576,1.2235630750656128
1787735947313366500,16.995366455078123,-0.028099801391363144,-3.3994650840759277,1.0586295127868652
1787735947336950500,17.018950439453125,0.15454891324043274,-3.1838295459747314,0.6609562039375305
1787735947353435000,17.035434814453126,0.08979719132184982,-3.1001410484313965,0.5076290369033813
1787735947368947500,17.050947509765624,0.033597588539123535,-2.839301586151123,0.37568211555480957
1787735947384958500,17.06695849609375,0.003054326167330146,-2.5118777751922607,0.29138273000717163
1787735947400973000,17.08297314453125,0.02626720629632473,-2.230879783630371,0.3274237811565399
1787735947417006300,17.09900634765625,0.13805554807186127,-2.113593816757202,0.39645153284072876
1787735947433490000,17.115489990234376,0.21319197118282318,-2.1337523460388184,0.3536909818649292
1787735947449049900,17.1310498046875,0.19853121042251587,-2.3292291164398193,0.24190263450145721
1787735947473492500,17.155492431640624,0.06841690838336945,-2.320066213607788,0.3738495409488678
1787735947489348000,17.17134814453125,-0.045204028487205505,-2.291355609893799,0.4795292317867279
1787735947505326000,17.187326171875,-0.07880161702632904,-2.101987361907959,0.513126790523529
1787735947521311200,17.203311279296877,-0.10201449692249298,-1.8429805040359497,0.5057964324951172
1787735947537286100,17.2192861328125,-0.1417207419872284,-1.6591099500656128,0.38240164518356323
1787735947553438000,17.23543798828125,-0.1362229436635971,-1.5583171844482422,0.18570303916931152
1787735947569305000,17.25130517578125,-0.21502456068992615,-1.3622294664382935,0.060475658625364304
1787735947585282800,17.26728271484375,-0.3854559659957886,-1.0390818119049072,0.06169738993048668
1787735947601290800,17.283290771484374,-0.5497786998748779,-0.846659243106842,0.11056660860776901
1787735947617268700,17.299268798828123,-0.5833762884140015,-0.7257078886032104,0.20891591906547546
1787735947640967400,17.322967529296875,-0.5656611919403076,-0.6633996367454529,0.4056145250797272
1787735947656950500,17.338950439453125,-0.5577199459075928,-0.4489859640598297,0.5021312236785889
1787735947673436700,17.355436767578126,-0.5125159621238708,-0.3585779070854187,0.5552765130996704
1787735947688964900,17.37096484375,-0.3500257730484009,-0.5082398653030396,0.5369505286216736
1787735947705185000,17.38718505859375,-0.039095375686883926,-0.7104362845420837,0.42638394236564636
1787735947721284600,17.40328466796875,0.2535090744495392,-0.836885392665863,0.33475416898727417
1787735947736950000,17.418949951171875,0.40683624148368835,-0.7904596328735352,0.2474004179239273
1787735947753426400,17.435426513671874,0.4202753007411957,-0.7415903806686401,0.15454891324043274
1787735947769255000,17.4512548828125,0.32498031854629517,-0.6640105247497559,0.05253441259264946
1787735947785042700,17.467042724609374,0.2822197377681732,-0.5681046843528748,-0.06230825558304787
1787735947800909600,17.48290966796875,0.2981022298336029,-0.5766568183898926,-0.12828169763088226
1787735947816904400,17.498904541015627,0.3274237811565399,-0.6304129362106323,-0.13316862285137177
1787735947833368300,17.515368408203123,0.33536502718925476,-0.7116580009460449,-0.10445795953273773
1787735947848993300,17.5309931640625,0.3274237811565399,-0.59803706407547,-0.1417207419872284
1787735947864880000,17.546880126953123,0.2724458873271942,-0.42088615894317627,-0.192422553896904
1787735947880876000,17.5628759765625,0.24923302233219147,-0.2877175211906433,-0.2541199326515198
1787735947896869400,17.578869384765625,0.23151792585849762,-0.22418753802776337,-0.21930062770843506
1787735947913354800,17.595354736328126,0.23151792585849762,-0.2718350291252136,-0.0910189226269722
1787735947928894700,17.610894775390626,0.24373523890972137,-0.3536909818649292,0.0959058403968811
1787735947944827400,17.626827392578125,0.24434609711170197,-0.38240164518356323,0.3078760802745819
1787735947960835300,17.64283544921875,0.24007004499435425,-0.32070425152778625,0.4056145250797272
1787735947976853200,17.658853271484375,0.22540926933288574,-0.42088615894317627,0.38606682419776917
1787735947993322000,17.675322021484376,0.2278527319431305,-0.5736024379730225,0.23029619455337524
1787735948008891600,17.6908916015625,0.27061331272125244,-0.6035348773002625,-0.021380282938480377
1787735948025145300,17.707145263671876,0.2987131178379059,-0.4331034719944,-0.18814650177955627
1787735948040839000,17.7228388671875,0.303600013256073,-0.29138273000717163,-0.2028072625398636
1787735948056884700,17.738884765625,0.31581732630729675,-0.2889392673969269,-0.1563815027475357
1787735948073294800,17.755294921875,0.31031954288482666,-0.46670106053352356,-0.08307767659425735
1787735948088895000,17.77089501953125,0.304210901260376,-0.6322455406188965,-0.08246681094169617
1787735948105132500,17.787132568359375,0.27611109614372253,-0.5815436840057373,-0.10384709388017654
1787735948120915200,17.802915283203124,0.23884831368923187,-0.40744712948799133,-0.13744467496871948
1787735948136833500,17.81883349609375,0.18387043476104736,-0.192422553896904,-0.21319197118282318
1787735948153292500,17.83529248046875,0.14538592100143433,0.05375614017248154,-0.36163222789764404
1787735948168845300,17.85084521484375,0.14049901068210602,0.19914206862449646,-0.47280970215797424
1787735948184908300,17.866908203125,0.16859880089759827,0.027488935738801956,-0.4495968222618103
1787735948200815400,17.8828154296875,0.17837265133857727,-0.34025195240974426,-0.24434609711170197
1787735948216921300,17.89892138671875,0.16371189057826996,-0.5778785347938538,-0.06719517707824707
1787735948233305600,17.9153056640625,0.1820378452539444,-0.48258355259895325,-0.02932153269648552
1787735948248866000,17.930865966796876,0.22418753802776337,-0.2742784917354584,-0.03787364438176155
1787735948264862500,17.946862548828125,0.26939156651496887,-0.16920967400074005,-0.01710422709584236
1787735948281160700,17.96316064453125,0.17470745742321014,-0.5418374538421631,0.12767083942890167
1787735948296918000,17.97891796875,0.0507018156349659,-1.1252137422561646,0.3066543638706207
1787735948313349400,17.995349365234375,0.00427605677396059,-1.4123204946517944,0.4306600093841553
1787735948329025300,18.011025390625,0.12095131725072861,-0.9963212013244629,0.3695734739303589
1787735948344938200,18.026938232421877,0.27122417092323303,-0.35185837745666504,0.19364428520202637
1787735948360948700,18.04294873046875,0.2541199326515198,0.015271631069481373,0.00427605677396059
1787735948376979700,18.058979736328126,0.07208210229873657,-0.015271631069481373,-0.05192354694008827
1787735948393421300,18.07542138671875,-0.1814269721508026,-0.2565633952617645,-0.02626720629632473
1787735948409095200,18.09109521484375,-0.3988949954509735,-0.14233160018920898,-0.012828170321881771
1787735948424940000,18.10693994140625,-0.5400048494338989,0.060475658625364304,-0.05619960278272629
1787735948441101300,18.123101318359375,-0.5106833577156067,0.2834414839744568,-0.08002334833145142
1787735948456956000,18.138955810546875,-0.3927863538265228,0.37140607833862305,-0.05253441259264946
1787735948473380400,18.15538037109375,-0.20402899384498596,-0.02626720629632473,0.014049900695681572
1787735948488913000,18.170912841796873,0.0006108652451075613,-0.4202753007411957,0.06352998316287994
1787735948505194000,18.187194091796876,0.11667526513338089,-0.43188172578811646,0.022602014243602753
1787735948520906200,18.20290625,0.16371189057826996,-0.3396410644054413,-0.04092797264456749
1787735948537215700,18.2192158203125,0.18325957655906677,-0.10995574295520782,-0.13561208546161652
1787735948553366800,18.23536669921875,0.17837265133857727,0.21502456068992615,-0.2272418737411499
1787735948568857900,18.25085791015625,0.13316862285137177,0.5864306092262268,-0.33108896017074585
1787735948584837400,18.26683740234375,0.0708603709936142,1.0506882667541504,-0.4703662395477295
1787735948600879400,18.28287939453125,0.0507018156349659,1.7440202236175537,-0.6200281977653503
1787735948616949500,18.298949462890626,0.07513642311096191,2.7403414249420166,-0.8912523984909058
1787735948633366500,18.315366455078124,0.14844025671482086,3.980397939682007,-1.1728612184524536
1787735948648960000,18.3309599609375,0.251676470041275,5.272377967834473,-1.386053204536438
1787735948664912000,18.346911865234375,0.3628539443016052,6.139806747436523,-1.472796082496643
1787735948681015000,18.36301513671875,0.4092797040939331,6.094602584838867,-1.282817006111145
1787735948696901600,18.378901611328125,0.4447098970413208,5.220454216003418,-1.0574077367782593
1787735948713344800,18.3953447265625,0.5821545720100403,4.158770561218262,-0.960280179977417
1787735948728844500,18.410844482421876,0.7024950385093689,3.313943862915039,-0.8326093554496765
1787735948744854800,18.426854736328124,0.7061602473258972,2.9138271808624268,-0.5907067060470581
1787735948760889300,18.442889404296874,0.6340781450271606,2.8185322284698486,-0.26572638750076294
1787735948776845800,18.458845703125,0.4960225820541382,2.7085764408111572,0.19120082259178162
1787735948801196000,18.483196044921876,0.5638286471366882,2.1032090187072754,0.41233405470848083
1787735948817175000,18.499175048828125,0.6902777552604675,1.550986886024475,0.34758231043815613
1787735948833323500,18.515323486328125,0.6908885836601257,1.179580807685852,0.25595253705978394
1787735948849212400,18.53121240234375,0.5571091175079346,1.3041973114013672,0.23029619455337524
1787735948865191000,18.54719091796875,0.2620611786842346,1.7336355447769165,0.24129177629947662
1787735948881180200,18.56318017578125,0.001832595793530345,2.0451767444610596,0.1466076523065567
1787735948897158700,18.57915869140625,-0.18936823308467865,2.213775634765625,-0.21868975460529327
1787735948913306000,18.59530615234375,-0.2785545587539673,2.2571470737457275,-0.7800748944282532
1787735948929156400,18.61115625,-0.34208452701568604,2.495384454727173,-1.246165156364441
1787735948945139200,18.62713916015625,-0.35063666105270386,2.671924591064453,-1.4587461948394775
1787735948961123000,18.643123046875,-0.27061331272125244,2.66031813621521,-1.32863187789917
1787735948984809200,18.666809326171876,0.14782938361167908,2.339003086090088,-0.7257078886032104
1787735949000795600,18.682795654296875,0.34513887763023376,2.1930062770843506,-0.43676865100860596
1787735949016791800,18.698791748046876,0.4605923891067505,2.0928242206573486,-0.30115658044815063
1787735949033271000,18.71527099609375,0.42638394236564636,2.0971004962921143,-0.34025195240974426
1787735949048781300,18.73078125,0.26572638750076294,2.12397837638855,-0.4147774875164032
1787735949064941600,18.746941650390625,0.11789698898792267,2.3237314224243164,-0.4440990388393402
1787735949080776200,18.762776123046876,0.02932153269648552,2.5466971397399902,-0.455705463886261
1787735949097101300,18.779101318359373,0.02382374368607998,2.6193902492523193,-0.44226643443107605
1787735949113261600,18.795261474609376,0.06963863968849182,2.518597364425659,-0.43676865100860596
1787735949128990000,18.810989990234376,0.18325957655906677,2.305405378341675,-0.46853363513946533
1787735949144769300,18.826769287109375,0.29138273000717163,2.032959461212158,-0.4660901725292206
1787735949160780000,18.842780029296875,0.39584067463874817,1.6303993463516235,-0.3488040566444397
1787735949176797000,18.858796875,0.4129449129104614,1.1734721660614014,-0.08307767659425735
1787735949193274400,18.8752744140625,0.4129449129104614,0.8313875794410706,0.0659734457731247
1787735949208784100,18.8907841796875,0.41599923372268677,0.637132465839386,0.152105450630188
1787735949224782800,18.906782958984376,0.37629300355911255,0.503963828086853,0.2223549485206604
1787735949240818000,18.92281787109375,0.3078760802745819,0.4550946056842804,0.2541199326515198
1787735949256860000,18.93885986328125,0.22296582162380219,0.513126790523529,0.2926044464111328
1787735949273307600,18.9553076171875,0.13866640627384186,0.5540547966957092,0.304210901260376
1787735949289012500,18.971012451171877,0.10018189996480942,0.6017022728919983,0.33169981837272644
1787735949313378600,18.995378662109374,0.10018189996480942,0.607810914516449,0.3591887652873993
1787735949329263900,19.011263916015626,0.12889257073402405,0.5406157374382019,0.33292156457901
1787735949345291800,19.027291748046874,0.15882496535778046,0.47219884395599365,0.32986724376678467
1787735949361277000,19.04327685546875,0.2278527319431305,0.4434881806373596,0.29626965522766113
1787735949377261300,19.05926123046875,0.3182607889175415,0.5338962078094482,0.192422553896904
1787735949393407000,19.075406982421875,0.3732386529445648,0.4905247986316681,0.1270599663257599
1787735949409282800,19.09128271484375,0.3830125033855438,0.41111230850219727,0.11911872029304504
1787735949425270500,19.1072705078125,0.39584067463874817,0.3995058834552765,0.07757988572120667
1787735949441283600,19.12328369140625,0.3982841372489929,0.48869219422340393,0.06230825558304787
1787735949457273600,19.139273681640624,0.3378084897994995,0.6126978397369385,0.06536258012056351
1787735949473422000,19.155422119140624,0.2528982162475586,0.7147123217582703,0.06475171446800232
1787735949489309400,19.171309326171876,0.1563815027475357,0.6927211880683899,-0.06414084881544113
1787735949505291800,19.187291748046874,0.0555887371301651,0.42638394236564636,-0.32498031854629517
1787735949521281300,19.20328125,-0.04703662544488907,0.05619960278272629,-0.5821545720100403
1787735949537260800,19.2192607421875,-0.11423180252313614,-0.03726277872920036,-0.5931501388549805
1787735949553411300,19.235411376953124,-0.11301007121801376,0.2125810980796814,-0.3903428912162781
1787735949569290500,19.25129052734375,-0.025045474991202354,0.5283984541893005,-0.13316862285137177
1787735949585270800,19.267270751953124,0.10445795953273773,0.5968153476715088,0.09957103431224823
1787735949601256700,19.283256591796874,0.2174680233001709,0.45265114307403564,0.323147714138031
1787735949617239300,19.2992392578125,0.2834414839744568,0.2871066629886627,0.4129449129104614
1787735949633388800,19.315388916015625,0.3072652220726013,0.13561208546161652,0.36163222789764404
1787735949649276000,19.33127587890625,0.2730567753314972,-0.12461651116609573,0.2321287989616394
1787735949665256400,19.34725634765625,0.20891591906547546,-0.3494149148464203,0.1014036312699318
1787735949681241300,19.363241455078125,0.13316862285137177,-0.513737678527832,-0.03420845419168472
1787735949697230000,19.37922998046875,0.036651913076639175,-0.5510004758834839,-0.0959058403968811
1787735949713380000,19.395380126953125,-0.08307767659425735,-0.4538728892803192,-0.10873401165008545
1787735949729279000,19.411279052734375,-0.22052235901355743,-0.2828305959701538,-0.0507018156349659
1787735949745260000,19.427260009765625,-0.3378084897994995,-0.14049901068210602,0.006719517521560192
1787735949761250300,19.443250244140625,-0.44226643443107605,0.07819075137376785,0.07391469180583954
1787735949777233000,19.45923291015625,-0.44654250144958496,0.24923302233219147,0.07391469180583954
1787735949793385200,19.47538525390625,-0.3549126982688904,0.35124751925468445,0.02076941914856434
1787735949809234000,19.49123388671875,-0.1973094791173935,0.2871066629886627,-0.02321287989616394
1787735949825216800,19.507216796875,-0.03787364438176155,0.08735372871160507,-0.04214970022439957
1787735949841206800,19.523206787109373,0.1466076523065567,-0.14782938361167908,-0.08246681094169617
1787735949857204700,19.539204833984375,0.2968805134296417,-0.2718350291252136,-0.14966198801994324
1787735949873363500,19.555363525390625,0.3701843321323395,-0.3219259977340698,-0.1722639948129654
1787735949889212000,19.5712119140625,0.35552358627319336,-0.21868975460529327,-0.1270599663257599
1787735949905193500,19.587193359375,0.32070425152778625,-0.03237585723400116,-0.07880161702632904
1787735949921190700,19.603190673828124,0.2590068578720093,0.18875735998153687,-0.0354301854968071
1787735949937176600,19.619176513671874,0.21135938167572021,0.27488934993743896,-0.030543262138962746
1787735949953326800,19.635326904296875,0.16249015927314758,0.2119702398777008,-0.04459316283464432
1787735949969177600,19.651177490234375,0.13072516024112701,0.15760323405265808,-0.06291911751031876
1787735949985162500,19.66716259765625,0.1514945775270462,0.08735372871160507,-0.1368338167667389
1787735950001158000,19.683157958984374,0.2070833146572113,0.08918632566928864,-0.18020524084568024
1787735950017151200,19.699151123046875,0.21441370248794556,0.24068090319633484,-0.07147123664617538
1787735950033303600,19.715303466796875,0.19486601650714874,0.4129449129104614,0.0507018156349659
1787735950049148200,19.731148193359374,0.18081611394882202,0.4599815309047699,0.036041051149368286
1787735950065141800,19.747141845703126,0.1508837193250656,0.3066543638706207,-0.09896016865968704
1787735950081128400,19.76312841796875,0.07452555745840073,0.16737708449363708,-0.1722639948129654
1787735950097182200,19.77918212890625,0.01160643994808197,0.24495697021484375,-0.13927727937698364
1787735950113353200,19.795353271484377,-0.01466076634824276,0.4740314185619354,-0.024434609338641167
1787735950129212700,19.811212646484375,0.018936822190880775,0.5949827432632446,0.09651670604944229
1787735950145220600,19.827220703125,0.11545353382825851,0.5442809462547302,0.23457226157188416
1787735950161227500,19.8432275390625,0.2070833146572113,0.39095374941825867,0.29504790902137756
1787735950177228500,19.859228515625,0.24617868661880493,0.21074850857257843,0.2571742534637451
1787735950193395200,19.875395263671876,0.20830504596233368,0.13011430203914642,0.1472185254096985
1787735950209254700,19.891254638671874,0.14538592100143433,0.11728613078594208,0.048258353024721146
1787735950225269000,19.90726904296875,0.06414084881544113,0.09896016865968704,-0.039706241339445114
1787735950241284600,19.92328466796875,0.03787364438176155,0.06902777403593063,-0.09285151958465576
1787735950257301200,19.93930126953125,0.054367005825042725,-0.004886921960860491,-0.04337143152952194
1787735950273490200,19.955490234375,0.09896016865968704,-0.06475171446800232,0.07269296050071716
1787735950289397500,19.9713974609375,0.14477506279945374,-0.05009094998240471,0.18631389737129211
1787735950305375200,19.987375244140626,0.16493362188339233,-0.00855211354792118,0.2541199326515198
1787735950321359000,20.003359130859376,0.13988813757896423,0.018325956538319588,0.28466320037841797
1787735950337335300,20.019335205078125,0.08307767659425735,0.019547687843441963,0.22968533635139465
1787735950353480000,20.03547998046875,0.021991148591041565,-0.02321287989616394,0.14355333149433136
1787735950369338000,20.051338134765626,-0.012828170321881771,-0.10690141469240189,0.08002334833145142
1787735950393457400,20.07545751953125,0.018325956538319588,-0.26511552929878235,0.039706241339445114
1787735950408953300,20.090953369140625,0.04948008432984352,-0.304210901260376,0.0354301854968071
1787735950425272800,20.10727294921875,0.09407325088977814,-0.35246923565864563,0.01710422709584236
1787735950465302300,20.14730224609375,0.15027284622192383,-0.4612032473087311,0.039706241339445114
1787735950481286700,20.16328662109375,0.13500121235847473,-0.46364670991897583,0.048258353024721146
1787735950497275400,20.179275390625,0.12522737681865692,-0.45631635189056396,0.00366519158706069
1787735950513422800,20.1954228515625,0.14294247329235077,-0.3805690407752991,-0.036651913076639175
1787735950529271800,20.211271728515626,0.16249015927314758,-0.34025195240974426,-0.007941247895359993
1787735950545252600,20.227252685546876,0.1722639948129654,-0.3384193480014801,0.05925392732024193
1787735950561242400,20.243242431640624,0.17470745742321014,-0.3488040566444397,0.12400564551353455
1787735950577220400,20.259220458984377,0.20525072515010834,-0.30543261766433716,0.18631389737129211
1787735950593369000,20.275369140625,0.23884831368923187,-0.08246681094169617,0.35246923565864563
1787735950609244400,20.291244384765626,0.24984388053417206,0.05803219974040985,0.41661009192466736
1787735950625220000,20.30722021484375,0.28588494658470154,0.025656340643763542,0.2932153046131134
1787735950648894700,20.330894775390625,0.20952677726745605,-0.4331034719944,-0.09834930300712585
1787735950664917800,20.346917724609376,0.06352998316287994,-0.8155050873756409,-0.4245513379573822
1787735950681185300,20.363185302734376,-0.1313360333442688,-0.8655960559844971,-0.5497786998748779
1787735950696892000,20.378891845703127,-0.31154128909111023,-0.5247332453727722,-0.4184426963329315
1787735950713311700,20.395311767578125,-0.39767327904701233,-0.10873401165008545,-0.17898350954055786
1787735950729139700,20.4111396484375,-0.39217549562454224,0.2382374405860901,0.1618792861700058
1787735950744803000,20.426802978515624,-0.2828305959701538,0.2565633952617645,0.3799581825733185
1787735950760850400,20.442850341796873,-0.13011430203914642,0.028099801391363144,0.43188172578811646
1787735950776765200,20.45876513671875,-0.01038470957428217,-0.26083946228027344,0.37690386176109314
1787735950793254400,20.47525439453125,0.054367005825042725,-0.484416127204895,0.24007004499435425
1787735950808769500,20.49076953125,0.08491026610136032,-0.637132465839386,0.03787364438176155
1787735950824881700,20.506881591796876,0.05864306539297104,-0.6676757335662842,-0.09834930300712585
1787735950840959500,20.52295947265625,-0.025656340643763542,-0.5943718552589417,-0.1466076523065567
1787735950856844000,20.538843994140624,-0.1319468915462494,-0.3878994286060333,-0.09957103431224823
1787735950873234400,20.555234375,-0.22663100063800812,-0.17898350954055786,-0.015271631069481373
1787735950888726500,20.5707265625,-0.2993239760398865,0.04398229718208313,0.060475658625364304
1787735950904720600,20.586720703125,-0.2828305959701538,0.15882496535778046,0.0708603709936142
1787735950920764400,20.602764404296874,-0.19853121042251587,0.15760323405265808,0.08002334833145142
1787735950936698000,20.618697998046876,-0.07941248267889023,0.09346238523721695,0.11789698898792267
1787735950961043700,20.643043701171877,0.07757988572120667,0.006719517521560192,0.15271630883216858
1787735950977040400,20.659040283203126,0.13377949595451355,-0.04337143152952194,0.14049901068210602
1787735950993196500,20.675196533203124,0.15027284622192383,-0.13744467496871948,0.1472185254096985
