time,seconds_elapsed,z,y,x
1787735930678184400,0.360184326171875,-93.31600189208984,29.006000518798828,18.506000518798828
1787735930693691000,0.37569091796875,-90.1310043334961,32.34000015258789,19.75400161743164
1787735930709758700,0.3917587890625,-89.46800231933594,32.02799987792969,20.566001892089844
1787735930726147800,0.40814794921875,-90.29700469970703,30.532001495361328,20.757001876831055
1787735930749691100,0.431691162109375,-89.44400787353516,30.746002197265625,20.860000610351562
1787735930774424800,0.4564248046875,-89.6810073852539,30.94900131225586,19.94500160217285
1787735930789701000,0.471701171875,-87.6500015258789,30.623001098632812,19.838001251220703
1787735930806421200,0.488421142578125,-87.3290023803711,30.407001495361328,19.73400115966797
1787735930821613000,0.503613037109375,-87.53500366210938,30.08700180053711,19.83300018310547
1787735930837598200,0.51959814453125,-88.59700775146484,29.98400115966797,20.03700065612793
1787735930853597700,0.53559765625,-88.8290023803711,30.62200164794922,19.636001586914062
1787735930869664500,0.55166455078125,-88.16300201416016,29.123001098632812,19.825000762939453
1787735930886193200,0.568193115234375,-89.68000793457031,30.08500099182129,19.428001403808594
1787735930901603300,0.583603271484375,-90.08800506591797,29.016000747680664,19.623001098632812
1787735930917617000,0.599616943359375,-88.2800064086914,29.549001693725586,19.625
1787735930934229000,0.61622900390625,-87.63300323486328,28.795001983642578,19.41400146484375
1787735930949720000,0.631719970703125,-89.64400482177734,29.134000778198242,20.43800163269043
1787735930966263000,0.648262939453125,-89.87000274658203,28.910001754760742,19.724000930786133
1787735930981713400,0.66371337890625,-89.68500518798828,29.649002075195312,18.915000915527344
1787735930997622800,0.679622802734375,-90.95500183105469,29.334001541137695,19.21900177001953
1787735931013696000,0.695696044921875,-88.36400604248047,28.375001907348633,19.921001434326172
1787735931029720600,0.711720458984375,-89.16900634765625,29.96200180053711,18.306001663208008
1787735931046261000,0.728260986328125,-90.53700256347656,29.976001739501953,19.225000381469727
1787735931061682400,0.743682373046875,-87.20500183105469,29.227001190185547,19.72300148010254
1787735931077686800,0.759686767578125,-90.3030014038086,29.448001861572266,19.83100128173828
1787735931101769700,0.783769775390625,-88.24800109863281,28.920001983642578,20.63800048828125
1787735931117725700,0.7997255859375,-86.77000427246094,28.799001693725586,19.821001052856445
1787735931133709800,0.815709716796875,-89.48800659179688,29.531002044677734,18.099000930786133
1787735931149722600,0.83172265625,-89.44500732421875,29.01700210571289,19.724000930786133
1787735931173798400,0.85579833984375,-89.4580078125,29.3330020904541,19.319000244140625
1787735931189835800,0.871835693359375,-88.52000427246094,30.939001083374023,19.332000732421875
1787735931206292700,0.888292724609375,-88.49100494384766,28.902000427246094,19.314001083374023
1787735931221718500,0.903718505859375,-88.91800689697266,29.876001358032227,19.935001373291016
1787735931238221600,0.9202216796875,-87.5560073852539,30.399002075195312,19.123001098632812
1787735931253802000,0.935802001953125,-88.302001953125,29.644001007080078,18.709001541137695
1787735931269943800,0.95194384765625,-89.69400787353516,30.61600112915039,19.12700080871582
1787735931286517500,0.968517578125,-89.46700286865234,30.30000114440918,19.532001495361328
1787735931301811000,0.98381103515625,-87.85700225830078,29.8700008392334,19.628000259399414
1787735931317791500,0.99979150390625,-87.4330062866211,30.73200225830078,20.042001724243164
1787735931333951200,1.015951171875,-88.16700744628906,30.417001724243164,20.448001861572266
1787735931349948400,1.031948486328125,-88.37100219726562,30.2080020904541,20.75200080871582
1787735931366508000,1.048508056640625,-87.57400512695312,30.60300064086914,18.411001205444336
1787735931381971000,1.063970947265625,-88.82300567626953,30.733001708984375,19.942001342773438
1787735931398019600,1.08001953125,-87.98800659179688,31.261001586914062,19.43600082397461
1787735931413904400,1.095904296875,-88.62300109863281,31.373001098632812,19.744001388549805
1787735931430029800,1.11202978515625,-88.51600646972656,30.509000778198242,19.227001190185547
1787735931446543000,1.128543212890625,-89.55000305175781,30.74700164794922,20.860000610351562
1787735931462247700,1.14424755859375,-88.6310043334961,31.26000213623047,19.33500099182129
1787735931478006800,1.1600068359375,-87.62300109863281,29.882001876831055,20.54400062561035
1787735931494506800,1.1765068359375,-89.23700714111328,31.066001892089844,20.761001586914062
1787735931510035500,1.192035400390625,-89.8060073852539,32.45100021362305,20.060001373291016
1787735931526492000,1.208491943359375,-89.37300109863281,31.049001693725586,19.43600082397461
1787735931542124800,1.224124755859375,-88.48900604248047,31.498001098632812,21.069000244140625
1787735931558002400,1.24000244140625,-88.83100128173828,31.269001007080078,19.94700050354004
1787735931573966300,1.25596630859375,-90.95000457763672,31.715002059936523,20.972000122070312
1787735931590024700,1.272024658203125,-90.08600616455078,31.827001571655273,21.481000900268555
1787735931606577000,1.288576904296875,-88.60700225830078,31.38300132751465,20.457000732421875
1787735931621973200,1.30397314453125,-88.73400115966797,30.83100128173828,19.23000144958496
1787735931637998000,1.319998046875,-87.55400085449219,30.940000534057617,19.535001754760742
1787735931654120400,1.336120361328125,-89.25300598144531,30.948001861572266,19.94500160217285
1787735931670237400,1.352237548828125,-88.49100494384766,30.524002075195312,20.347000122070312
1787735931686451200,1.368451171875,-88.0060043334961,32.1140022277832,19.13800048828125
1787735931701994200,1.383994140625,-90.31600189208984,30.737001419067383,20.046001434326172
1787735931717979400,1.3999794921875,-90.53300476074219,30.843002319335938,19.94500160217285
1787735931733958400,1.41595849609375,-88.39800262451172,30.731000900268555,19.84000015258789
1787735931750480000,1.43247998046875,-90.14300537109375,32.87300109863281,19.55500030517578
1787735931766533400,1.448533447265625,-90.19000244140625,31.505001068115234,21.37700080871582
1787735931790012200,1.47201220703125,-90.23200225830078,31.696001052856445,19.647001266479492
1787735931806379500,1.488379638671875,-89.5570068359375,31.391000747680664,20.968000411987305
1787735931821960700,1.503960693359375,-90.74700164794922,31.168001174926758,20.152000427246094
1787735931837873000,1.519872802734375,-88.93500518798828,31.2710018157959,20.049001693725586
1787735931853920300,1.535920166015625,-91.38900756835938,32.78900146484375,21.084001541137695
1787735931869967000,1.551967041015625,-89.57400512695312,32.137001037597656,20.66900062561035
1787735931886402600,1.568402587890625,-89.88200378417969,32.03700256347656,21.177001953125
1787735931902414600,1.58441455078125,-88.83100128173828,30.296001434326172,19.327001571655273
1787735931917906200,1.59990625,-89.26500701904297,31.266000747680664,19.642000198364258
1787735931933911300,1.615911376953125,-90.42100524902344,31.927001953125,20.871000289916992
1787735931949955600,1.63195556640625,-89.68400573730469,29.86600112915039,19.121000289916992
1787735931966388200,1.64838818359375,-89.68600463867188,30.189001083374023,19.225000381469727
1787735931981959400,1.66395947265625,-89.61200714111328,31.250001907348633,18.420000076293945
1787735931997940200,1.679940185546875,-88.85900115966797,30.711002349853516,18.312000274658203
1787735932022007600,1.704007568359375,-91.59900665283203,31.062002182006836,20.152000427246094
1787735932038019800,1.720019775390625,-89.58500671386719,30.942001342773438,19.43600082397461
1787735932054535400,1.736535400390625,-89.0560073852539,30.614002227783203,19.025001525878906
1787735932070317300,1.7523173828125,-90.96800231933594,32.24400329589844,20.468000411987305
1787735932086791200,1.768791259765625,-89.5840072631836,30.726001739501953,19.332000732421875
1787735932110218500,1.792218505859375,-90.4260025024414,30.95100212097168,20.04800033569336
1787735932126680600,1.8086806640625,-88.48100280761719,30.638002395629883,20.858001708984375
1787735932142221800,1.824221923828125,-87.75300598144531,30.733001708984375,20.043001174926758
1787735932158705700,1.84070556640625,-90.11700439453125,31.268001556396484,19.7450008392334
1787735932174302200,1.85630224609375,-89.78500366210938,30.626001358032227,19.841001510620117
1787735932190358000,1.87235791015625,-90.37000274658203,31.35300064086914,18.013999938964844
1787735932207292700,1.889292724609375,-89.57300567626953,30.40900230407715,19.635000228881836
1787735932222519000,1.90451904296875,-90.83100128173828,29.020000457763672,19.828001022338867
1787735932238563800,1.920563720703125,-89.927001953125,31.03700065612793,18.520000457763672
1787735932254612000,1.936612060546875,-89.15900421142578,30.724000930786133,19.229000091552734
1787735932270828000,1.952828125,-89.86000061035156,28.808000564575195,20.130001068115234
1787735932287365600,1.96936572265625,-90.6310043334961,30.200000762939453,19.940000534057617
1787735932303026000,1.98502587890625,-91.5770034790039,28.481000900268555,19.518001556396484
1787735932319039700,2.001039794921875,-92.24500274658203,30.41200065612793,19.536001205444336
1787735932343075300,2.025075439453125,-90.21400451660156,30.08500099182129,19.429000854492188
1787735932359079400,2.041079345703125,-90.22700500488281,30.077001571655273,18.81800079345703
1787735932375226000,2.05722607421875,-88.52800750732422,30.393001556396484,18.61400032043457
1787735932399130000,2.081130126953125,-88.19900512695312,31.58700180053711,19.7450008392334
1787735932423126800,2.105126708984375,-89.90800476074219,30.617000579833984,19.128000259399414
1787735932439444700,2.12144482421875,-90.11700439453125,30.6200008392334,19.332000732421875
1787735932455123500,2.13712353515625,-90.63500213623047,29.3330020904541,19.21900177001953
1787735932495157200,2.1771572265625,-92.26100158691406,29.753002166748047,18.410001754760742
1787735932511264300,2.19326416015625,-89.88500213623047,30.630001068115234,20.1460018157959
1787735932535391700,2.217391845703125,-90.88300323486328,30.177001953125,18.20800018310547
1787735932551374800,2.233374755859375,-93.12100219726562,29.85900115966797,18.20800018310547
1787735932575328500,2.25732861328125,-92.24700164794922,29.437002182006836,18.814001083374023
1787735932591436800,2.273436767578125,-92.57600402832031,30.190000534057617,18.92300033569336
1787735932607917300,2.289917236328125,-92.24700164794922,30.086002349853516,19.22800064086914
1787735932623394600,2.30539453125,-91.58700561523438,29.66400146484375,19.834001541137695
1787735932639345400,2.321345458984375,-92.06100463867188,30.933000564575195,18.522001266479492
1787735932655374000,2.3373740234375,-89.99800109863281,29.114002227783203,18.911001205444336
1787735932671419000,2.3534189453125,-91.08100128173828,31.051000595092773,19.43800163269043
1787735932687943400,2.369943359375,-92.69400787353516,30.72300148010254,18.725000381469727
1787735932703587300,2.38558740234375,-92.05500793457031,31.47800064086914,19.13800048828125
1787735932719970000,2.401969970703125,-89.45700073242188,29.874000549316406,19.73200035095215
1787735932735428900,2.417428955078125,-92.49100494384766,31.257001876831055,18.62700080871582
1787735932751504600,2.433504638671875,-92.20500183105469,30.976001739501953,21.68000030517578
1787735932768344800,2.4503447265625,-91.62300109863281,29.96700096130371,18.411001205444336
1787735932783573200,2.4655732421875,-92.48600769042969,30.935001373291016,18.624000549316406
1787735932799439400,2.481439453125,-90.66200256347656,30.93800163269043,19.029001235961914
1787735932815530200,2.4975302734375,-92.7030029296875,31.042001724243164,18.52400016784668
1787735932831697000,2.51369677734375,-93.03600311279297,31.14200210571289,18.016000747680664
1787735932848055600,2.5300556640625,-91.94300079345703,30.61600112915039,18.825000762939453
1787735932863834600,2.545834716796875,-93.65900421142578,30.290000915527344,18.314001083374023
1787735932888460300,2.570460205078125,-92.61500549316406,32.21900177001953,18.4320011138916
1787735932904014000,2.58601416015625,-92.04500579833984,30.40300178527832,18.92500114440918
1787735932920167200,2.602167236328125,-91.67200469970703,31.667001724243164,17.30500030517578
1787735932936335400,2.61833544921875,-91.65200805664062,30.922000885009766,17.70600128173828
1787735932952338400,2.63433837890625,-94.62500762939453,30.720001220703125,18.32000160217285
1787735932968857900,2.65085791015625,-91.8080062866211,29.876001358032227,19.63300132751465
1787735932984301800,2.6663017578125,-92.90300750732422,29.862001419067383,18.41200065612793
1787735933000507400,2.68250732421875,-93.38500213623047,31.667001724243164,17.104000091552734
1787735933016420400,2.69842041015625,-93.03600311279297,31.900001525878906,18.532001495361328
1787735933032586800,2.714586669921875,-91.18900299072266,29.32200050354004,18.303001403808594
1787735933049202700,2.73120263671875,-92.38600158691406,30.60700225830078,18.112001419067383
1787735933064721000,2.746720947265625,-92.70000457763672,29.639001846313477,17.79800033569336
1787735933080684800,2.762684814453125,-93.02100372314453,30.828001022338867,18.522001266479492
1787735933096889900,2.778889892578125,-92.7030029296875,30.71700096130371,18.317001342773438
1787735933112937200,2.794937255859375,-92.69200134277344,29.536001205444336,18.10300064086914
1787735933129347600,2.81134765625,-94.4330062866211,30.275001525878906,17.093000411987305
1787735933152943000,2.834943115234375,-92.91500091552734,31.259000778198242,18.73000144958496
1787735933169420500,2.851420654296875,-92.93400573730469,30.815000534057617,17.60500144958496
1787735933184998400,2.866998291015625,-92.51000213623047,30.705001831054688,17.400001525878906
1787735933200953900,2.882953857421875,-93.26100158691406,31.78400230407715,17.920000076293945
1787735933217012200,2.89901220703125,-92.81600189208984,30.173002243041992,17.701000213623047
1787735933233172500,2.91517236328125,-92.69500732421875,30.290000915527344,18.415000915527344
1787735933249761500,2.931761474609375,-92.10400390625,31.880001068115234,17.20600128173828
1787735933265350700,2.9473505859375,-92.802001953125,31.263002395629883,19.035001754760742
1787735933281279200,2.963279296875,-94.21300506591797,31.46700096130371,18.12200164794922
1787735933297278500,2.979278564453125,-94.8790054321289,31.66900062561035,17.106000900268555
1787735933313550800,2.99555078125,-93.71200561523438,31.554000854492188,16.696001052856445
1787735933330280700,3.01228076171875,-90.5830078125,32.11000061035156,18.530000686645508
1787735933345398000,3.02739794921875,-94.64600372314453,30.7080020904541,17.402999877929688
1787735933361460500,3.04346044921875,-92.95000457763672,31.130001068115234,17.099000930786133
1787735933377412000,3.059412109375,-93.36700439453125,31.029001235961914,17.506000518798828
1787735933401499000,3.083498779296875,-92.06100463867188,30.069002151489258,18.005001068115234
1787735933425627000,3.107626953125,-93.22400665283203,30.078001022338867,18.516000747680664
1787735933441519400,3.123519287109375,-90.77700805664062,29.744001388549805,17.89900016784668
1787735933465795000,3.147795166015625,-92.18500518798828,30.167001724243164,17.293001174926758
1787735933481534200,3.1635341796875,-92.26500701904297,29.535001754760742,18.102001190185547
1787735933497563600,3.179563720703125,-92.48500061035156,30.50400161743164,18.417001724243164
1787735933513600800,3.195600830078125,-91.18900299072266,28.782001495361328,17.992000579833984
1787735933530174700,3.2121748046875,-92.12600708007812,28.04100227355957,18.59800148010254
1787735933545486300,3.227486328125,-92.24300384521484,28.792001724243164,18.60500144958496
1787735933561576700,3.24357666015625,-91.1830062866211,29.21700096130371,18.506000518798828
1787735933577510400,3.259510498046875,-90.10400390625,28.250001907348633,18.394001007080078
1787735933593620500,3.275620361328125,-91.62700653076172,29.424001693725586,17.897001266479492
1787735933617482800,3.299482666015625,-89.0510025024414,29.644001007080078,18.60900115966797
1787735933650003500,3.33200341796875,-88.62600708007812,28.77800178527832,17.98900032043457
1787735933665639700,3.3476396484375,-90.83100128173828,28.37200164794922,19.41400146484375
1787735933681653200,3.3636533203125,-87.5260009765625,29.768001556396484,20.034000396728516
1787735933697400000,3.379400146484375,-87.62800598144531,29.87900161743164,20.341001510620117
1787735933713580300,3.395580322265625,-89.68500518798828,29.433000564575195,18.81100082397461
1787735933729817300,3.4118173828125,-89.44900512695312,28.798002243041992,19.417001724243164
1787735933745436700,3.427436767578125,-88.8330078125,28.4580020904541,18.088001251220703
1787735933761367000,3.443366943359375,-86.02000427246094,28.908000946044922,20.02400016784668
1787735933785415700,3.467415771484375,-86.99600219726562,29.981000900268555,20.035001754760742
1787735933801388000,3.483387939453125,-86.68900299072266,28.676000595092773,18.597000122070312
1787735933825465900,3.5074658203125,-88.88200378417969,26.764001846313477,19.602001190185547
1787735933841903000,3.523903076171875,-88.76400756835938,26.770000457763672,20.111000061035156
1787735933857408300,3.539408203125,-88.5580062866211,27.95400047302246,20.52800178527832
1787735933873495800,3.555495849609375,-84.18900299072266,26.321001052856445,19.082000732421875
1787735933889962500,3.57196240234375,-86.64600372314453,26.865001678466797,19.3960018157959
1787735933905837300,3.58783740234375,-85.552001953125,26.12200164794922,20.101001739501953
1787735933921772000,3.60377197265625,-84.8280029296875,26.323001861572266,19.185001373291016
1787735933937725000,3.619724853515625,-85.56200408935547,25.036001205444336,18.97100067138672
1787735933953850400,3.635850341796875,-87.07500457763672,25.67500114440918,18.571001052856445
1787735933970430200,3.65243017578125,-86.08000183105469,25.3700008392334,19.891000747680664
1787735933985828600,3.66782861328125,-86.08500671386719,23.96200180053711,18.75800132751465
1787735934001791000,3.683791015625,-83.7550048828125,23.839000701904297,17.83700180053711
1787735934017827800,3.699827880859375,-82.48400115966797,24.047000885009766,17.532001495361328
1787735934034145800,3.716145751953125,-83.41200256347656,23.852001190185547,18.856000900268555
1787735934050247700,3.73224755859375,-82.34200286865234,23.203001022338867,18.543001174926758
1787735934065867500,3.747867431640625,-83.43600463867188,23.73000144958496,17.73400115966797
1787735934081822700,3.76382275390625,-82.54100036621094,23.429000854492188,19.360000610351562
1787735934097836500,3.77983642578125,-83.8810043334961,25.016000747680664,17.746000289916992
1787735934113873400,3.795873291015625,-82.55500030517578,23.636001586914062,18.85300064086914
1787735934130448000,3.81244775390625,-84.04100036621094,24.292001724243164,19.67500114440918
1787735934146707700,3.828707763671875,-83.5560073852539,24.3700008392334,17.536001205444336
1787735934162120700,3.84412060546875,-85.26700592041016,23.72300148010254,17.023000717163086
1787735934178185000,3.86018505859375,-83.77900695800781,23.716001510620117,16.716001510620117
1787735934194253000,3.876253173828125,-83.19600677490234,23.961000442504883,19.060001373291016
1787735934218229200,3.900229248046875,-84.46800231933594,23.645000457763672,19.26300048828125
1787735934234348000,3.91634814453125,-83.73900604248047,23.308000564575195,18.240001678466797
1787735934251226600,3.9332265625,-84.06900024414062,23.735000610351562,18.041000366210938
1787735934282532000,3.964531982421875,-85.88300323486328,22.658000946044922,17.422000885009766
1787735934298887700,3.9808876953125,-82.34700012207031,22.876001358032227,18.13300132751465
1787735934314434800,3.996434814453125,-82.59000396728516,23.507001876831055,17.222000122070312
1787735934346371300,4.028371337890625,-83.32500457763672,22.11100196838379,16.905000686645508
1787735934371158000,4.053157958984375,-82.4330062866211,21.700000762939453,18.326000213623047
1787735934394733600,4.076733642578125,-82.89100646972656,21.466001510620117,16.797000885009766
1787735934411194600,4.093194580078125,-82.35100555419922,22.009000778198242,17.41200065612793
1787735934434718500,4.116718505859375,-82.02900695800781,22.55000114440918,17.82400131225586
1787735934451132400,4.13313232421875,-80.66000366210938,23.077001571655273,17.317001342773438
1787735934466718000,4.148718017578125,-85.34500122070312,23.308000564575195,18.03900146484375
1787735934482644500,4.16464453125,-83.64600372314453,23.30000114440918,17.62900161743164
1787735934498618400,4.180618408203125,-84.27000427246094,22.66200065612793,17.93000030517578
1787735934522807000,4.20480712890625,-84.59500122070312,22.33500099182129,17.520000457763672
1787735934538643500,4.2206435546875,-82.88500213623047,22.334001541137695,17.619001388549805
1787735934555157000,4.237156982421875,-84.45600128173828,22.463001251220703,19.049001693725586
1787735934578758100,4.260758056640625,-83.19800567626953,22.987001419067383,18.339000701904297
1787735934602634500,4.284634521484375,-82.85900115966797,21.161001205444336,18.016000747680664
1787735934618641700,4.3006416015625,-82.63600158691406,21.27400016784668,18.5260009765625
1787735934642736000,4.324736083984375,-82.87600708007812,22.55500030517578,18.131000518798828
1787735934666644700,4.348644775390625,-82.64500427246094,21.917001724243164,18.532001495361328
1787735934682783000,4.364782958984375,-85.76500701904297,22.016000747680664,17.518001556396484
1787735934698825000,4.380824951171875,-83.33200073242188,23.295001983642578,17.322999954223633
1787735934714699500,4.396699462890625,-85.26100158691406,24.8070011138916,17.950000762939453
1787735934731067000,4.41306689453125,-82.11200714111328,22.672000885009766,18.946001052856445
1787735934746603300,4.428603271484375,-82.76900482177734,23.52800178527832,18.75
1787735934762581500,4.44458154296875,-84.32300567626953,24.683000564575195,16.827001571655273
1787735934778669000,4.4606689453125,-85.66700744628906,24.604001998901367,18.76300048828125
1787735934794687500,4.4766875,-84.70000457763672,23.850000381469727,18.552000045776367
1787735934811530800,4.49353076171875,-82.15300750732422,24.160001754760742,18.042001724243164
1787735934826609200,4.508609130859375,-84.26300048828125,23.74700164794922,18.95800018310547
1787735934842703600,4.52470361328125,-83.63200378417969,24.49700164794922,18.964000701904297
1787735934866727400,4.5487275390625,-83.44100189208984,23.94300079345703,17.634000778198242
1787735934882587400,4.56458740234375,-84.9990005493164,22.783000946044922,18.84800148010254
1787735934898605600,4.58060546875,-84.99700164794922,23.433000564575195,19.363000869750977
1787735934931101700,4.613101806640625,-84.06500244140625,24.062000274658203,18.451000213623047
1787735934946758700,4.628758544921875,-83.66100311279297,24.58700180053711,17.742000579833984
1787735934963114500,4.645114501953125,-84.46500396728516,22.45800018310547,18.641000747680664
1787735934978664400,4.66066455078125,-85.33800506591797,22.988000869750977,18.13800048828125
1787735934994890000,4.676889892578125,-83.77100372314453,24.802001953125,17.744001388549805
1787735935011152600,4.693152587890625,-82.67500305175781,23.628000259399414,18.242000579833984
1787735935026800400,4.70880029296875,-84.51400756835938,24.806001663208008,17.94900131225586
1787735935042855700,4.724855712890625,-84.0580062866211,22.87700080871582,18.033000946044922
1787735935058837000,4.7408369140625,-82.64500427246094,23.43000030517578,19.46200180053711
1787735935074807600,4.7568076171875,-83.97700500488281,24.915000915527344,18.15300178527832
1787735935091284700,4.77328466796875,-82.99000549316406,24.713001251220703,19.168001174926758
1787735935106815000,4.78881494140625,-83.24500274658203,25.553001403808594,17.852001190185547
1787735935131359700,4.81335986328125,-83.92900085449219,24.404001235961914,19.98200035095215
1787735935146829800,4.828829833984375,-82.79100036621094,25.56800079345703,19.07400131225586
1787735935162903300,4.8449033203125,-84.10100555419922,25.87700080871582,17.95800018310547
1787735935178790100,4.8607900390625,-82.66800689697266,25.578001022338867,19.78700065612793
1787735935194893300,4.876893310546875,-81.94900512695312,25.452001571655273,18.461000442504883
1787735935211373000,4.893373046875,-83.19100189208984,24.613000869750977,19.677000045776367
1787735935226808000,4.90880810546875,-80.73100280761719,24.93600082397461,20.084001541137695
1787735935242795300,4.924795166015625,-83.1760025024414,24.838001251220703,20.494001388549805
1787735935258867500,4.940867431640625,-82.44300079345703,24.07200050354004,19.36600112915039
1787735935274989800,4.95698974609375,-81.48800659179688,25.687000274658203,20.09200096130371
1787735935291366700,4.97336669921875,-83.42400360107422,24.385000228881836,18.657001495361328
1787735935306836700,4.988836669921875,-83.76400756835938,25.994001388549805,18.773000717163086
1787735935322768100,5.00476806640625,-83.9520034790039,24.281002044677734,18.860000610351562
1787735935339053800,5.0210537109375,-84.06100463867188,26.226001739501953,19.998001098632812
1787735935354838300,5.03683837890625,-83.85700225830078,24.814001083374023,18.661001205444336
1787735935371723800,5.053723876953125,-84.18900299072266,25.34800148010254,18.463001251220703
1787735935386791700,5.068791748046875,-86.73700714111328,24.065000534057617,18.35300064086914
1787735935402825700,5.08482568359375,-83.8290023803711,24.615001678466797,19.780000686645508
1787735935418827800,5.100827880859375,-83.95800018310547,23.413002014160156,18.038000106811523
1787735935442762800,5.1247626953125,-84.83700561523438,23.724000930786133,17.125
1787735935458807000,5.14080712890625,-84.09600067138672,24.691001892089844,17.43800163269043
1787735935475031600,5.157031494140625,-85.11900329589844,24.07200050354004,19.064001083374023
1787735935491247600,5.17324755859375,-84.8080062866211,23.417001724243164,18.243000030517578
1787735935506773500,5.1887734375,-85.79700469970703,23.834001541137695,17.229000091552734
1787735935531240400,5.213240478515625,-86.4320068359375,25.027000427246094,18.259000778198242
1787735935546704400,5.228704345703125,-86.42900085449219,24.48900032043457,18.05000114440918
1787735935562757000,5.244757080078125,-84.72300720214844,24.160001754760742,17.740001678466797
1787735935578689500,5.260689453125,-86.67500305175781,25.55000114440918,17.2450008392334
1787735935594740700,5.27674072265625,-84.9000015258789,24.183000564575195,19.3700008392334
1787735935611278800,5.29327880859375,-85.76200103759766,21.586000442504883,17.413000106811523
1787735935627188000,5.30918798828125,-84.47600555419922,20.93800163269043,17.202001571655273
1787735935642737700,5.324737548828125,-86.41900634765625,23.09000015258789,17.631000518798828
1787735935658766600,5.3407666015625,-86.5570068359375,22.422000885009766,15.791000366210938
1787735935675074600,5.357074462890625,-86.21400451660156,21.571001052856445,16.293001174926758
1787735935691160600,5.37316064453125,-85.11900329589844,20.613000869750977,16.894001007080078
1787735935706653000,5.38865283203125,-87.27000427246094,22.22800064086914,17.21700096130371
1787735935722751700,5.404751708984375,-87.08500671386719,22.643001556396484,16.201000213623047
1787735935738711000,5.4207109375,-86.75100708007812,22.00200080871582,16.39900016784668
1787735935754748000,5.436747802734375,-86.53700256347656,21.786001205444336,16.295000076293945
1787735935771319600,5.453319580078125,-88.48800659179688,22.744001388549805,15.593000411987305
1787735935786692400,5.4686923828125,-87.69400787353516,21.799001693725586,17.111000061035156
1787735935811148800,5.493148681640625,-85.34300231933594,22.661001205444336,17.727001190185547
1787735935826719000,5.508718994140625,-85.11100769042969,19.862001419067383,16.78499984741211
1787735935842704600,5.52470458984375,-86.52100372314453,20.60700035095215,16.284000396728516
1787735935858924800,5.5409248046875,-85.12300109863281,20.071001052856445,16.380001068115234
1787735935874737400,5.5567373046875,-85.82500457763672,23.16900062561035,15.593000411987305
1787735935891113200,5.57311328125,-87.58700561523438,20.178001403808594,16.078001022338867
1787735935906730500,5.58873046875,-86.54800415039062,21.88800048828125,15.88800048828125
1787735935922780000,5.60477978515625,-86.23400115966797,22.20800018310547,15.789000511169434
1787735935946722600,5.62872265625,-86.33700561523438,21.453001022338867,15.477001190185547
1787735935962793500,5.64479345703125,-86.57200622558594,22.5210018157959,15.181000709533691
1787735935978778400,5.6607783203125,-85.59600067138672,22.529001235961914,15.893000602722168
1787735935994836000,5.6768359375,-88.3550033569336,21.679000854492188,16.093000411987305
1787735936011281200,5.69328125,-87.06800079345703,22.8700008392334,17.1200008392334
1787735936026796000,5.708796142578125,-87.2550048828125,22.45400047302246,18.033000946044922
1787735936042882600,5.724882568359375,-86.14100646972656,23.172000885009766,15.797000885009766
1787735936058905600,5.740905517578125,-87.28900146484375,23.297000885009766,17.022001266479492
1787735936075094500,5.757094482421875,-88.89900207519531,23.836000442504883,17.029001235961914
1787735936091512600,5.7735126953125,-85.69400787353516,24.04800033569336,17.231000900268555
1787735936107192300,5.7891923828125,-88.81100463867188,24.256000518798828,16.421001434326172
1787735936122959400,5.80495947265625,-85.05500030517578,23.830001831054688,17.02400016784668
1787735936139531300,5.82153125,-89.2300033569336,25.12700080871582,17.34600067138672
1787735936155068200,5.837068115234375,-89.43000793457031,23.838001251220703,17.131999969482422
1787735936178913300,5.860913330078125,-87.4000015258789,24.376001358032227,17.541000366210938
1787735936194996500,5.87699658203125,-85.9280014038086,23.387001037597656,15.9010009765625
1787735936211489500,5.893489501953125,-87.51100158691406,23.077001571655273,16.511001586914062
1787735936235069700,5.917069580078125,-88.49300384521484,24.25400161743164,16.319000244140625
1787735936258922000,5.940921875,-89.64200592041016,25.677001953125,18.371000289916992
1787735936307015400,5.989015380859375,-87.05900573730469,22.875001907348633,17.52800178527832
1787735936323055400,6.005055419921875,-87.29000091552734,23.189001083374023,16.91900062561035
1787735936338901800,6.02090185546875,-86.44100189208984,23.725000381469727,17.025001525878906
1787735936355150800,6.03715087890625,-87.47500610351562,24.395000457763672,18.968000411987305
1787735936371431200,6.05343115234375,-86.55400085449219,24.47800064086914,17.235000610351562
1787735936387016700,6.0690166015625,-86.32200622558594,24.488000869750977,18.05000114440918
1787735936411538400,6.093538330078125,-86.96200561523438,23.410001754760742,17.43000030517578
1787735936426976300,6.108976318359375,-85.99800109863281,23.518001556396484,17.634000778198242
1787735936443412500,6.12541259765625,-87.30900573730469,23.718000411987305,16.415000915527344
1787735936458888000,6.140887939453125,-87.41300201416016,24.04400062561035,16.72300148010254
1787735936474810600,6.156810546875,-87.69100189208984,24.934001922607422,19.176000595092773
1787735936491243500,6.173243408203125,-88.46400451660156,25.785001754760742,18.57400131225586
1787735936506750700,6.188750732421875,-86.11900329589844,23.941001892089844,17.23000144958496
1787735936522886400,6.204886474609375,-87.94400787353516,23.939001083374023,16.825000762939453
1787735936538981000,6.220981201171875,-86.96200561523438,24.922000885009766,18.360000610351562
1787735936554914300,6.236914306640625,-85.50000762939453,24.468000411987305,16.623001098632812
1787735936571537000,6.253536865234375,-86.23700714111328,24.907001495361328,17.341001510620117
1787735936586804500,6.268804443359375,-86.56000518798828,24.907001495361328,17.23900032043457
1787735936602837800,6.284837646484375,-85.28300476074219,23.389001846313477,16.104000091552734
1787735936618793700,6.300793701171875,-86.6570053100586,24.04800033569336,17.130001068115234
1787735936642708200,6.324708251953125,-86.85600280761719,23.517000198364258,17.431001663208008
1787735936658687200,6.340687255859375,-87.09200286865234,24.152000427246094,16.826000213623047
1787735936674775300,6.356775390625,-87.09000396728516,24.802001953125,17.341001510620117
1787735936691170300,6.37317041015625,-86.77300262451172,23.934001922607422,16.6200008392334
1787735936706753500,6.38875341796875,-87.72100067138672,23.295001983642578,16.819000244140625
1787735936722846500,6.404846435546875,-86.22100067138672,24.593000411987305,17.847000122070312
1787735936738927600,6.420927734375,-86.09900665283203,22.332000732421875,17.11400032043457
1787735936755054600,6.4370546875,-86.84000396728516,22.98600196838379,17.834001541137695
1787735936771185000,6.453184814453125,-88.70600128173828,23.39000129699707,15.802000999450684
1787735936786772500,6.4687724609375,-86.77100372314453,24.260000228881836,16.928001403808594
1787735936802699500,6.484699462890625,-85.66200256347656,22.121000289916992,17.417001724243164
1787735936818741800,6.50074169921875,-87.4260025024414,25.117000579833984,16.83500099182129
1787735936834764000,6.516763916015625,-88.71100616455078,23.38800048828125,15.599000930786133
1787735936851695400,6.5336953125,-86.97400665283203,23.18600082397461,16.71500015258789
1787735936866795800,6.548795654296875,-88.802001953125,23.073001861572266,16.10500144958496
1787735936882771500,6.564771484375,-88.61200714111328,22.84200096130371,14.881000518798828
1787735936898914800,6.580914794921875,-88.8030014038086,22.532001495361328,15.693000793457031
1787735936914830600,6.59683056640625,-86.76700592041016,22.96500015258789,16.306001663208008
1787735936931314000,6.61331396484375,-86.66700744628906,23.285001754760742,16.20600128173828
1787735936947048200,6.629048095703125,-88.60200500488281,24.577001571655273,16.424001693725586
1787735936962812000,6.64481201171875,-85.36700439453125,23.94300079345703,17.433000564575195
1787735936978812700,6.660812744140625,-87.95000457763672,23.610000610351562,16.31300163269043
1787735937003369700,6.68536962890625,-84.5250015258789,25.123001098632812,17.645999908447266
1787735937018925300,6.70092529296875,-88.28400421142578,25.224000930786133,16.735000610351562
1787735937042931200,6.72493115234375,-86.12700653076172,24.801000595092773,17.442001342773438
1787735937058975200,6.740975341796875,-88.49800109863281,24.25200080871582,16.115001678466797
1787735937075082200,6.757082275390625,-87.94300079345703,23.72300148010254,16.72100067138672
1787735937091392300,6.773392333984375,-88.7040023803711,25.01300048828125,16.937000274658203
1787735937107444500,6.789444580078125,-86.25800323486328,24.46200180053711,16.11400032043457
1787735937123038000,6.805037841796875,-88.052001953125,24.69500160217285,17.23900032043457
1787735937139071500,6.821071533203125,-87.97300720214844,25.10900115966797,16.224000930786133
1787735937155122700,6.837122802734375,-86.98500061035156,24.909000396728516,17.34200096130371
1787735937171650000,6.853650146484375,-87.92900085449219,25.677001953125,18.57200050354004
1787735937187134500,6.869134521484375,-86.44600677490234,26.856000900268555,18.784000396728516
1787735937203040800,6.885040771484375,-88.4590072631836,23.951000213623047,17.641000747680664
1787735937219327000,6.901326904296875,-87.94500732421875,25.559001922607422,17.756000518798828
1787735937235164000,6.917163818359375,-88.59700775146484,25.87700080871582,17.45400047302246
1787735937251604700,6.933604736328125,-87.9990005493164,26.60700035095215,16.034000396728516
1787735937267040500,6.94904052734375,-88.91700744628906,25.98600196838379,17.5570011138916
1787735937291479600,6.9734794921875,-86.89900207519531,24.788002014160156,16.32200050354004
1787735937306950400,6.988950439453125,-88.26100158691406,25.886001586914062,18.167001724243164
1787735937323083500,7.00508349609375,-87.94600677490234,26.099000930786133,18.06599998474121
1787735937339184400,7.021184326171875,-85.82200622558594,26.628002166748047,17.865001678466797
1787735937355124500,7.03712451171875,-87.38700103759766,26.113000869750977,19.18600082397461
1787735937371578000,7.053578125,-86.99000549316406,25.12200164794922,17.242000579833984
1787735937386971000,7.068970947265625,-88.3800048828125,25.12200164794922,17.142000198364258
1787735937403173000,7.085173095703125,-86.677001953125,25.3330020904541,17.03900146484375
1787735937419022300,7.101022216796875,-84.96300506591797,25.117000579833984,17.137001037597656
1787735937435215600,7.117215576171875,-86.14900207519531,24.57200050354004,16.319000244140625
1787735937451471600,7.1334716796875,-86.78600311279297,24.034000396728516,16.111000061035156
1787735937467168500,7.14916845703125,-86.49700164794922,25.96000099182129,15.92400074005127
1787735937483140600,7.165140625,-85.29900360107422,25.4320011138916,16.631000518798828
1787735937499307300,7.181307373046875,-86.36600494384766,25.542001724243164,16.735000610351562
1787735937515964000,7.1979638671875,-85.3550033569336,23.843000411987305,17.94099998474121
1787735937531792600,7.213792724609375,-85.06400299072266,23.82400131225586,16.617000579833984
1787735937555315700,7.237315673828125,-87.52300262451172,26.420001983642578,18.069000244140625
1787735937571712500,7.25371240234375,-86.99300384521484,24.687000274658203,16.829999923706055
1787735937587413800,7.269413818359375,-85.91900634765625,25.23000144958496,17.44500160217285
1787735937603318500,7.285318603515625,-85.82400512695312,25.22300148010254,16.93600082397461
1787735937619344600,7.3013447265625,-86.03800201416016,25.979001998901367,17.350000381469727
1787735937635431000,7.317430908203125,-88.92100524902344,26.632001876831055,17.767000198364258
1787735937651944000,7.33394384765625,-88.03300476074219,25.354001998901367,18.46700096130371
1787735937667791400,7.349791259765625,-85.06000518798828,25.880001068115234,18.06100082397461
1787735937683222800,7.365222900390625,-86.36500549316406,25.435001373291016,16.73400115966797
1787735937699351300,7.381351318359375,-87.43800354003906,24.029001235961914,15.60300064086914
1787735937715409200,7.3974091796875,-85.39400482177734,24.35900115966797,16.520000457763672
1787735937731962400,7.41396240234375,-87.44100189208984,25.540000915527344,16.431001663208008
1787735937747512300,7.42951220703125,-85.71500396728516,24.576000213623047,16.624000549316406
1787735937763367000,7.445366943359375,-86.38300323486328,24.7760009765625,15.506000518798828
1787735937779435000,7.46143505859375,-89.14800262451172,25.43600082397461,16.4320011138916
1787735937795581700,7.477581787109375,-87.43000793457031,25.11400032043457,16.631000518798828
1787735937820043300,7.502043212890625,-87.02800750732422,24.774002075195312,15.303000450134277
1787735937835710700,7.517710693359375,-86.59800720214844,24.88300132751465,15.507000923156738
1787735937852296200,7.534296142578125,-87.98300170898438,25.32000160217285,15.920001029968262
1787735937867764200,7.54976416015625,-87.41400146484375,23.935001373291016,16.621000289916992
1787735937884011500,7.566011474609375,-87.4330062866211,25.00400161743164,16.426000595092773
1787735937899936500,7.5819365234375,-87.74800109863281,23.927001953125,16.010000228881836
1787735937916067000,7.598067138671875,-86.1500015258789,24.35500144958496,16.113000869750977
1787735937932448300,7.6144482421875,-86.72200775146484,26.27800178527832,15.622000694274902
1787735937948020500,7.6300205078125,-88.84300231933594,24.56100082397461,15.202000617980957
1787735937964085800,7.646085693359375,-88.74000549316406,22.72100067138672,13.861001014709473
1787735937980386000,7.662385986328125,-88.94600677490234,23.8070011138916,14.890000343322754
1787735937996102000,7.678101806640625,-91.22400665283203,26.059001922607422,14.709000587463379
1787735938012676600,7.694676513671875,-90.14700317382812,24.55000114440918,14.1850004196167
1787735938028070000,7.71006982421875,-89.28300476074219,23.689001083374023,14.074000358581543
1787735938052516900,7.734516845703125,-90.77800750732422,23.908000946044922,14.180000305175781
1787735938068092400,7.750092529296875,-91.97000122070312,25.304000854492188,14.296000480651855
1787735938084189700,7.766189697265625,-91.11100769042969,24.76500129699707,14.188000679016113
1787735938100105000,7.78210498046875,-87.58600616455078,24.328001022338867,13.976000785827637
1787735938116103200,7.798103271484375,-89.71600341796875,24.44300079345703,14.285000801086426
1787735938132676000,7.814676025390625,-91.11200714111328,24.224000930786133,13.7760009765625
1787735938148073200,7.8300732421875,-87.80400085449219,24.86600112915039,14.083001136779785
1787735938164256000,7.846256103515625,-90.02100372314453,23.156002044677734,14.172000885009766
1787735938179980500,7.86198046875,-88.22300720214844,24.764001846313477,14.38800048828125
1787735938196066800,7.87806689453125,-88.9590072631836,24.556001663208008,14.794000625610352
1787735938212764700,7.8947646484375,-91.53300476074219,24.1200008392334,13.97900104522705
1787735938228442600,7.910442626953125,-89.32400512695312,25.178001403808594,13.170001029968262
1787735938243986400,7.925986328125,-91.85000610351562,24.988000869750977,14.700000762939453
1787735938259984000,7.94198388671875,-89.72600555419922,23.681001663208008,13.362000465393066
1787735938275979000,7.95797900390625,-91.44200134277344,25.408000946044922,14.092000961303711
1787735938292514600,7.9745146484375,-90.57100677490234,25.200000762939453,14.700000762939453
1787735938308014800,7.990014892578125,-88.96200561523438,24.66200065612793,14.693000793457031
1787735938332864800,8.01486474609375,-90.36400604248047,25.953001022338867,14.910000801086426
1787735938347905300,8.0299052734375,-89.48800659179688,24.560001373291016,14.999000549316406
1787735938379946500,8.061946533203125,-89.51500701904297,26.056001663208008,14.706000328063965
1787735938403852300,8.085852294921875,-89.60800170898438,25.200000762939453,14.801000595092773
1787735938419910000,8.101909912109376,-90.90900421142578,25.29800033569336,13.98900032043457
1787735938435964000,8.1179638671875,-89.52200317382812,25.40300178527832,13.988000869750977
1787735938452381700,8.134381591796876,-88.0560073852539,26.14000129699707,13.177000999450684
1787735938468011000,8.150010986328125,-90.1310043334961,24.559001922607422,14.898000717163086
1787735938484315400,8.1663154296875,-88.88200378417969,24.75400161743164,13.574000358581543
1787735938499883800,8.1818837890625,-88.85700225830078,24.1200008392334,14.281001091003418
1787735938515987700,8.19798779296875,-87.89600372314453,23.1460018157959,13.660000801086426
1787735938532527000,8.214527099609375,-87.79200744628906,24.117000579833984,14.178000450134277
1787735938548117000,8.230116943359375,-87.781005859375,24.340002059936523,14.791000366210938
1787735938563953000,8.245952880859376,-87.86500549316406,23.165000915527344,15.086000442504883
1787735938579965700,8.261965576171875,-87.04700469970703,24.006000518798828,13.972001075744629
1787735938596050700,8.27805078125,-88.42300415039062,23.908000946044922,14.482000350952148
1787735938612454100,8.2944541015625,-85.86200714111328,23.038002014160156,13.860000610351562
1787735938627996000,8.309995849609376,-87.81200408935547,26.375001907348633,14.707000732421875
1787735938643939000,8.32593896484375,-86.51600646972656,23.895000457763672,13.767000198364258
1787735938659911000,8.341910888671874,-86.8340072631836,23.897001266479492,13.869000434875488
1787735938676027400,8.35802734375,-87.48900604248047,25.07900047302246,13.982000350952148
1787735938692492300,8.3744921875,-86.89800262451172,23.275001525878906,15.392001152038574
1787735938708124700,8.390124755859375,-88.13700103759766,24.643001556396484,13.368000984191895
1787735938724013600,8.406013671875,-87.07600402832031,24.961000442504883,13.268000602722168
1787735938740483300,8.4224833984375,-87.37100219726562,24.761001586914062,14.285000801086426
1787735938756196600,8.438196533203126,-87.93400573730469,25.177001953125,13.271000862121582
1787735938772512000,8.454511962890624,-87.12300109863281,23.268001556396484,14.883000373840332
1787735938788114200,8.4701142578125,-87.25700378417969,24.225000381469727,14.280000686645508
1787735938804093700,8.48609375,-85.32100677490234,23.36600112915039,14.372000694274902
1787735938820108000,8.50210791015625,-88.33500671386719,24.977001190185547,14.28800106048584
1787735938836169200,8.518169189453126,-88.76500701904297,24.543001174926758,13.87700080871582
1787735938852654600,8.534654541015625,-87.15900421142578,23.679000854492188,13.562000274658203
1787735938868235800,8.55023583984375,-84.2550048828125,24.011001586914062,14.682001113891602
1787735938884355800,8.56635595703125,-87.72300720214844,24.09400177001953,12.446001052856445
1787735938900294700,8.582294677734374,-86.3280029296875,24.744001388549805,13.16300106048584
1787735938916318700,8.598318603515626,-87.5560073852539,23.48200035095215,14.783000946044922
1787735938932959200,8.614959228515625,-87.46200561523438,23.79800033569336,14.378000259399414
1787735938948361500,8.630361572265626,-86.75200653076172,24.85500144958496,13.368000984191895
1787735938964725000,8.64672509765625,-87.6030044555664,23.12900161743164,12.437000274658203
1787735938980320800,8.66232080078125,-87.031005859375,24.124000549316406,14.78800106048584
1787735938996512000,8.678511962890624,-85.9990005493164,22.91200065612793,12.433000564575195
1787735939012782300,8.6947822265625,-86.54100036621094,23.556001663208008,12.440000534057617
1787735939028409600,8.71040966796875,-86.73300170898438,24.759000778198242,14.182001113891602
1787735939044819700,8.72681982421875,-84.27100372314453,23.137001037597656,13.452000617980957
1787735939060392000,8.742391845703125,-87.04200744628906,22.82000160217285,13.452000617980957
1787735939076443000,8.75844287109375,-86.21300506591797,23.668001174926758,12.848000526428223
1787735939092881000,8.774880859375,-87.6290054321289,24.302001953125,12.040000915527344
1787735939108776000,8.79077587890625,-87.39500427246094,24.20600128173828,12.85400104522705
1787735939124651000,8.806651123046874,-87.19600677490234,24.737001419067383,12.553000450134277
1787735939140618000,8.822617919921875,-87.04900360107422,21.628000259399414,12.42300033569336
1787735939156571600,8.838571533203124,-86.4310073852539,23.450000762939453,12.540000915527344
1787735939172888000,8.85488818359375,-86.52400207519531,23.783000946044922,13.358000755310059
1787735939188505900,8.870505859375,-88.57200622558594,22.694000244140625,11.82300090789795
1787735939212878800,8.89487890625,-90.06800079345703,24.64000129699707,12.963000297546387
1787735939228383200,8.91038330078125,-89.23900604248047,24.30000114440918,11.635000228881836
1787735939244396500,8.926396484375,-88.66800689697266,23.565000534057617,12.850000381469727
1787735939260356000,8.942356201171876,-88.47300720214844,25.066001892089844,12.96500015258789
1787735939276392000,8.958391845703124,-87.88800048828125,25.788002014160156,10.933000564575195
1787735939292952600,8.97495263671875,-88.04900360107422,23.659000396728516,11.933000564575195
1787735939308298500,8.990298583984375,-87.09500122070312,24.626001358032227,12.246000289916992
1787735939324315000,9.00631494140625,-87.427001953125,26.024002075195312,12.564000129699707
1787735939340371700,9.022371826171875,-88.5560073852539,24.000001907348633,13.363000869750977
1787735939364266800,9.046266845703125,-87.85900115966797,23.860000610351562,11.018000602722168
1787735939380278500,9.062278564453125,-88.71500396728516,24.8330020904541,11.53700065612793
1787735939396399400,9.0783994140625,-87.8280029296875,23.44700050354004,12.135000228881836
1787735939412960500,9.09496044921875,-91.36700439453125,24.740001678466797,12.25200080871582
1787735939428427500,9.110427490234375,-88.3810043334961,23.86800193786621,11.528000831604004
1787735939444250000,9.12625,-88.07000732421875,24.511001586914062,11.533000946044922
1787735939460237600,9.142237548828126,-88.91700744628906,24.192001342773438,11.633000373840332
1787735939476273200,9.158273193359374,-88.9330062866211,24.507001876831055,11.12700080871582
1787735939492682800,9.174682861328124,-88.09800720214844,26.22300148010254,11.345000267028809
1787735939508284200,9.1902841796875,-86.67000579833984,24.30000114440918,11.937000274658203
1787735939524147500,9.2061474609375,-89.98100280761719,24.73600196838379,12.14900016784668
1787735939540191200,9.222191162109375,-88.4780044555664,23.658000946044922,11.832000732421875
1787735939556680200,9.23868017578125,-86.19100189208984,25.45400047302246,10.21500015258789
1787735939572656600,9.25465673828125,-87.63800048828125,23.648000717163086,11.219000816345215
1787735939588209000,9.270208984375,-87.95000457763672,23.762001037597656,11.628000259399414
1787735939604165400,9.286165283203125,-89.87600708007812,24.519001007080078,11.943000793457031
1787735939620256000,9.302256103515624,-86.35400390625,23.648000717163086,11.320000648498535
1787735939644219400,9.326219482421875,-88.71400451660156,24.077001571655273,11.123000144958496
1787735939660331800,9.342331787109375,-86.9070053100586,24.50200080871582,11.022000312805176
1787735939676377000,9.358377197265625,-86.87100219726562,23.227001190185547,11.826000213623047
1787735939692811800,9.374811767578125,-87.4260025024414,24.080001831054688,11.427000999450684
1787735939708704300,9.390704345703124,-87.66700744628906,24.928001403808594,10.721000671386719
1787735939732753000,9.4147529296875,-88.94700622558594,24.714000701904297,10.619000434875488
1787735939748298500,9.430298583984374,-88.29300689697266,23.424001693725586,10.403000831604004
1787735939764470000,9.446469970703125,-89.26400756835938,23.96000099182129,10.307000160217285
1787735939780346400,9.462346435546875,-87.44400787353516,23.96000099182129,10.509000778198242
1787735939796400000,9.478400146484375,-87.96800231933594,22.886001586914062,10.296000480651855
1787735939812808200,9.49480810546875,-86.60100555419922,24.060001373291016,10.101000785827637
1787735939828526800,9.51052685546875,-89.44900512695312,23.546001434326172,11.32300090789795
1787735939844348000,9.526347900390626,-88.19800567626953,24.39000129699707,10.51400089263916
1787735939860907000,9.542906982421876,-87.64000701904297,24.836000442504883,11.8410005569458
1787735939876510700,9.5585107421875,-86.12700653076172,23.656002044677734,11.931000709533691
1787735939892967700,9.5749677734375,-87.21700286865234,24.076000213623047,11.223000526428223
1787735939908563500,9.5905634765625,-87.10700225830078,24.402000427246094,11.531000137329102
1787735939924443400,9.606443359375,-87.01000213623047,25.261001586914062,11.640000343322754
1787735939948511700,9.63051171875,-88.38800048828125,23.540000915527344,11.016000747680664
1787735939965062400,9.6470625,-85.60900115966797,22.672000885009766,10.597000122070312
1787735939980679700,9.6626796875,-87.73600769042969,22.897001266479492,11.111000061035156
1787735939996665900,9.678665771484376,-87.6520004272461,23.532001495361328,10.505000114440918
1787735940012990200,9.694990234375,-87.42400360107422,22.67500114440918,10.599000930786133
1787735940028429800,9.710429931640626,-86.677001953125,24.187000274658203,11.529000282287598
1787735940044447700,9.72644775390625,-86.9000015258789,22.66900062561035,10.191000938415527
1787735940060559000,9.74255908203125,-87.4330062866211,23.96700096130371,11.018000602722168
1787735940076379400,9.75837939453125,-89.04000091552734,24.507001876831055,11.12700080871582
1787735940092925200,9.77492529296875,-88.47000122070312,23.231000900268555,11.930000305175781
1787735940108454400,9.790454345703125,-87.45700073242188,23.73600196838379,9.794000625610352
1787735940124424000,9.806423828125,-87.51200103759766,22.255001068115234,11.207000732421875
1787735940140422700,9.822422607421874,-88.7820053100586,22.48000144958496,11.822000503540039
1787735940156434000,9.838433837890625,-87.6500015258789,22.560001373291016,9.987000465393066
1787735940172875800,9.854875732421876,-88.51600646972656,23.74300193786621,10.20300006866455
1787735940188382500,9.870382568359375,-88.50300598144531,22.994001388549805,10.29800033569336
1787735940213263400,9.895263427734376,-88.19800567626953,23.417001724243164,9.894000053405762
1787735940228538000,9.9105380859375,-88.90900421142578,22.792001724243164,11.112000465393066
1787735940244372500,9.92637255859375,-86.50000762939453,23.516000747680664,9.485000610351562
1787735940260463400,9.94246337890625,-87.52000427246094,22.034000396728516,10.696000099182129
1787735940276435000,9.95843505859375,-91.18700408935547,23.530000686645508,10
1787735940292854300,9.974854248046874,-87.94800567626953,22.250001907348633,10.800000190734863
1787735940308400000,9.990400146484374,-90.12500762939453,22.769001007080078,9.279000282287598
1787735940324261600,10.00626171875,-88.92100524902344,23.649002075195312,11.119000434875488
1787735940340571400,10.0225712890625,-89.9070053100586,23.96000099182129,10.206000328063965
1787735940356347400,10.038347412109376,-89.56600189208984,23.4320011138916,10.812000274658203
1787735940373209600,10.055209716796876,-91.83000183105469,24.394001007080078,10.416000366210938
1787735940388357400,10.070357421875,-91.38600158691406,24.6200008392334,11.335000991821289
1787735940412960800,10.094960693359376,-89.49300384521484,24.924001693725586,10.214000701904297
1787735940428433700,10.11043359375,-89.9990005493164,23.86100196838379,10.817000389099121
1787735940444358100,10.126358154296875,-90.23100280761719,24.715002059936523,10.519000053405762
1787735940460330000,10.142330078125,-91.07100677490234,24.509000778198242,11.028000831604004
1787735940476226800,10.158226806640625,-92.49200439453125,25.24700164794922,10.017000198364258
1787735940492987100,10.174987060546876,-90.46300506591797,26.865001678466797,11.04800033569336
1787735940508306400,10.190306396484376,-91.10100555419922,26.21900177001953,10.737000465393066
1787735940524699400,10.206699462890626,-92.07000732421875,26.757001876831055,10.743000984191895
1787735940540180700,10.2221806640625,-90.79700469970703,27.1820011138916,10.643000602722168
1787735940556257500,10.238257568359375,-92.39100646972656,27.51300048828125,11.158000946044922
1787735940572780800,10.25478076171875,-90.47000122070312,27.077001571655273,10.846000671386719
1787735940588325000,10.2703251953125,-91.64800262451172,28.157001495361328,11.366000175476074
1787735940604252400,10.28625244140625,-95.59800720214844,28.0570011138916,11.370000839233398
1787735940620250000,10.30225,-90.9590072631836,26.781002044677734,12.677000999450684
1787735940636360000,10.31835986328125,-93.47900390625,28.584001541137695,10.96500015258789
1787735940652683800,10.334683837890625,-92.16600799560547,27.304000854492188,11.563000679016113
1787735940668248000,10.350248046875,-94.06700134277344,27.10300064086914,12.379000663757324
1787735940684318000,10.36631787109375,-91.62500762939453,27.631000518798828,12.075000762939453
1787735940708944000,10.39094384765625,-93.23100280761719,27.739002227783203,11.976000785827637
1787735940724425700,10.40642578125,-93.76900482177734,27.738000869750977,11.773000717163086
1787735940740255700,10.422255859375,-91.62300109863281,26.1200008392334,11.246000289916992
1787735940756334000,10.438333984375,-93.9520034790039,25.703001022338867,11.857000350952148
1787735940772833800,10.454833740234376,-92.281005859375,26.75800132751465,10.845000267028809
1787735940788430300,10.470430419921875,-93.32100677490234,25.91200065612793,11.552000999450684
1787735940804382500,10.486382568359375,-93.531005859375,26.780000686645508,12.273000717163086
1787735940820375000,10.502375,-91.86200714111328,26.645000457763672,10.43600082397461
1787735940836739000,10.518739013671874,-92.68800354003906,27.420001983642578,12.176000595092773
1787735940852946700,10.53494677734375,-94.61600494384766,27.852001190185547,12.182000160217285
1787735940868535000,10.55053515625,-92.58900451660156,27.847002029418945,12.078001022338867
1787735940884343000,10.566343017578125,-93.64100646972656,27.534000396728516,12.586000442504883
1787735940900448500,10.582448486328126,-93.73900604248047,26.567001342773438,12.373000144958496
1787735940916432600,10.5984326171875,-92.46000671386719,27.536001205444336,12.890000343322754
1787735940933267500,10.615267333984375,-92.781005859375,26.780000686645508,12.374000549316406
1787735940948512000,10.630511962890624,-91.92900085449219,27.101001739501953,12.47800064086914
1787735940964359000,10.64635888671875,-93.1290054321289,27.952001571655273,11.87600040435791
1787735940980372000,10.6623720703125,-92.25000762939453,26.99300193786621,12.375000953674316
1787735940996548400,10.67854833984375,-91.92300415039062,26.024002075195312,12.06100082397461
1787735941012833800,10.694833740234374,-91.91700744628906,27.541000366210938,13.297000885009766
1787735941028372700,10.710372802734375,-90.97400665283203,27.85300064086914,12.687000274658203
1787735941044335900,10.7263359375,-91.60200500488281,26.132001876831055,12.163000106811523
1787735941060297200,10.742297119140625,-91.81100463867188,26.784000396728516,12.780000686645508
1787735941076320500,10.758320556640625,-90.96200561523438,27.32000160217285,12.886000633239746
1787735941092946700,10.77494677734375,-92.86600494384766,26.36100196838379,13.084000587463379
1787735941108349700,10.790349609375,-92.34200286865234,25.597002029418945,12.159000396728516
1787735941124263700,10.806263671875,-91.91500091552734,27.542001724243164,13.398000717163086
1787735941140269300,10.822269287109375,-92.65800476074219,26.573001861572266,12.983000755310059
1787735941156285000,10.838284912109375,-90.41800689697266,27.541000366210938,13.498001098632812
1787735941172744700,10.85474462890625,-92.66900634765625,28.18800163269043,13.507000923156738
1787735941188742000,10.870741943359375,-93.75100708007812,28.937002182006836,13.31100082397461
1787735941204207400,10.886207275390625,-90.10600280761719,27.535001754760742,13.09000015258789
1787735941220204300,10.902204345703124,-92.1500015258789,27.96200180053711,12.689000129699707
1787735941236255200,10.918255126953126,-91.29300689697266,28.395000457763672,13.100000381469727
1787735941252696600,10.934696533203125,-88.59800720214844,27.21700096130371,13.493000984191895
1787735941268291600,10.95029150390625,-91.8010025024414,26.898000717163086,13.291000366210938
1787735941284178200,10.96617822265625,-91.58600616455078,28.08700180053711,14.11600112915039
1787735941300274700,10.982274658203124,-90.20600128173828,27.540000915527344,13.396000862121582
1787735941324281600,11.006281494140625,-91.36700439453125,26.36100196838379,13.285000801086426
1787735941340707000,11.02270703125,-90.29400634765625,27.33500099182129,14.108000755310059
1787735941356299500,11.038299560546875,-90.9260025024414,26.69300079345703,14.10300064086914
1787735941372793000,11.05479296875,-95.34700775146484,27.862001419067383,12.896000862121582
1787735941388213200,11.070213134765625,-91.18700408935547,26.340002059936523,11.757000923156738
1787735941404207600,11.08620751953125,-92.46700286865234,27.099000930786133,12.27500057220459
1787735941420194800,11.10219482421875,-92.23900604248047,25.703001022338867,12.058000564575195
1787735941436275700,11.118275634765626,-92.12400817871094,27.545001983642578,13.60200023651123
1787735941452700700,11.13470068359375,-92.12600708007812,26.895000457763672,13.087000846862793
1787735941468222700,11.15022265625,-91.46400451660156,27.124000549316406,14.209000587463379
1787735941484275000,11.16627490234375,-93.33900451660156,28.82000160217285,12.597000122070312
1787735941508277000,11.190277099609375,-91.66500091552734,25.61800193786621,13.789000511169434
1787735941524194600,11.206194580078124,-90.2040023803711,26.89200210571289,13.085000991821289
1787735941540299300,11.22229931640625,-89.37200164794922,27.310001373291016,12.374000549316406
1787735941556281000,11.238281005859376,-90.62000274658203,25.60300064086914,12.768000602722168
1787735941572733000,11.25473291015625,-92.32200622558594,25.934001922607422,13.283000946044922
1787735941588244500,11.270244384765626,-92.11200714111328,27.336000442504883,14.008000373840332
1787735941604215300,11.28621533203125,-92.01200103759766,27.00800132751465,13.496000289916992
1787735941628320000,11.310320068359376,-92.83500671386719,25.731000900268555,14.097001075744629
1787735941644278000,11.326278076171874,-91.46400451660156,25.503000259399414,13.176000595092773
1787735941660204300,11.342204345703125,-90.71600341796875,26.25800132751465,13.691000938415527
1787735941676269300,11.358269287109374,-92.64700317382812,26.147001266479492,13.183000564575195
1787735941692863700,11.37486376953125,-92.32200622558594,26.907001495361328,13.903000831604004
1787735941708264200,11.39026416015625,-90.21700286865234,27.317001342773438,12.783000946044922
1787735941724276000,11.40627587890625,-91.406005859375,24.781002044677734,15.309000968933105
1787735941740284200,11.4222841796875,-91.88300323486328,26.264001846313477,13.998001098632812
1787735941756346000,11.43834619140625,-91.35800170898438,26.907001495361328,14.003000259399414
1787735941772819500,11.4548193359375,-91.8800048828125,24.53700065612793,13.066000938415527
1787735941788525800,11.47052587890625,-91.49100494384766,25.810001373291016,12.160000801086426
1787735941804422000,11.486421875,-90.50200653076172,25.934001922607422,13.484000205993652
1787735941820372700,11.502372802734374,-92.21100616455078,24.639001846313477,12.660000801086426
1787735941844445200,11.526445068359376,-88.23600769042969,24.540000915527344,13.67300033569336
1787735941860342500,11.542342529296874,-89.83000183105469,24.979001998901367,14.290000915527344
1787735941876409000,11.5584091796875,-90.781005859375,24.446001052856445,14.38800048828125
1787735941892905000,11.574905029296875,-88.36900329589844,23.768001556396484,12.03600025177002
1787735941908355000,11.59035498046875,-88.87100219726562,24.976001739501953,14.187000274658203
1787735941924273000,11.60627294921875,-88.35700225830078,25.07200050354004,13.372000694274902
1787735941940255000,11.6222548828125,-88.21900177001953,24.11800193786621,14.178000450134277
1787735941956367600,11.63836767578125,-87.68000793457031,24.22800064086914,14.484001159667969
1787735941972824800,11.654824951171875,-90.2090072631836,22.95600128173828,15.189001083374023
1787735941988314000,11.670314208984376,-87.57400512695312,24.1200008392334,14.381000518798828
1787735942004735200,11.6867353515625,-89.81500244140625,23.367000579833984,13.970000267028809
1787735942020254700,11.702254638671874,-88.6510009765625,23.683000564575195,13.666000366210938
1787735942036351200,11.718351318359375,-87.76600646972656,23.917001724243164,15.195000648498535
1787735942052750000,11.73475,-89.06000518798828,22.506000518798828,13.758000373840332
1787735942068312600,11.7503125,-88.53400421142578,22.933000564575195,13.659000396728516
1787735942084294000,11.7662939453125,-88.64200592041016,23.68800163269043,14.07300090789795
1787735942100290300,11.782290283203125,-89.00700378417969,24.74300193786621,12.759000778198242
1787735942116332300,11.798332275390624,-90.24600219726562,24.014001846313477,14.180000305175781
1787735942132747500,11.81474755859375,-88.24200439453125,23.023000717163086,12.437000274658203
1787735942148310800,11.830310791015625,-88.1030044555664,23.799001693725586,14.379000663757324
1787735942164269600,11.84626953125,-87.8010025024414,24.003000259399414,13.668000221252441
1787735942180233500,11.8622333984375,-87.34700775146484,23.046001434326172,14.270000457763672
1787735942196342800,11.8783427734375,-88.1030044555664,21.63800048828125,13.03600025177002
1787735942212759800,11.894759765625,-86.92000579833984,22.505001068115234,13.959000587463379
1787735942228351200,11.910351318359375,-87.75000762939453,22.089000701904297,14.771000862121582
1787735942244255000,11.9262548828125,-87.97900390625,21.756000518798828,13.85200023651123
1787735942260761900,11.942761962890625,-87.11100769042969,20.57400131225586,13.738000869750977
1787735942276339700,11.958339599609374,-87.13800048828125,22.503000259399414,13.755001068115234
1787735942292727000,11.97472705078125,-87.02800750732422,23.586000442504883,14.580000877380371
1787735942308380200,11.990380126953125,-87.4780044555664,22.924001693725586,13.148000717163086
1787735942324209200,12.006209228515624,-86.16200256347656,22.078001022338867,14.158000946044922
1787735942340183600,12.02218359375,-85.73700714111328,21.428001403808594,13.642000198364258
1787735942356309200,12.038309326171875,-88.51300048828125,20.56800079345703,13.129000663757324
1787735942372682800,12.054682861328125,-87.35800170898438,21.959001541137695,13.140000343322754
1787735942388252200,12.070252197265624,-86.1830062866211,20.44500160217285,12.208000183105469
1787735942404315400,12.0863154296875,-85.41400146484375,19.59200096130371,12.607000350952148
1787735942420220200,12.10222021484375,-86.49700164794922,21.529001235961914,13.135000228881836
1787735942436459800,12.118459716796876,-86.77800750732422,20.47300148010254,14.246000289916992
1787735942452774400,12.1347744140625,-87.2560043334961,21.84800148010254,12.833000183105469
1787735942468387800,12.150387939453125,-85.85400390625,20.990001678466797,12.925000190734863
1787735942484349700,12.166349609375,-86.3800048828125,20.779001235961914,13.128000259399414
1787735942500395500,12.1823955078125,-85.83900451660156,20.242000579833984,13.122000694274902
1787735942516516000,12.19851611328125,-84.66200256347656,19.917001724243164,13.016000747680664
1787735942532920600,12.214920654296876,-83.39000701904297,21.09800148010254,13.331000328063965
1787735942548653300,12.2306533203125,-87.24000549316406,21.642000198364258,13.442000389099121
1787735942564981500,12.2469814453125,-84.96200561523438,21.227001190185547,14.760000228881836
1787735942580594400,12.262594482421875,-84.35100555419922,23.045001983642578,14.571001052856445
1787735942597015000,12.27901513671875,-85.60100555419922,21.770000457763672,15.17300033569336
1787735942613216800,12.295216796875,-85.84300231933594,21.536001205444336,13.745000839233398
1787735942628789200,12.310789306640626,-86.4520034790039,21.5570011138916,15.172000885009766
1787735942644766700,12.3267666015625,-86.36700439453125,21.003000259399414,13.843000411987305
1787735942660809000,12.34280908203125,-83.80500030517578,20.350000381469727,13.426000595092773
1787735942676816600,12.358816650390626,-84.0060043334961,20.250001907348633,13.9350004196167
1787735942693314300,12.375314208984374,-84.82500457763672,19.192001342773438,14.844000816345215
1787735942708905200,12.3909052734375,-83.90900421142578,20.785001754760742,13.838000297546387
1787735942724802600,12.406802490234375,-84.56300354003906,20.777000427246094,13.22700023651123
1787735942740796400,12.42279638671875,-86.0320053100586,20.90300178527832,14.453001022338867
1787735942756845600,12.438845458984375,-83.26600646972656,21.325000762939453,14.249000549316406
1787735942773293000,12.45529296875,-83.90300750732422,19.707000732421875,13.421000480651855
1787735942788881000,12.470880859375,-83.9050064086914,20.354000091552734,13.732000350952148
1787735942804833300,12.486833251953126,-86.04200744628906,21.32900047302246,14.253000259399414
1787735942821287200,12.503287109375,-81.96900177001953,21.332000732421875,14.961000442504883
1787735942837013200,12.51901318359375,-83.70700073242188,22.1820011138916,14.156001091003418
1787735942853252600,12.535252685546874,-85.11200714111328,22.066001892089844,13.3410005569458
1787735942868845600,12.550845458984375,-86.2770004272461,21.209001541137695,13.233000755310059
1787735942884794000,12.566794189453125,-85.71800231933594,21.6560001373291,14.66300106048584
1787735942908770600,12.5907705078125,-87.00200653076172,21.87200164794922,14.666000366210938
1787735942925415700,12.607415771484375,-85.74100494384766,21.209001541137695,13.335000991821289
1787735942940930800,12.622930908203125,-82.6500015258789,21.309001922607422,13.128000259399414
1787735942956906500,12.638906494140626,-83.906005859375,21.110000610351562,14.146000862121582
1787735942973776000,12.65577587890625,-84.74400329589844,19.608001708984375,13.930000305175781
1787735942988844000,12.670843994140625,-84.02800750732422,21.209001541137695,13.53600025177002
1787735943004827600,12.68682763671875,-85.03800201416016,20.814001083374023,15.87700080871582
1787735943020856800,12.70285693359375,-85.0300064086914,20.062000274658203,15.768000602722168
1787735943036932000,12.71893212890625,-86.47300720214844,22.084001541137695,14.566000938415527
1787735943053271800,12.735271728515626,-84.42000579833984,20.799001693725586,14.857000350952148
1787735943068765400,12.750765380859375,-85.38300323486328,21.124000549316406,14.963000297546387
1787735943084824800,12.766824951171875,-84.02200317382812,21.429000854492188,13.946001052856445
1787735943100947000,12.782947021484375,-83.9010009765625,20.897001266479492,14.246000289916992
1787735943116846300,12.798846435546874,-83.1570053100586,21.650001525878906,14.558000564575195
1787735943133382700,12.815382568359375,-83.34100341796875,21.020000457763672,15.469000816345215
1787735943148738000,12.830738037109375,-82.90900421142578,21.131000518798828,15.77500057220459
1787735943164753200,12.846753173828125,-82.38400268554688,20.476001739501953,14.954000473022461
1787735943180764700,12.8627646484375,-84.2090072631836,21.01300048828125,14.859001159667969
1787735943196767700,12.878767822265624,-84.27800750732422,20.064001083374023,15.971000671386719
1787735943213224700,12.895224609375,-81.98400115966797,21.756000518798828,14.557001113891602
1787735943229264100,12.91126416015625,-83.552001953125,21.45400047302246,15.881000518798828
1787735943244744700,12.92674462890625,-82.9310073852539,21.874000549316406,15.272000312805176
1787735943260752400,12.94275244140625,-83.20800018310547,20.60300064086914,16.381999969482422
1787735943276741400,12.958741455078124,-83.91700744628906,21.536001205444336,13.946001052856445
1787735943293323500,12.975323486328126,-82.31200408935547,20.34600067138672,13.32300090789795
1787735943308663800,12.990663818359375,-83.89700317382812,20.46700096130371,14.141000747680664
1787735943324713700,13.006713623046876,-80.57200622558594,21.011001586914062,15.160000801086426
1787735943340776000,13.02277587890625,-81.66100311279297,21.21700096130371,14.348000526428223
1787735943356731600,13.038731689453124,-82.281005859375,21.23000144958496,15.266000747680664
1787735943373114000,13.055114013671876,-82.61700439453125,20.897001266479492,14.347001075744629
1787735943388803800,13.070803955078125,-82.61500549316406,20.898000717163086,14.44800090789795
1787735943404697900,13.08669775390625,-80.90300750732422,20.78900146484375,14.547000885009766
1787735943420670500,13.10267041015625,-84.31400299072266,21.339000701904297,15.168001174926758
1787735943436817400,13.1188173828125,-83.23200225830078,21.994001388549805,16.19099998474121
1787735943453238000,13.135238037109374,-83.02400207519531,20.045000076293945,14.747000694274902
1787735943476740000,13.158739990234375,-82.40800476074219,21.542001724243164,14.556000709533691
1787735943493284600,13.17528466796875,-82.41900634765625,21.319000244140625,13.943000793457031
1787735943516896500,13.198896484375,-81.87500762939453,20.56800079345703,13.9350004196167
1787735943533268700,13.215268798828125,-81.6300048828125,19.830001831054688,14.845000267028809
1787735943556930300,13.238930419921875,-81.64300537109375,19.93000030517578,14.337000846862793
1787735943588986000,13.270986083984376,-83.34600067138672,19.50400161743164,14.335000991821289
1787735943620904000,13.302904052734375,-83.86000061035156,18.112001419067383,14.324000358581543
1787735943637388500,13.319388427734374,-83.46000671386719,19.06800079345703,13.720000267028809
1787735943660964600,13.342964599609376,-82.59700012207031,18.748001098632812,13.920001029968262
1787735943676989700,13.35898974609375,-84.00300598144531,19.06300163269043,13.313000679016113
1787735943693573600,13.37557373046875,-82.08200073242188,19.167001724243164,13.312000274658203
1787735943716928500,13.398928466796875,-82.80500030517578,20.696001052856445,15.36400032043457
1787735943733473000,13.41547314453125,-83.46300506591797,20.255001068115234,14.342000961303711
1787735943748934100,13.43093408203125,-80.9310073852539,20.98900032043457,13.428000450134277
1787735943764901600,13.446901611328125,-83.89300537109375,20.470001220703125,14.344000816345215
1787735943780845000,13.462844970703125,-84.74000549316406,18.963001251220703,13.721000671386719
1787735943796921600,13.478921630859375,-84.86300659179688,20.142000198364258,13.732000350952148
1787735943813312500,13.4953125,-83.35200500488281,20.797000885009766,14.856000900268555
1787735943828915700,13.510915771484376,-81.42900085449219,21.011001586914062,15.059000968933105
1787735943853258200,13.53525830078125,-82.70700073242188,19.50200080871582,14.233000755310059
1787735943868758300,13.55075830078125,-83.82100677490234,20.556001663208008,12.817000389099121
1787735943884788000,13.5667880859375,-84.21000671386719,19.283000946044922,13.723000526428223
1787735943900765400,13.582765380859374,-84.72300720214844,19.405000686645508,14.744000434875488
1787735943924835800,13.6068359375,-84.12800598144531,19.917001724243164,13.016000747680664
1787735943948774400,13.6307744140625,-82.38600158691406,19.286001205444336,14.128000259399414
1787735943964871200,13.64687109375,-85.49500274658203,21.012001037597656,14.657000541687012
1787735943980746200,13.662746337890624,-84.00300598144531,20.360000610351562,14.140000343322754
1787735943996795000,13.678794921875,-85.27100372314453,20.262001037597656,14.65000057220459
1787735944013221400,13.695221435546875,-84.61800384521484,20.160001754760742,15.158000946044922
1787735944028732700,13.710732666015625,-83.656005859375,19.94300079345703,15.053000450134277
1787735944053223200,13.73522314453125,-84.84000396728516,20.804000854492188,15.164000511169434
1787735944076761300,13.75876123046875,-84.32100677490234,20.362001419067383,14.242000579833984
1787735944093288000,13.775287841796874,-83.12300109863281,19.834001541137695,14.949000358581543
1787735944116763000,13.798762939453125,-84.42200469970703,18.961000442504883,13.619000434875488
1787735944140648200,13.822648193359376,-84.94500732421875,20.157001495361328,14.85200023651123
1787735944156700200,13.8387001953125,-83.11300659179688,17.461999893188477,13.909000396728516
1787735944173092400,13.85509228515625,-84.09500122070312,19.18000030517578,14.028000831604004
1787735944196734000,13.87873388671875,-82.3530044555664,17.577001571655273,14.521000862121582
1787735944213140700,13.895140625,-81.83900451660156,19.509000778198242,14.843000411987305
1787735944228656000,13.91065625,-81.76400756835938,19.27400016784668,13.312000274658203
1787735944244594700,13.9265947265625,-81.12100219726562,17.32900047302246,12.17400074005127
1787735944260805600,13.9428056640625,-82.37700653076172,18.96700096130371,14.329000473022461
1787735944276948000,13.958947998046876,-82.06600189208984,19.93400001525879,14.541000366210938
1787735944293132300,13.97513232421875,-83.4330062866211,18.111000061035156,14.32300090789795
1787735944308658200,13.990658203125,-82.69800567626953,18.968000411987305,14.330000877380371
1787735944324673300,14.00667333984375,-82.50300598144531,18.523000717163086,13.205000877380371
1787735944340643000,14.02264306640625,-80.37300109863281,18.94900131225586,13.206000328063965
1787735944356687600,14.0386875,-81.41000366210938,18.53700065612793,14.324000358581543
1787735944373126400,14.05512646484375,-80.74800109863281,18.981000900268555,15.55000114440918
1787735944388674300,14.07067431640625,-79.57300567626953,19.41200065612793,15.858000755310059
1787735944404782300,14.0867822265625,-80.6760025024414,18.96000099182129,14.021000862121582
1787735944420791800,14.102791748046876,-80.0250015258789,18.749000549316406,14.324000358581543
1787735944436760600,14.118760498046875,-79.08500671386719,18.411001205444336,13.200000762939453
1787735944453601000,14.13560107421875,-80.34200286865234,19.50800132751465,14.943000793457031
1787735944468794600,14.150794677734375,-79.49100494384766,19.72100067138672,14.943000793457031
1787735944485025500,14.167025634765626,-80.64800262451172,18.652000427246094,15.03700065612793
1787735944500780000,14.182780029296875,-80.66700744628906,19.181001663208008,14.533000946044922
1787735944516795000,14.198794921875,-80.01000213623047,18.974000930786133,15.141000747680664
1787735944533255700,14.215255615234375,-80.54700469970703,16.920000076293945,13.69800090789795
1787735944548925200,14.23092529296875,-78.47600555419922,17.158000946044922,15.734001159667969
1787735944564929500,14.246929443359376,-81.52200317382812,18.534000396728516,14.121000289916992
1787735944580809700,14.262809814453124,-80.95600128173828,17.040000915527344,14.61600112915039
1787735944596925400,14.278925537109375,-80.10400390625,19.198001861572266,15.856000900268555
1787735944613395500,14.2953955078125,-80.54800415039062,19.94500160217285,15.558000564575195
1787735944628874500,14.31087451171875,-78.29500579833984,18.327001571655273,15.031001091003418
1787735944644768000,14.32676806640625,-79.03500366210938,19.30500030517578,15.958001136779785
1787735944660778800,14.34277880859375,-79.0510025024414,19.296001434326172,15.245000839233398
1787735944676814300,14.358814453125,-80.67200469970703,18.530000686645508,13.916000366210938
1787735944693275600,14.375275634765625,-79.22700500488281,18.671001434326172,16.564001083374023
1787735944709246200,14.39124609375,-80.11800384521484,18.542001724243164,14.832000732421875
1787735944724717600,14.406717529296875,-79.9050064086914,18.433000564575195,14.72900104522705
1787735944740693800,14.42269384765625,-81.17000579833984,18.769001007080078,15.65000057220459
1787735944756824600,14.438824462890626,-79.03400421142578,17.253000259399414,14.717000961303711
1787735944773224400,14.455224365234375,-80.88600158691406,18.422000885009766,13.813000679016113
1787735944788811000,14.47081103515625,-78.95500183105469,18.100000381469727,14.012001037597656
1787735944813624600,14.49562451171875,-79.34900665283203,17.47300148010254,15.12700080871582
1787735944828945700,14.510945556640625,-78.91400146484375,16.612001419067383,14.915000915527344
1787735944844873500,14.52687353515625,-80.96200561523438,17.360000610351562,14.517001152038574
1787735944861367000,14.543366943359375,-80.65400695800781,18.541000366210938,14.731000900268555
1787735944876728800,14.558728759765625,-81.68400573730469,18.13300132751465,16.155000686645508
1787735944893209900,14.5752099609375,-79.79300689697266,19.408000946044922,15.552000999450684
1787735944908646100,14.590646240234374,-80.85800170898438,17.898000717163086,14.725000381469727
1787735944924680700,14.6066806640625,-79.70800018310547,18.638999938964844,14.119000434875488
1787735944940664300,14.622664306640624,-80.57200622558594,19.499000549316406,14.230000495910645
1787735944956748300,14.638748291015625,-79.68900299072266,19.082000732421875,15.244000434875488
1787735944973099800,14.655099853515624,-78.41400146484375,18.21200180053711,14.419000625610352
1787735944988875800,14.670875732421875,-78.38400268554688,17.690000534057617,15.433000564575195
1787735945004729600,14.6867294921875,-79.3340072631836,18.562000274658203,16.461000442504883
1787735945020642800,14.702642822265625,-79.95000457763672,17.606000900268555,16.963001251220703
1787735945036883000,14.718883056640625,-81.8060073852539,17.584001541137695,15.131000518798828
1787735945053362700,14.73536279296875,-79.01900482177734,16.61400032043457,15.017001152038574
1787735945068598800,14.750598876953125,-79.54900360107422,17.481000900268555,15.73900032043457
1787735945084705300,14.766705322265626,-79.04300689697266,19.517000198364258,15.756000518798828
1787735945100611000,14.782611083984374,-78.29100036621094,19.194000244140625,15.75200080871582
1787735945117112600,14.799112548828125,-79.86900329589844,18.670000076293945,16.463001251220703
1787735945133042200,14.815042236328125,-79.55000305175781,19.21000099182129,16.773000717163086
1787735945148732200,14.830732177734374,-79.24600219726562,17.90300178527832,15.233000755310059
1787735945164634600,14.846634521484376,-80.96600341796875,19.303001403808594,15.553000450134277
1787735945180536300,14.862536376953125,-79.68400573730469,19.518001556396484,15.757000923156738
1787735945196583200,14.878583251953126,-79.04500579833984,18.327001571655273,14.931000709533691
1787735945213202200,14.8952021484375,-78.51100158691406,19.190000534057617,15.447000503540039
1787735945228529400,14.910529296875,-79.87300109863281,17.479000091552734,15.535000801086426
1787735945244522500,14.9265224609375,-77.71700286865234,18.2450008392334,16.96500015258789
1787735945260696300,14.9426962890625,-77.72100067138672,18.242000579833984,16.762001037597656
1787735945276592400,14.95859228515625,-77.11700439453125,19.408000946044922,15.85400104522705
1787735945293151500,14.9751513671875,-78.59400177001953,18.44900131225586,16.052000045776367
1787735945308688600,14.990688720703124,-77.92300415039062,17.06100082397461,16.54800033569336
1787735945324639200,15.00663916015625,-79.83600616455078,18.367000579833984,17.784000396728516
1787735945340607200,15.022607177734375,-76.81100463867188,19.291000366210938,15.140000343322754
1787735945356709600,15.038709716796875,-79.10800170898438,17.48900032043457,16.349000930786133
1787735945373531100,15.05553125,-77.3080062866211,18.44900131225586,16.25400161743164
1787735945388617200,15.0706171875,-76.54600524902344,18.998001098632812,17.2760009765625
1787735945404712400,15.08671240234375,-76.5580062866211,18.558000564575195,16.457000732421875
1787735945420644000,15.10264404296875,-78.35100555419922,17.817001342773438,16.963001251220703
1787735945444637000,15.126636962890625,-79.84500122070312,18.9010009765625,17.687000274658203
1787735945460681200,15.14268115234375,-80.2770004272461,18.251001358032227,17.071001052856445
1787735945476847600,15.15884765625,-79.06000518798828,20.26300048828125,15.457000732421875
1787735945493368300,15.175368408203125,-79.74700164794922,19.00400161743164,17.381999969482422
1787735945508930300,15.190930419921875,-78.36500549316406,19.431001663208008,17.384000778198242
1787735945525450500,15.207450439453124,-79.11400604248047,19.21500015258789,17.18000030517578
1787735945540754400,15.22275439453125,-77.41000366210938,18.56100082397461,16.560001373291016
1787735945556886300,15.23888623046875,-77.06500244140625,18.251001358032227,17.474000930786133
1787735945573272800,15.25527294921875,-78.16200256347656,20.3960018157959,17.494001388549805
1787735945588832800,15.270832763671875,-78.46100616455078,20.302000045776367,18.411001205444336
1787735945605108700,15.287108642578126,-78.65900421142578,18.36600112915039,17.885000228881836
1787735945620792600,15.30279248046875,-78.59600067138672,18.231000900268555,15.846000671386719
1787735945637195300,15.3191953125,-76.43600463867188,18.783000946044922,17.27400016784668
1787735945653683200,15.33568310546875,-78.44300079345703,18.043001174926758,17.780000686645508
1787735945677234000,15.35923388671875,-77.09700012207031,20.60900115966797,17.4950008392334
1787735945693388300,15.37538818359375,-77.82200622558594,19.327001571655273,17.68800163269043
1787735945708697300,15.390697265625,-79.84800720214844,19.764001846313477,18.102001190185547
1787735945724727600,15.4067275390625,-79.74300384521484,19.22300148010254,17.690000534057617
1787735945740759300,15.42275927734375,-77.49800109863281,19.545000076293945,17.9950008392334
1787735945756750800,15.438750732421875,-78.21200561523438,18.59400177001953,18.905000686645508
1787735945773196500,15.455196533203125,-77.04500579833984,18.479000091552734,18.4950008392334
1787735945796974600,15.478974609375,-79.04100036621094,21.0310001373291,16.788000106811523
1787735945813368300,15.495368408203126,-79.76400756835938,20.07400131225586,17.290000915527344
1787735945828826600,15.51082666015625,-80.79500579833984,19.882001876831055,18.817001342773438
1787735945844943400,15.526943359375,-80.1570053100586,18.799001693725586,17.992000579833984
1787735945860939000,15.54293896484375,-78.43900299072266,17.937000274658203,17.880001068115234
1787735945876876500,15.55887646484375,-81.36300659179688,18.89000129699707,16.670000076293945
1787735945893280800,15.57528076171875,-78.84600067138672,16.977001190185547,18.178001403808594
1787735945908835000,15.5908349609375,-78.14100646972656,19.869001388549805,18.101001739501953
1787735945924793000,15.60679296875,-78.47600555419922,17.8070011138916,16.148000717163086
1787735945940796000,15.6227958984375,-82.39900207519531,16.96500015258789,16.858001708984375
1787735945956883700,15.6388837890625,-79.51900482177734,16.635000228881836,16.546001434326172
1787735945973381400,15.65538134765625,-80.1520004272461,17.28900146484375,17.266000747680664
1787735945988891400,15.670891357421874,-79.3080062866211,17.17300033569336,16.75400161743164
1787735946004802600,15.686802490234374,-78.66700744628906,17.60500144958496,17.06300163269043
1787735946020738000,15.702738037109375,-79.63900756835938,17.275001525878906,16.34800148010254
1787735946036795400,15.71879541015625,-80.8060073852539,17.93000030517578,17.06800079345703
1787735946053254000,15.73525390625,-79.42100524902344,18.251001358032227,17.171001434326172
1787735946068831200,15.750831298828125,-78.87300109863281,18.582000732421875,17.98900032043457
1787735946084909000,15.766908935546875,-81.66600036621094,18.144001007080078,16.970001220703125
1787735946100745000,15.782744873046875,-79.75100708007812,19.001001358032227,17.178001403808594
1787735946116765700,15.798765625,-79.38700103759766,18.2710018157959,18.700000762939453
1787735946133194500,15.815194580078124,-81.45500183105469,18.034000396728516,16.76500129699707
1787735946148827600,15.83082763671875,-80.90300750732422,17.828001022338867,17.475000381469727
1787735946164690400,15.8466904296875,-78.24100494384766,19.33300018310547,18.09600067138672
1787735946180704300,15.862704345703126,-80.16700744628906,17.496000289916992,16.75800132751465
1787735946196756000,15.878755859375,-79.16900634765625,18.27400016784668,18.90300178527832
1787735946213161700,15.89516162109375,-79.77000427246094,19.20600128173828,16.46700096130371
1787735946228765400,15.910765380859376,-80.03400421142578,17.619001388549805,17.98200035095215
1787735946244684300,15.926684326171875,-78.97500610351562,18.694000244140625,18.295000076293945
1787735946260716800,15.942716796875,-79.74100494384766,18.900001525878906,17.58500099182129
1787735946276762600,15.9587626953125,-79.95100402832031,18.361000061035156,17.37700080871582
1787735946293253000,15.975253173828126,-80.5770034790039,18.588001251220703,18.19500160217285
1787735946308842000,15.990842041015625,-80.50700378417969,19.75400161743164,17.288000106811523
1787735946324829200,16.0068291015625,-80.58300018310547,17.71900177001953,17.37200164794922
1787735946341311200,16.023311279296873,-78.97200012207031,18.479000091552734,18.293001174926758
1787735946356843000,16.038843017578124,-81.36400604248047,19.321001052856445,16.878000259399414
1787735946373349600,16.055349609375,-80.34700012207031,19.030000686645508,19.21700096130371
1787735946389014300,16.07101416015625,-79.36100006103516,16.233001708984375,18.580001831054688
1787735946405300700,16.08730078125,-80.4590072631836,16.64900016784668,17.464000701904297
1787735946420888600,16.102888671875,-81.10200500488281,18.270000457763672,18.3960018157959
1787735946436986600,16.118986572265626,-80.54600524902344,16.661001205444336,18.381000518798828
1787735946453436200,16.135436279296876,-79.47600555419922,17.30900001525879,18.895000457763672
1787735946469037800,16.151037841796875,-80.23900604248047,16.328001022338867,17.56300163269043
1787735946493888000,16.175887939453126,-79.09300231933594,17.39000129699707,16.96000099182129
1787735946508948000,16.190947998046877,-79.5050048828125,18.913000106811523,18.604000091552734
1787735946524974600,16.206974609375,-78.62000274658203,17.201000213623047,18.893001556396484
1787735946540955000,16.222954833984375,-79.79300689697266,16.44700050354004,18.48000144958496
1787735946556972300,16.23897216796875,-81.72400665283203,17.417001724243164,18.69500160217285
1787735946573428200,16.25542822265625,-78.95700073242188,16.759000778198242,17.871000289916992
1787735946588920600,16.270920654296877,-81.60600280761719,17.424001693725586,19.20400047302246
1787735946613888500,16.295888427734376,-82.031005859375,17.642000198364258,19.410001754760742
1787735946629002000,16.311001953125,-79.45800018310547,17.536001205444336,19.814001083374023
1787735946645097500,16.327097412109374,-80.41800689697266,18.07900047302246,20.227001190185547
1787735946660926000,16.342926025390625,-80.6300048828125,18.18800163269043,20.330001831054688
1787735946677001000,16.3590009765625,-78.64700317382812,18.157001495361328,18.290000915527344
1787735946693363200,16.37536328125,-79.677001953125,17.42500114440918,19.507001876831055
1787735946708992500,16.390992431640626,-80.26000213623047,18.69300079345703,18.093000411987305
1787735946724839000,16.4068388671875,-78.53400421142578,18.701000213623047,18.9060001373291
1787735946740829000,16.422828857421877,-79.91800689697266,19.246000289916992,19.422000885009766
1787735946756977000,16.438976806640625,-77.02400207519531,17.086999893188477,18.584001541137695
1787735946773347000,16.45534716796875,-77.4260025024414,17.10300064086914,19.705001831054688
1787735946789005800,16.471005859375,-77.77800750732422,18.597000122070312,19.21000099182129
1787735946804841500,16.486841552734376,-79.1310043334961,17.21500015258789,19.91200065612793
1787735946820828400,16.502828369140627,-77.32100677490234,16.237001419067383,19.086000442504883
1787735946836990700,16.51899072265625,-76.81600189208984,17.19099998474121,18.381000518798828
1787735946853760300,16.53576025390625,-77.25,17.18800163269043,18.076000213623047
1787735946868871400,16.550871337890626,-80.5510025024414,17.523000717163086,18.694000244140625
1787735946884801800,16.5668017578125,-77.65299987792969,16.770999908447266,18.88800048828125
1787735946900824800,16.582824951171876,-76.6810073852539,17.96500015258789,20.1200008392334
1787735946924855300,16.606855224609376,-79.0580062866211,17.519001007080078,18.591001510620117
1787735946940831700,16.622831787109376,-78.5300064086914,17.623001098632812,18.387001037597656
1787735946964847000,16.64684716796875,-77.85200500488281,17.536001205444336,20.01500129699707
1787735946980752100,16.662752197265625,-79.1510009765625,16.663000106811523,18.685001373291016
1787735946996792000,16.6787919921875,-80.12800598144531,16.979000091552734,18.18000030517578
1787735947013205200,16.695205322265625,-79.25700378417969,17.420000076293945,19.201000213623047
1787735947044781600,16.726781494140624,-81.65300750732422,18.04400062561035,17.47800064086914
1787735947060892200,16.74289208984375,-83.02200317382812,18.59800148010254,18.707000732421875
1787735947076746500,16.75874658203125,-85.03800201416016,16.556001663208008,17.979000091552734
1787735947093206300,16.775206298828124,-84.76300048828125,18.041000366210938,16.871000289916992
1787735947108757000,16.790757080078127,-85.8060073852539,17.409000396728516,17.579999923706055
1787735947124698000,16.806697998046875,-86.66300201416016,15.78700065612793,16.446001052856445
1787735947140686800,16.822686767578126,-89.22300720214844,16.766000747680664,17.171001434326172
1787735947157230000,16.83922998046875,-87.53500366210938,16.102001190185547,15.838000297546387
1787735947173151200,16.855151123046873,-88.75200653076172,17.808000564575195,15.040000915527344
1787735947188698000,16.870697998046875,-90.04100799560547,17.69700050354004,14.633000373840332
1787735947204897800,16.886897705078123,-89.4010009765625,17.26300048828125,14.32300090789795
1787735947220689200,16.902689208984373,-90.34500122070312,18.032001495361328,15.554000854492188
1787735947236650500,16.918650390625,-89.71000671386719,17.81100082397461,15.143000602722168
1787735947253112600,16.935112548828126,-93.0570068359375,18.658000946044922,14.034000396728516
1787735947276696600,16.958696533203124,-94.43900299072266,17.908000946044922,13.826000213623047
1787735947293192000,16.97519189453125,-94.15800476074219,18.099000930786133,12.197000503540039
1787735947308593000,16.990593017578124,-94.62200164794922,17.10500144958496,9.94800090789795
1787735947324697300,17.006697265625,-96.21700286865234,17.00400161743164,10.153000831604004
1787735947340700200,17.0227001953125,-97.53800201416016,17.738000869750977,8.837000846862793
1787735947356750300,17.038750244140626,-99.46400451660156,16.334001541137695,7.808000564575195
1787735947373186800,17.055186767578125,-99.1760025024414,16.854000091552734,6.692000389099121
1787735947388774000,17.07077392578125,-99.84300231933594,16.623001098632812,5.366000175476074
1787735947404739300,17.0867392578125,-97.9330062866211,16.505001068115234,4.752000331878662
1787735947420725500,17.1027255859375,-99.33100128173828,15.420001029968262,3.623000144958496
1787735947436990500,17.118990478515624,-98.69300842285156,14.769001007080078,3.1080000400543213
1787735947453482800,17.135482666015626,-100.11900329589844,15.07300090789795,1.5840001106262207
1787735947468902400,17.15090234375,-99.37300109863281,14.314001083374023,1.0670000314712524
1787735947484777500,17.166777587890625,-99.93800354003906,14.945000648498535,0.055000003427267075
1787735947508785200,17.19078515625,-100.9000015258789,14.72900104522705,-0.14900000393390656
1787735947524708600,17.20670849609375,-100.64300537109375,15.01400089263916,-2.7950000762939453
1787735947540707800,17.222707763671874,-101.91100311279297,13.188000679016113,-3.319000244140625
1787735947556809500,17.2388095703125,-101.17100524902344,15.559000968933105,-2.1780002117156982
1787735947573147400,17.2551474609375,-102.23600769042969,12.861001014709473,-3.7290000915527344
1787735947588721200,17.27072119140625,-102.08700561523438,15.0910005569458,-5.237000465393066
1787735947604665600,17.28666552734375,-98.09100341796875,13.27500057220459,-4.3420000076293945
1787735947620690200,17.302690185546876,-101.28600311279297,13.826000213623047,-3.620000123977661
1787735947636730600,17.318730712890623,-100.87100219726562,12.41200065612793,-5.059000015258789
1787735947653187800,17.335187744140626,-100.77200317382812,14.137001037597656,-4.331000328063965
1787735947669205800,17.351205810546876,-100.2020034790039,12.969000816345215,-3.4250001907348633
1787735947684665600,17.36666552734375,-99.14700317382812,12.959000587463379,-4.038000106811523
1787735947700638000,17.382637939453126,-100.6510009765625,13.605000495910645,-4.03000020980835
1787735947716702000,17.398701904296875,-99.91400146484375,12.192000389099121,-5.368000030517578
1787735947733153300,17.4151533203125,-101.19200134277344,12.953001022338867,-4.748000144958496
1787735947748771800,17.430771728515627,-100.02300262451172,13.056000709533691,-4.952000141143799
1787735947764704000,17.4467041015625,-101.70600128173828,12.533000946044922,-4.140000343322754
1787735947780653600,17.462653564453124,-99.37800598144531,12.517000198364258,-5.060000419616699
1787735947796760800,17.4787607421875,-99.84300231933594,12.170001029968262,-6.998000144958496
1787735947813180400,17.495180419921876,-98.4280014038086,11.53600025177002,-6.190000057220459
1787735947828875500,17.51087548828125,-100.36400604248047,11.855000495910645,-6.592000484466553
1787735947844677400,17.526677490234373,-100.50700378417969,13.671000480651855,-7.086000442504883
1787735947860736500,17.542736572265625,-100.4780044555664,12.391000747680664,-6.588000297546387
1787735947884830200,17.566830322265623,-101.60100555419922,12.792000770568848,-8.824000358581543
1787735947900618200,17.5826181640625,-102.12400817871094,12.1510009765625,-8.72700023651123
1787735947916630000,17.598630126953125,-99.99100494384766,12.68600082397461,-8.521000862121582
1787735947940581000,17.6225810546875,-99.906005859375,13.429000854492188,-9.02400016784668
1787735947956636000,17.638635986328126,-100.1290054321289,14.07300090789795,-9.018000602722168
1787735947973533200,17.655533203125,-99.97300720214844,11.184000968933105,-8.636000633239746
1787735947988684500,17.6706845703125,-101.18700408935547,13.431000709533691,-9.022000312805176
1787735948004852000,17.68685205078125,-102.89400482177734,12.78700065612793,-9.331000328063965
1787735948020573700,17.70257373046875,-100.7750015258789,12.99000072479248,-9.944000244140625
1787735948036707600,17.71870751953125,-100.7760009765625,12.881000518798828,-10.046000480651855
1787735948053132300,17.73513232421875,-100.11200714111328,12.245000839233398,-9.442000389099121
1787735948068626400,17.75062646484375,-99.28300476074219,12.87700080871582,-10.15000057220459
1787735948084906000,17.766906005859376,-100.99400329589844,13.094000816345215,-10.146000862121582
1787735948100714000,17.7827138671875,-99.29900360107422,11.571000099182129,-11.690000534057617
1787735948116630000,17.798630126953125,-100.48400115966797,13.511000633239746,-10.958000183105469
1787735948133120000,17.8151201171875,-99.97000122070312,12.742000579833984,-12.290000915527344
1787735948148793000,17.83079296875,-101.35000610351562,13.181000709533691,-11.67300033569336
1787735948164696000,17.846696044921874,-99.3080062866211,13.18600082397461,-11.064000129699707
1787735948180629800,17.862629638671876,-101.44000244140625,12.760000228881836,-11.167000770568848
1787735948196635600,17.8786357421875,-101.13900756835938,13.504000663757324,-11.568000793457031
1787735948213090000,17.895090087890626,-102.62500762939453,12.755001068115234,-11.675000190734863
1787735948229327600,17.91132763671875,-101.50300598144531,13.910000801086426,-13.296000480651855
1787735948244662500,17.92666259765625,-100.42400360107422,14.23900032043457,-12.581000328063965
1787735948260630300,17.94263037109375,-103.42400360107422,15.643000602722168,-12.158000946044922
1787735948276660200,17.95866015625,-101.68600463867188,12.52400016784668,-12.79900074005127
1787735948293193200,17.975193115234376,-101.17300415039062,13.159000396728516,-13.303000450134277
1787735948308712000,17.9907119140625,-102.3330078125,13.278000831604004,-12.588000297546387
1787735948324918500,18.00691845703125,-100.70000457763672,13.986001014709473,-15.53700065612793
1787735948340712700,18.022712646484376,-101.62100219726562,14.552000999450684,-13.392000198364258
1787735948356898800,18.03889892578125,-101.00700378417969,12.806000709533691,-15.649001121520996
1787735948373318000,18.05531787109375,-100.67100524902344,13.355000495910645,-14.62600040435791
1787735948388808000,18.070807861328124,-100.6780014038086,14.324000358581543,-14.312000274658203
1787735948413313300,18.095313232421876,-100.47300720214844,13.345000267028809,-15.340001106262207
1787735948428721200,18.11072119140625,-101.73400115966797,12.819000244140625,-14.732000350952148
1787735948444710400,18.12671044921875,-99.89000701904297,13.050000190734863,-13.306000709533691
1787735948460768500,18.1427685546875,-101.05400848388672,13.27400016784668,-12.691000938415527
1787735948476684500,18.1586845703125,-100.87300109863281,13.362000465393066,-14.117000579833984
1787735948493110300,18.1751103515625,-100.3280029296875,12.180000305175781,-14.332000732421875
1787735948516754400,18.19875439453125,-99.79100799560547,12.937000274658203,-13.714000701904297
1787735948533080600,18.21508056640625,-102.24600219726562,12.941000938415527,-13.711000442504883
1787735948548646400,18.230646484375,-101.94200134277344,12.282000541687012,-14.838000297546387
1787735948564712700,18.246712646484376,-101.79400634765625,12.415000915527344,-12.9010009765625
1787735948580575200,18.2625751953125,-102.54500579833984,13.171000480651855,-12.588000297546387
1787735948596674000,18.278674072265623,-101.3030014038086,14.55000114440918,-13.494000434875488
1787735948613148700,18.295148681640626,-103.78800201416016,12.54800033569336,-11.268000602722168
1787735948628773600,18.310773681640626,-103.36400604248047,13.301000595092773,-10.956000328063965
1787735948644878300,18.32687841796875,-103.09900665283203,13.657000541687012,-8.407000541687012
1787735948660620800,18.342620849609375,-103.28800201416016,15.509000778198242,-6.14900016784668
1787735948676965000,18.358965087890624,-103.66900634765625,14.997000694274902,-4.421000003814697
1787735948693116000,18.375115966796876,-102.31900787353516,15.793001174926758,-0.8510000109672546
1787735948716780800,18.39878076171875,-103.14600372314453,18.08100128173828,1.818000078201294
1787735948733135400,18.41513525390625,-101.62700653076172,18.95800018310547,3.454000234603882
1787735948748761300,18.43076123046875,-100.28800201416016,16.937000274658203,4.759000301361084
1787735948764703200,18.446703125,-98.99900817871094,17.37200164794922,5.372000217437744
1787735948788668700,18.470668701171874,-99.69700622558594,17.94300079345703,7.925000190734863
1787735948804887800,18.4868876953125,-96.24100494384766,17.20600128173828,9.238000869750977
1787735948820552700,18.502552734375,-96.677001953125,16.87700080871582,8.624000549316406
1787735948836665300,18.518665283203124,-95.37300109863281,16.88800048828125,9.642000198364258
1787735948853059600,18.5350595703125,-97.49500274658203,15.278000831604004,9.223000526428223
1787735948868668200,18.550668212890624,-94.1810073852539,14.62700080871582,9.009000778198242
1787735948884624100,18.5666240234375,-93.85600280761719,16.46700096130371,10.349000930786133
1787735948900610600,18.582610595703127,-93.07000732421875,15.949000358581543,11.769001007080078
1787735948916682800,18.598682861328125,-90.86300659179688,17.32900047302246,11.066000938415527
1787735948933450800,18.61545068359375,-92.75100708007812,17.027999877929688,12.390000343322754
1787735948948847900,18.630847900390624,-91.98800659179688,17.577001571655273,13.41200065612793
1787735948964567300,18.6465673828125,-91.84300231933594,18.248001098632812,15.557001113891602
1787735948980497200,18.6624970703125,-89.92200469970703,19.001001358032227,15.969000816345215
1787735948996628700,18.678628662109375,-91.32100677490234,18.7810001373291,15.358000755310059
1787735949013132800,18.6951328125,-87.86900329589844,18.689001083374023,16.880001068115234
1787735949028816400,18.71081640625,-88.23900604248047,16.562000274658203,18.08500099182129
1787735949044994000,18.726994140625,-86.031005859375,18.69900131225586,17.897001266479492
1787735949060564200,18.742564208984376,-85.90800476074219,17.196001052856445,17.68000030517578
1787735949076546800,18.758546875,-83.85900115966797,18.069000244140625,19.111000061035156
1787735949092978000,18.77497802734375,-84.83200073242188,18.064001083374023,18.60300064086914
1787735949108555800,18.7905556640625,-82.26100158691406,19.79400062561035,20.041000366210938
1787735949124820700,18.80682080078125,-81.82300567626953,18.827001571655273,19.93000030517578
1787735949140499700,18.822499755859376,-81.69000244140625,19.384000778198242,21.463001251220703
1787735949156575000,18.838574951171875,-79.98700714111328,19.161001205444336,21.051000595092773
1787735949173089000,18.855089111328127,-77.65400695800781,19.796001434326172,20.748001098632812
1787735949188603100,18.87060302734375,-78.3740005493164,18.841001510620117,21.352001190185547
1787735949213254700,18.895254638671876,-77.40400695800781,18.30500030517578,21.448001861572266
1787735949228640500,18.910640625,-78.56800079345703,18.204999923706055,21.856000900268555
1787735949244574000,18.926573974609376,-77.19900512695312,18.623001098632812,21.24700164794922
1787735949260610000,18.942610107421874,-77.29200744628906,19.065000534057617,22.167001724243164
1787735949276700400,18.958700439453125,-75.35600280761719,18.097000122070312,22.1560001373291
1787735949293156400,18.97515625,-75.89300537109375,17.66400146484375,21.746000289916992
1787735949308758000,18.990758056640626,-74.91600036621094,17.996000289916992,22.66400146484375
1787735949324688400,19.0066884765625,-74.72900390625,17.763999938964844,21.338001251220703
1787735949340695000,19.022695068359376,-73.63899993896484,18.424001693725586,22.768001556396484
1787735949356802600,19.038802490234374,-73.96300506591797,17.881999969482422,22.255001068115234
1787735949373267000,19.055266845703127,-72.03400421142578,17.88300132751465,22.558000564575195
1787735949388923600,19.070923583984374,-73.08700561523438,16.16400146484375,22.136001586914062
1787735949405557500,19.0875576171875,-71.281005859375,17.993000030517578,22.863000869750977
1787735949420746500,19.10274658203125,-73.22600555419922,17.658000946044922,21.64000129699707
1787735949436853000,19.11885302734375,-73.11100006103516,16.582000732421875,21.325000762939453
1787735949453625600,19.13562548828125,-70.22000122070312,17.123001098632812,22.03900146484375
1787735949468817400,19.1508173828125,-73.74700164794922,16.3700008392334,21.426000595092773
1787735949493256000,19.175255859375,-70.84600067138672,16.701000213623047,22.444000244140625
1787735949508804900,19.190804931640624,-70.21100616455078,16.48000144958496,22.034000396728516
1787735949524725500,19.2067255859375,-70.93500518798828,15.631000518798828,22.536001205444336
1787735949540982800,19.222982666015625,-70.82200622558594,16.499000549316406,23.35900115966797
1787735949557203500,19.239203369140625,-72.01300048828125,16.16699981689453,22.441001892089844
1787735949573170400,19.25517041015625,-71.46400451660156,16.283000946044922,23.154001235961914
1787735949588771300,19.270771240234374,-71.33300018310547,15.000000953674316,23.448001861572266
1787735949604649700,19.286649658203125,-70.50700378417969,16.387001037597656,23.052001953125
1787735949620748800,19.302748779296873,-70.65299987792969,18.201000213623047,22.457000732421875
1787735949636758800,19.3187587890625,-68.79800415039062,16.493000030517578,23.15300178527832
1787735949653204200,19.335204345703126,-70.81500244140625,16.503000259399414,23.665000915527344
1787735949668760800,19.3507607421875,-68.49700164794922,15.61600112915039,21.718000411987305
1787735949684643300,19.366643310546873,-67.07400512695312,14.230000495910645,22.417001724243164
1787735949700650200,19.382650146484377,-73.08900451660156,17.136001586914062,22.654001235961914
1787735949716704300,19.398704345703123,-70.51900482177734,15.947000503540039,22.233001708984375
1787735949733140700,19.415140625,-72.03700256347656,17.124000549316406,21.940000534057617
1787735949748720000,19.43072021484375,-74.59200286865234,17.025001525878906,22.248001098632812
1787735949764680700,19.4466806640625,-71.25,16.71500015258789,23.463001251220703
1787735949780684000,19.46268408203125,-72.34100341796875,17.243000030517578,22.756000518798828
1787735949796704000,19.4787041015625,-71.91699981689453,17.13300132751465,22.551000595092773
1787735949813568000,19.495568115234374,-70.6290054321289,17.999000549316406,23.37200164794922
1787735949828734500,19.510734375,-70.59600067138672,17.371000289916992,24.487001419067383
1787735949844630300,19.52663037109375,-70.72500610351562,17.033000946044922,23.262001037597656
1787735949861100800,19.543100830078124,-72.00300598144531,17.145000457763672,23.468000411987305
1787735949876671200,19.558671142578124,-71.24700164794922,18.446001052856445,24.70100212097168
1787735949893119200,19.575119140625,-71.88500213623047,16.612001419067383,23.667001724243164
1787735949908759300,19.59075927734375,-71.81600189208984,16.588001251220703,21.935001373291016
1787735949924617500,19.606617431640625,-72.76700592041016,17.461000442504883,22.96200180053711
1787735949940853800,19.622853759765626,-71.91600036621094,17.24100112915039,22.654001235961914
1787735949956741000,19.6387412109375,-71.48100280761719,18.110000610351562,23.578001022338867
1787735949973055000,19.655054931640624,-72.5510025024414,18.110000610351562,23.477001190185547
1787735949996659700,19.67865966796875,-70.92900085449219,16.822999954223633,23.566001892089844
1787735950013139700,19.6951396484375,-72.46400451660156,17.23400115966797,22.043001174926758
1787735950028718800,19.71071875,-72.74600219726562,16.825000762939453,23.466001510620117
1787735950044525000,19.726525146484374,-72.96200561523438,16.608001708984375,23.261001586914062
1787735950060575000,19.742574951171875,-72.22700500488281,17.24700164794922,23.062000274658203
1787735950076597000,19.758596923828126,-71.91500091552734,17.134000778198242,22.65300178527832
1787735950093054500,19.775054443359377,-72.97300720214844,17.46500015258789,23.268001556396484
1787735950108586800,19.790586669921876,-71.9330062866211,17.44700050354004,22.04400062561035
1787735950124592400,19.80659228515625,-72.03900146484375,17.772001266479492,22.251001358032227
1787735950140655600,19.822655517578124,-69.54500579833984,17.142000198364258,23.567001342773438
1787735950164757800,19.8467578125,-68.92100524902344,18.32000160217285,23.576000213623047
1787735950180710100,19.862710205078123,-70.73600006103516,18.322999954223633,23.57900047302246
1787735950196824600,19.878824462890623,-68.69499969482422,17.24700164794922,23.465002059936523
1787735950213217500,19.895217529296875,-68.06800079345703,17.77800178527832,23.163002014160156
1787735950228784600,19.91078466796875,-69.1500015258789,17.663000106811523,22.450000762939453
1787735950244809200,19.926809326171874,-70.94000244140625,15.952000617980957,22.53900146484375
1787735950260756000,19.942755859375,-69.79900360107422,18.740001678466797,22.766000747680664
1787735950276856000,19.95885595703125,-71.28400421142578,18.207000732421875,22.865001678466797
1787735950293249300,19.975249267578125,-69.35100555419922,17.238000869750977,22.75200080871582
1787735950308831000,19.9908310546875,-69.281005859375,17.541000366210938,21.32900047302246
1787735950324752400,20.00675244140625,-69.35200500488281,17.45400047302246,22.856000900268555
1787735950340751000,20.022751220703125,-69.5060043334961,18.07400131225586,21.130001068115234
1787735950356806400,20.038806396484375,-68.10600280761719,17.863000869750977,21.534000396728516
1787735950373669600,20.055669677734375,-67.6520004272461,17.554000854492188,22.549001693725586
1787735950388809500,20.0708095703125,-69.9280014038086,18.510000228881836,21.644001007080078
1787735950413237500,20.095237548828123,-71.08399963378906,18.19900131225586,22.25400161743164
1787735950428675000,20.110675048828124,-68.70800018310547,16.69900131225586,22.543001174926758
1787735950460721200,20.14272119140625,-70.76300048828125,17.658000946044922,21.94300079345703
1787735950476751000,20.158751220703124,-71.19800567626953,18.19500160217285,21.948001861572266
1787735950493627400,20.17562744140625,-70.66800689697266,16.354000091552734,20.60700035095215
1787735950508821000,20.190821044921876,-68.0009994506836,18.29400062561035,21.74100112915039
1787735950525139000,20.207138916015627,-72.19700622558594,18.282001495361328,20.32000160217285
1787735950540693800,20.22269384765625,-71.09500122070312,17.328001022338867,21.227001190185547
1787735950556770600,20.2387705078125,-72.12800598144531,16.91900062561035,22.549001693725586
1787735950573083600,20.255083740234376,-70.45600128173828,18.731000900268555,22.054000854492188
1787735950588618000,20.270617919921875,-71.51800537109375,17.33100128173828,21.4320011138916
1787735950604647000,20.28664697265625,-69.93000030517578,16.34800148010254,20.19900131225586
1787735950620628700,20.302628662109374,-69.07200622558594,17.10500144958496,20.815000534057617
1787735950636682500,20.3186826171875,-71.22900390625,17.636001586914062,20.21200180053711
1787735950660605700,20.342605712890624,-70.11800384521484,16.363000869750977,21.319000244140625
1787735950676637000,20.358636962890625,-72.38300323486328,16.137001037597656,20.200000762939453
1787735950693075500,20.375075439453123,-72.05500030517578,16.78900146484375,20.918001174926758
1787735950708606700,20.390606689453126,-72.38200378417969,17.110000610351562,20.82000160217285
1787735950724598800,20.406598876953126,-71.35900115966797,19.0260009765625,20.020000457763672
1787735950740591000,20.422591064453126,-71.94700622558594,17.979000091552734,21.744001388549805
1787735950756675300,20.43867529296875,-70.7750015258789,19.48900032043457,22.57000160217285
1787735950773062100,20.455062255859374,-70.37800598144531,17.740001678466797,20.110000610351562
1787735950788568300,20.470568359375,-69.83300018310547,18.07000160217285,20.825000762939453
1787735950804543500,20.48654345703125,-71.34100341796875,19.68600082397461,21.249000549316406
1787735950820488700,20.50248876953125,-71.53600311279297,17.96900177001953,21.030000686645508
1787735950836627500,20.51862744140625,-70.16500091552734,18.38800048828125,20.522001266479492
1787735950852983800,20.53498388671875,-73.1510009765625,18.93600082397461,21.040000915527344
1787735950868522200,20.550522216796875,-73.66500091552734,18.192001342773438,21.442001342773438
1787735950884588000,20.566588134765624,-71.83700561523438,18.413000106811523,22.155000686645508
1787735950900480000,20.58247998046875,-72.4070053100586,19.365001678466797,21.145000457763672
1787735950916726800,20.598726806640624,-72.32300567626953,20.21500015258789,20.643001556396484
1787735950933390000,20.61539013671875,-71.56500244140625,18.924001693725586,20.325000762939453
1787735950948492800,20.630492919921874,-72.85600280761719,20.10900115966797,20.643001556396484
1787735950964688600,20.646688720703125,-71.79500579833984,20.10300064086914,20.336000442504883
1787735950980461000,20.6624609375,-70.48600006103516,18.280000686645508,20.420000076293945
1787735950996530200,20.6785302734375,-72.29700469970703,17.637001037597656,20.213001251220703
1787735951012974000,20.69497412109375,-69.52200317382812,18.388999938964844,20.624000549316406
1787735951044494800,20.726494873046875,-72.54700469970703,18.1560001373291,18.894001007080078
1787735951060600300,20.742600341796877,-71.85700225830078,17.75200080871582,20.825000762939453
1787735951076582700,20.758582763671875,-72.33200073242188,19.237001419067383,19.61600112915039
1787735951093009700,20.775009765625,-71.57300567626953,18.703001022338867,19.814001083374023
1787735951108539600,20.79053955078125,-72.45100402832031,18.797000885009766,18.797000885009766
1787735951124558300,20.806558349609375,-71.14300537109375,18.163000106811523,19.60500144958496
1787735951140504800,20.8225048828125,-72.55500030517578,18.259000778198242,18.589000701904297
1787735951156757000,20.838757080078125,-72.46100616455078,19.6560001373291,18.907001495361328
1787735951172982300,20.854982177734374,-72.4520034790039,18.365001678466797,18.488000869750977
1787735951189047800,20.8710478515625,-75.23500061035156,17.06800079345703,17.35900115966797
1787735951204550400,20.88655029296875,-72.77300262451172,17.608001708984375,17.972000122070312
1787735951220562200,20.902562255859376,-74.34700012207031,17.520000457763672,19.196001052856445
1787735951236619300,20.918619384765623,-75.43600463867188,17.292001724243164,18.075000762939453
1787735951253013800,20.935013671875,-75.23100280761719,18.58300018310547,18.493000030517578
1787735951268579300,20.950579345703126,-77.57100677490234,17.404001235961914,18.18000030517578
1787735951284549600,20.966549560546873,-80.23900604248047,16.977001190185547,17.976001739501953
1787735951300531200,20.98253125,-81.2020034790039,16.652999877929688,17.66900062561035
1787735951316587300,20.998587158203126,-81.48800659179688,17.582000732421875,15.029000282287598
1787735951341044000,21.0230439453125,-82.85100555419922,16.302000045776367,15.325000762939453
1787735951356915000,21.0389150390625,-83.83300018310547,16.291000366210938,14.409000396728516
1787735951373085000,21.0550849609375,-86.11600494384766,17.783000946044922,13.509000778198242
1787735951388680000,21.070679931640626,-85.34600067138672,18.444000244140625,14.940000534057617
1787735951404606000,21.08660595703125,-88.78800201416016,18.759000778198242,14.030000686645508
1787735951420568300,21.102568359375,-88.2750015258789,18.637001037597656,13.010000228881836
1787735951445016800,21.127016845703125,-89.67900085449219,18.845001220703125,12.402000427246094
1787735951460496400,21.142496337890623,-89.33200073242188,19.985000610351562,9.559000015258789
1787735951476607500,21.158607421875,-90.57500457763672,19.362001419067383,10.880000114440918
1787735951492988700,21.17498876953125,-91.31300354003906,18.18000030517578,10.565000534057617
1787735951508552700,21.190552734375,-91.65200805664062,18.06100082397461,9.647000312805176
1787735951524477200,21.206477294921875,-91.98600769042969,17.729000091552734,8.830000877380371
1787735951540432000,21.222431884765626,-95.85800170898438,18.150001525878906,7.820000171661377
1787735951556502500,21.23850244140625,-94.82000732421875,17.8070011138916,6.2870001792907715
1787735951572944100,21.254944091796876,-95.43800354003906,15.984001159667969,6.170000076293945
1787735951588474600,21.270474609375,-96.11200714111328,16.398000717163086,4.952000141143799
1787735951604455700,21.28645556640625,-95.85700225830078,17.546001434326172,2.7210001945495605
1787735951620395800,21.302395751953124,-94.47400665283203,17.756999969482422,2.619000196456909
1787735951636665300,21.318665283203124,-94.24300384521484,15.282000541687012,1.8840000629425049
1787735951652880400,21.33488037109375,-95.90900421142578,16.650001525878906,-0.1380000114440918
1787735951668453000,21.350453125,-97.17200469970703,15.36600112915039,-0.14800000190734863
1787735951684379600,21.366379638671877,-95.82100677490234,15.882000923156738,-1.4690001010894775
1787735951700818000,21.38281787109375,-97.50800323486328,15.681000709533691,-0.6540000438690186
1787735951716527600,21.398527587890626,-96.91100311279297,14.682001113891602,-3.2100000381469727
1787735951732839400,21.41483935546875,-99.37600708007812,15.220000267028809,-3.30400013923645
1787735951748441600,21.430441650390627,-96.61200714111328,13.91200065612793,-4.644000053405762
1787735951764350700,21.446350830078124,-98.94000244140625,13.063000679016113,-4.241000175476074
1787735951780348000,21.462347900390625,-96.93600463867188,14.666000366210938,-4.331000328063965
1787735951796465200,21.478465087890626,-98.37400817871094,15.50300121307373,-6.053000450134277
1787735951813010000,21.495010009765625,-98.34800720214844,14.438000679016113,-5.554000377655029
1787735951828393500,21.5103935546875,-96.97300720214844,13.779000282287598,-6.580000400543213
1787735951844381000,21.526380859375,-96.66100311279297,13.233000755310059,-7.298000335693359
1787735951860346600,21.5423466796875,-96.51100158691406,14.49100112915039,-9.324000358581543
1787735951876402200,21.558402099609374,-97.02100372314453,14.723000526428223,-8.098999977111816
1787735951892834800,21.574834716796875,-98.51900482177734,14.291000366210938,-8.509000778198242
1787735951908372000,21.5903720703125,-97.68500518798828,15.142001152038574,-8.910000801086426
1787735951924324000,21.606323974609374,-98.01400756835938,14.597001075744629,-9.62700080871582
1787735951940280000,21.622280029296874,-96.72000122070312,14.819000244140625,-8.914000511169434
1787735951956361200,21.638361328125,-99.07300567626953,13.955000877380371,-9.632000923156738
1787735951972839000,21.6548388671875,-96.96400451660156,13.720000267028809,-10.961000442504883
1787735951988386800,21.67038671875,-99.8800048828125,14.461000442504883,-11.969000816345215
1787735952004802000,21.686802001953126,-96.50800323486328,11.683000564575195,-10.979000091552734
1787735952020360400,21.7023603515625,-98.47500610351562,13.60400104522705,-11.77500057220459
1787735952036430000,21.71843017578125,-98.43400573730469,14.861001014709473,-13.903000831604004
1787735952052899800,21.73489990234375,-98.302001953125,14.552000999450684,-12.98900032043457
1787735952068529700,21.75052978515625,-98.52400207519531,14.655000686645508,-13.293000221252441
1787735952084481800,21.766481689453126,-98.84300231933594,14.765000343322754,-13.190000534057617
1787735952100461000,21.7824609375,-96.49400329589844,14.761000633239746,-13.193000793457031
1787735952116503000,21.7985029296875,-99.46900177001953,14.99100112915039,-12.372000694274902
1787735952133051000,21.81505078125,-98.2080078125,16.814001083374023,-12.154000282287598
1787735952148552200,21.83055224609375,-98.18900299072266,16.393001556396484,-11.547000885009766
