time,seconds_elapsed,z,y,x
1787735930669561000,0.35156103515625,8.892065048217773,4.72376012802124,-0.17477671802043915
1787735930686125600,0.36812548828125,8.801085472106934,4.78122091293335,-0.24181437492370605
1787735930701688800,0.383688720703125,8.489839553833008,4.8051629066467285,-0.2849099934101105
1787735930726109700,0.408109619140625,8.705317497253418,4.948814868927002,-0.2059013396501541
1787735930741873400,0.423873291015625,8.33182144165039,5.032611846923828,-0.2537853717803955
1787735930757780000,0.439780029296875,7.6566572189331055,5.219359874725342,-0.2849099934101105
1787735930774090500,0.456090576171875,7.232883453369141,5.197812080383301,-0.5339069962501526
1787735930789665300,0.471665283203125,7.750030994415283,5.035006046295166,-0.730231523513794
1787735930806070800,0.48807080078125,8.607154846191406,5.1116204261779785,-0.5291185975074768
1787735930821576000,0.503575927734375,8.820239067077637,4.7405195236206055,-0.6631938815116882
1787735930837562000,0.51956201171875,9.059659004211426,4.886565685272217,-0.4884171485900879
1787735930853559600,0.5355595703125,9.011775016784668,4.809951305389404,0.2059013396501541
1787735930869608700,0.551608642578125,8.719682693481445,4.790797710418701,-0.8882488012313843
1787735930886062600,0.5680625,8.83699893951416,4.941632270812988,1.036689281463623
1787735930901566500,0.58356640625,9.224859237670898,4.982333660125732,0.6153098344802856
1787735930917575200,0.5995751953125,9.165003776550293,4.93923807144165,0.3280056416988373
1787735930934047700,0.6160478515625,8.927978515625,5.054159641265869,0.028730420395731926
1787735930949666800,0.631666748046875,8.506598472595215,5.1331682205200195,-0.08619125932455063
1787735930966047500,0.648047607421875,8.468291282653809,5.04218864440918,-0.08619125932455063
1787735930981642200,0.663642333984375,8.676587104797363,4.948814868927002,-0.05267243832349777
1787735930997579000,0.6795791015625,8.913613319396973,4.850652694702148,-0.05506663769483566
1787735931013659100,0.6956591796875,8.966285705566406,4.716577529907227,-0.18914192914962769
1787735931029660000,0.711659912109375,9.248801231384277,4.6040496826171875,-0.36152446269989014
1787735931046083000,0.7280830078125,9.457097053527832,4.527435302734375,-0.3687070608139038
1787735931061610000,0.74360986328125,9.50737476348877,4.486733913421631,-0.3471592366695404
1787735931077621000,0.75962109375,9.275136947631836,4.525041103363037,-0.4141969084739685
1787735931101696500,0.783696533203125,8.760383605957031,4.692635536193848,-0.5123591423034668
1787735931117670700,0.799670654296875,8.398859977722168,4.757278919219971,-0.5482721924781799
1787735931133675500,0.815675537109375,8.216899871826172,4.7620673179626465,-0.5961562395095825
1787735931149670000,0.831669921875,8.11634349822998,4.836287498474121,-0.646434485912323
1787735931166124800,0.848124755859375,7.936778545379639,4.886565685272217,-0.6607996821403503
1787735931181976800,0.863976806640625,7.929595947265625,4.963180065155029,-0.6033388376235962
1787735931197879300,0.87987939453125,8.123526573181152,4.946420669555664,-0.3734954595565796
1787735931213686300,0.895686279296875,8.382100105285645,4.903325080871582,-0.272938996553421
1787735931229767200,0.91176708984375,8.525752067565918,4.908113479614258,-0.3208230137825012
1787735931246198500,0.928198486328125,8.480262756347656,4.90571928024292,-0.3423708379268646
1787735931261849000,0.94384912109375,8.51138687133789,4.955997467041016,-0.304063618183136
1787735931277755100,0.959755126953125,8.597578048706055,5.006275653839111,-0.20350714027881622
1787735931293756200,0.975756103515625,8.580819129943848,4.9799394607543945,-0.304063618183136
1787735931309808000,0.99180810546875,8.523358345031738,5.039794445037842,-0.5003881454467773
1787735931326272000,1.00827197265625,8.305485725402832,5.066130638122559,-0.5817909836769104
1787735931342296600,1.024296630859375,8.068459510803223,5.070919036865234,-0.6607996821403503
1787735931357853200,1.039853271484375,7.951143741607666,5.063736438751221,-0.7374141216278076
1787735931373887700,1.0558876953125,7.85537576675415,5.051765441894531,-0.8140285611152649
1787735931390150700,1.072150634765625,7.951143741607666,5.066130638122559,-0.9074024558067322
1787735931406386700,1.08838671875,8.209717750549316,5.1116204261779785,-0.7948749661445618
1787735931421958100,1.103958251953125,8.516175270080566,5.073313236236572,-0.6177040338516235
1787735931437898500,1.1198984375,8.69334602355957,4.9583916664123535,-0.5410895943641663
1787735931453882600,1.135882568359375,8.643068313598633,4.879383087158203,-0.6368576288223267
1787735931469995000,1.1519951171875,8.755595207214355,4.8482584953308105,-0.8475474119186401
1787735931486394000,1.16839404296875,8.825027465820312,4.7620673179626465,-0.9097966551780701
1787735931501971700,1.1839716796875,8.860940933227539,4.675876140594482,-0.9193734526634216
1787735931526393600,1.2083935546875,8.925583839416504,4.642356872558594,-0.9648633003234863
1787735931541998600,1.22399853515625,9.004592895507812,4.630385875701904,-0.950498104095459
1787735931557951700,1.23995166015625,9.366117477416992,4.666299343109131,-0.9026140570640564
1787735931573926100,1.255926025390625,9.39245319366455,4.668693542480469,-0.7015010714530945
1787735931589980400,1.27198046875,9.253589630126953,4.661510944366455,-0.5722141861915588
1787735931606415000,1.2884150390625,9.0859956741333,4.742913722991943,-0.5219359993934631
1787735931621905700,1.30390576171875,8.916007041931152,4.879383087158203,-0.608127236366272
1787735931637956400,1.319956298828125,8.576030731201172,4.9583916664123535,-0.5793967843055725
1787735931654003500,1.33600341796875,8.422801971435547,5.015852451324463,-0.5650315880775452
1787735931670198300,1.3521982421875,8.4108304977417,4.994304656982422,-0.4118026793003082
1787735931686406400,1.368406494140625,8.49941635131836,4.917690277099609,-0.3447650372982025
1787735931701947600,1.38394775390625,8.643068313598633,4.821922302246094,-0.31364041566848755
1787735931717927000,1.399927001953125,8.904036521911621,4.7620673179626465,-0.40701428055763245
1787735931733922000,1.415922119140625,9.107542991638184,4.613626480102539,-0.47884035110473633
1787735931750380800,1.432380859375,9.196128845214844,4.49870491027832,-0.569819986820221
1787735931766387500,1.448387451171875,9.23443603515625,4.508281707763672,-0.730231523513794
1787735931789964500,1.471964599609375,8.913613319396973,4.623203277587891,-0.790086567401886
1787735931806348500,1.4883486328125,8.614337921142578,4.790797710418701,-0.7182605266571045
1787735931821932000,1.50393212890625,8.355764389038086,4.903325080871582,-0.6607996821403503
1787735931837838300,1.51983837890625,8.133103370666504,5.027823448181152,-0.5746083855628967
1787735931853878500,1.53587841796875,8.032546997070312,5.171475887298584,-0.48602294921875
1787735931869904100,1.551904052734375,7.94635534286499,5.130774021148682,-0.3878606855869293
1787735931886340000,1.568340087890625,7.994239330291748,5.183446884155273,-0.21547815203666687
1787735931902336500,1.58433642578125,7.975085735321045,5.238513469696045,-0.08619125932455063
1787735931917842400,1.599842529296875,8.125920295715332,5.142745018005371,-0.05985504388809204
1787735931933847800,1.615847900390625,8.427590370178223,5.058948040008545,-0.05985504388809204
1787735931949910800,1.631910888671875,8.947132110595703,4.987122058868408,-0.047884032130241394
1787735931966337800,1.648337890625,9.260771751403809,4.967968463897705,-0.1173158809542656
1787735931981923800,1.663923828125,9.44991397857666,4.994304656982422,-0.21547815203666687
1787735931997903600,1.679903564453125,9.35893440246582,5.125985622406006,-0.2059013396501541
1787735932021972000,1.703971923828125,8.769960403442383,5.274426460266113,-0.14604631066322327
1787735932037964500,1.719964599609375,8.394071578979492,5.2911858558654785,-0.2106897532939911
1787735932054466600,1.736466552734375,8.20492935180664,5.307945251464844,-0.3064578175544739
1787735932070238500,1.752238525390625,8.183381080627441,5.303156852722168,-0.33279404044151306
1787735932086496000,1.76849609375,8.10437297821045,5.303156852722168,-0.33279404044151306
1787735932110183200,1.79218310546875,8.063671112060547,5.355829238891602,-0.3519476354122162
1787735932126604000,1.80860400390625,8.034940719604492,5.317522048950195,-0.3663128614425659
1787735932142185200,1.824185302734375,8.307879447937012,5.2480902671813965,-0.30885201692581177
1787735932158667500,1.84066748046875,8.769960403442383,5.20978307723999,-0.17956513166427612
1787735932174262800,1.8562626953125,8.9064302444458,5.183446884155273,-0.047884032130241394
1787735932190325000,1.872324951171875,8.810662269592285,5.295974254608154,0.035913024097681046
1787735932206791700,1.888791748046875,8.683769226074219,5.415684223175049,0.23702596127986908
1787735932222481400,1.9044814453125,8.504204750061035,5.430049419403076,0.38307225704193115
1787735932238523000,1.92052294921875,8.33182144165039,5.4659624099731445,0.47884035110473633
1787735932254577200,1.9365771484375,8.130708694458008,5.449203014373779,0.5003881454467773
1787735932270748000,1.952747802734375,8.078036308288574,5.389348030090332,0.4620809257030487
1787735932287319000,1.969319091796875,8.125920295715332,5.365406036376953,0.44532153010368347
1787735932302995700,1.98499560546875,8.058882713317871,5.315127849578857,0.28969839215278625
1787735932318997800,2.000997802734375,7.977479934692383,5.272032260894775,0.08619125932455063
1787735932335135700,2.0171357421875,8.030152320861816,5.20978307723999,-0.028730420395731926
1787735932351099100,2.03309912109375,8.10437297821045,5.17626428604126,-0.1412578970193863
1787735932367506400,2.04950634765625,8.056488990783691,5.195417881011963,-0.24660277366638184
1787735932383130000,2.065130126953125,7.931990146636963,5.2265424728393555,-0.26336219906806946
1787735932399083500,2.08108349609375,7.905653953552246,5.212177276611328,-0.2346317619085312
1787735932431247600,2.11324755859375,7.910442352294922,5.262455463409424,-0.15562310814857483
1787735932447601000,2.129600830078125,8.030152320861816,5.298368453979492,-0.014365210197865963
1787735932463606300,2.145606201171875,8.17141056060791,5.293580055236816,0.21547815203666687
1787735932495107800,2.17710791015625,8.406042098999023,5.305551052093506,0.2585737705230713
1787735932511224300,2.193224365234375,8.525752067565918,5.360617637634277,0.2059013396501541
1787735932535352000,2.21735205078125,8.801085472106934,5.396530628204346,0.2561795711517334
1787735932551324700,2.23332470703125,8.858546257019043,5.453991413116455,0.2537853717803955
1787735932575284500,2.257284423828125,8.825027465820312,5.56173038482666,0.2585737705230713
1787735932591387100,2.27338720703125,8.604761123657227,5.614402770996094,0.2777273952960968
1787735932607790000,2.2897900390625,8.365341186523438,5.69580602645874,0.30885201692581177
1787735932623355600,2.305355712890625,8.101978302001953,5.750872611999512,0.33997663855552673
1787735932639310300,2.321310302734375,8.022970199584961,5.7341132164001465,0.35673606395721436
1787735932655321600,2.337321533203125,8.109161376953125,5.7556610107421875,0.3232172429561615
1787735932671389700,2.3533896484375,8.202534675598145,5.750872611999512,0.3687070608139038
1787735932687836400,2.36983642578125,8.166622161865234,5.688623428344727,0.37828385829925537
1787735932703512800,2.385512939453125,8.279149055480957,5.631162166595459,0.2992752194404602
1787735932719862800,2.40186279296875,8.425195693969727,5.506663799285889,0.33997663855552673
1787735932735392500,2.417392578125,8.38449478149414,5.4252610206604,0.3519476354122162
1787735932751460900,2.4334609375,8.219294548034668,5.418078422546387,0.2585737705230713
1787735932767844000,2.449843994140625,8.068459510803223,5.4228668212890625,0.17238251864910126
1787735932783527000,2.46552685546875,8.075642585754395,5.365406036376953,0.22026655077934265
1787735932799398700,2.481398681640625,8.078036308288574,5.363011837005615,0.28730419278144836
1787735932815487200,2.4974873046875,8.142680168151855,5.389348030090332,0.35434186458587646
1787735932831656200,2.51365625,8.197746276855469,5.4013190269470215,0.45250412821769714
1787735932848002600,2.53000244140625,8.427590370178223,5.403713226318359,0.6272808313369751
1787735932863802600,2.545802734375,8.540117263793945,5.365406036376953,0.7541735172271729
1787735932879743700,2.56174365234375,8.470685958862305,5.386953830718994,0.7254431247711182
1787735932895928800,2.5779287109375,8.327033042907715,5.509057998657227,0.6440402865409851
1787735932912133600,2.594133544921875,8.109161376953125,5.602431774139404,0.6416460275650024
1787735932928612000,2.610612060546875,7.9176249504089355,5.679046630859375,0.629675030708313
1787735932944236500,2.626236572265625,7.850587368011475,5.839457988739014,0.6943184733390808
1787735932968751900,2.650751953125,7.723694801330566,6.064512729644775,1.036689281463623
1787735932984258600,2.666258544921875,7.642292022705078,6.14831018447876,1.2330138683319092
1787735933000466700,2.682466796875,7.524975776672363,6.208165168762207,1.3287819623947144
1787735933016382700,2.6983828125,7.347805023193359,6.217741966247559,1.2856862545013428
1787735933032530000,2.714530029296875,7.359776020050049,6.248866558074951,1.137245774269104
1787735933049041400,2.73104150390625,7.400477409362793,6.224924564361572,0.9241618514060974
1787735933072792000,2.7547919921875,7.3693528175354,6.275202751159668,0.7182605266571045
1787735933089163500,2.77116357421875,7.287950038909912,6.294356346130371,0.7852981686592102
1787735933104780300,2.7867802734375,7.527369976043701,6.323086738586426,0.912190854549408
1787735933120762000,2.80276220703125,7.728483200073242,6.277596950531006,0.9768342971801758
1787735933136835300,2.81883544921875,7.747636795043945,6.253654956817627,1.0869675874710083
1787735933152908800,2.83490869140625,7.580042362213135,6.258443355560303,0.9911994934082031
1787735933169340400,2.85134033203125,7.402871608734131,6.382941722869873,0.8475474119186401
1787735933184936700,2.866936767578125,7.326257228851318,6.404489517211914,0.7541735172271729
1787735933200893700,2.882893798828125,7.15387487411499,6.382941722869873,0.7182605266571045
1787735933216977200,2.89897705078125,6.976703643798828,6.3949127197265625,0.7015010714530945
1787735933233119500,2.915119384765625,7.158663272857666,6.392518520355225,0.5961562395095825
1787735933249662200,2.931662109375,7.402871608734131,6.358999729156494,0.6607996821403503
1787735933265307400,2.947307373046875,7.587224960327148,6.282385349273682,0.6775590777397156
1787735933281229800,2.963229736328125,7.572859764099121,6.344634532928467,0.6440402865409851
1787735933297243000,2.979242919921875,7.376535415649414,6.418854713439941,0.6153098344802856
1787735933313450800,2.99545068359375,7.046135425567627,6.449979305267334,0.507570743560791
1787735933329789400,3.01178955078125,6.983886241912842,6.600813865661621,0.3495534360408783
1787735933345363700,3.02736376953125,7.0557122230529785,6.7061591148376465,0.45010992884635925
1787735933361414100,3.0434140625,7.163451671600342,6.847416877746582,0.6057330369949341
1787735933385381400,3.06738134765625,7.615955829620361,7.139509677886963,0.7469909191131592
1787735933401439000,3.08343896484375,7.898471355438232,7.252037048339844,0.9050082564353943
1787735933417464300,3.09946435546875,7.90086555480957,7.378929615020752,1.1061211824417114
1787735933433938700,3.115938720703125,7.594407558441162,7.4555439949035645,1.2306196689605713
1787735933449931000,3.131930908203125,7.220912456512451,7.556100368499756,1.3431471586227417
1787735933465734400,3.147734375,6.888118267059326,7.627926826477051,1.3838485479354858
1787735933481484500,3.163484619140625,6.897695064544678,7.654263019561768,1.1803414821624756
1787735933497512700,3.1795126953125,6.768408298492432,7.572859764099121,0.9026140570640564
1787735933513552600,3.195552734375,6.677428722381592,7.50582218170166,0.6943184733390808
1787735933529931300,3.21193115234375,6.88332986831665,7.457938194274902,0.7182605266571045
1787735933545443600,3.227443603515625,6.88332986831665,7.3238630294799805,0.7158663272857666
1787735933561498000,3.243498046875,7.010222434997559,7.287950038909912,0.5889736413955688
1787735933577466600,3.259466552734375,7.2783732414245605,7.4100542068481445,0.38307225704193115
1787735933593576700,3.27557666015625,7.608773231506348,7.469909191131592,0.1388636976480484
1787735933609930800,3.2919306640625,7.891288757324219,7.644686222076416,0.0071826050989329815
1787735933625462500,3.307462646484375,7.671022415161133,7.524975776672363,0.24181437492370605
1787735933649918200,3.331918212890625,6.897695064544678,7.55131196975708,0.24181437492370605
1787735933665483500,3.3474833984375,6.624756336212158,7.481880187988281,0.2801215946674347
1787735933681603800,3.363603759765625,6.6127848625183105,7.247248649597168,0.3471592366695404
1787735933697361000,3.37936083984375,6.818686485290527,7.046135425567627,0.43095630407333374
1787735933713536300,3.395536376953125,7.299921035766602,6.766014099121094,0.2561795711517334
1787735933729774000,3.411774169921875,7.94635534286499,6.478709697723389,-0.19871874153614044
1787735933745380400,3.42738037109375,8.195352554321289,6.14831018447876,-0.727837324142456
1787735933761333200,3.443333251953125,8.087613105773926,6.114790916442871,-1.3670891523361206
1787735933785370600,3.46737060546875,8.614337921142578,6.423643112182617,-1.599326729774475
1787735933801355300,3.483355224609375,8.755595207214355,6.447585105895996,-1.091755986213684
1787735933825416400,3.50741650390625,7.661445617675781,6.718130111694336,-0.9481038451194763
1787735933841820400,3.5238203125,6.777985095977783,7.086836814880371,-1.2282254695892334
1787735933857354000,3.53935400390625,6.021417140960693,7.378929615020752,-0.9840168952941895
1787735933873450800,3.55545068359375,5.310339450836182,7.625532627105713,-0.5889736413955688
1787735933889899800,3.571899658203125,5.688623428344727,7.694964408874512,-0.3663128614425659
1787735933905794800,3.587794921875,7.38132381439209,7.726089000701904,-0.2322375625371933
1787735933921725400,3.603725341796875,6.919242858886719,9.363722801208496,-2.5713725090026855
1787735933937692200,3.619692138671875,4.345476150512695,7.582436561584473,-1.2641384601593018
1787735933953815300,3.635815185546875,4.165910720825195,5.904101371765137,1.6184803247451782
1787735933970211600,3.652211669921875,4.369418144226074,6.476315498352051,1.5610195398330688
1787735933985799400,3.66779931640625,4.278438568115234,7.690176010131836,0.6823474764823914
1787735934001754000,3.683754150390625,3.734954595565796,7.85537576675415,1.0247182846069336
1787735934017780000,3.699780029296875,3.361459255218506,7.800309181213379,0.9792284965515137
1787735934034010600,3.7160107421875,3.2178070545196533,8.310274124145508,0.33518823981285095
1787735934050220300,3.73222021484375,3.224989652633667,8.305485725402832,-0.15801730751991272
1787735934065833500,3.74783349609375,3.2369606494903564,8.14028549194336,-0.15322890877723694
1787735934081793500,3.76379345703125,3.689464807510376,8.269572257995605,-0.2561795711517334
1787735934097787400,3.779787353515625,4.132391929626465,8.487444877624512,-0.2322375625371933
1787735934113842200,3.79584228515625,4.4077253341674805,8.65982723236084,-0.4429273009300232
1787735934130343000,3.812343017578125,4.632780075073242,8.597578048706055,-0.42616790533065796
1787735934146358500,3.828358642578125,4.726154327392578,8.578424453735352,-0.2753331959247589
1787735934162011400,3.844011474609375,4.668693542480469,8.580819129943848,-0.20111294090747833
1787735934178150100,3.860150146484375,4.659116744995117,8.51138687133789,-0.20111294090747833
1787735934194206700,3.876206787109375,4.747702121734619,8.628703117370605,-0.22026655077934265
1787735934218172000,3.900171875,5.003881454467773,9.038111686706543,0.0071826050989329815
1787735934234311000,3.916310791015625,4.982333660125732,9.337387084960938,-0.07900865375995636
1787735934250735900,3.93273583984375,5.240907669067383,9.627084732055664,-0.3734954595565796
1787735934282341400,3.96434130859375,5.260061264038086,9.68933391571045,-0.2992752194404602
1787735934298823700,3.98082373046875,5.324704647064209,9.603142738342285,0.0071826050989329815
1787735934314395000,3.996394775390625,5.556941986083984,9.612719535827637,0.26815059781074524
1787735934330810000,4.01281005859375,5.638344764709473,9.53849983215332,0.23702596127986908
1787735934346336300,4.028336181640625,5.6191911697387695,9.457097053527832,0.5770025849342346
1787735934371032600,4.053032470703125,4.19224739074707,8.724471092224121,1.4676456451416016
1787735934394697000,4.076697021484375,3.002328872680664,9.567230224609375,0.45250412821769714
1787735934411118000,4.0931181640625,3.026270866394043,9.042900085449219,0.43095630407333374
1787735934442697500,4.124697509765625,4.422090530395508,8.176198959350586,-0.15801730751991272
1787735934458650000,4.140650146484375,5.726930618286133,7.450755596160889,0.3256114423274994
1787735934474892300,4.156892333984375,7.048529624938965,6.957550048828125,1.1540051698684692
1787735934491084800,4.173084716796875,7.402871608734131,6.739677906036377,1.7860745191574097
1787735934514773800,4.196773681640625,5.329493045806885,7.218518257141113,0.7996633648872375
1787735934531088400,4.21308837890625,3.8594532012939453,7.6566572189331055,0.16759411990642548
1787735934546701600,4.22870166015625,3.5003228187561035,7.972691535949707,0.19153612852096558
1787735934562567000,4.24456689453125,3.4835634231567383,7.994239330291748,0.4381389021873474
1787735934578741500,4.260741455078125,3.2345664501190186,8.233659744262695,0.31842881441116333
1787735934602587000,4.2845869140625,2.8131868839263916,8.628703117370605,0.3519476354122162
1787735934618563300,4.300563232421875,2.875436305999756,8.53293514251709,0.6320692300796509
1787735934642671000,4.324671142578125,3.6583402156829834,8.552088737487793,0.6919242739677429
1787735934666590500,4.348590576171875,4.194641590118408,8.401253700256348,0.6129156351089478
1787735934682753800,4.36475390625,4.331110954284668,8.429984092712402,0.5410895943641663
1787735934698792000,4.3807919921875,4.0294413566589355,8.51138687133789,0.33758243918418884
1787735934714687000,4.39668701171875,3.9169139862060547,8.585607528686523,0.1412578970193863
1787735934731029500,4.413029541015625,3.8115692138671875,8.544905662536621,-0.20350714027881622
1787735934746531300,4.42853125,3.56017804145813,8.497021675109863,-0.4644751250743866
1787735934762545000,4.444544921875,3.2130186557769775,8.516175270080566,-0.4596867263317108
1787735934778625800,4.460625732421875,2.9472622871398926,8.578424453735352,-0.2059013396501541
1787735934794648600,4.476648681640625,2.892195701599121,8.523358345031738,0.4118026793003082
1787735934811029800,4.49302978515625,2.980781078338623,8.492233276367188,0.8188169598579407
1787735934826567000,4.50856689453125,3.0190882682800293,8.508993148803711,0.7374141216278076
1787735934842572500,4.524572509765625,2.7509377002716064,8.47547435760498,0.35434186458587646
1787735934866664700,4.548664794921875,3.315969467163086,8.741230010986328,0.028730420395731926
1787735934882538800,4.564538818359375,4.05817174911499,9.023746490478516,-0.33758243918418884
1787735934898560500,4.580560546875,4.584896087646484,9.198522567749023,-0.5530605912208557
1787735934931080400,4.61308056640625,4.8937482833862305,9.792284965515137,-0.1388636976480484
1787735934946687700,4.628687744140625,5.295974254608154,9.911994934082031,-0.0933738648891449
1787735934963066600,4.645066650390625,6.1530985832214355,10.074800491333008,0.2753331959247589
1787735934978626000,4.6606259765625,7.352593421936035,9.931148529052734,1.0319008827209473
1787735934994818000,4.676818115234375,7.800309181213379,9.770736694335938,1.6352397203445435
1787735935011119900,4.693119873046875,6.981492042541504,9.895236015319824,1.5203180313110352
1787735935026728000,4.70872802734375,5.544970989227295,10.129867553710938,0.8595184087753296
1787735935042815000,4.72481494140625,4.584896087646484,10.065223693847656,0.1843535304069519
1787735935058803700,4.7408037109375,4.680664539337158,9.639056205749512,-0.26096799969673157
1787735935074770000,4.75677001953125,5.468356609344482,8.966285705566406,-0.363918662071228
1787735935091197700,4.77319775390625,6.31829833984375,8.238448143005371,-0.33758243918418884
1787735935106774500,4.7887744140625,6.794744491577148,7.560888767242432,-0.3687070608139038
1787735935131236900,4.81323681640625,6.184223175048828,7.254431247711182,-0.9217676520347595
1787735935146787600,4.82878759765625,5.30076265335083,7.565677165985107,-1.3335703611373901
1787735935162844000,4.844843994140625,4.656722068786621,7.99184513092041,-1.556231141090393
1787735935178757000,4.860757080078125,4.23773717880249,8.42040729522705,-1.6974890232086182
1787735935194817300,4.8768173828125,4.07014274597168,8.607154846191406,-1.5705963373184204
1787735935211232500,4.893232421875,4.07014274597168,8.614337921142578,-1.115697979927063
1787735935226755800,4.908755859375,4.359841346740723,8.573636054992676,-0.7110779285430908
1787735935242762200,4.92476220703125,4.886565685272217,8.473079681396484,-0.3519476354122162
1787735935258818600,4.940818603515625,5.808333396911621,8.245630264282227,0.0454898327589035
1787735935274875600,4.956875732421875,6.495469093322754,7.869740962982178,0.29209262132644653
1787735935291219200,4.97321923828125,6.44279670715332,7.524975776672363,0.16998831927776337
1787735935306764800,4.988764892578125,5.959167957305908,7.314286231994629,-0.17717093229293823
1787735935322734000,5.004734130859375,5.43723201751709,7.19936466217041,-0.3878606855869293
1787735935338989300,5.0209892578125,5.1810526847839355,7.156269073486328,-0.5386953949928284
1787735935354792700,5.036792724609375,4.865017890930176,7.1706342697143555,-0.7158663272857666
1787735935371224300,5.053224365234375,4.043806552886963,7.223306655883789,-1.0319008827209473
1787735935386730500,5.06873046875,3.4308910369873047,7.343016624450684,-1.3000515699386597
1787735935402780400,5.084780517578125,3.5266590118408203,7.527369976043701,-1.194706678390503
1787735935418787300,5.100787353515625,3.8977603912353516,7.7213006019592285,-1.0558429956436157
1787735935434791200,5.116791259765625,4.043806552886963,7.922413349151611,-0.9145850539207458
1787735935451204400,5.133204345703125,4.120420932769775,8.142680168151855,-0.7374141216278076
1787735935466719700,5.1487197265625,4.484339714050293,8.310274124145508,-0.5937620401382446
1787735935482758700,5.164758544921875,5.200206279754639,8.453926086425781,-0.5219359993934631
1787735935498695200,5.180695068359375,5.87776517868042,8.518569946289062,-0.6129156351089478
1787735935514813700,5.196813720703125,6.402095317840576,8.647856712341309,-0.6823474764823914
1787735935531164000,5.213163818359375,6.5696892738342285,9.047688484191895,-0.7972691655158997
1787735935546647800,5.228647705078125,6.517016887664795,9.481039047241211,-0.7422025203704834
1787735935562703000,5.244703125,6.75883150100708,9.770736694335938,-0.6847416758537292
1787735935578638300,5.260638427734375,7.654263019561768,9.694122314453125,-0.13168109953403473
1787735935594679300,5.27667919921875,8.377311706542969,9.418789863586426,0.6320692300796509
1787735935611117600,5.29311767578125,8.674192428588867,9.366117477416992,1.2521674633026123
1787735935627095600,5.309095458984375,7.817068576812744,9.605537414550781,1.2832920551300049
1787735935642688000,5.32468798828125,6.00226354598999,9.847352027893066,0.8786720037460327
1787735935658715000,5.34071484375,4.821922302246094,10.259154319763184,0.8259995579719543
1787735935674862800,5.35686279296875,4.8722004890441895,10.374075889587402,1.4508862495422363
1787735935691113500,5.373113525390625,6.478709697723389,9.48343276977539,2.315192937850952
1787735935706615000,5.388614990234375,8.736441612243652,7.9846625328063965,2.647987127304077
1787735935722703000,5.404703125,10.824186325073242,6.5265936851501465,2.300827741622925
1787735935738653000,5.42065283203125,11.343728065490723,5.872976779937744,1.4197616577148438
1787735935754700000,5.436699951171875,10.220847129821777,5.583278179168701,0.49799394607543945
1787735935771129900,5.4531298828125,7.752425193786621,5.789179801940918,-0.004788403399288654
1787735935786640600,5.468640625,5.137956619262695,6.167463779449463,0.028730420395731926
1787735935811095800,5.493095703125,1.843535304069519,6.981492042541504,0.5219359993934631
1787735935826665000,5.5086650390625,1.5083470344543457,7.129932880401611,1.4197616577148438
1787735935842641000,5.524640869140625,2.27209734916687,6.962338447570801,2.3989901542663574
1787735935858801000,5.54080078125,3.157952070236206,6.943184852600098,2.6216509342193604
1787735935874697000,5.556697021484375,3.7158010005950928,6.907271862030029,2.557007312774658
1787735935891068400,5.573068359375,3.823540210723877,6.976703643798828,2.209848165512085
1787735935906679300,5.58867919921875,4.223371982574463,7.005434036254883,1.8818424940109253
1787735935922745300,5.604745361328125,4.944026470184326,7.015010833740234,1.4317326545715332
1787735935946685400,5.628685546875,5.542576789855957,7.137115478515625,0.7589619159698486
1787735935962734300,5.644734375,5.044582843780518,7.340622425079346,0.3519476354122162
1787735935978727000,5.660726806640625,4.462791919708252,7.524975776672363,0.15083470940589905
1787735935994780700,5.67678076171875,4.091690540313721,7.773972988128662,0.2825157940387726
1787735936011227400,5.693227294921875,3.818751811981201,7.994239330291748,0.727837324142456
1787735936026743300,5.708743408203125,3.691859006881714,8.094796180725098,1.0989385843276978
1787735936042822000,5.72482177734375,3.7038300037384033,8.200140953063965,1.314416766166687
1787735936058849300,5.740849365234375,3.869029998779297,8.216899871826172,1.2425906658172607
1787735936075044400,5.75704443359375,4.307168960571289,8.271966934204102,0.9528923034667969
1787735936091332400,5.773332275390625,5.216965675354004,8.415618896484375,0.7206547260284424
1787735936107153400,5.7891533203125,6.229712963104248,8.56645393371582,0.5267243981361389
1787735936122905600,5.804905517578125,6.943184852600098,8.700529098510742,0.30885201692581177
1787735936139378400,5.82137841796875,7.3023152351379395,8.856152534484863,0.16519992053508759
1787735936155006500,5.83700634765625,7.350199222564697,9.081207275390625,0.304063618183136
1787735936171378000,5.8533779296875,7.06528902053833,9.210494041442871,0.7182605266571045
1787735936187331600,5.86933154296875,6.9455790519714355,9.279925346374512,1.173158884048462
1787735936211395800,5.893395751953125,7.4100542068481445,8.966285705566406,1.338358759880066
1787735936227005200,5.909005126953125,7.577648162841797,8.841787338256836,1.0342950820922852
1787735936258878000,5.9408779296875,6.9024834632873535,9.150638580322266,0.12928688526153564
1787735936275089700,5.957089599609375,7.053318023681641,8.939949035644531,-0.2513911724090576
1787735936306980900,5.98898095703125,7.781155586242676,7.623138427734375,0.05267243832349777
1787735936323015700,6.005015625,7.266402244567871,7.252037048339844,-0.026336219161748886
1787735936338860300,6.0208603515625,6.234501361846924,7.208941459655762,-0.3423708379268646
1787735936355055900,6.037055908203125,5.475539207458496,7.515398979187012,-0.7996633648872375
1787735936371382800,6.0533828125,5.212177276611328,7.9176249504089355,-0.8475474119186401
1787735936386969600,6.068969482421875,5.188235282897949,8.190564155578613,-0.40701428055763245
1787735936402907100,6.0849072265625,5.430049419403076,8.315062522888184,0.19153612852096558
1787735936426905900,6.10890576171875,6.208165168762207,8.20732307434082,0.9385270476341248
1787735936443344600,6.1253447265625,6.89530086517334,8.056488990783691,1.2018892765045166
1787735936458844000,6.140843994140625,7.429207801818848,7.666234016418457,1.0821791887283325
1787735936474773200,6.156773193359375,7.371747016906738,7.268796443939209,0.6129156351089478
1787735936491202300,6.173202392578125,6.67982292175293,7.026981830596924,0.047884032130241394
1787735936506700500,6.188700439453125,5.583278179168701,6.9024834632873535,-0.3974374830722809
1787735936522735400,6.2047353515625,4.821922302246094,6.967126846313477,-0.4908113479614258
1787735936538750500,6.22075048828125,4.462791919708252,7.026981830596924,-0.304063618183136
1787735936554825200,6.2368251953125,4.010287761688232,7.161057472229004,-0.05746084079146385
1787735936571179800,6.2531796875,3.5625722408294678,7.362170219421387,0.026336219161748886
1787735936586735900,6.26873583984375,3.28963303565979,7.479485988616943,0.09576806426048279
1787735936602702300,6.284702392578125,3.3063924312591553,7.613561630249023,0.1364694982767105
1787735936618724400,6.300724365234375,3.485957622528076,7.754819393157959,-0.17477671802043915
1787735936642650400,6.324650390625,3.445256233215332,7.7883381843566895,-0.4692635238170624
1787735936658646500,6.340646484375,3.5960910320281982,7.8960771560668945,-0.35913026332855225
1787735936674713600,6.356713623046875,3.8786067962646484,8.068459510803223,-0.07661445438861847
1787735936691117000,6.373116943359375,4.367023944854736,8.183381080627441,0.19632454216480255
1787735936706697200,6.388697265625,4.716577529907227,8.379706382751465,0.24420857429504395
1787735936722746600,6.40474658203125,4.922478675842285,8.78432559967041,0.019153613597154617
1787735936738868200,6.4208681640625,5.157110691070557,9.299078941345215,-0.2346317619085312
1787735936755005400,6.43700537109375,5.861005783081055,9.730035781860352,-0.395043283700943
1787735936771152400,6.45315234375,7.158663272857666,9.763554573059082,-0.05985504388809204
1787735936786722000,6.46872216796875,8.372523307800293,9.701305389404297,0.24420857429504395
1787735936802656300,6.48465625,8.327033042907715,9.739612579345703,0.2082955539226532
1787735936818668800,6.500668701171875,7.129932880401611,10.122684478759766,-0.05027823522686958
1787735936834711600,6.516711669921875,5.95677375793457,10.271124839782715,0.4405331015586853
1787735936851195100,6.533195068359375,5.590460777282715,10.465055465698242,1.4245500564575195
1787735936866760700,6.5487607421875,5.458779811859131,10.417171478271484,2.557007312774658
1787735936882734800,6.56473486328125,6.0190229415893555,9.627084732055664,3.1747114658355713
1787735936898876200,6.580876220703125,7.400477409362793,8.707711219787598,3.2178070545196533
1787735936914791400,6.59679150390625,8.214506149291992,8.022970199584961,2.561795711517334
1787735936931229400,6.6132294921875,7.86734676361084,7.4986395835876465,1.280897855758667
1787735936946917600,6.628917724609375,6.861782073974609,7.196970462799072,-0.24420857429504395
1787735936962760000,6.644760009765625,5.671864032745361,7.082048416137695,-1.0606313943862915
1787735936978762500,6.660762451171875,4.400542736053467,7.070077419281006,-1.3407529592514038
1787735936995121400,6.677121337890625,3.581725835800171,7.005434036254883,-1.2473790645599365
1787735937011309600,6.6933095703125,2.9879636764526367,6.998251438140869,-0.7398083209991455
1787735937026866700,6.70886669921875,2.604891538619995,6.952761650085449,0.014365210197865963
1787735937042879500,6.72487939453125,2.762908697128296,6.868964672088623,0.6536170840263367
1787735937058923500,6.740923583984375,3.1483752727508545,6.8378400802612305,0.9481038451194763
1787735937074980900,6.75698095703125,3.600879430770874,6.787561893463135,0.7110779285430908
1787735937091331600,6.77333154296875,4.129997730255127,6.72531270980835,0.395043283700943
1787735937107340800,6.7893408203125,4.144362926483154,6.842628479003906,-0.11971008777618408
1787735937122978800,6.804978759765625,4.082113742828369,7.050923824310303,-0.6033388376235962
1787735937139013000,6.82101318359375,4.0533833503723145,7.225700855255127,-0.8571242094039917
1787735937155040000,6.8370400390625,4.1874589920043945,7.553706169128418,-1.1324573755264282
1787735937171448000,6.853447998046875,4.050989151000977,7.862558364868164,-1.1635819673538208
1787735937187066600,6.869066650390625,3.864241600036621,8.233659744262695,-0.8044517636299133
1787735937202970000,6.88497021484375,4.240131378173828,8.504204750061035,0.004788403399288654
1787735937219262500,6.901262451171875,4.5394062995910645,8.722076416015625,0.5889736413955688
1787735937235098000,6.91709814453125,5.011064052581787,8.815450668334961,0.7038952708244324
1787735937251437800,6.933437744140625,5.657498836517334,8.942343711853027,0.49320554733276367
1787735937266987800,6.94898779296875,6.323086738586426,9.047688484191895,-0.1149216815829277
1787735937291409400,6.973409423828125,6.3733649253845215,9.497797966003418,-0.9361328482627869
1787735937306913800,6.988913818359375,5.801150798797607,9.861717224121094,-1.2258312702178955
1787735937323033000,7.005033203125,5.501875400543213,10.072406768798828,-1.2449848651885986
1787735937339119600,7.02111962890625,5.762843608856201,10.101137161254883,-0.7493851184844971
1787735937355039700,7.037039794921875,6.291962146759033,10.036493301391602,-0.08619125932455063
1787735937371439900,7.05343994140625,6.677428722381592,10.005369186401367,0.47884035110473633
1787735937386923000,7.068923095703125,5.872976779937744,10.211270332336426,0.2537853717803955
1787735937403098600,7.0850986328125,5.027823448181152,10.333374977111816,-0.4620809257030487
1787735937418955800,7.100955810546875,5.398924827575684,9.93354320526123,-0.5817909836769104
1787735937435118300,7.117118408203125,6.801927089691162,9.119514465332031,0.15562310814857483
1787735937451395600,7.1333955078125,8.20492935180664,8.068459510803223,0.7398083209991455
1787735937467066400,7.14906640625,8.101978302001953,7.309497833251953,0.4644751250743866
1787735937483084300,7.165084228515625,6.596025466918945,7.0317702293396,-0.28969839215278625
1787735937499121200,7.18112109375,4.757278919219971,7.261613845825195,-0.8307880163192749
1787735937515530000,7.197530029296875,3.5194764137268066,7.371747016906738,-0.8738836050033569
1787735937531575800,7.213575927734375,3.179499864578247,7.570465564727783,-0.8571242094039917
1787735937555162600,7.23716259765625,3.6966474056243896,7.390900611877441,-0.7326257228851318
1787735937571589400,7.25358935546875,4.752490520477295,7.117961883544922,-0.608127236366272
1787735937587345400,7.269345458984375,5.9304375648498535,6.873753070831299,-0.35913026332855225
1787735937603258600,7.285258544921875,6.627150535583496,6.696582317352295,-0.24660277366638184
1787735937619291100,7.301291015625,6.701370716094971,6.497863292694092,-0.15801730751991272
1787735937635401700,7.317401611328125,5.944802761077881,6.536170482635498,-0.17238251864910126
1787735937651713500,7.333713623046875,5.329493045806885,6.672640323638916,-0.12689268589019775
1787735937667694000,7.349694091796875,5.16429328918457,6.739677906036377,0.028730420395731926
1787735937683190800,7.365190673828125,5.058948040008545,6.847416877746582,0.09816227108240128
1787735937699246800,7.381246826171875,4.774038314819336,7.182605266571045,0.026336219161748886
1787735937715341600,7.397341552734375,4.5394062995910645,7.568071365356445,-0.06224924325942993
1787735937731748900,7.413748779296875,4.371812343597412,7.850587368011475,-0.26575639843940735
1787735937747446000,7.429446044921875,4.206612586975098,7.9631147384643555,-0.6416460275650024
1787735937763309000,7.44530908203125,4.4532151222229,8.01339340209961,-0.6799532771110535
1787735937779391200,7.46139111328125,5.370194435119629,7.972691535949707,0.11013327538967133
1787735937795513900,7.477513916015625,6.090848922729492,7.905653953552246,0.7445967197418213
1787735937819951400,7.501951416015625,5.6670756340026855,7.8960771560668945,0.7996633648872375
1787735937835662300,7.517662353515625,4.730942726135254,8.090007781982422,0.5003881454467773
1787735937852127000,7.534126953125,4.034229755401611,8.394071578979492,0.2513911724090576
1787735937867697200,7.549697265625,4.101267337799072,8.813055992126465,0.1364694982767105
1787735937883955200,7.565955078125,4.738125324249268,9.258378028869629,-0.06703764945268631
1787735937899885300,7.58188525390625,5.906495571136475,9.478644371032715,-0.22266076505184174
1787735937916012000,7.598011962890625,7.575253963470459,9.435548782348633,0.0694318488240242
1787735937932396300,7.614396240234375,9.301473617553711,9.5408935546875,0.689530074596405
1787735937947960300,7.629960205078125,9.68694019317627,9.72285270690918,1.0965443849563599
1787735937964022800,7.646022705078125,7.879317760467529,9.653421401977539,0.6368576288223267
1787735937980338700,7.662338623046875,6.160281181335449,9.655815124511719,0.3998316824436188
1787735937996051500,7.678051513671875,5.032611846923828,9.452308654785156,1.0342950820922852
1787735938012499000,7.6944990234375,6.0405707359313965,8.647856712341309,1.7884687185287476
1787735938028016400,7.710016357421875,8.219294548034668,7.781155586242676,1.821987509727478
1787735938052470000,7.734469970703125,10.74996566772461,6.600813865661621,1.6041151285171509
1787735938068029400,7.750029541015625,10.714052200317383,6.4164605140686035,1.2952631711959839
1787735938084100400,7.766100341796875,8.62630844116211,6.610390663146973,0.7757213711738586
1787735938099954700,7.78195458984375,6.057330131530762,6.818686485290527,0.17717093229293823
1787735938116050000,7.7980498046875,4.273650169372559,7.070077419281006,-0.33279404044151306
1787735938132438000,7.81443798828125,3.4189200401306152,7.295132637023926,-0.3447650372982025
1787735938148015600,7.830015625,3.404554843902588,7.354987621307373,-0.014365210197865963
1787735938164116500,7.846116455078125,4.228160381317139,7.264008045196533,0.7326257228851318
1787735938179925800,7.86192578125,5.027823448181152,7.0772600173950195,1.434126853942871
1787735938196002600,7.87800244140625,5.592854976654053,6.84981107711792,2.054224967956543
1787735938212398000,7.894398193359375,5.693411827087402,6.775590896606445,2.31758713722229
1787735938228373800,7.910373779296875,5.535394191741943,6.703764915466309,2.2649147510528564
1787735938243940900,7.92594091796875,5.331887245178223,6.761225700378418,1.7046716213226318
1787735938259929300,7.941929443359375,5.276820659637451,6.7708024978637695,0.9433154463768005
1787735938275944400,7.9579443359375,5.152322292327881,6.794744491577148,0.13168109953403473
1787735938292378400,7.97437841796875,4.8602294921875,6.931213855743408,-0.3734954595565796
1787735938307954200,7.9899541015625,4.750096321105957,7.228095054626465,-0.7086837291717529
1787735938323963000,8.005962890625,4.618414878845215,7.481880187988281,-0.8762778043746948
1787735938347864600,8.029864501953124,4.845864295959473,7.649474620819092,-0.2777273952960968
1787735938379881000,8.061880859375,5.793968200683594,7.862558364868164,1.1061211824417114
1787735938403811000,8.08581103515625,5.815515995025635,8.190564155578613,1.4676456451416016
1787735938419853300,8.101853271484375,5.805939197540283,8.650250434875488,1.0462661981582642
1787735938435914800,8.117914794921875,6.009446144104004,9.040505409240723,0.6536170840263367
1787735938452317400,8.1343173828125,6.313509941101074,9.346963882446289,0.5841852426528931
1787735938467891200,8.14989111328125,6.916848659515381,9.48343276977539,0.5746083855628967
1787735938484270800,8.166270751953125,7.795520782470703,9.334992408752441,0.4812345504760742
1787735938499834400,8.18183447265625,8.449137687683105,8.99740982055664,0.4908113479614258
1787735938515951900,8.197951904296875,7.843404769897461,9.08838939666748,0.10773907601833344
1787735938532411000,8.214410888671875,5.978321552276611,9.366117477416992,-0.5339069962501526
1787735938548090600,8.230090576171875,4.613626480102539,9.2033109664917,-0.5386953949928284
1787735938563906800,8.24590673828125,4.78122091293335,8.695740699768066,0.06224924325942993
1787735938579913700,8.261913818359375,6.521805286407471,8.051700592041016,0.5626373887062073
1787735938595990500,8.277990478515624,8.544905662536621,7.271190643310547,0.5961562395095825
1787735938612395300,8.294395263671875,9.157821655273438,6.868964672088623,-0.14365209639072418
1787735938627952600,8.30995263671875,8.461109161376953,6.912060260772705,-0.8595184087753296
1787735938643903200,8.3259033203125,7.204153060913086,7.206547260284424,-0.751779317855835
1787735938659865300,8.341865234375,6.361393928527832,7.424419403076172,-0.21308395266532898
1787735938675984100,8.357984130859375,5.9974751472473145,7.527369976043701,0.035913024097681046
1787735938692355300,8.374355224609374,6.129156112670898,7.364564418792725,0.021547814831137657
1787735938708070700,8.390070556640625,6.691793918609619,7.046135425567627,0.06703764945268631
1787735938723956500,8.40595654296875,7.285555839538574,6.818686485290527,0.1388636976480484
1787735938740422700,8.422422607421876,7.4100542068481445,6.672640323638916,0.08619125932455063
1787735938756121900,8.438121826171875,6.71334171295166,6.576871871948242,-0.10055647045373917
1787735938772463000,8.454463134765625,5.872976779937744,6.507440090179443,-0.2322375625371933
1787735938788057300,8.470057373046876,5.310339450836182,6.562506675720215,-0.23702596127986908
1787735938804039400,8.486039306640626,5.0014872550964355,6.6127848625183105,-0.19153612852096558
1787735938820044800,8.502044921875,4.627991676330566,6.773196697235107,0.028730420395731926
1787735938836108300,8.5181083984375,4.273650169372559,6.988674640655518,0.31842881441116333
1787735938852541200,8.534541259765625,3.9169139862060547,7.129932880401611,0.5003881454467773
1787735938868169200,8.550169189453126,3.7924153804779053,7.2783732414245605,0.4381389021873474
1787735938884296000,8.5662958984375,4.031835556030273,7.424419403076172,-0.0071826050989329815
1787735938900248000,8.582248046875,4.553771495819092,7.529764175415039,-0.4118026793003082
1787735938916269800,8.598269775390625,4.991910457611084,7.625532627105713,-0.47405192255973816
1787735938932750300,8.614750244140625,5.188235282897949,7.718906402587891,-0.2753331959247589
1787735938948311300,8.630311279296874,4.991910457611084,7.752425193786621,-0.08379705995321274
1787735938964666600,8.64666650390625,4.568136692047119,7.893682956695557,-0.011971008032560349
1787735938980258000,8.662258056640624,4.405331134796143,8.015787124633789,0.14604631066322327
1787735938996450800,8.678450927734374,4.343081951141357,8.288725852966309,0.2849099934101105
1787735939012743700,8.69474365234375,4.426878929138184,8.65743350982666,0.2059013396501541
1787735939028325400,8.710325439453126,4.95120906829834,8.932766914367676,-0.1412578970193863
1787735939044757800,8.7267578125,6.215347766876221,9.071630477905273,-0.3280056416988373
1787735939060329200,8.7423291015625,7.560888767242432,9.17697525024414,-0.28730419278144836
1787735939076401700,8.758401611328125,8.279149055480957,9.327810287475586,-0.44771572947502136
1787735939092834000,8.774833984375,8.29590892791748,9.619902610778809,-0.7709329724311829
1787735939108710400,8.79071044921875,7.429207801818848,9.77791976928711,-0.4141969084739685
1787735939124594700,8.8065947265625,5.825092792510986,9.840168952941895,-0.0454898327589035
1787735939140440600,8.822440673828124,4.4508209228515625,9.84495735168457,0.3519476354122162
1787735939156490800,8.83849072265625,4.055777549743652,9.239224433898926,0.9241618514060974
1787735939172817200,8.854817138671875,5.683835029602051,8.528146743774414,1.3311761617660522
1787735939188441900,8.87044189453125,8.29590892791748,7.738059997558594,1.6424223184585571
1787735939204385000,8.886385009765625,10.187328338623047,7.141903877258301,1.599326729774475
1787735939220518400,8.902518310546874,10.795455932617188,6.8809356689453125,1.192312479019165
1787735939236398300,8.9183984375,9.701305389404297,6.892906665802002,0.47405192255973816
1787735939252761900,8.934761962890626,7.644686222076416,7.156269073486328,-0.1364694982767105
1787735939268365300,8.950365234375,5.676652431488037,7.407660007476807,-0.2322375625371933
1787735939284347100,8.96634716796875,4.491522312164307,7.6351094245910645,0.06464344263076782
1787735939300702000,8.982701904296874,3.9695863723754883,7.778761386871338,0.23942017555236816
1787735939316371000,8.998370849609374,4.489128112792969,7.47230339050293,0.38307225704193115
1787735939332745200,9.0147451171875,5.3127336502075195,7.060500621795654,0.3471592366695404
1787735939348287000,9.030286865234375,5.925649166107178,6.84981107711792,0.29209262132644653
1787735939364223500,9.046223388671875,5.789179801940918,6.821080684661865,0.15562310814857483
1787735939380243000,9.062242919921875,5.183446884155273,6.861782073974609,0.0454898327589035
1787735939396357000,9.078357177734375,4.639962673187256,6.955155849456787,0.035913024097681046
1787735939412671500,9.09467138671875,4.177882194519043,7.070077419281006,-0.023942016065120697
1787735939428372700,9.110372802734375,3.6511576175689697,7.180211067199707,-0.26336219906806946
1787735939444187000,9.126186767578124,3.383007049560547,7.299921035766602,-0.5674257874488831
1787735939460175000,9.142175048828125,3.5051112174987793,7.457938194274902,-0.8355764150619507
1787735939476203000,9.158203125,3.797203779220581,7.5417351722717285,-0.7086837291717529
1787735939492607500,9.174607421875,4.486733913421631,7.615955829620361,-0.11013327538967133
1787735939508240600,9.19024072265625,5.137956619262695,7.797914981842041,0.47644615173339844
1787735939524106800,9.206106689453126,5.588066577911377,7.931990146636963,0.9888052940368652
1787735939540126700,9.222126708984375,5.990292549133301,8.123526573181152,1.1875240802764893
1787735939556544800,9.238544677734374,6.057330131530762,8.449137687683105,1.1061211824417114
1787735939572568800,9.25456884765625,6.253654956817627,8.968679428100586,0.6655880808830261
1787735939588159200,9.2701591796875,6.3063273429870605,9.47146224975586,0.16759411990642548
1787735939604104200,9.286104248046875,6.270414352416992,9.768342971801758,0.09576806426048279
1787735939620212200,9.302212158203124,6.722918510437012,9.911994934082031,0.13407529890537262
1787735939644176100,9.326176025390625,7.642292022705078,9.579200744628906,0.4884171485900879
1787735939660279000,9.342279052734375,8.063671112060547,9.674968719482422,0.17717093229293823
1787735939676316700,9.358316650390625,7.4555439949035645,9.581595420837402,-0.7948749661445618
1787735939692648200,9.374648193359375,6.107608318328857,9.344569206237793,-1.7190368175506592
1787735939708654000,9.390654052734375,6.581660270690918,8.877699851989746,-0.9433154463768005
1787735939732686300,9.414686279296875,8.544905662536621,7.417236804962158,0.7541735172271729
1787735939748249900,9.430249755859375,8.738836288452148,6.722918510437012,0.7876923680305481
1787735939764227600,9.4462275390625,7.762001991271973,6.485892295837402,-0.05506663769483566
1787735939780295200,9.462295166015625,6.028599739074707,6.720524311065674,-1.2066776752471924
1787735939796338000,9.478337890625,4.865017890930176,6.983886241912842,-1.556231141090393
1787735939812744700,9.49474462890625,4.55616569519043,7.292738437652588,-1.4939818382263184
1787735939828438800,9.510438720703124,4.912901878356934,7.311892032623291,-1.4269442558288574
1787735939844301300,9.52630126953125,5.442020416259766,7.2568254470825195,-1.3120225667953491
1787735939860809000,9.54280908203125,5.990292549133301,7.220912456512451,-1.05105459690094
1787735939876438000,9.55843798828125,6.315904140472412,7.067683219909668,-0.507570743560791
1787735939892871000,9.574870849609376,6.361393928527832,6.921637058258057,0.08379705995321274
1787735939908483300,9.5904833984375,6.2632317543029785,6.797138690948486,0.586579442024231
1787735939924377600,9.606377685546875,6.074089527130127,6.7492547035217285,0.6751648783683777
1787735939948378000,9.630378173828126,4.898536682128906,6.921637058258057,0.569819986820221
1787735939964846600,9.6468466796875,3.866635799407959,7.161057472229004,0.5027823448181152
1787735939980618500,9.662618408203125,2.918531894683838,7.357381820678711,0.5530605912208557
1787735939996604000,9.67860400390625,2.382230758666992,7.529764175415039,0.4189853072166443
1787735940012819200,9.694819091796875,2.4229321479797363,7.659051418304443,0.13407529890537262
1787735940028360000,9.71035986328125,3.179499864578247,7.723694801330566,-0.11971008777618408
1787735940044398000,9.726398193359374,3.995922565460205,7.824251174926758,-0.14604631066322327
1787735940060500000,9.7425,4.738125324249268,8.018181800842285,-0.2059013396501541
1787735940076345900,9.758345947265624,4.987122058868408,8.08282470703125,-0.08140286058187485
1787735940092781800,9.77478173828125,5.216965675354004,8.274360656738281,0.2777273952960968
1787735940108400400,9.790400390625,5.568912982940674,8.489839553833008,0.4836287498474121
1787735940124360000,9.80635986328125,5.868188381195068,8.705317497253418,0.2298433631658554
1787735940140317400,9.8223173828125,6.023811340332031,9.004592895507812,-0.14844051003456116
1787735940156380400,9.83838037109375,6.270414352416992,9.191340446472168,-0.3711012601852417
1787735940172793300,9.85479345703125,7.084442615509033,9.133879661560059,-0.35434186458587646
1787735940188323600,9.870323486328125,8.346187591552734,8.89445972442627,-0.1843535304069519
1787735940212805600,9.8948056640625,9.042900085449219,9.205705642700195,0.031124621629714966
1787735940228382700,9.9103828125,7.383718013763428,9.593565940856934,0.1604115068912506
1787735940244315100,9.926315185546875,5.386953830718994,9.6989107131958,0.8379706144332886
1787735940260396500,9.942396484375,4.484339714050293,9.703699111938477,2.0470423698425293
1787735940276377300,9.95837744140625,4.651933670043945,9.361329078674316,3.2082302570343018
1787735940292761900,9.974761962890625,5.770026206970215,8.638279914855957,3.711012601852417
1787735940308349200,9.99034912109375,6.806715488433838,7.888894557952881,3.3446998596191406
1787735940324228900,10.006228759765625,7.467514991760254,7.2352776527404785,2.5282769203186035
1787735940340389000,10.02238916015625,8.123526573181152,6.847416877746582,1.4772224426269531
1787735940356285200,10.03828515625,7.996633529663086,6.691793918609619,0.8092401623725891
1787735940372708600,10.05470849609375,6.785167694091797,6.842628479003906,0.2585737705230713
1787735940388276700,10.07027685546875,5.4444146156311035,7.060500621795654,0.3280056416988373
1787735940412693000,10.09469287109375,4.137180328369141,7.4100542068481445,0.7709329724311829
1787735940428230700,10.110230712890624,3.823540210723877,7.436390399932861,1.1899182796478271
1787735940444178400,10.126178466796874,4.02465295791626,7.3693528175354,1.5634137392044067
1787735940460287500,10.14228759765625,4.656722068786621,7.2352776527404785,1.7597382068634033
1787735940476192300,10.158192138671875,5.085284233093262,7.115567684173584,1.5298948287963867
1787735940492653800,10.17465380859375,5.250484466552734,6.964732646942139,0.9241618514060974
1787735940508255000,10.1902548828125,5.154716491699219,6.828263282775879,0.3711012601852417
1787735940524641000,10.20664111328125,5.365406036376953,6.806715488433838,-0.1628057211637497
1787735940540139500,10.222139404296875,5.442020416259766,6.9024834632873535,-0.3471592366695404
1787735940556214000,10.238214111328125,5.2480902671813965,7.060500621795654,-0.42377370595932007
1787735940572628500,10.25462841796875,5.097255229949951,7.259219646453857,-0.7134721279144287
1787735940588183800,10.270183837890626,4.922478675842285,7.467514991760254,-0.6751648783683777
1787735940604186600,10.2861865234375,4.699818134307861,7.625532627105713,-0.4668693244457245
1787735940620184800,10.302184814453126,4.774038314819336,7.752425193786621,-0.043095629662275314
1787735940636232400,10.318232421875,5.233725070953369,7.754819393157959,0.48602294921875
1787735940652645400,10.334645263671876,5.868188381195068,7.922413349151611,0.7254431247711182
1787735940668195000,10.350195068359374,6.521805286407471,8.216899871826172,0.8762778043746948
1787735940684254700,10.366254638671874,7.24485445022583,8.542511940002441,0.6919242739677429
1787735940708699600,10.39069970703125,7.752425193786621,8.789113998413086,0.33279404044151306
1787735940724317700,10.406317626953125,8.090007781982422,8.858546257019043,0.16519992053508759
1787735940740224500,10.422224609375,8.429984092712402,8.757989883422852,0.395043283700943
1787735940756299500,10.438299560546875,8.473079681396484,8.734047889709473,1.1204863786697388
1787735940772753200,10.454753173828125,7.680599212646484,9.057265281677246,1.482010841369629
1787735940788382000,10.4703818359375,6.138733386993408,9.296685218811035,1.2641384601593018
1787735940804324600,10.48632470703125,5.293580055236816,9.296685218811035,0.9026140570640564
1787735940820313000,10.50231298828125,6.18182897567749,8.801085472106934,0.8188169598579407
1787735940836467700,10.5184677734375,8.813055992126465,8.027758598327637,1.0558429956436157
1787735940852831500,10.53483154296875,10.869675636291504,7.254431247711182,0.9074024558067322
1787735940868496100,10.55049609375,11.058817863464355,6.876147270202637,0.15322890877723694
1787735940884300000,10.566300048828126,9.603142738342285,6.88332986831665,-0.6847416758537292
1787735940900381000,10.582380859375,7.5417351722717285,6.983886241912842,-0.8738836050033569
1787735940916364500,10.598364501953125,6.074089527130127,7.072471618652344,-0.6584054827690125
1787735940932766700,10.6147666015625,5.389348030090332,7.074865818023682,-0.3663128614425659
1787735940948352000,10.63035205078125,5.157110691070557,6.943184852600098,-0.26336219906806946
1787735940964286000,10.646285888671875,5.250484466552734,6.732495307922363,-0.29209262132644653
1787735940980307500,10.662307373046875,5.556941986083984,6.50025749206543,-0.3256114423274994
1787735940996429800,10.678429931640625,5.609614372253418,6.279991149902344,-0.12449848651885986
1787735941012754400,10.69475439453125,5.339069843292236,6.222530364990234,0.0933738648891449
1787735941028325400,10.710325439453126,4.876988887786865,6.212953567504883,0.524330198764801
1787735941044294000,10.7262939453125,4.304774761199951,6.339846134185791,0.9193734526634216
1787735941060231200,10.742231201171874,3.9887399673461914,6.509834289550781,1.1803414821624756
1787735941076286700,10.75828662109375,3.9049429893493652,6.66785192489624,1.192312479019165
1787735941092735000,10.77473486328125,4.01268196105957,6.730101108551025,1.0869675874710083
1787735941108305200,10.79030517578125,4.441244125366211,6.782773494720459,0.7733271718025208
1787735941124231200,10.806231201171874,5.097255229949951,6.981492042541504,0.2849099934101105
1787735941140232000,10.82223193359375,5.635950565338135,7.134721279144287,-0.05506663769483566
1787735941156249300,10.838249267578124,5.5976433753967285,7.343016624450684,-0.24420857429504395
1787735941172693200,10.854693359375,5.542576789855957,7.544129371643066,-0.2537853717803955
1787735941188683300,10.870683349609376,5.612008571624756,7.726089000701904,0.016759412363171577
1787735941204173000,10.886173095703125,5.750872611999512,7.886500358581543,0.1173158809542656
1787735941220169500,10.90216943359375,5.918466567993164,8.063671112060547,0.05985504388809204
1787735941236222200,10.91822216796875,5.987898349761963,8.360552787780762,-0.038307227194309235
1787735941252656600,10.93465673828125,5.947196960449219,8.779537200927734,-0.19871874153614044
1787735941268249000,10.9502490234375,5.975927352905273,9.248801231384277,-0.31603461503982544
1787735941284145000,10.966144775390624,6.555324077606201,9.636661529541016,-0.3423708379268646
1787735941300241000,10.982240966796875,7.829039573669434,9.564835548400879,-0.047884032130241394
1787735941324236800,11.00623681640625,9.682151794433594,9.208099365234375,0.4141969084739685
1787735941340671200,11.022671142578124,9.792284965515137,9.131484985351562,0.646434485912323
1787735941356264200,11.03826416015625,8.154650688171387,9.136273384094238,0.6967126727104187
1787735941372678400,11.054678466796876,6.14831018447876,9.339780807495117,0.507570743560791
1787735941388177700,11.070177734375,4.67827033996582,9.634267807006836,1.2258312702178955
1787735941404177700,11.086177734375,4.790797710418701,9.315838813781738,2.276885747909546
1787735941420156200,11.10215625,6.473921298980713,8.520963668823242,2.4684219360351562
1787735941436238000,11.118238037109375,7.86734676361084,7.903259754180908,1.9081788063049316
1787735941452659500,11.134659423828126,8.920795440673828,7.297526836395264,1.0558429956436157
1787735941468183000,11.15018310546875,9.313444137573242,6.98628044128418,0.31124621629714966
1787735941484204300,11.166204345703125,8.485051155090332,6.9024834632873535,-0.1364694982767105
1787735941508184600,11.1901845703125,5.631162166595459,7.1490864753723145,-0.3663128614425659
1787735941524159200,11.2061591796875,4.235342979431152,7.412448406219482,-0.17717093229293823
1787735941540256500,11.222256591796874,3.313575267791748,7.484274387359619,0.22266076505184174
1787735941556249900,11.238249755859375,3.3231520652770996,7.3669586181640625,0.6177040338516235
1787735941572647200,11.254647216796876,3.890577793121338,7.264008045196533,0.9744400978088379
1787735941588203500,11.27020361328125,4.228160381317139,7.163451671600342,1.1252747774124146
1787735941604176000,11.28617578125,4.182670593261719,7.19936466217041,1.2234370708465576
1787735941628256000,11.310256103515625,4.031835556030273,7.275979042053223,1.173158884048462
1787735941644219100,11.32621923828125,4.2329487800598145,7.3023152351379395,0.7948749661445618
1787735941660172000,11.342172119140624,4.900930881500244,7.309497833251953,0.16519992053508759
1787735941676231200,11.358231201171876,5.2696380615234375,7.359776020050049,-0.646434485912323
1787735941692708900,11.374708984375,4.999093055725098,7.618350028991699,-1.0606313943862915
1787735941708213000,11.390212890625,4.5609540939331055,7.953537940979004,-0.9074024558067322
1787735941724240100,11.406240234375,3.9169139862060547,8.157045364379883,-0.6105214357376099
1787735941740244700,11.42224462890625,3.914519786834717,8.406042098999023,-0.05267243832349777
1787735941756309200,11.438309326171876,4.323928356170654,8.49941635131836,0.5099649429321289
1787735941772787200,11.454787109375,4.833893299102783,8.676587104797363,1.1516109704971313
1787735941788344300,11.47034423828125,4.999093055725098,8.959102630615234,1.3000515699386597
1787735941804373000,11.486373046875,5.070919036865234,9.287108421325684,0.8667010068893433
1787735941820339700,11.502339599609375,5.434837818145752,9.787496566772461,0.33997663855552673
1787735941844342800,11.5263427734375,6.229712963104248,10.110713958740234,0.35913026332855225
1787735941860290000,11.5422900390625,6.5481414794921875,10.122684478759766,0.42377370595932007
1787735941876361200,11.558361328125,6.6846113204956055,9.847352027893066,0.9097966551780701
1787735941892778200,11.5747783203125,6.490680694580078,9.828198432922363,1.0989385843276978
1787735941908314600,11.590314697265624,5.961562156677246,9.667786598205566,0.9193734526634216
1787735941924237800,11.60623779296875,5.398924827575684,9.677363395690918,0.5410895943641663
1787735941940217300,11.62221728515625,5.274426460266113,9.488221168518066,0.22266076505184174
1787735941956325400,11.638325439453125,5.418078422546387,9.263166427612305,0.0071826050989329815
1787735941972749300,11.654749267578126,5.748478412628174,9.011775016784668,-0.6177040338516235
1787735941988278300,11.6702783203125,5.872976779937744,8.71489429473877,-0.9409212470054626
1787735942004700200,11.6867001953125,5.535394191741943,8.485051155090332,-0.7182605266571045
1787735942020210000,11.7022099609375,4.668693542480469,8.561665534973145,-0.1149216815829277
1787735942036310000,11.71831005859375,3.754108190536499,8.734047889709473,0.2537853717803955
1787735942052715800,11.7347158203125,3.2417490482330322,8.549694061279297,0.4165911078453064
1787735942068282600,11.75028271484375,3.8762125968933105,8.212111473083496,-0.090979665517807
1787735942084256000,11.766256103515625,5.2480902671813965,7.864952564239502,-0.3687070608139038
1787735942100228000,11.78222802734375,5.767632007598877,7.60637903213501,-0.2849099934101105
1787735942116285400,11.798285400390625,5.394136428833008,7.343016624450684,0.11013327538967133
1787735942132705500,11.81470556640625,5.094861030578613,7.417236804962158,0.6129156351089478
1787735942148268300,11.830268310546876,4.280832767486572,6.6391215324401855,0.6799532771110535
1787735942164199000,11.846198974609376,3.2321722507476807,7.01979923248291,0.47405192255973816
1787735942180189400,11.862189453125,1.9273324012756348,7.359776020050049,0.5674257874488831
1787735942196305200,11.87830517578125,0.8427590131759644,7.299921035766602,0.6153098344802856
1787735942212716800,11.894716796875,0.6967126727104187,7.800309181213379,0.17238251864910126
1787735942228284200,11.9102841796875,1.5059528350830078,8.027758598327637,0.002394201699644327
1787735942244216000,11.926216064453126,2.346317768096924,8.130708694458008,-0.07661445438861847
1787735942260661800,11.942661865234374,2.7006595134735107,8.015787124633789,-0.2298433631658554
1787735942276262700,11.9582626953125,2.9472622871398926,8.001421928405762,-1.1899182796478271
1787735942292658700,11.97465869140625,3.928884983062744,7.862558364868164,-0.9361328482627869
1787735942308314600,11.990314697265624,2.7437551021575928,8.544905662536621,0.11252748221158981
1787735942324166700,12.006166748046875,3.555389642715454,8.971074104309082,-0.689530074596405
1787735942340144400,12.022144287109375,2.231395959854126,8.741230010986328,1.2330138683319092
1787735942356216000,12.038216064453126,1.9345149993896484,10.247182846069336,-0.545877993106842
1787735942372649500,12.0546494140625,0.40462008118629456,10.316615104675293,-0.4836287498474121
1787735942388203000,12.070203125,-0.19153612852096558,10.699687004089355,-1.0342950820922852
1787735942404279800,12.08627978515625,0.5219359993934631,11.006145477294922,-1.0007762908935547
1787735942420178200,12.10217822265625,1.8962076902389526,10.76193618774414,-0.19632454216480255
1787735942436425200,12.11842529296875,3.359065055847168,10.826580047607422,0.5578489899635315
1787735942452733200,12.134733154296875,4.189853191375732,10.903194427490234,1.1683704853057861
1787735942468356900,12.15035693359375,3.31118106842041,10.656591415405273,-0.40701428055763245
1787735942484317200,12.166317138671875,0.002394201699644327,11.45146656036377,-0.043095629662275314
1787735942500353000,12.18235302734375,0.023942016065120697,10.972626686096191,-0.004788403399288654
1787735942516482600,12.198482666015625,0.3016694188117981,10.436325073242188,0.38067805767059326
1787735942532888800,12.214888916015624,4.886565685272217,9.945513725280762,0.2825157940387726
1787735942548621300,12.230621337890625,7.817068576812744,9.193734169006348,1.1779472827911377
1787735942564942300,12.2469423828125,10.096348762512207,8.688557624816895,1.7956513166427612
1787735942580522800,12.262522705078124,8.853757858276367,8.418013572692871,1.2497732639312744
1787735942596721000,12.278720947265626,6.14831018447876,8.200140953063965,0.3423708379268646
1787735942613164800,12.295164794921876,2.8107926845550537,8.027758598327637,0.3423708379268646
1787735942628744700,12.31074462890625,0.8379706144332886,8.33182144165039,0.5291185975074768
1787735942644723200,12.32672314453125,0.5602431893348694,8.497021675109863,0.871489405632019
1787735942660755700,12.342755615234376,0.7254431247711182,8.621520042419434,1.4484920501708984
1787735942676777700,12.35877783203125,0.49799394607543945,8.520963668823242,1.623268723487854
1787735942693238000,12.375238037109375,0.3280056416988373,8.793902397155762,1.41257905960083
1787735942708869000,12.390869140625,0.23702596127986908,8.69095230102539,1.3215993642807007
1787735942724761000,12.406760986328125,0.20350714027881622,8.729259490966797,1.3287819623947144
1787735942740743000,12.422742919921875,0.6823474764823914,8.75080680847168,1.37906014919281
1787735942756805600,12.4388056640625,1.4508862495422363,8.793902397155762,1.5298948287963867
1787735942773233700,12.455233642578126,2.3080103397369385,8.793902397155762,1.4748282432556152
1787735942788795600,12.470795654296875,2.612074136734009,8.695740699768066,1.139639973640442
1787735942804749000,12.4867490234375,2.1739351749420166,8.78432559967041,0.4812345504760742
1787735942821214000,12.5032138671875,1.3048399686813354,8.87051773071289,-0.26575639843940735
1787735942836925700,12.51892578125,1.1875240802764893,8.860940933227539,-0.7565677165985107
1787735942853213000,12.535212890625,1.9273324012756348,8.932766914367676,-0.569819986820221
1787735942868806400,12.550806396484376,2.873042106628418,9.160215377807617,0.031124621629714966
1787735942884750300,12.566750244140625,3.1531636714935303,9.351752281188965,0.26575639843940735
1787735942908734700,12.590734619140624,3.1052796840667725,9.801861763000488,0.5291185975074768
1787735942925275600,12.607275634765625,2.63362193107605,10.180145263671875,0.8403648138046265
1787735942940868400,12.622868408203125,2.0638017654418945,10.711658477783203,0.9361328482627869
1787735942956868400,12.638868408203125,1.843535304069519,11.233593940734863,0.586579442024231
1787735942973275100,12.655275146484374,2.0374655723571777,11.532869338989258,0.3734954595565796
1787735942988804900,12.670804931640625,2.738966703414917,11.66455078125,0.5626373887062073
1787735943004791000,12.686791015625,3.4620156288146973,11.640608787536621,0.6967126727104187
1787735943020817700,12.702817626953125,3.840299606323242,11.499350547790527,0.7254431247711182
1787735943036883500,12.718883544921875,3.5027170181274414,11.504138946533203,0.31842881441116333
1787735943053223400,12.735223388671875,3.047818660736084,11.492168426513672,0.0933738648891449
1787735943068723200,12.75072314453125,3.581725835800171,11.21444034576416,0.3902548849582672
1787735943084776400,12.7667763671875,4.565742492675781,10.54645824432373,0.5506663918495178
1787735943100909600,12.78290966796875,4.7836151123046875,9.835380554199219,0.1604115068912506
1787735943116807700,12.7988076171875,4.802768707275391,9.411606788635254,-0.33758243918418884
1787735943133226800,12.815226806640625,4.268861770629883,9.205705642700195,-0.6416460275650024
1787735943148709600,12.830709716796875,3.426102638244629,9.157821655273438,-0.7876923680305481
1787735943164716300,12.84671630859375,2.650381326675415,9.050082206726074,-0.6584054827690125
1787735943180735000,12.86273486328125,2.6815059185028076,8.937555313110352,-0.31364041566848755
1787735943196735700,12.87873583984375,3.00711727142334,8.650250434875488,0.05985504388809204
1787735943213171500,12.89517138671875,3.1890766620635986,8.429984092712402,0.09576806426048279
1787735943229163500,12.91116357421875,3.2848446369171143,8.200140953063965,0.035913024097681046
1787735943244700000,12.926699951171875,3.3279404640197754,7.987056732177734,-0.1173158809542656
1787735943260686300,12.942686279296876,3.620033025741577,7.833827972412109,-0.3256114423274994
1787735943276700200,12.9587001953125,3.5386300086975098,7.819462776184082,-0.181959331035614
1787735943293143800,12.975143798828125,2.9688100814819336,7.915230751037598,0.19871874153614044
1787735943308630500,12.990630615234375,2.0638017654418945,8.090007781982422,0.6033388376235962
1787735943324677400,13.006677490234376,1.2090718746185303,8.291120529174805,0.9074024558067322
1787735943340744000,13.022743896484375,0.4189853072166443,8.406042098999023,1.0079588890075684
1787735943356683800,13.038683837890625,-0.1173158809542656,8.547300338745117,0.9097966551780701
1787735943373080600,13.05508056640625,0.10534487664699554,8.580819129943848,0.8427590131759644
1787735943388729000,13.07072900390625,0.6727706789970398,8.698134422302246,0.5339069962501526
1787735943404655000,13.086655029296875,1.278503656387329,8.865729331970215,0.0933738648891449
1787735943420604400,13.1026044921875,1.4484920501708984,8.947132110595703,-0.19393034279346466
1787735943436638200,13.11863818359375,1.3431471586227417,9.01895809173584,-0.2585737705230713
1787735943453100000,13.13510009765625,1.0462661981582642,9.2033109664917,-0.2801215946674347
1787735943476679000,13.158678955078125,1.4628572463989258,9.804255485534668,-0.05985504388809204
1787735943493136600,13.17513671875,1.7764976024627686,10.26394271850586,-0.15801730751991272
1787735943508768500,13.1907685546875,2.1475989818573,10.90798282623291,-0.05506663769483566
1787735943524838400,13.20683837890625,2.851494312286377,11.458649635314941,0.4692635238170624
1787735943540754700,13.222754638671875,3.7469255924224854,11.72201156616211,0.8164227604866028
1787735943556849200,13.23884912109375,4.288015365600586,11.544840812683105,1.2114660739898682
1787735943588927200,13.27092724609375,4.213795185089111,11.113883972167969,1.1180921792984009
1787735943620867300,13.302867431640625,1.7764976024627686,11.267112731933594,-0.2082955539226532
1787735943637309700,13.319309814453124,0.023942016065120697,11.504138946533203,-0.1412578970193863
1787735943660908000,13.342907958984375,0.9361328482627869,11.0300874710083,1.9033904075622559
1787735943676954600,13.35895458984375,2.985569477081299,10.383652687072754,2.8155810832977295
1787735943693354800,13.375354736328125,4.323928356170654,9.600749015808105,2.9927520751953125
1787735943716888800,13.398888916015625,6.174646377563477,8.995016098022461,2.1954829692840576
1787735943733327600,13.41532763671875,5.882553577423096,8.71728801727295,1.2090718746185303
1787735943748898000,13.43089794921875,4.745307922363281,8.439560890197754,0.19153612852096558
1787735943764860400,13.4468603515625,3.5170822143554688,8.346187591552734,-0.5985504388809204
1787735943780771300,13.462771240234375,3.1076738834381104,8.300697326660156,-0.8475474119186401
1787735943796858000,13.478858154296875,3.2561142444610596,8.197746276855469,-0.5650315880775452
1787735943813274400,13.4952744140625,2.7916390895843506,8.010998725891113,-0.17238251864910126
1787735943828877600,13.510877685546875,2.298433542251587,7.927201747894287,0.4189853072166443
1787735943853225000,13.535224853515626,1.6687586307525635,7.999027729034424,0.811634361743927
1787735943868726000,13.55072607421875,1.2425906658172607,8.125920295715332,0.8403648138046265
1787735943884743400,13.566743408203125,1.0630255937576294,8.269572257995605,0.7254431247711182
1787735943900736000,13.582736083984376,1.0678139925003052,8.398859977722168,0.545877993106842
1787735943924779000,13.606779052734375,1.259350061416626,8.540117263793945,-0.1364694982767105
1787735943948733000,13.63073291015625,1.2066776752471924,8.592789649963379,-0.7972691655158997
1787735943964835000,13.6468349609375,1.5490485429763794,8.597578048706055,-0.8810662031173706
1787735943980708600,13.66270849609375,1.659181833267212,8.56884765625,-0.5003881454467773
1787735943996754000,13.67875390625,1.9752163887023926,8.518569946289062,0.11013327538967133
1787735944013179100,13.69517919921875,2.027888774871826,8.528146743774414,0.5817909836769104
1787735944028681700,13.710681640625,1.6352397203445435,8.549694061279297,1.158793568611145
1787735944053150200,13.735150146484376,0.9457096457481384,8.789113998413086,1.5538369417190552
1787735944076712200,13.758712158203124,1.0462661981582642,9.428366661071777,1.4221558570861816
1787735944093126100,13.775126220703125,1.6400281190872192,9.979032516479492,0.8020575642585754
1787735944116728800,13.798728759765625,2.8419175148010254,10.912771224975586,0.1628057211637497
1787735944140607500,13.822607421875,4.388571739196777,11.571176528930664,0.13407529890537262
1787735944156657000,13.838656982421876,5.109226226806641,11.923124313354492,0.706289529800415
1787735944173057000,13.85505712890625,4.975151062011719,12.253523826599121,1.070208191871643
1787735944188593000,13.870593017578125,3.9025487899780273,12.447454452514648,1.256955862045288
1787735944204868400,13.886868408203124,3.203441858291626,12.392388343811035,1.4221558570861816
1787735944220628000,13.9026279296875,3.1076738834381104,11.97100830078125,1.3742717504501343
1787735944236803000,13.918802978515625,3.883395195007324,11.154585838317871,1.2066776752471924
1787735944253043700,13.935043701171875,4.960785865783691,10.141838073730469,0.9696516990661621
1787735944268581000,13.9505810546875,5.058948040008545,9.41400146484375,0.28969839215278625
1787735944284600300,13.966600341796875,4.3406877517700195,9.062053680419922,-0.19153612852096558
1787735944308601900,13.990601806640624,2.9735984802246094,8.868123054504395,-0.6919242739677429
1787735944324616200,14.0066162109375,2.4468741416931152,8.80587387084961,-0.9074024558067322
1787735944340573700,14.02257373046875,2.322375535964966,8.700529098510742,-0.9983820915222168
1787735944356621300,14.038621337890625,2.6599581241607666,8.556877136230469,-0.9911994934082031
1787735944373068500,14.055068603515625,2.892195701599121,8.422801971435547,-0.9457096457481384
1787735944388629500,14.07062939453125,3.0406360626220703,8.269572257995605,-0.751779317855835
1787735944404653300,14.0866533203125,3.045424461364746,8.226476669311523,-0.5650315880775452
1787735944420636400,14.102636474609374,2.719813108444214,8.154650688171387,-0.22744916379451752
1787735944436682800,14.118682861328125,2.3582887649536133,8.133103370666504,0.11013327538967133
1787735944453100800,14.135100830078125,1.8842366933822632,8.130708694458008,0.4141969084739685
1787735944468725500,14.1507255859375,1.4293384552001953,8.094796180725098,0.5363011956214905
1787735944484830700,14.166830810546875,1.5203180313110352,8.178592681884766,0.7637503147125244
1787735944500675000,14.182675048828125,1.357512354850769,8.257601737976074,0.5602431893348694
1787735944516734500,14.198734375,1.115697979927063,8.38449478149414,0.4405331015586853
1787735944533156000,14.215156005859376,0.9696516990661621,8.62391471862793,0.2059013396501541
1787735944548824800,14.230824951171876,1.1085153818130493,8.729259490966797,-0.05506663769483566
1787735944564797700,14.246797607421875,1.680729627609253,8.913613319396973,-0.14604631066322327
1787735944580764200,14.26276416015625,2.0374655723571777,9.050082206726074,-0.0454898327589035
1787735944596880400,14.27888037109375,1.800439715385437,9.0859956741333,0.026336219161748886
1787735944613240000,14.295239990234375,1.6950948238372803,9.275136947631836,0.12928688526153564
1787735944628824000,14.310823974609375,1.7166426181793213,9.59835433959961,0.16519992053508759
1787735944644730400,14.32673046875,2.0614075660705566,9.892841339111328,0.11013327538967133
1787735944660722700,14.34272265625,2.1284453868865967,10.333374977111816,-0.11971008777618408
1787735944676768500,14.3587685546875,1.8818424940109253,10.790667533874512,-0.395043283700943
1787735944693190000,14.37518994140625,2.0470423698425293,11.075576782226562,-0.5530605912208557
1787735944709174300,14.39117431640625,3.0573954582214355,11.168951034545898,-0.2322375625371933
1787735944724669200,14.406669189453124,3.9456443786621094,11.233593940734863,0.22026655077934265
1787735944740648400,14.4226484375,4.683058738708496,11.250353813171387,0.7661445140838623
1787735944756762600,14.4387626953125,3.8810009956359863,11.329362869262695,1.0749965906143188
1787735944773154000,14.455154052734375,1.6400281190872192,11.405977249145508,0.9409212470054626
1787735944788746200,14.470746337890626,0.828393816947937,11.477803230285645,1.2282254695892334
1787735944805118500,14.487118408203125,0.9959878921508789,11.314997673034668,1.6065093278884888
1787735944820668400,14.50266845703125,2.4444799423217773,10.651803016662598,2.0470423698425293
1787735944844768000,14.52676806640625,5.2265424728393555,9.50498104095459,1.9847931861877441
1787735944861105700,14.543105712890625,5.738901615142822,8.918401718139648,1.290474772453308
1787735944876665000,14.5586650390625,5.1595048904418945,8.49941635131836,0.5386953949928284
1787735944893080600,14.57508056640625,4.077325344085693,8.398859977722168,-0.047884032130241394
1787735944908597500,14.590597412109375,2.9735984802246094,8.379706382751465,-0.06703764945268631
1787735944924627700,14.606627685546876,1.9632453918457031,8.329427719116211,-0.009576806798577309
1787735944940609000,14.622609130859376,1.039083480834961,8.362946510314941,-0.10773907601833344
1787735944956673500,14.638673583984374,0.8044517636299133,8.451532363891602,-0.09816227108240128
1787735944973046800,14.655046875,0.6823474764823914,8.530540466308594,0.06224924325942993
1787735944988816400,14.67081640625,0.9888052940368652,8.501810073852539,0.4572925269603729
1787735945004673800,14.686673828125,1.482010841369629,8.449137687683105,0.8259995579719543
1787735945020592600,14.702592529296876,1.843535304069519,8.456320762634277,1.0031704902648926
1787735945036800800,14.71880078125,2.2026655673980713,8.453926086425781,1.1540051698684692
1787735945053033500,14.735033447265625,2.183511972427368,8.458714485168457,1.0319008827209473
1787735945068553700,14.7505537109375,1.5921441316604614,8.432378768920898,0.7134721279144287
1787735945084584000,14.766583984375,1.1492167711257935,8.489839553833008,0.14365209639072418
1787735945100573400,14.782573486328126,1.048660397529602,8.595184326171875,-0.2322375625371933
1787735945117008400,14.79900830078125,1.0247182846069336,8.71489429473877,-0.33997663855552673
1787735945133003000,14.8150029296875,1.2545616626739502,8.87291145324707,-0.15322890877723694
1787735945148703700,14.830703857421875,1.357512354850769,8.913613319396973,0.18914192914962769
1787735945164593200,14.84659326171875,1.599326729774475,9.038111686706543,0.7206547260284424
1787735945180503600,14.862503662109376,1.8914192914962769,9.148244857788086,1.2832920551300049
1787735945196544500,14.87854443359375,1.7262194156646729,9.181763648986816,1.6519991159439087
1787735945212990000,14.894989990234375,1.7046716213226318,9.265560150146484,1.5466543436050415
1787735945228481800,14.910481689453125,1.5921441316604614,9.47146224975586,0.9457096457481384
1787735945244484000,14.926484130859375,1.6376339197158813,9.799467086791992,0.45010992884635925
1787735945260643600,14.9426435546875,2.516305923461914,10.302249908447266,0.12210428714752197
1787735945276554800,14.9585546875,3.3518824577331543,10.8505220413208,-0.19153612852096558
1787735945293005800,14.975005859375,4.247313976287842,11.1474027633667,0.08140286058187485
1787735945308643300,14.990643310546876,4.714183330535889,11.35809326171875,1.0079588890075684
1787735945324605700,15.006605712890625,4.242525577545166,11.33654499053955,1.702277421951294
1787735945340540700,15.022540771484374,2.8443117141723633,11.341333389282227,1.5634137392044067
1787735945356650800,15.038650634765625,1.3503297567367554,11.492168426513672,0.8643068075180054
1787735945373030700,15.05503076171875,0.7709329724311829,11.621455192565918,0.272938996553421
1787735945388557000,15.07055712890625,1.941697597503662,11.425130844116211,0.13168109953403473
1787735945404657000,15.086656982421875,4.017470359802246,10.769119262695312,0.20350714027881622
1787735945420579000,15.1025791015625,5.427655220031738,10.125079154968262,0.19153612852096558
1787735945444573200,15.1265732421875,4.747702121734619,9.469067573547363,-0.4596867263317108
1787735945460636700,15.14263671875,3.3470940589904785,9.437943458557129,-0.7254431247711182
1787735945476764400,15.158764404296875,2.8347349166870117,9.205705642700195,-0.4118026793003082
1787735945493122300,15.175122314453125,2.9448680877685547,8.923190116882324,-0.040701430290937424
1787735945508880000,15.1908798828125,3.0166940689086914,8.609549522399902,0.11013327538967133
1787735945525158100,15.207158203125,2.6599581241607666,8.360552787780762,-0.181959331035614
1787735945540701200,15.222701171875,2.1930887699127197,8.221688270568848,-0.49320554733276367
1787735945556824300,15.23882421875,1.8818424940109253,8.142680168151855,-0.507570743560791
1787735945573209900,15.2552099609375,1.920149803161621,8.010998725891113,-0.33518823981285095
1787735945588783600,15.27078369140625,2.2601263523101807,7.876923561096191,-0.009576806798577309
1787735945604718800,15.28671875,2.4157495498657227,7.843404769897461,0.3758896589279175
1787735945620722000,15.302721923828125,1.9776105880737305,7.91283655166626,0.3926490843296051
1787735945637105200,15.319105224609375,1.335964560508728,8.121131896972656,0.3280056416988373
1787735945653183000,15.335182861328125,0.8762778043746948,8.238448143005371,0.24660277366638184
1787735945677155800,15.35915576171875,1.158793568611145,8.422801971435547,-0.023942016065120697
1787735945693155300,15.3751552734375,1.359906554222107,8.473079681396484,-0.26815059781074524
1787735945708661200,15.3906611328125,1.8267759084701538,8.645462036132812,-0.3471592366695404
1787735945724687400,15.406687255859374,1.9752163887023926,8.786720275878906,-0.37828385829925537
1787735945740719400,15.42271923828125,1.6711528301239014,8.892065048217773,-0.16998831927776337
1787735945756713500,15.43871337890625,1.3048399686813354,9.081207275390625,0.31124621629714966
1787735945773130500,15.455130615234374,1.3551181554794312,9.20091724395752,0.608127236366272
1787735945788666400,15.470666259765625,1.501164436340332,9.38048267364502,0.4572925269603729
1787735945804722700,15.48672265625,1.766920804977417,9.66299819946289,0.0694318488240242
1787735945820729300,15.502729248046874,2.2840683460235596,10.072406768798828,-0.2944868206977844
1787735945836844800,15.5188447265625,2.6431987285614014,10.6925048828125,-0.8020575642585754
1787735945853222100,15.53522216796875,2.7006595134735107,11.348516464233398,-1.256955862045288
1787735945868725500,15.5507255859375,3.318363666534424,11.78665542602539,-1.0342950820922852
1787735945885027600,15.567027587890625,4.350264549255371,11.793837547302246,-0.2059013396501541
1787735945908781800,15.59078173828125,4.972756862640381,11.587936401367188,1.0414776802062988
1787735945924734700,15.606734619140624,3.093308687210083,11.556811332702637,0.950498104095459
1787735945940725500,15.6227255859375,1.1803414821624756,11.559206008911133,0.33997663855552673
1787735945956812800,15.638812744140624,0.6368576288223267,11.616666793823242,0.6272808313369751
1787735945973212400,15.65521240234375,1.7717092037200928,11.204863548278809,1.6950948238372803
1787735945988823000,15.670822998046875,3.8067808151245117,10.395624160766602,2.537853717803955
1787735946004705800,15.686705810546876,5.317522048950195,9.706093788146973,2.7102363109588623
1787735946020683000,15.70268310546875,5.91128396987915,9.08838939666748,2.1068975925445557
1787735946036740400,15.718740234375,5.985504150390625,8.580819129943848,1.2880805730819702
1787735946053173000,15.735173095703125,5.506663799285889,8.271966934204102,0.7565677165985107
1787735946068795000,15.750794921875,3.93367338180542,8.099584579467773,0.15562310814857483
1787735946084861200,15.766861083984375,2.5091233253479004,8.123526573181152,-0.12928688526153564
1787735946100679700,15.7826796875,1.5945383310317993,8.26478385925293,-0.15801730751991272
1787735946116718600,15.798718505859375,1.4987702369689941,8.38688850402832,0.26096799969673157
1787735946133139000,15.815138916015625,1.7860745191574097,8.365341186523438,0.8978256583213806
1787735946148780500,15.830780517578125,1.8818424940109253,8.317456245422363,1.3192051649093628
1787735946164637400,15.846637451171874,1.8986018896102905,8.283937454223633,1.4269442558288574
1787735946180649000,15.86264892578125,1.7046716213226318,8.188169479370117,1.1683704853057861
1787735946196705800,15.878705810546874,1.558625340461731,8.106766700744629,0.7254431247711182
1787735946213110000,15.895110107421875,1.4915876388549805,8.056488990783691,0.2944868206977844
1787735946228706600,15.91070654296875,1.213860273361206,8.006210327148438,-0.26096799969673157
1787735946244627000,15.926626953125,1.1204863786697388,7.975085735321045,-0.5770025849342346
1787735946260652800,15.94265283203125,1.1516109704971313,8.073247909545898,-0.8307880163192749
1787735946276702700,15.95870263671875,1.213860273361206,8.24084186553955,-1.048660397529602
1787735946293119000,15.975118896484375,1.2880805730819702,8.38449478149414,-0.9457096457481384
1787735946308793300,15.99079345703125,1.338358759880066,8.446743965148926,-0.4572925269603729
1787735946324775200,16.006775146484376,1.2952631711959839,8.451532363891602,0.17477671802043915
1787735946341235200,16.023235107421876,1.5418659448623657,8.437167167663574,0.8571242094039917
1787735946356810200,16.038810302734376,1.9057846069335938,8.523358345031738,1.3239935636520386
1787735946373266400,16.055266357421875,2.073378562927246,8.798690795898438,1.6065093278884888
1787735946388967200,16.07096728515625,1.534683346748352,9.311050415039062,1.5394717454910278
1787735946405213000,16.087212890625,1.3455413579940796,9.974244117736816,1.3072341680526733
1787735946420836600,16.102836669921874,1.721431016921997,10.793061256408691,1.1444283723831177
1787735946436934700,16.1189345703125,2.477998733520508,11.554417610168457,1.0749965906143188
1787735946453348400,16.135348388671876,3.6966474056243896,12.210428237915039,1.161187767982483
1787735946468990700,16.15099072265625,5.128379821777344,12.346898078918457,1.7070658206939697
1787735946493388000,16.175387939453124,5.458779811859131,12.265495300292969,2.051830768585205
1787735946508911000,16.1909111328125,3.1531636714935303,12.373234748840332,0.9888052940368652
1787735946524927500,16.206927490234374,2.030282974243164,12.504915237426758,0.1843535304069519
1787735946540895000,16.22289501953125,3.665522813796997,12.05959415435791,0.3447650372982025
1787735946556932600,16.2389326171875,5.65031623840332,11.190498352050781,0.7254431247711182
1787735946573309700,16.255309814453124,6.251260757446289,10.342951774597168,0.7134721279144287
1787735946588884200,16.27088427734375,5.719748020172119,9.655815124511719,0.2849099934101105
1787735946613387000,16.295386962890625,4.175487995147705,9.502586364746094,-0.2082955539226532
1787735946628964400,16.31096435546875,3.421314239501953,9.244012832641602,-0.23942017555236816
1787735946644988200,16.32698828125,3.689464807510376,8.927978515625,0.10055647045373917
1787735946660843000,16.342843017578126,3.9456443786621094,8.585607528686523,0.1604115068912506
1787735946676946200,16.3589462890625,3.706224203109741,8.389283180236816,0.09816227108240128
1787735946693314600,16.375314453125,3.1052796840667725,8.169015884399414,0.17477671802043915
1787735946708948200,16.3909482421875,2.9041666984558105,7.920019149780273,0.47165772318840027
1787735946724797000,16.406796875,2.75812029838562,7.599195957183838,0.6560112833976746
1787735946740785400,16.422785400390627,2.494758129119873,7.405265808105469,0.5434837937355042
1787735946756939800,16.438939697265624,2.1116859912872314,7.340622425079346,0.30885201692581177
1787735946773301800,16.4553017578125,2.011129379272461,7.326257228851318,-0.019153613597154617
1787735946788970800,16.470970703125,2.1930887699127197,7.393294811248779,0.10773907601833344
1787735946804804400,16.486804443359375,1.7357962131500244,7.714118003845215,0.20111294090747833
1787735946820782800,16.502782958984376,0.790086567401886,8.090007781982422,0.6200982332229614
1787735946836948000,16.518947998046876,0.2513911724090576,8.51138687133789,0.8140285611152649
1787735946853282300,16.5352822265625,0.6392518281936646,8.980650901794434,1.235408067703247
1787735946868831200,16.550831298828125,1.4221558570861816,9.418789863586426,1.6903064250946045
1787735946884757800,16.5667578125,2.027888774871826,9.720458984375,1.6879122257232666
1787735946900782300,16.5827822265625,2.6384103298187256,10.002974510192871,1.3742717504501343
1787735946916792600,16.59879248046875,2.8562827110290527,10.132261276245117,1.338358759880066
1787735946933216000,16.615216064453126,2.7533318996429443,10.287884712219238,1.37906014919281
1787735946948785400,16.630785400390625,2.410961151123047,10.38844108581543,1.335964560508728
1787735946964800300,16.64680029296875,2.2218191623687744,10.764330863952637,0.8930372595787048
1787735946980705800,16.662705810546875,2.3056161403656006,11.353304862976074,0.7805097699165344
1787735946996747500,16.67874755859375,2.609679937362671,11.920730590820312,0.6727706789970398
1787735947013161500,16.695161376953124,2.626439332962036,12.392388343811035,0.7230489253997803
1787735947044705000,16.726705078125,3.758896589279175,12.385205268859863,1.1444283723831177
1787735947060822500,16.742822509765624,3.3231520652770996,12.203246116638184,0.5961562395095825
1787735947076691500,16.75869140625,1.8267759084701538,11.78904914855957,0.8762778043746948
1787735947093098200,16.77509814453125,0.4189853072166443,12.20803451538086,1.5155296325683594
1787735947108702500,16.790702392578126,0.23702596127986908,12.471396446228027,2.0590133666992188
1787735947124642600,16.806642578125,2.0374655723571777,12.016498565673828,2.9472622871398926
1787735947140610000,16.822610107421873,5.284003257751465,11.099518775939941,4.247313976287842
1787735947157072400,16.839072265625,7.68538761138916,9.84256362915039,5.767632007598877
1787735947173078800,16.855078857421876,7.55131196975708,8.789113998413086,5.509057998657227
1787735947188663800,16.870663818359375,6.289567947387695,8.142680168151855,3.928884983062744
1787735947204837600,16.886837646484373,3.907337188720703,7.884106159210205,1.8124107122421265
1787735947220622600,16.90262255859375,1.9393033981323242,7.876923561096191,0.5793967843055725
1787735947236606500,16.9186064453125,1.256955862045288,8.066065788269043,0.2298433631658554
1787735947253054000,16.935053955078125,0.9385270476341248,8.195352554321289,-0.3974374830722809
1787735947276634000,16.958634033203126,0.13407529890537262,8.26478385925293,-0.8475474119186401
1787735947293058000,16.97505810546875,-0.9385270476341248,8.518569946289062,-0.7613561153411865
1787735947308552200,16.99055224609375,-1.6615760326385498,8.5903959274292,-0.6991068720817566
1787735947324643300,17.006643310546874,-1.7501614093780518,8.60236644744873,-0.17956513166427612
1787735947340651800,17.02265185546875,-0.9241618514060974,8.396465301513672,0.6248866319656372
1787735947356693800,17.03869384765625,-0.5554547905921936,8.597578048706055,0.6991068720817566
1787735947373120800,17.055120849609374,-0.5123591423034668,8.054094314575195,0.9026140570640564
1787735947388709000,17.070709228515625,-0.0454898327589035,7.977479934692383,0.5027823448181152
1787735947404697900,17.08669775390625,0.07661445438861847,7.939172744750977,-0.3519476354122162
1787735947420679700,17.1026796875,-0.871489405632019,8.142680168151855,-0.7206547260284424
1787735947436945200,17.118945068359373,-0.8882488012313843,8.31985092163086,-0.28730419278144836
1787735947453204700,17.135204833984375,0.1388636976480484,8.458714485168457,0.5530605912208557
1787735947468804400,17.150804443359377,0.2106897532939911,8.4108304977417,1.216254472732544
1787735947484726000,17.16672607421875,-0.2849099934101105,8.549694061279297,1.113303780555725
1787735947508727800,17.190727783203126,-0.7038952708244324,9.057265281677246,0.7038952708244324
1787735947524670700,17.206670654296875,-1.702277421951294,9.198522567749023,0.7565677165985107
1787735947540650800,17.222650634765625,-2.212242364883423,9.641449928283691,0.45489832758903503
1787735947556763400,17.238763427734376,-1.3934253454208374,10.038887977600098,1.3527239561080933
1787735947573106000,17.25510595703125,-0.6943184733390808,10.409989356994629,2.2146365642547607
1787735947588674600,17.270674560546876,-0.507570743560791,10.500968933105469,2.33913516998291
1787735947604629000,17.28662890625,-0.09576806426048279,10.625467300415039,1.4413094520568848
1787735947620657700,17.30265771484375,0.3256114423274994,10.57040023803711,1.1252747774124146
1787735947636693200,17.318693359375,-0.040701430290937424,10.536881446838379,0.849941611289978
1787735947653134300,17.33513427734375,-0.5171475410461426,10.517727851867676,0.272938996553421
1787735947669121500,17.35112158203125,-1.1540051698684692,10.615890502929688,-1.1276689767837524
1787735947684619000,17.366618896484376,-2.097320795059204,10.72602367401123,-2.585737943649292
1787735947700606000,17.38260595703125,-2.2601263523101807,10.563218116760254,-2.8993782997131348
1787735947716671500,17.39867138671875,-2.1571757793426514,10.163386344909668,-1.7262194156646729
1787735947733116400,17.415116455078124,-2.123656988143921,9.677363395690918,-0.3232172429561615
1787735947748730000,17.430730224609373,-1.8914192914962769,9.339780807495117,0.9361328482627869
1787735947764653000,17.446653076171874,-1.6687586307525635,9.172186851501465,1.1348515748977661
1787735947780600800,17.462600830078124,-1.4101848602294922,9.10993766784668,0.49559974670410156
1787735947796693800,17.47869384765625,-0.912190854549408,9.05487060546875,0.1388636976480484
1787735947813073200,17.4950732421875,-0.545877993106842,9.01895809173584,0.31124621629714966
1787735947828826000,17.510826171875,-1.0319008827209473,8.937555313110352,0.5554547905921936
1787735947844611300,17.526611328125,-1.403002142906189,8.89685344696045,0.8690952062606812
1787735947860606200,17.542606201171875,-1.6208745241165161,8.93037223815918,0.7661445140838623
1787735947884764400,17.566764404296876,-0.9289502501487732,8.865729331970215,0.44771572947502136
1787735947900581000,17.5825810546875,-0.2106897532939911,8.765172004699707,0.23702596127986908
1787735947916596500,17.598596435546874,0.2825157940387726,8.731653213500977,0.1628057211637497
1787735947933032400,17.615032470703124,0.5482721924781799,8.686163902282715,0.35913026332855225
1787735947948630800,17.630630859375,-0.26096799969673157,8.585607528686523,0.40462008118629456
1787735947964558000,17.64655810546875,-1.2880805730819702,8.729259490966797,0.49320554733276367
1787735947980576300,17.662576171875,-2.4588451385498047,8.832210540771484,0.3495534360408783
1787735947996598300,17.678598388671876,-3.0119056701660156,8.990227699279785,-0.08858546614646912
1787735948013004300,17.69500439453125,-2.2601263523101807,8.959102630615234,-0.05746084079146385
1787735948028527400,17.71052734375,-1.036689281463623,8.822632789611816,-0.090979665517807
1787735948044553700,17.7265537109375,-0.5817909836769104,8.664615631103516,-0.38307225704193115
1787735948060544000,17.7425439453125,-0.47165772318840027,8.619126319885254,-0.3232172429561615
1787735948076974600,17.758974609375,-0.7541735172271729,8.621520042419434,-0.33758243918418884
1787735948092989700,17.77498974609375,-0.6177040338516235,8.856152534484863,-0.22505496442317963
1787735948108604000,17.79060400390625,-0.4908113479614258,9.131484985351562,-0.2849099934101105
1787735948124619500,17.80661962890625,-0.8355764150619507,9.466673851013184,-0.2346317619085312
1787735948140550400,17.82255029296875,-1.2689268589019775,9.792284965515137,-0.3711012601852417
1787735948156662800,17.838662841796875,-1.237802267074585,10.019734382629395,-0.586579442024231
1787735948172989000,17.854989013671876,-0.2777273952960968,10.194510459899902,-0.6584054827690125
1787735948188544500,17.87054443359375,1.094150185585022,10.429142951965332,-0.3758896589279175
1787735948204571000,17.88657080078125,1.2258312702178955,10.63743782043457,-0.1364694982767105
1787735948220535300,17.902535400390626,0.22505496442317963,11.015722274780273,-0.3423708379268646
1787735948236627200,17.918627197265625,-0.023942016065120697,11.389217376708984,-0.35434186458587646
1787735948253007600,17.935007568359374,-0.22505496442317963,11.765107154846191,-0.021547814831137657
1787735948268544500,17.95054443359375,0.23942017555236816,11.824962615966797,1.0989385843276978
1787735948285012000,17.967011962890624,0.5817909836769104,11.892000198364258,1.3120225667953491
1787735948300872000,17.982871826171873,0.0454898327589035,11.753135681152344,0.6488286852836609
1787735948316626400,17.99862646484375,-1.0247182846069336,11.30302619934082,0.10295066982507706
1787735948333069600,18.015069580078126,-2.030282974243164,10.766724586486816,0.7326257228851318
1787735948348835600,18.030835693359375,-2.4372973442077637,10.230423927307129,2.6360161304473877
1787735948364647000,18.04664697265625,-1.9943699836730957,9.780313491821289,4.400542736053467
1787735948380889900,18.062889892578124,-1.5945383310317993,9.229647636413574,5.080495834350586
1787735948396698600,18.07869873046875,-1.6519991159439087,8.951920509338379,4.568136692047119
1787735948413100000,18.09510009765625,-1.7956513166427612,8.884882926940918,3.3279404640197754
1787735948428653300,18.1106533203125,-1.580173134803772,8.913613319396973,1.3670891523361206
1787735948444650500,18.126650390625,-1.2258312702178955,9.028534889221191,0.05746084079146385
1787735948460693800,18.14269384765625,-0.9720458984375,9.102754592895508,-0.7445967197418213
1787735948476637700,18.1586376953125,-1.1851298809051514,9.033323287963867,-1.01753568649292
1787735948493055700,18.1750556640625,-1.6208745241165161,9.002198219299316,-0.6727706789970398
1787735948508591900,18.190591796875,-1.6831238269805908,8.932766914367676,-0.4213795065879822
1787735948533044500,18.21504443359375,-1.6065093278884888,8.583212852478027,-0.21787235140800476
1787735948548607700,18.230607666015626,-1.3072341680526733,8.403648376464844,0.08140286058187485
1787735948564582400,18.24658251953125,-1.2856862545013428,8.233659744262695,0.31842881441116333
1787735948580541000,18.262541015625,-1.1683704853057861,8.209717750549316,0.05746084079146385
1787735948596633600,18.278633544921874,-1.2545616626739502,8.415618896484375,-0.7398083209991455
1787735948613064000,18.29506396484375,-1.1659762859344482,8.449137687683105,-1.4317326545715332
1787735948628643000,18.31064306640625,-0.790086567401886,8.391676902770996,-2.094926595687866
1787735948644748000,18.326748046875,-0.09816227108240128,8.322244644165039,-2.609679937362671
1787735948660567300,18.3425673828125,1.1851298809051514,8.583212852478027,-2.497152328491211
1787735948676874000,18.3588740234375,2.3295583724975586,8.856152534484863,-1.9273324012756348
1787735948693056000,18.375055908203127,1.50355863571167,8.829815864562988,-2.1475989818573
1787735948716749300,18.398749267578125,1.8483237028121948,8.588001251220703,-1.6089035272598267
1787735948733024500,18.4150244140625,2.513911724090576,8.947132110595703,-0.6033388376235962
1787735948748716000,18.430716064453126,3.265691041946411,9.239224433898926,0.5434837937355042
1787735948764556500,18.446556640625,3.5003228187561035,9.706093788146973,1.2737152576446533
1787735948780558000,18.46255810546875,2.03507137298584,10.153809547424316,0.7422025203704834
1787735948796586800,18.478586669921874,1.1228805780410767,10.84094524383545,0.20111294090747833
1787735948813034500,18.495034423828123,1.2018892765045166,11.532869338989258,1.048660397529602
1787735948828575000,18.510574951171876,1.8818424940109253,11.489773750305176,2.097320795059204
1787735948844567000,18.526567138671876,2.4133553504943848,11.173739433288574,3.3255462646484375
1787735948860532700,18.54253271484375,2.0039467811584473,11.010933876037598,3.426102638244629
1787735948876613000,18.558613037109374,0.5219359993934631,10.958261489868164,2.3080103397369385
1787735948893018000,18.57501806640625,-0.7996633648872375,10.709263801574707,1.0654197931289673
1787735948908615200,18.590615234375,-0.5650315880775452,10.261548042297363,0.36152446269989014
1787735948924515300,18.606515380859374,1.0319008827209473,9.605537414550781,-0.06464344263076782
1787735948940500000,18.6225,3.397372245788574,9.224859237670898,-0.7230489253997803
1787735948956524300,18.638524169921876,5.657498836517334,9.150638580322266,-1.5682021379470825
1787735948972971000,18.654970947265625,6.514622688293457,9.155426979064941,-1.941697597503662
1787735948988474000,18.67047412109375,5.870582580566406,9.41639518737793,-1.400607943534851
1787735949004539400,18.686539306640626,4.400542736053467,9.57201862335205,-0.38546648621559143
1787735949020499500,18.70249951171875,3.1938650608062744,9.636661529541016,0.7972691655158997
1787735949036537900,18.718537841796874,2.873042106628418,9.624691009521484,1.8507179021835327
1787735949052955100,18.734955078125,2.7485435009002686,9.3828763961792,1.889025092124939
1787735949068465400,18.75046533203125,2.612074136734009,9.093177795410156,1.2880805730819702
1787735949084558000,18.76655810546875,2.499546527862549,8.664615631103516,0.6584054827690125
1787735949100708900,18.782708984375,2.3798365592956543,8.372523307800293,0.29209262132644653
1787735949116519200,18.798519287109375,2.145204782485962,8.214506149291992,-0.3495534360408783
1787735949132956700,18.814956787109374,2.6575639247894287,8.243236541748047,-0.5339069962501526
1787735949148926700,18.8309267578125,3.5242648124694824,8.341399192810059,-0.3447650372982025
1787735949164612400,18.8466123046875,4.414907932281494,8.583212852478027,0.24899697303771973
1787735949180492000,18.862491943359377,3.663128614425659,8.71489429473877,0.3280056416988373
1787735949196553700,18.8785537109375,3.361459255218506,8.813055992126465,0.5171475410461426
1787735949212956200,18.8949560546875,3.339911460876465,9.05487060546875,0.7493851184844971
1787735949228530200,18.9105302734375,2.980781078338623,9.155426979064941,0.9600749015808105
1787735949244528600,18.926528564453125,2.9089550971984863,9.165003776550293,1.0462661981582642
1787735949260541000,18.942541015625,2.6240451335906982,9.157821655273438,0.9241618514060974
1787735949276604400,18.9586044921875,2.719813108444214,9.327810287475586,0.5770025849342346
1787735949293022700,18.975022705078125,2.6815059185028076,9.361329078674316,0.3232172429561615
1787735949308693000,18.99069287109375,2.250549554824829,9.555258750915527,0.047884032130241394
1787735949324634600,19.006634521484376,2.233790159225464,9.730035781860352,-0.08619125932455063
1787735949340651800,19.02265185546875,2.2146365642547607,9.950302124023438,-0.42377370595932007
1787735949356748800,19.038748779296874,1.8698714971542358,10.201693534851074,-0.828393816947937
1787735949373113300,19.05511328125,1.9584569931030273,10.42195987701416,-0.6703764796257019
1787735949388647700,19.070647705078127,2.8658595085144043,10.752359390258789,-0.3471592366695404
1787735949405127000,19.087126953125,3.066972494125366,10.805032730102539,-0.14844051003456116
1787735949420674600,19.102674560546873,3.1100680828094482,10.771512985229492,-0.23942017555236816
1787735949436786400,19.118786376953125,3.1004912853240967,10.812214851379395,-0.019153613597154617
1787735949453124600,19.13512451171875,2.9520506858825684,10.948684692382812,0.1388636976480484
1787735949468665600,19.15066552734375,2.4875755310058594,11.097125053405762,0.23942017555236816
1787735949484692200,19.166692138671873,1.5538369417190552,11.27190113067627,0.5530605912208557
1787735949500775400,19.182775390625,1.625662922859192,11.12106704711914,0.8379706144332886
1787735949516723000,19.198722900390624,3.670311212539673,10.299856185913086,1.1540051698684692
1787735949533121000,19.21512109375,5.614402770996094,9.38048267364502,1.1109095811843872
1787735949548651500,19.230651611328124,6.543353080749512,8.525752067565918,0.7661445140838623
1787735949564643300,19.246643310546876,6.440402507781982,8.018181800842285,0.08858546614646912
1787735949580657000,19.262656982421873,5.803544998168945,7.99184513092041,-0.13407529890537262
1787735949596658400,19.278658447265624,4.426878929138184,8.147468566894531,-0.09816227108240128
1787735949613099000,19.29509912109375,2.784456491470337,8.367734909057617,0.0454898327589035
1787735949628595700,19.310595703125,1.5490485429763794,8.722076416015625,0.33997663855552673
1787735949644627700,19.326627685546875,1.048660397529602,9.160215377807617,0.7781155705451965
1787735949660633900,19.3426337890625,1.1013327836990356,9.279925346374512,1.1061211824417114
1787735949676660200,19.35866015625,1.6041151285171509,9.117119789123535,1.455674648284912
1787735949693081300,19.375081298828125,2.0853497982025146,8.801085472106934,1.8315643072128296
1787735949709070000,19.391070068359376,2.4803929328918457,8.396465301513672,2.075772762298584
1787735949724639700,19.4066396484375,2.7030537128448486,8.13789176940918,2.078166961669922
1787735949740632600,19.422632568359376,2.6144683361053467,8.051700592041016,1.7262194156646729
1787735949756668700,19.438668701171874,2.03507137298584,7.989450931549072,0.9576807022094727
1787735949773086500,19.45508642578125,1.2018892765045166,8.04930591583252,-0.19871874153614044
1787735949788656600,19.47065673828125,0.7254431247711182,8.1139497756958,-0.9433154463768005
1787735949804603600,19.486603759765625,0.7254431247711182,8.367734909057617,-1.3694833517074585
1787735949820601900,19.502601806640627,0.8259995579719543,8.688557624816895,-1.4939818382263184
1787735949836647400,19.5186474609375,0.8810662031173706,8.93037223815918,-1.2449848651885986
1787735949853057000,19.53505712890625,1.357512354850769,9.11233139038086,-0.6943184733390808
1787735949868580400,19.550580322265624,2.3558945655822754,9.387664794921875,0.05506663769483566
1787735949884620300,19.566620361328123,2.8610711097717285,9.512163162231445,0.49799394607543945
1787735949900588000,19.582588134765626,2.9927520751953125,9.732429504394531,0.6248866319656372
1787735949916621600,19.59862158203125,2.786850690841675,10.187328338623047,0.40462008118629456
1787735949933029000,19.615029052734375,2.535459518432617,10.647014617919922,0.038307227194309235
1787735949948627200,19.630627197265625,2.7293899059295654,11.03248119354248,-0.2082955539226532
1787735949965023000,19.64702294921875,2.87064790725708,11.238382339477539,-0.6177040338516235
1787735949980550100,19.662550048828123,3.4548330307006836,11.473014831542969,-1.0055646896362305
1787735949996615700,19.67861572265625,4.692635536193848,11.511322021484375,-0.7996633648872375
1787735950013010400,19.695010498046877,5.329493045806885,11.566388130187988,-0.5003881454467773
1787735950036562700,19.718562744140623,4.019864559173584,11.710040092468262,-0.48602294921875
1787735950052993000,19.734992919921876,3.1651346683502197,11.504138946533203,-0.33279404044151306
1787735950068594000,19.750593994140626,3.6607344150543213,10.776301383972168,0.13168109953403473
1787735950084536300,19.766536376953123,4.321534156799316,9.854534149169922,0.16759411990642548
1787735950100607200,19.782607177734373,4.584896087646484,9.069235801696777,-0.15322890877723694
1787735950117042000,19.7990419921875,4.338293552398682,8.65743350982666,-0.7829039692878723
1787735950133054000,19.815053955078124,3.758896589279175,8.59997272491455,-1.2449848651885986
1787735950148667100,19.830667236328125,2.7437551021575928,8.62391471862793,-1.3120225667953491
1787735950164707600,19.84670751953125,1.8698714971542358,8.820239067077637,-1.0462661981582642
1787735950180660000,19.862659912109375,1.290474772453308,8.954314231872559,-0.5482721924781799
1787735950196767700,19.878767822265626,1.3694833517074585,9.023746490478516,-0.17477671802043915
1787735950213115400,19.895115478515624,1.8962076902389526,9.071630477905273,0.019153613597154617
1787735950228728000,19.91072802734375,2.518700122833252,8.992621421813965,-0.1364694982767105
1787735950244669400,19.92666943359375,3.40216064453125,8.827422142028809,-0.22026655077934265
1787735950260698400,19.942698486328126,4.010287761688232,8.592789649963379,-0.2106897532939911
1787735950276820700,19.95882080078125,3.869029998779297,8.300697326660156,-0.17956513166427612
1787735950293206300,19.975206298828127,3.3925838470458984,8.090007781982422,-0.016759412363171577
1787735950308770300,19.990770263671877,2.58813214302063,7.936778545379639,0.181959331035614
1787735950324711400,20.00671142578125,1.656787633895874,7.886500358581543,0.29209262132644653
1787735950340695000,20.022695068359376,1.0534487962722778,7.987056732177734,0.21547815203666687
1787735950356757000,20.038757080078124,0.9145850539207458,8.039729118347168,0.019153613597154617
1787735950373169000,20.0551689453125,1.0773907899856567,8.133103370666504,-0.29209262132644653
1787735950388740900,20.070740966796876,1.2641384601593018,8.339004516601562,-0.3734954595565796
1787735950413138000,20.095137939453124,1.3934253454208374,8.738836288452148,-0.3447650372982025
1787735950428638000,20.110637939453124,1.742978811264038,9.059659004211426,-0.14365209639072418
1787735950460670000,20.142669921875,2.343923568725586,9.59596061706543,0.3471592366695404
1787735950476712200,20.158712158203127,2.4827871322631836,10.093954086303711,0.3663128614425659
1787735950493127000,20.175126953125,2.564189910888672,10.704475402832031,0.15562310814857483
1787735950508736500,20.190736572265624,3.2130186557769775,11.238382339477539,-0.07661445438861847
1787735950525092000,20.207092041015624,3.8570590019226074,11.702857971191406,-0.1843535304069519
1787735950540613600,20.222613525390624,4.153939723968506,11.925518989562988,-0.1412578970193863
1787735950556728600,20.238728515625,4.206612586975098,11.73398208618164,-0.19393034279346466
1787735950573052400,20.255052490234377,4.4508209228515625,11.439496040344238,-0.24420857429504395
1787735950588570600,20.270570556640624,4.055777549743652,11.319786071777344,-0.2777273952960968
1787735950604608800,20.28660888671875,2.0614075660705566,11.382035255432129,-0.5793967843055725
1787735950620582700,20.302582763671875,0.4884171485900879,11.410765647888184,-0.4213795065879822
1787735950636644400,20.318644287109375,-0.021547814831137657,11.35809326171875,0.35913026332855225
1787735950660547600,20.342547607421874,1.7741034030914307,10.122684478759766,1.8698714971542358
1787735950676592400,20.35859228515625,4.223371982574463,9.119514465332031,2.537853717803955
1787735950693024500,20.3750244140625,5.963956356048584,8.109161376953125,2.3942017555236816
1787735950708564700,20.390564697265624,6.636727333068848,7.5632829666137695,1.6855180263519287
1787735950724588800,20.4065888671875,6.01423454284668,7.419631004333496,0.6105214357376099
1787735950740557300,20.422557373046875,4.285621166229248,7.642292022705078,-0.2849099934101105
1787735950756626000,20.4386259765625,3.0334534645080566,7.996633529663086,-0.5051765441894531
1787735950772965000,20.454965087890624,1.9967641830444336,8.40843677520752,-0.4884171485900879
1787735950788520400,20.4705205078125,1.403002142906189,8.69095230102539,-0.2561795711517334
1787735950804500500,20.48650048828125,1.7046716213226318,8.851364135742188,0.272938996553421
1787735950820456200,20.502456298828125,2.47560453414917,8.995016098022461,0.8595184087753296
1787735950836503300,20.51850341796875,3.24414324760437,8.954314231872559,1.2425906658172607
1787735950852936400,20.5349365234375,3.713406801223755,8.848969459533691,1.3934253454208374
1787735950868484000,20.550484130859374,3.49314022064209,8.686163902282715,1.1683704853057861
1787735950884517600,20.566517578125,2.6001031398773193,8.595184326171875,0.4357447028160095
1787735950900440300,20.5824404296875,1.8842366933822632,8.508993148803711,-0.23702596127986908
1787735950916691000,20.59869091796875,1.558625340461731,8.432378768920898,-0.6368576288223267
1787735950932889300,20.614889404296875,1.3239935636520386,8.40843677520752,-0.6823474764823914
1787735950948444700,20.630444580078127,0.9241618514060974,8.44434928894043,-0.3926490843296051
1787735950964638700,20.646638671875,0.6224924325942993,8.540117263793945,0.1364694982767105
1787735950980423700,20.662423583984374,0.667982280254364,8.688557624816895,0.569819986820221
1787735950996453400,20.678453369140627,0.43095630407333374,8.923190116882324,0.8858546018600464
1787735951012901400,20.6949013671875,0.811634361743927,9.136273384094238,1.0223240852355957
1787735951044442000,20.726442138671874,1.9752163887023926,9.603142738342285,1.6759412288665771
1787735951060532200,20.7425322265625,2.2385785579681396,9.919178009033203,1.8794482946395874
1787735951076541000,20.758541015625,2.2912509441375732,10.390835762023926,1.7980455160140991
1787735951092939800,20.774939697265626,2.1954829692840576,11.025299072265625,1.5442601442337036
1787735951108503600,20.790503662109376,2.387019157409668,11.705251693725586,1.2952631711959839
1787735951124514300,20.806514404296873,2.8131868839263916,12.217611312866211,1.434126853942871
1787735951140471800,20.822471923828125,3.5697548389434814,12.466608047485352,1.9177556037902832
1787735951156612900,20.83861279296875,4.4532151222229,12.36605167388916,2.5498247146606445
1787735951172939300,20.854939208984376,3.955221176147461,12.131420135498047,2.470816135406494
1787735951188987000,20.87098681640625,2.4420857429504395,12.358869552612305,1.5418659448623657
1787735951204514000,20.88651416015625,1.0965443849563599,12.722787857055664,0.9768342971801758
1787735951220523800,20.902523681640623,0.6607996821403503,12.739546775817871,0.8738836050033569
1787735951236582700,20.918582763671875,1.721431016921997,12.375628471374512,1.2234370708465576
1787735951252980200,20.934980224609376,3.5410242080688477,11.583148002624512,1.889025092124939
1787735951268544000,20.9505439453125,4.874594688415527,10.560823440551758,2.0446481704711914
1787735951284509700,20.966509765625,5.035006046295166,9.909601211547852,1.742978811264038
1787735951300488200,20.98248828125,4.005499362945557,9.713275909423828,1.6759412288665771
1787735951316545000,20.998544921875,3.339911460876465,9.569623947143555,1.8100165128707886
1787735951341004300,21.02300439453125,3.3016040325164795,9.006986618041992,1.7549498081207275
1787735951356849400,21.038849365234373,3.026270866394043,8.705317497253418,1.7286136150360107
1787735951372979200,21.054979248046877,2.248155355453491,7.967903137207031,2.516305923461914
1787735951388638500,21.070638427734377,1.702277421951294,8.796297073364258,0.9409212470054626
1787735951404556300,21.086556396484376,1.5969325304031372,8.379706382751465,0.11971008777618408
1787735951420531000,21.102531005859376,1.8100165128707886,7.649474620819092,0.2059013396501541
1787735951444947700,21.12694775390625,1.723825216293335,7.766790390014648,-0.002394201699644327
1787735951460449000,21.142448974609376,1.37906014919281,8.058882713317871,-0.667982280254364
1787735951476559000,21.15855908203125,0.7326257228851318,7.714118003845215,-0.7469909191131592
1787735951492944000,21.17494384765625,0.14844051003456116,8.018181800842285,-1.1037269830703735
1787735951508508400,21.19050830078125,0.2059013396501541,8.315062522888184,-1.0845733880996704
1787735951524442600,21.206442626953127,0.047884032130241394,8.133103370666504,-0.4165911078453064
1787735951540399600,21.222399658203123,0.4596867263317108,8.451532363891602,0.1173158809542656
1787735951556464600,21.238464599609376,0.7996633648872375,8.544905662536621,0.4692635238170624
1787735951572902400,21.25490234375,0.8595184087753296,8.676587104797363,0.2298433631658554
1787735951588442000,21.270442138671875,1.0079588890075684,8.80587387084961,0.033518824726343155
1787735951604412000,21.286411865234374,0.22266076505184174,8.80587387084961,-0.5410895943641663
1787735951620360200,21.302360107421876,-0.2513911724090576,8.904036521911621,-0.8810662031173706
1787735951636502500,21.31850244140625,-0.15322890877723694,9.030928611755371,-0.8954314589500427
1787735951652848400,21.334848388671876,0.1388636976480484,9.430760383605957,-1.170764684677124
1787735951668414700,21.350414794921875,0.040701430290937424,9.737217903137207,-1.867477297782898
1787735951684337000,21.3663369140625,-0.2106897532939911,9.998186111450195,-2.0039467811584473
1787735951700787200,21.382787109375,-0.23702596127986908,10.146626472473145,-1.5059528350830078
1787735951716420900,21.3984208984375,-0.6943184733390808,9.959878921508789,-1.0678139925003052
1787735951732807200,21.41480712890625,-0.8355764150619507,9.806650161743164,-0.7134721279144287
1787735951748404200,21.430404296875,-0.2322375625371933,9.804255485534668,0.07422025501728058
1787735951764307500,21.446307373046874,0.2082955539226532,10.192116737365723,-0.10534487664699554
1787735951780305000,21.462304931640624,-0.4572925269603729,10.584765434265137,-0.7398083209991455
1787735951796410400,21.478410400390626,-1.723825216293335,10.72841739654541,-1.7357962131500244
1787735951812799200,21.49479931640625,-2.5019407272338867,10.87446403503418,-3.1435868740081787
1787735951828353500,21.510353515625,-2.3582887649536133,10.307038307189941,-2.8155810832977295
1787735951844276000,21.52627587890625,-1.7190368175506592,9.765948295593262,-1.3215993642807007
1787735951860301000,21.542301025390625,-0.9241618514060974,9.512163162231445,0.7733271718025208
1787735951876341800,21.558341796875,-0.40940847992897034,9.397241592407227,1.9273324012756348
1787735951892767000,21.57476708984375,-0.1388636976480484,9.035717010498047,2.3032219409942627
1787735951908324000,21.590323974609376,-0.31124621629714966,8.966285705566406,1.5155296325683594
1787735951924267000,21.60626708984375,-0.9864110946655273,8.829815864562988,0.2801215946674347
1787735951940231400,21.6222314453125,-1.6903064250946045,8.966285705566406,-1.3024457693099976
