time,seconds_elapsed,z,y,x
1787729873938188300,0.159188232421875,0.05647468566894531,-0.04140472412109375,-0.22072570025920868
1787729873954013000,0.175012939453125,0.04709672927856445,-0.02095508575439453,-0.20823271572589874
1787729873969906700,0.19090673828125,0.06599283218383789,0.019490718841552734,-0.1834840476512909
1787729873985904400,0.206904296875,0.04186296463012695,0.021579742431640625,-0.12048458307981491
1787729874002170600,0.223170654296875,-0.02165508270263672,0.0417633056640625,-0.047315582633018494
1787729874017833000,0.2388330078125,-0.04106712341308594,0.06786060333251953,-0.041371285915374756
1787729874034018300,0.255018310546875,-0.0423130989074707,0.07845592498779297,-0.030245209112763405
1787729874057949400,0.278949462890625,-0.02708721160888672,0.0318303108215332,-0.06605886667966843
1787729874073959400,0.29495947265625,0.031111717224121094,0.02838754653930664,-0.09984920918941498
1787729874089869600,0.31086962890625,0.05951070785522461,0.0736842155456543,-0.009179037064313889
1787729874105970200,0.32697021484375,0.11604738235473633,0.04524087905883789,0.009154491126537323
1787729874122076200,0.343076171875,0.11118078231811523,0.03287696838378906,-0.05061579868197441
1787729874137802200,0.35880224609375,0.1143183708190918,0.06055116653442383,-0.12929216027259827
1787729874162425900,0.38342578125,0.08374643325805664,0.01415252685546875,-0.07120645046234131
1787729874178062800,0.399062744140625,0.1037282943725586,0.04653501510620117,-0.06441255658864975
1787729874193937000,0.41493701171875,0.07915687561035156,0.10210227966308594,-0.0027855392545461655
1787729874209836500,0.43083642578125,0.050262451171875,0.12616682052612305,0.03286270052194595
1787729874225774300,0.4467744140625,0.03803110122680664,0.10243034362792969,0.02812836319208145
1787729874242148400,0.4631484375,0.0928640365600586,0.08106708526611328,0.04535626992583275
1787729874257754000,0.478754150390625,0.15965509414672852,0.08125925064086914,0.037265315651893616
1787729874274015700,0.495015625,0.18443870544433594,0.0853586196899414,0.05295710265636444
1787729874289898200,0.510898193359375,0.11526775360107422,0.09756755828857422,0.10783318430185318
1787729874305873400,0.526873291015625,0.013614654541015625,0.0969686508178711,0.15521833300590515
1787729874322242300,0.5432421875,-0.023523807525634766,0.10605478286743164,0.15714988112449646
1787729874337800400,0.558800537109375,-0.04208230972290039,0.06293582916259766,0.07884206622838974
1787729874354000100,0.575000244140625,-0.025829792022705078,0.023104190826416016,0.029185762628912926
1787729874369864400,0.590864501953125,0.010803699493408203,0.017735958099365234,-0.08592091500759125
1787729874385832200,0.606832275390625,-0.0077037811279296875,0.007643222808837891,-0.1530018299818039
1787729874402205200,0.623205078125,0.007937908172607422,-0.012538433074951172,-0.16417555510997772
1787729874418256100,0.639256103515625,0.016511917114257812,-0.049578189849853516,-0.0686272531747818
1787729874433931000,0.654930908203125,0.050805091857910156,-0.038236141204833984,-0.03795943781733513
1787729874449828600,0.67082861328125,0.0562744140625,-0.03160381317138672,-0.06508037447929382
1787729874465839000,0.686839111328125,0.021273136138916016,-0.027550697326660156,-0.09122779220342636
1787729874482165000,0.7031650390625,0.017356395721435547,0.026812076568603516,-0.056838322430849075
1787729874497715200,0.718715087890625,0.034775733947753906,0.035855770111083984,0.020654957741498947
1787729874513978000,0.73497802734375,0.030587196350097656,0.042554378509521484,0.07726181298494339
1787729874529819100,0.750819091796875,0.023697853088378906,0.030347824096679688,0.021116144955158234
1787729874545759200,0.76675927734375,0.01633739471435547,0.02570199966430664,0.009305296465754509
1787729874562051000,0.783051025390625,0.03209877014160156,0.0552372932434082,-0.03599544242024422
1787729874577720600,0.798720458984375,0.11171293258666992,0.0207672119140625,-0.04645896703004837
1787729874594295800,0.8152958984375,0.17920351028442383,0.034305572509765625,0.003785656299442053
1787729874609893400,0.830893310546875,0.21157598495483398,0.0352330207824707,0.07062631845474243
1787729874625762600,0.846762451171875,0.1659398078918457,0.035353660583496094,0.0801224634051323
1787729874642075600,0.86307568359375,0.0708003044128418,0.030060291290283203,0.04557868093252182
1787729874657663200,0.878663330078125,0.017066001892089844,0.04335308074951172,0.020186755806207657
1787729874674355200,0.895355224609375,0.006131172180175781,0.049704551696777344,-0.003907237201929092
1787729874689734000,0.91073388671875,-0.016346454620361328,0.06289434432983398,0.008062895387411118
1787729874705723600,0.9267236328125,-0.05518913269042969,0.06858396530151367,-0.0036500468850135803
1787729874722328000,0.943328125,-0.00821685791015625,0.05542564392089844,0.02256663702428341
1787729874738140400,0.959140380859375,0.01910686492919922,0.00915384292602539,0.06888063997030258
1787729874753842700,0.9748427734375,0.0723123550415039,-0.008021354675292969,0.07220686227083206
1787729874777675500,0.998675537109375,0.07838916778564453,0.0029311180114746094,0.056150343269109726
1787729874793832000,1.01483203125,0.05964374542236328,-0.014145851135253906,0.09209054708480835
1787729874809686500,1.0306865234375,0.0308990478515625,-0.00455474853515625,0.0986044630408287
1787729874826135000,1.047135009765625,-0.029332637786865234,-0.03538036346435547,0.05395078659057617
1787729874842187300,1.063187255859375,-0.040219783782958984,-0.03194141387939453,-0.05151069909334183
1787729874857644000,1.07864404296875,0.01942729949951172,-0.06577062606811523,-0.16864918172359467
1787729874873783600,1.094783447265625,0.083343505859375,-0.0584712028503418,-0.17696985602378845
1787729874889647900,1.11064794921875,0.11135101318359375,-0.03680753707885742,-0.15661387145519257
1787729874905672000,1.126671875,0.0707693099975586,-0.015814781188964844,-0.09501227736473083
1787729874921888500,1.142888427734375,0.07278013229370117,0.020423412322998047,-0.005403319373726845
1787729874937606100,1.158606201171875,0.04193735122680664,0.02979135513305664,0.03843173012137413
1787729874953785300,1.174785400390625,-0.020249366760253906,0.06806659698486328,0.06380816549062729
1787729874969658000,1.190658203125,0.044881343841552734,0.08637428283691406,0.01917523890733719
1787729874985620000,1.206619873046875,0.18477773666381836,0.0918121337890625,0.022759530693292618
1787729875001818600,1.222818603515625,0.27196407318115234,0.05897235870361328,0.0580526664853096
1787729875017595100,1.23859521484375,0.27163171768188477,0.06357240676879883,0.05850450322031975
1787729875033730000,1.25472998046875,0.229736328125,0.08847808837890625,0.006466273218393326
1787729875049813000,1.27081298828125,0.17694711685180664,0.08902406692504883,-0.014568330720067024
1787729875065649700,1.286649658203125,0.1190800666809082,0.0830841064453125,0.018512975424528122
1787729875082200000,1.303199951171875,0.032979488372802734,0.06477928161621094,0.02731558308005333
1787729875097601800,1.318601806640625,0.004501819610595703,0.043946266174316406,0.04001636803150177
1787729875113804000,1.334803955078125,-0.04840803146362305,0.021108627319335938,0.013425298035144806
1787729875130081000,1.3510810546875,-0.06658792495727539,0.039931297302246094,0.010974399745464325
1787729875145608000,1.36660791015625,-0.057410240173339844,0.016773223876953125,0.014299742877483368
1787729875161832700,1.382832763671875,-0.013602733612060547,-0.0005593299865722656,0.011925123631954193
1787729875177713000,1.398712890625,0.0036458969116210938,-0.05362415313720703,0.06447510421276093
1787729875193708300,1.414708251953125,0.04724836349487305,-0.039666175842285156,0.09793752431869507
1787729875209592800,1.4305927734375,0.017178058624267578,-0.0022106170654296875,0.038678981363773346
1787729875225581300,1.446581298828125,-0.08551549911499023,0.03395509719848633,-0.009560439735651016
1787729875241794000,1.4627939453125,-0.1960768699645996,0.0467371940612793,-0.05419102683663368
1787729875257522000,1.47852197265625,-0.14058399200439453,0.022458553314208984,-0.07686872780323029
1787729875273686300,1.494686279296875,-0.03226423263549805,0.00238037109375,-0.060511164367198944
1787729875289665300,1.510665283203125,0.11253643035888672,-0.018616676330566406,0.0677843689918518
1787729875305542700,1.526542724609375,0.16009187698364258,0.014712810516357422,0.1490098387002945
1787729875321767700,1.542767578125,0.13309574127197266,0.03440570831298828,0.1955573558807373
1787729875337549600,1.558549560546875,0.038190364837646484,0.07201719284057617,0.21492315828800201
1787729875353683500,1.574683349609375,-0.015465259552001953,0.06608057022094727,0.14057780802249908
1787729875369579000,1.5905791015625,-0.11924552917480469,0.09113311767578125,0.01583119109272957
1787729875386121200,1.607121337890625,-0.18357229232788086,0.08846282958984375,0.0009928084909915924
1787729875401762600,1.622762451171875,-0.049199581146240234,0.0781564712524414,-0.022672142833471298
1787729875417533200,1.638533203125,0.06225776672363281,0.10246849060058594,-0.1280927211046219
1787729875433676800,1.6546767578125,0.10272502899169922,0.09499549865722656,-0.09903964400291443
1787729875449561900,1.670561767578125,0.08920764923095703,0.1225738525390625,-0.020331718027591705
1787729875465681000,1.686680908203125,0.07253837585449219,0.08179569244384766,0.00793956033885479
1787729875481803300,1.70280322265625,0.025341033935546875,0.11236286163330078,0.04619564116001129
1787729875497492200,1.7184921875,0.037003517150878906,0.11500263214111328,0.1136900931596756
1787729875513617400,1.734617431640625,0.09149599075317383,0.0891261100769043,0.13244594633579254
1787729875529529300,1.750529296875,0.11572551727294922,0.06734514236450195,0.15522679686546326
1787729875545603300,1.766603271484375,0.06887674331665039,0.052145957946777344,0.13513387739658356
1787729875561707500,1.78270751953125,-0.027698516845703125,0.010169506072998047,0.12843115627765656
1787729875577541600,1.798541748046875,-0.0864248275756836,-0.026635169982910156,0.05431874096393585
1787729875593664000,1.8146640625,-0.09129476547241211,-0.04089927673339844,0.008085399866104126
1787729875609480000,1.83047998046875,-0.07573223114013672,-0.08299636840820312,0.013538695871829987
1787729875625530000,1.846530029296875,-0.03206491470336914,-0.0934610366821289,-0.012867666780948639
1787729875642039000,1.8630390625,-0.021996498107910156,-0.08231353759765625,-0.04305734485387802
1787729875665443800,1.88644384765625,-0.039372920989990234,-0.051108360290527344,-0.03651975840330124
1787729875689464600,1.910464599609375,-0.11720561981201172,-0.0026788711547851562,0.00001636520028114319
1787729875705410800,1.926410888671875,-0.04471445083618164,0.029384613037109375,0.016733109951019287
1787729875721612500,1.942612548828125,0.025074005126953125,0.044939517974853516,0.02589665725827217
1787729875737369000,1.958369140625,0.009101390838623047,0.07213115692138672,0.03409808501601219
1787729875753553000,1.974552978515625,0.0004773139953613281,0.11117315292358398,0.0411047488451004
1787729875769410300,1.990410400390625,0.03959083557128906,0.10723257064819336,0.08289630711078644
1787729875785369600,2.00636962890625,0.11066627502441406,0.1169748306274414,0.045086514204740524
1787729875801575400,2.022575439453125,0.07265615463256836,0.1833353042602539,0.0010138601064682007
1787729875817346300,2.03834619140625,0.04243040084838867,0.18457698822021484,-0.03683306276798248
1787729875833504500,2.05450439453125,0.10266685485839844,0.1527261734008789,-0.13908465206623077
1787729875849363000,2.070363037109375,0.21023273468017578,0.130889892578125,-0.07039718329906464
1787729875865338400,2.08633837890625,0.22915935516357422,0.1186685562133789,0.03329377993941307
1787729875881546200,2.102546142578125,0.310636043548584,0.13973188400268555,0.00871025025844574
1787729875897760800,2.1187607421875,0.3652067184448242,0.14255905151367188,0.047511987388134
1787729875913625000,2.134625,0.3203606605529785,0.1448960304260254,0.10028818249702454
1787729875929338000,2.150338134765625,0.14337873458862305,0.1461176872253418,0.03716127574443817
1787729875945888300,2.16688818359375,-0.04047393798828125,0.15715360641479492,0.01692511886358261
1787729875961753300,2.18275341796875,-0.16458415985107422,0.10607671737670898,0.01983019709587097
1787729875977371000,2.198370849609375,-0.19493579864501953,0.11172866821289062,0.021008886396884918
1787729875993446000,2.21444580078125,-0.17475557327270508,0.07842683792114258,-0.0473380982875824
1787729876009431300,2.230431396484375,-0.07943868637084961,0.06545209884643555,-0.08169598877429962
1787729876025476900,2.246476806640625,0.040537357330322266,-0.03477287292480469,-0.05050504207611084
1787729876041521200,2.262521240234375,0.014252185821533203,-0.0725555419921875,-0.09258535504341125
1787729876057353500,2.278353515625,0.04069089889526367,-0.0744175910949707,-0.12991145253181458
1787729876073805600,2.2948056640625,0.053333282470703125,-0.033667564392089844,-0.09500615298748016
1787729876089361000,2.31036083984375,0.1276240348815918,0.01276397705078125,0.07056815922260284
1787729876105320700,2.32632080078125,0.1022944450378418,0.07088088989257812,0.11309007555246353
1787729876121682400,2.342682373046875,-0.0052814483642578125,0.10144758224487305,0.04119475930929184
1787729876137481200,2.358481201171875,-0.07020187377929688,0.13289928436279297,0.008826568722724915
1787729876153483000,2.37448291015625,0.04630851745605469,0.15526437759399414,-0.03367897868156433
1787729876169366800,2.39036669921875,0.025500774383544922,0.12327003479003906,0.01994095742702484
1787729876185320200,2.4063203125,0.22226762771606445,0.11606693267822266,-0.09048107266426086
1787729876201918500,2.42291845703125,0.36609649658203125,0.09042215347290039,-0.10009907186031342
1787729876217291800,2.438291748046875,0.49053478240966797,0.05647897720336914,-0.11689677834510803
1787729876233451500,2.454451416015625,0.4943728446960449,0.052512168884277344,-0.18158552050590515
1787729876249416000,2.470416015625,0.2317523956298828,0.007717609405517578,-0.05948212742805481
1787729876265420800,2.4864208984375,-0.0018668174743652344,0.1512928009033203,-0.10285422205924988
1787729876281568500,2.502568603515625,-0.34290361404418945,0.12374210357666016,-0.06852085888385773
1787729876297308000,2.518307861328125,-0.3999767303466797,0.11698436737060547,-0.11303308606147766
1787729876313499100,2.5344990234375,-0.22900009155273438,0.1487445831298828,-0.09576074779033661
1787729876329367000,2.550366943359375,-0.10384893417358398,0.1036062240600586,0.04850099980831146
1787729876345263900,2.566263916015625,-0.22979068756103516,0.017746448516845703,0.21894027292728424
1787729876361469400,2.582469482421875,-0.41611719131469727,-0.046527862548828125,0.2332841455936432
1787729876377240600,2.598240478515625,-0.5033454895019531,0.03346586227416992,0.24819618463516235
1787729876393382000,2.6143818359375,-0.45861339569091797,0.049152374267578125,0.10988952964544296
1787729876409310200,2.630310302734375,-0.26290321350097656,0.05806398391723633,-0.10584084689617157
1787729876425237800,2.64623779296875,0.043663978576660156,0.09253597259521484,-0.3624565005302429
1787729876441546500,2.66254638671875,0.29674243927001953,0.03434896469116211,-0.4511784017086029
1787729876457663200,2.678663330078125,0.4388561248779297,0.006962776184082031,-0.2724766135215759
1787729876473357600,2.694357666015625,0.679079532623291,0.021162986755371094,0.009341821074485779
1787729876489422600,2.710422607421875,0.8959798812866211,0.0431365966796875,0.17376287281513214
1787729876505343500,2.726343505859375,0.9207496643066406,0.09998226165771484,0.24930794537067413
1787729876521436700,2.742436767578125,0.7104687690734863,0.18652057647705078,0.02280278503894806
1787729876537195300,2.7581953125,0.39008188247680664,0.2725682258605957,-0.347406804561615
1787729876553556500,2.774556396484375,0.09989643096923828,0.30947303771972656,-0.6285565495491028
1787729876569255700,2.790255615234375,-0.027335166931152344,0.27258920669555664,-0.6576242446899414
1787729876585298700,2.806298583984375,-0.01789093017578125,0.2972855567932129,-0.4276405870914459
1787729876601468700,2.82246875,0.06289815902709961,0.25269031524658203,-0.3476093113422394
1787729876617342000,2.838342041015625,0.46699953079223633,0.15953445434570312,-0.15924948453903198
1787729876633407000,2.854406982421875,0.44867897033691406,0.03144264221191406,-0.3985463082790375
1787729876649208800,2.870208740234375,-0.1184988021850586,0.06514263153076172,-0.719761848449707
1787729876665190400,2.8861904296875,-0.9515223503112793,0.04203987121582031,-0.9750359654426575
1787729876681410000,2.90241015625,-1.4107589721679688,0.009592056274414062,-1.1923586130142212
1787729876705137200,2.92613720703125,-1.266359806060791,-0.019161224365234375,-0.9753724336624146
1787729876721636400,2.94263623046875,-1.0467758178710938,-0.061435699462890625,-0.9019947648048401
1787729876737130000,2.9581298828125,-0.8028945922851562,-0.085113525390625,-0.8502709269523621
1787729876753362200,2.974362060546875,-0.788881778717041,-0.1168985366821289,-0.6029398441314697
1787729876769182700,2.9901826171875,-1.0406842231750488,-0.18449020385742188,-0.5187482833862305
1787729876785190100,3.006190185546875,-1.015620231628418,0.20024967193603516,0.22142186760902405
1787729876801425000,3.0224248046875,-1.0321803092956543,-0.29327964782714844,-0.6644210815429688
1787729876817058800,3.038058837890625,-0.9117255210876465,0.03122425079345703,-0.71976238489151
1787729876833300000,3.054300048828125,-0.6427016258239746,-0.06879711151123047,-0.6174258589744568
1787729876849217000,3.070217041015625,-0.2646470069885254,-0.031240463256835938,-0.19238752126693726
1787729876865684200,3.086684326171875,-0.025355815887451172,0.05859375,-0.15186288952827454
1787729876881465900,3.1024658203125,0.10493230819702148,0.19851016998291016,-0.19262069463729858
1787729876897081300,3.118081298828125,0.1605076789855957,0.3527641296386719,-0.04722762107849121
1787729876913571600,3.134571533203125,0.03667449951171875,0.3466758728027344,0.08055675029754639
1787729876929169700,3.150169677734375,-0.2034449577331543,0.29798030853271484,-0.041215211153030396
1787729876945166600,3.16616650390625,-0.36028194427490234,0.36617279052734375,-0.15193593502044678
1787729876961383400,3.182383544921875,-0.47058582305908203,0.3155517578125,-0.18933716416358948
1787729876977188600,3.198188720703125,-0.6082792282104492,0.17673206329345703,-0.333141565322876
1787729876993327000,3.2143271484375,-0.6073765754699707,0.19663333892822266,-0.5758283138275146
1787729877009153000,3.230153076171875,-0.5667300224304199,0.20228290557861328,-0.7130407094955444
1787729877025275400,3.246275390625,-0.3426346778869629,0.11428260803222656,-0.5779969096183777
1787729877041489400,3.262489501953125,-0.22041654586791992,0.012699127197265625,-0.20609509944915771
1787729877057154000,3.278154052734375,-0.37270593643188477,0.05242729187011719,-0.04391220211982727
1787729877073312000,3.29431201171875,-0.5382804870605469,0.16256237030029297,-0.08101767301559448
1787729877089233700,3.310233642578125,-0.6448535919189453,0.24755001068115234,-0.17801031470298767
1787729877105120500,3.32612060546875,-0.17785930633544922,0.2918357849121094,-0.3290826082229614
1787729877121685800,3.342685791015625,0.5852417945861816,0.24530887603759766,-0.35117197036743164
1787729877137062100,3.358062255859375,1.0970983505249023,0.1906299591064453,-0.22596564888954163
1787729877153279200,3.374279296875,0.9935808181762695,0.236480712890625,-0.12934476137161255
1787729877169590300,3.39059033203125,0.6484155654907227,0.34193992614746094,-0.06154811382293701
1787729877185098500,3.406098388671875,0.23200130462646484,0.4314546585083008,-0.073282390832901
1787729877201438000,3.42243798828125,-0.2621121406555176,0.4361896514892578,-0.006361335515975952
1787729877217069000,3.438069091796875,-0.5365352630615234,0.40215587615966797,-0.16381403803825378
1787729877233484300,3.454484375,-0.4907383918762207,0.43795204162597656,-0.27972906827926636
1787729877257124400,3.478124267578125,0.4077610969543457,0.2535715103149414,0.23533116281032562
1787729877273747500,3.49474755859375,1.094930648803711,0.05319976806640625,0.4834694564342499
1787729877289162200,3.510162353515625,1.5143136978149414,0.1095724105834961,0.5162357091903687
1787729877305120000,3.5261201171875,1.6807823181152344,0.0940999984741211,0.5760326385498047
1787729877321582600,3.54258251953125,1.698437213897705,-0.1133127212524414,0.6417401432991028
1787729877337069600,3.558069580078125,1.3277044296264648,-0.23046302795410156,0.5555223226547241
1787729877353436000,3.574435791015625,0.9559726715087891,-0.27068519592285156,0.358906090259552
1787729877369105000,3.59010498046875,0.8207278251647949,-0.32907676696777344,0.3405851423740387
1787729877385096700,3.6060966796875,0.9737753868103027,-0.4284067153930664,0.5091860890388489
1787729877401283300,3.622283447265625,1.206618309020996,-0.5205297470092773,0.6781529188156128
1787729877417095000,3.638094970703125,1.0977611541748047,-0.5730161666870117,0.5065139532089233
1787729877433263400,3.654263427734375,0.7886648178100586,-0.44473791122436523,0.18651919066905975
1787729877449128000,3.6701279296875,0.44861316680908203,-0.2651214599609375,0.15849369764328003
1787729877465214700,3.686214599609375,0.16588830947875977,-0.13454437255859375,0.33117401599884033
1787729877481361400,3.702361328125,0.0890650749206543,-0.04112529754638672,0.46603551506996155
1787729877497158100,3.718158203125,0.35792064666748047,-0.06062507629394531,0.37434887886047363
1787729877513305600,3.7343056640625,0.5758571624755859,-0.24726200103759766,-0.011142157018184662
1787729877529740500,3.750740478515625,0.41751575469970703,-0.23084354400634766,-0.4450231194496155
1787729877545199900,3.766199951171875,0.19055461883544922,-0.18273258209228516,-0.49639469385147095
1787729877561423000,3.782423095703125,-0.09240579605102539,-0.19506168365478516,-0.09061814844608307
1787729877577762800,3.7987626953125,-0.23981904983520508,-0.24027538299560547,0.44699352979660034
1787729877593324500,3.814324462890625,-0.4885268211364746,-0.2334756851196289,0.7441331744194031
1787729877609177300,3.83017724609375,-0.7463345527648926,-0.2771329879760742,0.800259530544281
1787729877625134800,3.846134765625,-1.0121889114379883,-0.34731435775756836,0.6344835758209229
1787729877641508600,3.862508544921875,-1.0506672859191895,-0.35883378982543945,0.19069412350654602
1787729877657157000,3.8781572265625,-0.7423458099365234,-0.35683345794677734,-0.02369096875190735
1787729877673290800,3.894290771484375,-0.5987787246704102,-0.2927217483520508,-0.11249065399169922
1787729877689248800,3.910248779296875,-0.7146716117858887,-0.062346458435058594,-0.11079495400190353
1787729877705229000,3.92622900390625,-0.9696254730224609,0.034699440002441406,-0.06446196138858795
1787729877721411000,3.9424111328125,-1.0844993591308594,-0.007069587707519531,0.005167186260223389
1787729877737164500,3.95816455078125,-1.0116643905639648,0.04375171661376953,0.050412967801094055
1787729877753358600,3.974358642578125,-0.43029022216796875,0.05202484130859375,0.28200024366378784
1787729877769343000,3.990343017578125,-0.11385440826416016,-0.05940055847167969,0.26896539330482483
1787729877785216500,4.006216552734375,-0.12432432174682617,0.08797264099121094,0.14688949286937714
1787729877801581800,4.022581787109375,-0.32644033432006836,0.16805171966552734,0.15112170577049255
1787729877817235500,4.0382353515625,-0.45753002166748047,0.21859455108642578,0.21162031590938568
1787729877833832000,4.05483203125,-0.5662956237792969,0.28188419342041016,0.2710285186767578
1787729877849275000,4.07027490234375,-0.6936736106872559,0.2947425842285156,0.336686372756958
1787729877865303000,4.086302978515625,-0.701991081237793,0.2603178024291992,0.19563215970993042
1787729877881499600,4.102499755859375,-0.5677204132080078,0.26392173767089844,0.24478113651275635
1787729877897192000,4.11819189453125,-0.3688030242919922,0.18889617919921875,0.38020285964012146
1787729877913346600,4.1343466796875,-0.2549781799316406,0.12896251678466797,0.40022012591362
1787729877929288000,4.150287841796875,-0.26248836517333984,0.12102508544921875,0.1773495078086853
1787729877945209900,4.1662099609375,-0.33838653564453125,0.12529563903808594,-0.029473066329956055
1787729877961422600,4.182422607421875,-0.5951356887817383,0.1718301773071289,-0.020563185214996338
1787729877977240800,4.19824072265625,-0.7117071151733398,0.18050003051757812,0.060124218463897705
1787729878001585200,4.222585205078125,-0.6238279342651367,0.19642353057861328,0.030585110187530518
1787729878017161500,4.238161376953125,-0.45807838439941406,0.14451980590820312,-0.06431582570075989
1787729878033378000,4.2543779296875,-0.2623934745788574,0.17001724243164062,-0.11386574804782867
1787729878049245700,4.27024560546875,-0.1355443000793457,0.20143795013427734,-0.1465349644422531
1787729878065225000,4.286224853515625,-0.045146942138671875,0.19391918182373047,0.007217675447463989
1787729878081459700,4.302459716796875,-0.03434610366821289,0.22878551483154297,0.07446399331092834
1787729878097170700,4.318170654296875,-0.087646484375,0.2514514923095703,0.1447971612215042
1787729878113442000,4.334442138671875,-0.019904136657714844,0.2867155075073242,0.2118702083826065
1787729878129412600,4.35041259765625,0.02938079833984375,0.18285179138183594,0.13992840051651
1787729878145218800,4.36621875,0.2828812599182129,0.1575021743774414,-0.10021569579839706
1787729878161596700,4.3825966796875,0.5287914276123047,0.146759033203125,-0.2867775559425354
1787729878177229000,4.39822900390625,0.6947793960571289,0.4740028381347656,-0.6552715301513672
1787729878193488100,4.414488037109375,0.4776473045349121,0.7761611938476562,-0.8816109895706177
1787729878209292800,4.430292724609375,0.0351099967956543,0.7374792098999023,-0.7117448449134827
1787729878225267500,4.446267333984375,-0.3211665153503418,0.6953639984130859,-0.5427104234695435
1787729878241830700,4.46283056640625,-0.502021312713623,0.4529876708984375,-0.43523502349853516
1787729878257218300,4.47821826171875,-0.38378334045410156,0.05725669860839844,-0.6622334718704224
1787729878273421000,4.494421142578125,0.2890443801879883,-0.4338493347167969,-1.3397610187530518
1787729878289296100,4.510296142578125,1.2332825660705566,-0.7523503303527832,-1.6811907291412354
1787729878305308200,4.52630810546875,2.701530933380127,-0.9003982543945312,-1.6142008304595947
1787729878321563000,4.54256298828125,3.761984348297119,-0.9046993255615234,-1.2091381549835205
1787729878337151700,4.55815185546875,4.11870813369751,-0.7376294136047363,-0.7589093446731567
1787729878353361000,4.57436083984375,3.1769585609436035,-0.48279571533203125,-0.34193742275238037
1787729878369209600,4.590209716796875,1.5522871017456055,-0.19110393524169922,-0.34897303581237793
1787729878385205500,4.60620556640625,0.1745610237121582,0.038482666015625,-0.59604811668396
1787729878401393400,4.622393310546875,-0.5991349220275879,0.05321693420410156,-0.8281117081642151
1787729878417231400,4.6382314453125,-0.6055903434753418,-0.03981590270996094,-1.2077689170837402
1787729878433296400,4.65429638671875,0.09611034393310547,-0.24004364013671875,-1.5020889043807983
1787729878449332700,4.670332763671875,0.7003960609436035,-0.48944664001464844,-1.504723310470581
1787729878465149400,4.6861494140625,0.9848461151123047,-0.7332468032836914,-1.1710153818130493
1787729878481423400,4.70242333984375,0.6987314224243164,-0.9803471565246582,-0.8631298542022705
1787729878497465300,4.71846533203125,0.2531399726867676,-1.1837987899780273,-0.7458171844482422
1787729878513217000,4.734217041015625,-0.003386974334716797,-1.2094907760620117,-0.7309080958366394
1787729878529099000,4.75009912109375,0.08943033218383789,-1.2147865295410156,-0.7282196283340454
1787729878545452500,4.76645263671875,-0.10927438735961914,-1.201866626739502,-1.1140025854110718
1787729878561319700,4.782319580078125,-0.7170193195343018,-1.0610346794128418,-1.63115656375885
1787729878576996900,4.797996826171875,-1.472914695739746,-0.889103889465332,-1.850898265838623
1787729878593166800,4.814166748046875,-1.9369621276855469,-0.7529191970825195,-1.5617893934249878
1787729878609074700,4.83007470703125,-1.823540210723877,-0.5167064666748047,-1.0566667318344116
1787729878624992300,4.8459921875,-1.2942593097686768,-0.36528968811035156,-0.4975762963294983
1787729878641316000,4.862316162109375,-0.8716268539428711,-0.32894325256347656,-0.40111881494522095
1787729878656943900,4.87794384765625,-0.45995473861694336,-0.22289371490478516,-0.5647080540657043
1787729878673178000,4.89417822265625,-0.051371097564697266,-0.26160717010498047,-0.7257762551307678
1787729878688999000,4.9099990234375,0.5712709426879883,-0.4292163848876953,-0.710180938243866
1787729878704989700,4.92598974609375,0.8672804832458496,-0.45101070404052734,-0.7237316370010376
1787729878721289000,4.9422890625,1.0780534744262695,-0.3358612060546875,-0.8470745086669922
1787729878736901000,4.957901123046875,1.2794713973999023,-0.1404409408569336,-0.6951382756233215
1787729878753536000,4.974535888671875,1.2979044914245605,-0.038796424865722656,-0.6251838803291321
1787729878768972300,4.98997216796875,0.7779898643493652,0.17031478881835938,-0.8881187438964844
1787729878784950000,5.005949951171875,0.09050416946411133,0.4963388442993164,-1.1215918064117432
1787729878801523500,5.0225234375,-0.19987058639526367,0.6423759460449219,-1.0311146974563599
1787729878816832500,5.03783251953125,0.03335714340209961,0.43755149841308594,-1.1572632789611816
1787729878833145300,5.054145263671875,0.5350322723388672,0.5073642730712891,-1.5718965530395508
1787729878848931800,5.069931884765625,1.0256457328796387,0.4870471954345703,-1.7708368301391602
1787729878864935000,5.085934814453125,1.6671714782714844,0.3515176773071289,-1.6414893865585327
1787729878881313500,5.1023134765625,2.4127187728881836,0.3008308410644531,-1.5457324981689453
1787729878896846300,5.117846435546875,2.3820676803588867,0.3256797790527344,-1.0959820747375488
1787729878913016800,5.134016845703125,1.530686855316162,0.5717353820800781,-0.7143038511276245
1787729878928963600,5.149963623046875,0.3650026321411133,0.9962329864501953,-0.4727011024951935
1787729878944898600,5.165898681640625,-0.6644835472106934,1.2718820571899414,-0.3873912990093231
1787729878961466000,5.182466064453125,-0.8570330142974854,1.1974115371704102,-0.23893091082572937
1787729878976806100,5.19780615234375,-0.15154075622558594,0.7088527679443359,-0.23622985184192657
1787729878993026600,5.214026611328125,1.000399112701416,0.04518413543701172,-0.4599912464618683
1787729879008930300,5.229930419921875,2.2956666946411133,-0.6277918815612793,-0.5678212642669678
1787729879024874500,5.24587451171875,3.091982841491699,-0.9722132682800293,-0.5219154953956604
1787729879041060900,5.262060791015625,3.2716102600097656,-1.0089168548583984,-0.5527870059013367
1787729879057192200,5.278192138671875,2.4620680809020996,-0.8903059959411621,-0.5617068409919739
1787729879073040600,5.29404052734375,1.1396842002868652,-0.8117380142211914,-0.32111674547195435
1787729879088822500,5.309822509765625,0.021064281463623047,-0.6219515800476074,0.011998772621154785
1787729879104759600,5.325759521484375,-0.612637996673584,-0.5312061309814453,0.13611848652362823
1787729879121058300,5.342058349609375,-0.7934155464172363,-0.5364837646484375,0.01792611926794052
1787729879136700700,5.35770068359375,-0.41126585006713867,-0.4644622802734375,-0.08075404912233353
1787729879152866000,5.373865966796875,0.06675004959106445,-0.4265003204345703,0.05006605386734009
1787729879168768800,5.389768798828125,0.39607810974121094,-0.4228343963623047,0.1552148163318634
1787729879192880000,5.413880126953125,0.5827445983886719,-0.4936485290527344,-0.008203178644180298
1787729879208768300,5.429768310546875,0.4206562042236328,-0.5417318344116211,-0.1640998274087906
1787729879224707600,5.44570751953125,0.05044078826904297,-0.5164079666137695,-0.3287038505077362
1787729879240945200,5.461945068359375,-0.36262035369873047,-0.5108127593994141,-0.41689273715019226
1787729879256749000,5.4777490234375,-0.5742745399475098,-0.4603261947631836,-0.2074298858642578
1787729879272875300,5.493875244140625,-0.446932315826416,-0.45157909393310547,0.32461249828338623
1787729879288756200,5.509756103515625,-0.3085479736328125,-0.4758329391479492,0.6585638523101807
1787729879304715000,5.525715087890625,-0.4188385009765625,-0.45685386657714844,0.6718918085098267
1787729879321075200,5.5420751953125,-0.37434911727905273,-0.5759315490722656,0.45587241649627686
1787729879336713200,5.557713134765625,-0.22493600845336914,-0.6476340293884277,0.11644990742206573
1787729879352847400,5.573847412109375,-0.1188664436340332,-0.5621967315673828,-0.17751754820346832
1787729879368695800,5.58969580078125,-0.18335533142089844,-0.4071035385131836,-0.27545681595802307
1787729879384700000,5.605699951171875,-0.32197141647338867,-0.36008167266845703,-0.077541783452034
1787729879400953300,5.621953369140625,-0.373837947845459,-0.38404083251953125,0.26644468307495117
1787729879416754000,5.63775390625,-0.3803129196166992,-0.3359079360961914,0.4673147201538086
1787729879432785200,5.65378515625,-0.38201427459716797,-0.30196475982666016,0.6495318412780762
1787729879448928800,5.6699287109375,-0.33087587356567383,-0.3073453903198242,0.6860132813453674
1787729879465174000,5.686174072265625,-0.04782819747924805,-0.27510738372802734,0.8138046860694885
1787729879481243600,5.70224365234375,0.23095464706420898,-0.3291587829589844,0.9843728542327881
1787729879496746500,5.71774658203125,0.24365520477294922,-0.3423929214477539,0.8706123232841492
1787729879512892000,5.733891845703125,0.18590307235717773,-0.15064334869384766,0.5920636653900146
1787729879528705500,5.74970556640625,0.1329941749572754,0.012189865112304688,0.6987023949623108
1787729879544682800,5.765682861328125,0.17306089401245117,0.10807991027832031,0.8421145677566528
1787729879560923600,5.781923583984375,0.2511630058288574,0.27340126037597656,0.765020489692688
1787729879576639700,5.7976396484375,0.10262775421142578,0.4710559844970703,0.644002377986908
1787729879592802800,5.813802734375,-0.16278982162475586,0.5311508178710938,0.44284534454345703
1787729879616673500,5.837673583984375,-0.2526698112487793,0.5203561782836914,0.22276610136032104
1787729879633005600,5.854005615234375,-0.2835206985473633,0.526209831237793,0.0944032073020935
1787729879648742700,5.86974267578125,-0.09467411041259766,0.5435543060302734,0.07561565935611725
1787729879664710000,5.8857099609375,0.22251558303833008,0.4949169158935547,0.050940364599227905
1787729879680938200,5.901938232421875,0.49637317657470703,0.5067415237426758,0.02457067370414734
1787729879696700400,5.917700439453125,0.6370096206665039,0.5412273406982422,0.00250832736492157
1787729879712853200,5.933853271484375,0.40103960037231445,0.8197364807128906,-0.17366336286067963
1787729879728712700,5.949712646484375,0.2860856056213379,1.0189361572265625,-0.2705116271972656
1787729879744717000,5.965717041015625,0.11748981475830078,1.0390939712524414,-0.5763685703277588
1787729879761020700,5.982020751953125,-0.07180929183959961,1.0630741119384766,-1.2051031589508057
1787729879776656600,5.99765673828125,0.16108322143554688,0.5863714218139648,-1.383864402770996
1787729879792874200,6.013874267578125,1.1672639846801758,-0.2252206802368164,-1.1147593259811401
1787729879808835600,6.029835693359375,2.278632640838623,-0.6919922828674316,-0.7911232113838196
1787729879824718300,6.04571826171875,2.6813158988952637,-0.7621817588806152,-0.6314667463302612
1787729879840998700,6.06199853515625,2.2457337379455566,-0.4294853210449219,-0.4204990565776825
1787729879856665900,6.077665771484375,0.9225802421569824,-0.07795143127441406,-0.2881038188934326
1787729879873293000,6.09429296875,-0.6172399520874023,0.31764984130859375,-0.4610308110713959
1787729879888759300,6.10975927734375,-1.4743413925170898,0.46528053283691406,-0.536267876625061
1787729879904771600,6.125771484375,-1.6147396564483643,0.27705860137939453,-0.6779621243476868
1787729879928812800,6.149812744140625,-0.3264188766479492,-0.3408212661743164,-0.7391781806945801
1787729879944825900,6.165825927734375,0.2227306365966797,-0.5575098991394043,-0.7202616930007935
1787729879961202400,6.182202392578125,0.25277185440063477,-0.5160574913024902,-0.6529013514518738
1787729879977277000,6.19827685546875,0.0940847396850586,-0.7399740219116211,-0.45837801694869995
1787729879992836900,6.2138369140625,-0.16320323944091797,-0.9844527244567871,-0.4146224856376648
1787729880008764200,6.22976416015625,-0.5105490684509277,-1.0383129119873047,-0.5776411294937134
1787729880024739300,6.2457392578125,-0.8341422080993652,-1.001816749572754,-0.6947362422943115
1787729880040996400,6.261996337890625,-1.018125057220459,-0.9110112190246582,-0.6798593997955322
1787729880056682500,6.2776826171875,-1.235914945602417,-0.7159700393676758,-0.5098165273666382
1787729880072829000,6.293828857421875,-1.330765962600708,-0.548316478729248,-0.2430930733680725
1787729880088791800,6.309791748046875,-1.247011423110962,-0.46178722381591797,0.005381766706705093
1787729880104661500,6.32566162109375,-1.2808115482330322,-0.2722911834716797,0.26567426323890686
1787729880120874800,6.341874755859375,-1.4358651638031006,-0.07051372528076172,0.46669894456863403
1787729880136668200,6.357668212890625,-1.519496202468872,-0.021924972534179688,0.3544624149799347
1787729880152851500,6.3738515625,-1.3467884063720703,0.00730133056640625,-0.18024778366088867
1787729880168767700,6.389767822265625,-0.9707818031311035,0.10801506042480469,-0.43236273527145386
1787729880192831700,6.413831787109375,-0.4158806800842285,0.23319149017333984,-0.7058771848678589
1787729880208743000,6.429742919921875,-0.1711416244506836,0.3015928268432617,-0.8097295761108398
1787729880224697000,6.445697021484375,-0.027968883514404297,0.33512306213378906,-0.742044985294342
1787729880241208800,6.462208740234375,-0.14827251434326172,0.5174674987792969,-0.6102482676506042
1787729880256621000,6.47762109375,-0.5638689994812012,0.7157135009765625,-0.5629406571388245
1787729880272789500,6.49378955078125,-0.5254254341125488,0.7349824905395508,-0.5916279554367065
1787729880288664800,6.509664794921875,-0.057005882263183594,0.6848812103271484,-0.6221544742584229
1787729880304939500,6.525939453125,0.5044755935668945,0.5680990219116211,-0.7325763702392578
1787729880320829200,6.5418291015625,0.8183751106262207,0.5992946624755859,-0.9408271908760071
1787729880336576500,6.557576416015625,1.0407648086547852,0.7781963348388672,-1.0301021337509155
1787729880352776000,6.57377587890625,1.2854037284851074,1.0003089904785156,-0.9176548719406128
1787729880368628200,6.589628173828125,1.824073314666748,1.129288673400879,-0.5045097470283508
1787729880385169200,6.606169189453125,1.932478427886963,1.2928104400634766,0.007438771426677704
1787729880401044500,6.62204443359375,1.3956212997436523,1.4341402053833008,0.2743243873119354
1787729880416640500,6.637640625,0.8506193161010742,1.346724510192871,0.4138200879096985
1787729880433295000,6.654295166015625,0.5505275726318359,1.3224906921386719,0.7808501720428467
1787729880448717600,6.669717529296875,0.36236000061035156,1.1839065551757812,1.0368142127990723
1787729880464736500,6.685736572265625,0.5515246391296387,0.7074747085571289,1.0781842470169067
1787729880480909000,6.701908935546875,1.1581239700317383,0.20734786987304688,0.7303022146224976
1787729880496634400,6.71763427734375,1.9571290016174316,-0.22405433654785156,0.36655402183532715
1787729880512859000,6.73385888671875,2.3788022994995117,-0.6355853080749512,0.29990825057029724
1787729880528883200,6.74988330078125,2.2162585258483887,-0.9209384918212891,0.27293023467063904
1787729880544724200,6.76572412109375,1.1866497993469238,-0.8873796463012695,0.18200837075710297
1787729880561023200,6.782023193359375,-0.05025625228881836,-0.7609734535217285,0.18122078478336334
1787729880576687400,6.797687255859375,-1.1236019134521484,-0.6306028366088867,0.20733913779258728
1787729880592825300,6.813825439453125,-1.4894132614135742,-0.6546978950500488,0.27522316575050354
1787729880608708400,6.829708251953125,-1.1399040222167969,-0.6855788230895996,0.4406794309616089
1787729880625028400,6.8460283203125,-0.47966814041137695,-0.6654987335205078,0.5201652646064758
1787729880641240000,6.862239990234375,0.11716032028198242,-0.6826906204223633,0.5660732984542847
1787729880656557300,6.877557373046875,0.24871397018432617,-0.6607179641723633,0.5008741617202759
1787729880672791000,6.893791015625,0.09003496170043945,-0.6025810241699219,0.31223195791244507
1787729880689193700,6.91019384765625,-0.2943100929260254,-0.6254134178161621,0.13467085361480713
1787729880704629200,6.925629150390625,-0.5399727821350098,-0.6450715065002441,0.05777253210544586
1787729880720924200,6.941924072265625,-0.7686495780944824,-0.542966365814209,0.10795556753873825
1787729880736532000,6.957531982421875,-1.064939022064209,-0.4670143127441406,0.30273061990737915
1787729880752805600,6.9738056640625,-1.2770240306854248,-0.38728904724121094,0.510286808013916
1787729880768698400,6.989698486328125,-1.376565933227539,-0.3201007843017578,0.5805902481079102
1787729880784650200,7.005650146484375,-1.4565629959106445,-0.32666969299316406,0.636333703994751
1787729880808719000,7.029718994140625,-1.471506118774414,-0.30495643615722656,0.2979818880558014
1787729880824665900,7.045665771484375,-1.3991460800170898,-0.2431812286376953,0.03717288747429848
1787729880841221400,7.062221435546875,-1.1680128574371338,-0.22173690795898438,-0.03545520082116127
1787729880856646700,7.077646728515625,-0.7782788276672363,-0.10532855987548828,0.10986293852329254
1787729880872790500,7.09379052734375,-0.3700118064880371,-0.019835472106933594,0.3839031755924225
1787729880888694300,7.1096943359375,-0.14378643035888672,0.04903984069824219,0.5675097703933716
1787729880904678700,7.1256787109375,0.13628911972045898,0.1088857650756836,0.59018474817276
1787729880920935400,7.141935302734375,0.20412302017211914,0.26380348205566406,0.5062975883483887
1787729880936670000,7.157669921875,-0.13486766815185547,0.4551668167114258,0.4361492991447449
1787729880952778200,7.1737783203125,-0.35801029205322266,0.6563167572021484,0.4360657334327698
1787729880968635400,7.189635498046875,-0.5069828033447266,0.8274555206298828,0.5023456811904907
1787729880984625400,7.20562548828125,-0.5027704238891602,0.8789777755737305,0.6382001638412476
1787729881000851700,7.221851806640625,-0.37631797790527344,0.8334121704101562,0.7509318590164185
1787729881016650500,7.237650390625,-0.15502643585205078,0.6606988906860352,0.7960454225540161
1787729881032790000,7.2537900390625,0.5478458404541016,0.3949565887451172,0.6856504678726196
1787729881049137200,7.27013720703125,1.3559069633483887,0.0919961929321289,0.15828686952590942
1787729881064583400,7.28558349609375,1.638176441192627,0.09451484680175781,-0.5727741718292236
1787729881080786000,7.301785888671875,1.1930899620056152,0.6336278915405273,-1.1215715408325195
1787729881097041000,7.318041015625,0.30587196350097656,1.1673288345336914,-1.0846242904663086
1787729881112716000,7.333716064453125,-0.32476377487182617,1.272068977355957,-0.8794545531272888
1787729881128546000,7.349546142578125,-0.12675237655639648,1.0529022216796875,-0.7136335968971252
1787729881144545300,7.365545166015625,1.0074901580810547,0.6006050109863281,-0.6818233132362366
1787729881160741600,7.38174169921875,2.633385181427002,0.1220703125,-0.6531029939651489
1787729881176518100,7.39751806640625,3.6997294425964355,-0.3098325729370117,-0.6654999852180481
1787729881192735700,7.41373583984375,3.8025989532470703,-0.25925254821777344,-0.6478433609008789
1787729881208564200,7.429564208984375,2.4098100662231445,0.09601402282714844,-0.44019412994384766
1787729881224518000,7.445517822265625,0.8725357055664062,0.22656631469726562,-0.2999071776866913
1787729881240673000,7.461673095703125,-0.3524909019470215,0.2960023880004883,-0.3992989659309387
1787729881256575200,7.4775751953125,-0.8137497901916504,0.15120220184326172,-0.3920148015022278
1787729881272565000,7.49356494140625,-0.5298051834106445,-0.22003650665283203,-0.2357337772846222
1787729881288447200,7.509447265625,-0.03906965255737305,-0.4035310745239258,-0.2849225103855133
1787729881304422700,7.525422607421875,0.23656988143920898,-0.5827751159667969,-0.4525773227214813
1787729881320607200,7.541607177734375,0.23873662948608398,-0.8123483657836914,-0.48708033561706543
1787729881336359000,7.55735888671875,0.29038572311401367,-0.9782834053039551,-0.5057960152626038
1787729881352929300,7.57392919921875,0.23537397384643555,-1.112006664276123,-0.5253549814224243
1787729881368460800,7.589460693359375,0.04820585250854492,-1.2134828567504883,-0.6490762233734131
1787729881392522200,7.613522216796875,-0.5271816253662109,-1.0249381065368652,-0.9994826316833496
1787729881408402200,7.629402099609375,-0.8266243934631348,-0.8465576171875,-0.9593068957328796
1787729881424353800,7.645353759765625,-1.0085742473602295,-0.7216629981994629,-0.6803178191184998
1787729881440628200,7.661628173828125,-1.1595563888549805,-0.5938758850097656,-0.43520259857177734
1787729881456778200,7.6777783203125,-1.3342626094818115,-0.41330909729003906,-0.4374704360961914
1787729881472561400,7.6935615234375,-1.486720323562622,-0.2509193420410156,-0.48622652888298035
1787729881488466400,7.709466552734375,-1.4386794567108154,-0.24122142791748047,-0.45458632707595825
1787729881505003300,7.726003173828125,-1.1889128684997559,-0.23403453826904297,-0.3684462010860443
1787729881520726800,7.741726806640625,-0.7588667869567871,-0.27155590057373047,-0.31973183155059814
1787729881536420400,7.75742041015625,-0.40076112747192383,-0.3367652893066406,-0.343154639005661
1787729881552538600,7.77353857421875,-0.13109254837036133,-0.31262779235839844,-0.4497518539428711
1787729881568461000,7.7894609375,-0.003451824188232422,-0.1676321029663086,-0.4653357267379761
1787729881584437500,7.8054375,-0.009177684783935547,-0.03658294677734375,-0.5319615602493286
1787729881600662300,7.821662353515625,-0.09501123428344727,0.1967916488647461,-0.5245161652565002
1787729881616408600,7.83740869140625,-0.2931828498840332,0.3846578598022461,-0.6013325452804565
1787729881632619800,7.853619873046875,-0.45960235595703125,0.6153964996337891,-0.929292619228363
1787729881648488200,7.86948828125,-0.3370347023010254,0.6845426559448242,-1.013746976852417
1787729881664460500,7.88546044921875,0.24414777755737305,0.6232624053955078,-0.8580214977264404
1787729881696462000,7.917462158203125,1.4425644874572754,0.9253482818603516,-0.607721745967865
1787729881712727000,7.93372705078125,1.5982728004455566,1.1167888641357422,-0.4933714270591736
1787729881728531000,7.949531005859375,1.4420480728149414,1.3695621490478516,-0.4383983612060547
1787729881744622600,7.96562255859375,0.9260025024414062,1.5353260040283203,-0.1900559961795807
1787729881761048300,7.98204833984375,0.4204730987548828,1.1633033752441406,0.10340986400842667
1787729881776398300,7.9973984375,0.29120922088623047,0.9062213897705078,0.22365456819534302
1787729881792642800,8.013642822265625,0.3694343566894531,0.8387479782104492,0.4070594310760498
1787729881808485600,8.029485595703125,0.3004589080810547,0.8495960235595703,0.5222216844558716
1787729881824481800,8.045481689453124,0.4574623107910156,0.44682979583740234,0.595119297504425
1787729881840750600,8.06175048828125,1.3107972145080566,-0.03737640380859375,0.7677578926086426
1787729881856398600,8.077398681640625,2.102055549621582,-0.34934139251708984,0.8686044216156006
1787729881872608800,8.09360888671875,2.230013370513916,-0.5211009979248047,0.7186235189437866
1787729881888712000,8.1097119140625,1.3973302841186523,-0.6922779083251953,0.20955464243888855
1787729881904481000,8.12548095703125,0.1906118392944336,-0.6962070465087891,-0.2908739447593689
1787729881920672300,8.14167236328125,-0.4682924747467041,-0.6426410675048828,-0.33139508962631226
1787729881936420400,8.15742041015625,-0.37200021743774414,-0.8044319152832031,0.1786831021308899
1787729881952585700,8.173585693359374,0.05357837677001953,-1.060725212097168,0.6156710982322693
1787729881968625000,8.189625,0.22640275955200195,-1.08546781539917,0.2954810559749603
1787729882000796000,8.2217958984375,-0.016069412231445312,-0.9997344017028809,0.1660793125629425
1787729882016835600,8.237835693359376,-0.3002438545227051,-0.8626127243041992,0.09180993586778641
1787729882032582000,8.253581787109376,-0.5890977382659912,-0.8067941665649414,0.01684517040848732
1787729882048457500,8.26945751953125,-0.8586645126342773,-0.8634200096130371,-0.15492862462997437
1787729882064444000,8.28544384765625,-1.1005165576934814,-0.7362499237060547,-0.45356133580207825
1787729882080727800,8.301727783203125,-1.4577691555023193,-0.48189830780029297,-0.4742480218410492
1787729882096440800,8.31744091796875,-1.6658344268798828,-0.3273744583129883,-0.21550798416137695
1787729882112615400,8.333615478515625,-1.6048977375030518,-0.2633037567138672,0.0992603749036789
1787729882128536600,8.34953662109375,-1.4328229427337646,-0.28862953186035156,0.17754137516021729
1787729882144568000,8.365568115234375,-1.1207854747772217,-0.2381124496459961,0.04642259329557419
1787729882160827400,8.381827392578124,-0.6105668544769287,-0.2327556610107422,-0.06876810640096664
1787729882176418600,8.39741845703125,0.02302074432373047,-0.1632242202758789,-0.07898659259080887
1787729882192589300,8.41358935546875,0.4421195983886719,-0.030498504638671875,0.030034705996513367
1787729882208538400,8.429538330078126,0.3839101791381836,0.04051971435546875,0.1723167449235916
1787729882224459300,8.445459228515626,0.10971879959106445,0.17528724670410156,0.2453182339668274
1787729882240755500,8.46175537109375,-0.05256366729736328,0.26612091064453125,0.32654649019241333
1787729882256394200,8.477394287109375,0.20977401733398438,0.2620420455932617,0.42482781410217285
1787729882273045200,8.494045166015624,0.6227736473083496,0.21262359619140625,0.4228052794933319
1787729882288482000,8.50948193359375,0.7943611145019531,0.22525691986083984,0.2946785092353821
1787729882304439000,8.52543896484375,0.6683759689331055,0.28357791900634766,0.07578881829977036
1787729882321039600,8.54203955078125,0.6153573989868164,0.3076333999633789,-0.019263945519924164
1787729882336419000,8.557419189453125,0.6437821388244629,0.38547801971435547,-0.02321677654981613
1787729882352591400,8.57359130859375,0.46443700790405273,0.34934520721435547,0.08688198775053024
1787729882368554500,8.589554443359376,0.374298095703125,0.20755290985107422,0.24016276001930237
1787729882384534500,8.605534423828125,0.9243321418762207,0.03195667266845703,0.4292305111885071
1787729882400675000,8.621675048828125,1.2312169075012207,-0.16444873809814453,0.36600351333618164
1787729882416512300,8.63751220703125,1.1989054679870605,-0.1579151153564453,-0.14609204232692719
1787729882440705500,8.66170556640625,0.39661359786987305,0.43177032470703125,-0.8459826707839966
1787729882456478000,8.67747802734375,-0.506711483001709,0.8460540771484375,-1.23361074924469
1787729882472525600,8.693525634765624,-1.0272488594055176,0.9423093795776367,-1.5292288064956665
1787729882488387000,8.709386962890624,-0.2756690979003906,0.6970005035400391,-1.9049686193466187
1787729882504373800,8.725373779296875,1.44755220413208,0.1982879638671875,-1.8938721418380737
1787729882520605200,8.741605224609375,2.6964473724365234,-0.17403221130371094,-1.4510489702224731
1787729882536413700,8.75741357421875,3.138014316558838,-0.12320613861083984,-1.0539077520370483
1787729882552856300,8.773856201171874,2.5595245361328125,0.08175086975097656,-0.5338356494903564
1787729882568464000,8.7894638671875,1.2414073944091797,0.4358654022216797,-0.020992517471313477
1787729882584411000,8.805410888671876,0.30934953689575195,0.48450565338134766,0.21031053364276886
1787729882600657200,8.8216572265625,-0.09349584579467773,0.33058643341064453,0.13451483845710754
1787729882616395000,8.83739501953125,-0.16005706787109375,0.2402973175048828,-0.26094621419906616
1787729882632753200,8.853753173828125,-0.031394004821777344,-0.01386260986328125,-0.3213651776313782
1787729882648484600,8.869484619140625,0.03199195861816406,-0.3252725601196289,-0.40346404910087585
1787729882664412700,8.88541259765625,-0.09298038482666016,-0.5005893707275391,-0.667148768901825
1787729882680962800,8.901962890625,-0.1384263038635254,-0.763390064239502,-0.8742043972015381
1787729882696430300,8.917430419921875,0.20637989044189453,-1.0306525230407715,-0.8284265398979187
1787729882712553500,8.933553466796875,0.3530392646789551,-1.1543164253234863,-0.5416430234909058
1787729882728942800,8.94994287109375,0.0795583724975586,-1.149322509765625,-0.4371381998062134
1787729882744445700,8.96544580078125,-0.41802310943603516,-1.1017355918884277,-0.445210725069046
1787729882768625200,8.989625244140624,-1.184063196182251,-0.9747419357299805,-0.39892303943634033
1787729882784492500,9.005492431640626,-1.3697662353515625,-0.904444694519043,-0.36436259746551514
1787729882800734700,9.021734619140625,-1.1885888576507568,-0.9590721130371094,-0.3693653643131256
1787729882816296400,9.03729638671875,-0.6531894207000732,-0.971860408782959,-0.48123642802238464
1787729882832930000,9.053929931640624,-0.6578199863433838,-0.8618865013122559,-0.6603410840034485
1787729882848436000,9.06943603515625,-0.8346123695373535,-0.5999727249145508,-0.7276613712310791
1787729882864357000,9.085357177734375,-0.8107953071594238,-0.3437986373901367,-0.6544637680053711
1787729882880574200,9.10157421875,-0.6386172771453857,-0.20848369598388672,-0.4756055772304535
1787729882896450300,9.1174501953125,-0.37940168380737305,-0.06638431549072266,-0.5931883454322815
1787729882912568000,9.133568115234375,0.03810548782348633,0.05765342712402344,-0.6689297556877136
1787729882928369200,9.149369140625,0.2616596221923828,0.2404041290283203,-0.6040583252906799
1787729882944308700,9.165308837890626,0.051464080810546875,0.4749288558959961,-0.5400906801223755
1787729882960642600,9.181642578125,-0.38692522048950195,0.5675392150878906,-0.4084983766078949
1787729882976317200,9.197317138671876,-0.32537412643432617,0.6041889190673828,-0.26035627722740173
1787729883000597800,9.22159765625,0.4782576560974121,0.3608226776123047,-0.3079588711261749
1787729883016360000,9.23735986328125,0.7828631401062012,0.5068321228027344,-0.5094783902168274
1787729883032674600,9.253674560546875,0.7525839805603027,0.6503124237060547,-0.5186150074005127
1787729883048474400,9.269474365234375,0.8995013236999512,0.6931047439575195,-0.16704291105270386
1787729883064365300,9.285365234375,1.0006866455078125,0.7575368881225586,0.011629059910774231
1787729883080662300,9.301662353515624,0.4147605895996094,1.0031318664550781,-0.09141308069229126
1787729883096308000,9.317307861328125,-0.29294729232788086,1.2670116424560547,0.11802081763744354
1787729883112496400,9.333496337890624,-0.3930952548980713,1.338170051574707,0.24900135397911072
1787729883128347600,9.34934765625,0.30712127685546875,1.1449089050292969,0.5242854356765747
1787729883144363800,9.36536376953125,1.4427204132080078,0.8125534057617188,0.6669348478317261
1787729883160547300,9.38154736328125,2.449634552001953,0.24291610717773438,0.47130733728408813
1787729883176269600,9.39726953125,3.1207966804504395,-0.24717044830322266,0.06668459624052048
1787729883192407600,9.413407470703126,3.123094081878662,-0.5508127212524414,0.0029985979199409485
1787729883208348000,9.429347900390624,2.155179023742676,-0.5503721237182617,0.402912974357605
1787729883224351000,9.44535107421875,0.6512141227722168,-0.39791297912597656,0.6357192993164062
1787729883240885800,9.4618857421875,-0.6984579563140869,-0.18023967742919922,0.5427934527397156
1787729883256249600,9.47724951171875,-0.9797265529632568,-0.12688732147216797,0.4602367579936981
1787729883272542500,9.49354248046875,-0.11780452728271484,-0.31446075439453125,0.5603302717208862
1787729883288264200,9.50926416015625,0.8423738479614258,-0.49710845947265625,0.4895636737346649
1787729883304210000,9.5252099609375,1.5627880096435547,-0.602992057800293,0.568077564239502
1787729883320404200,9.541404296875,1.692192554473877,-0.6772661209106445,0.8693114519119263
1787729883336208400,9.55720849609375,1.2257251739501953,-0.5460166931152344,0.9077934622764587
1787729883352355800,9.57335595703125,0.3220505714416504,-0.6072912216186523,0.7784019708633423
1787729883368201000,9.589200927734375,-0.30516505241394043,-0.7429580688476562,0.651530921459198
1787729883384202200,9.6052021484375,-0.7180190086364746,-0.8910131454467773,0.41315993666648865
1787729883400360700,9.621360595703125,-1.0807209014892578,-0.7527580261230469,0.11937574297189713
1787729883416207000,9.63720703125,-1.4506494998931885,-0.5412054061889648,0.1528334766626358
1787729883432284700,9.65328466796875,-1.7076597213745117,-0.4544382095336914,0.44042086601257324
1787729883448295000,9.669294921875,-1.710646152496338,-0.5118980407714844,0.6552004814147949
1787729883464194800,9.68519482421875,-1.2103915214538574,-0.6339960098266602,0.8908715844154358
1787729883480407800,9.70140771484375,-0.7448432445526123,-0.6867074966430664,0.9764005541801453
1787729883496757200,9.71775732421875,-0.516667366027832,-0.5226306915283203,0.6986030340194702
1787729883512441600,9.733441650390626,-0.501856803894043,-0.4060182571411133,0.4028647840023041
1787729883536167200,9.757167236328126,-0.32349181175231934,-0.2789144515991211,-0.016422733664512634
1787729883552373500,9.77337353515625,-0.08993053436279297,-0.21043109893798828,-0.15194062888622284
1787729883568248300,9.789248291015625,0.23815011978149414,-0.18344497680664062,-0.03352174162864685
1787729883584438300,9.805438232421874,0.6289095878601074,-0.13552474975585938,0.25258681178092957
1787729883600716000,9.821716064453126,0.9491543769836426,-0.1109781265258789,0.6331146955490112
1787729883616270000,9.83727001953125,1.0539493560791016,-0.08621597290039062,0.8722659349441528
1787729883632462600,9.853462646484376,0.8712577819824219,0.016931533813476562,0.8109350204467773
1787729883648728800,9.869728759765625,0.5686225891113281,0.12066173553466797,0.7259078025817871
1787729883664251400,9.88525146484375,0.44011545181274414,0.23343849182128906,0.8850920796394348
1787729883680507600,9.901507568359374,0.30845212936401367,0.41022586822509766,0.9459016919136047
1787729883696293400,9.91729345703125,0.15914344787597656,0.6161336898803711,0.9785241484642029
1787729883712439300,9.933439208984375,0.07288455963134766,0.5557384490966797,0.912289023399353
1787729883728308500,9.94930859375,0.10382986068725586,0.47030067443847656,0.615828275680542
1787729883744252700,9.965252685546876,0.5603008270263672,0.2756376266479492,0.3983849883079529
1787729883760574000,9.981573974609375,1.539896011352539,0.14516067504882812,0.3351183831691742
1787729883776241000,9.997240966796875,1.8389406204223633,0.3848724365234375,-0.038880933076143265
1787729883792454100,10.0134541015625,0.771294116973877,0.8131475448608398,-0.47654956579208374
1787729883816448800,10.03744873046875,-1.0061895847320557,1.0600309371948242,-0.8926169872283936
1787729883832409300,10.053409423828125,-0.4267542362213135,0.8975410461425781,-0.8187369108200073
1787729883848460500,10.06946044921875,0.9418835639953613,0.5494232177734375,-0.768579363822937
1787729883864229000,10.08522900390625,2.405104160308838,0.2136678695678711,-0.8716004490852356
1787729883880461600,10.101461669921875,3.164048194885254,0.11267757415771484,-1.1220920085906982
1787729883896162600,10.11716259765625,2.700737476348877,0.32616424560546875,-1.0876293182373047
1787729883912328700,10.13332861328125,1.3581976890563965,0.6454343795776367,-0.7997226715087891
1787729883928298200,10.14929833984375,0.20577192306518555,0.637211799621582,-0.37451109290122986
1787729883944237600,10.165237548828125,-0.4069488048553467,0.5078868865966797,-0.0838952586054802
1787729883960427300,10.18142724609375,-0.2901320457458496,0.3242311477661133,-0.14392361044883728
1787729883976176600,10.1971767578125,0.32097482681274414,-0.021309852600097656,-0.15161241590976715
1787729884000377000,10.221377197265625,0.8397843837738037,-0.7099533081054688,-0.1396484225988388
1787729884016149200,10.237149169921874,0.7198452949523926,-1.0454869270324707,-0.36689212918281555
1787729884032307700,10.2533076171875,0.234527587890625,-1.3534049987792969,-0.5718532800674438
1787729884048190700,10.269190673828126,-0.1770491600036621,-1.4070734977722168,-0.6482803821563721
1787729884064139300,10.28513916015625,-0.73093581199646,-1.4016366004943848,-0.5055433511734009
1787729884080446700,10.30144677734375,-1.1753122806549072,-1.2889299392700195,-0.5059934854507446
1787729884096025900,10.31702587890625,-1.2119874954223633,-1.2288217544555664,-0.4775172770023346
1787729884112228400,10.333228271484375,-0.9935872554779053,-1.2147579193115234,-0.3155176043510437
1787729884128116200,10.3491162109375,-0.5092487335205078,-0.84228515625,0.04279635474085808
1787729884144068600,10.365068603515626,-0.35532712936401367,-0.9007043838500977,0.011100947856903076
1787729884160331300,10.381331298828124,-0.40012431144714355,-0.5434885025024414,-0.09978987276554108
1787729884176026600,10.397026611328124,-0.5476040840148926,-0.4233560562133789,-0.21360242366790771
1787729884192234500,10.413234375,-0.6185951232910156,-0.2626686096191406,-0.5279223322868347
1787729884208556300,10.429556396484376,-0.22440576553344727,-0.2081298828125,-0.5832430124282837
1787729884224126500,10.44512646484375,0.37334704399108887,-0.15750503540039062,-0.4801703989505768
1787729884240457000,10.46145703125,0.8448195457458496,0.02363300323486328,-0.44703733921051025
1787729884256018000,10.477017822265625,0.8452010154724121,0.19533252716064453,-0.4052963852882385
1787729884272242700,10.49324267578125,0.8014297485351562,0.30328845977783203,-0.21518005430698395
1787729884288149000,10.50914892578125,0.45453786849975586,0.47041797637939453,-0.14257220923900604
1787729884304203800,10.525203857421875,0.24985837936401367,0.6686191558837891,0.01898731291294098
1787729884320529000,10.54152880859375,0.35877060890197754,0.6655864715576172,-0.001072019338607788
1787729884336054000,10.557053955078125,0.5776617527008057,0.5776004791259766,-0.36446812748908997
1787729884352222200,10.57322216796875,1.039060354232788,0.4916543960571289,-0.699310839176178
1787729884368094700,10.5890947265625,1.5149846076965332,0.32434749603271484,-0.7895820736885071
1787729884384071200,10.6050712890625,1.4810311794281006,0.2465524673461914,-1.0281143188476562
1787729884400381200,10.621381103515626,0.9823124408721924,0.3826284408569336,-0.9925161600112915
1787729884416009000,10.637009033203125,0.16309094429016113,0.5560750961303711,-0.5734961032867432
1787729884432175400,10.65317529296875,-0.41977572441101074,0.7293167114257812,0.14402270317077637
1787729884448066000,10.669066162109376,-1.0140886306762695,0.7564754486083984,0.5431599617004395
1787729884464510700,10.6855107421875,-1.141925573348999,0.7804403305053711,0.48720046877861023
1787729884480269600,10.70126953125,-0.7468311786651611,0.6516799926757812,0.31828826665878296
1787729884496086500,10.71708642578125,0.23804259300231934,0.2176828384399414,0.30309563875198364
1787729884512128000,10.7331279296875,1.0417635440826416,-0.3399038314819336,0.2903019189834595
1787729884528089000,10.749089111328125,1.4367308616638184,-0.6085414886474609,0.12381461262702942
1787729884544003300,10.76500341796875,1.2214460372924805,-0.8518886566162109,-0.2635016143321991
1787729884560336400,10.78133642578125,0.836601972579956,-1.12567138671875,-0.5673021078109741
1787729884575924200,10.79692431640625,0.7288877964019775,-1.330604076385498,-0.7088526487350464
1787729884592156200,10.81315625,1.1659789085388184,-1.4673714637756348,-0.4678972065448761
1787729884608014300,10.829014404296874,1.6469194889068604,-1.5926189422607422,0.316302627325058
1787729884623992600,10.84499267578125,1.33842134475708,-1.4825825691223145,0.8080170750617981
1787729884640217900,10.8612177734375,0.21749663352966309,-1.0522708892822266,1.0349115133285522
1787729884655979300,10.876979248046876,-0.8972716331481934,-0.5234804153442383,1.204763650894165
1787729884672235300,10.8932353515625,-1.475196123123169,-0.07648372650146484,0.9951304197311401
1787729884688086800,10.909086669921875,-1.5458279848098755,0.21743202209472656,0.5523024797439575
1787729884704149500,10.9251494140625,-0.8385522365570068,0.21057987213134766,0.18131223320960999
1787729884720623000,10.941623046875,0.12862062454223633,0.03043365478515625,-0.14889848232269287
1787729884735916500,10.95691650390625,1.0569250583648682,-0.07194137573242188,-0.7220733165740967
1787729884752121600,10.97312158203125,1.4814906120300293,0.022109031677246094,-1.1923519372940063
1787729884768559400,10.989559326171875,1.1964607238769531,0.2603731155395508,-1.4648854732513428
1787729884783956200,11.004956298828125,0.8845069408416748,0.2978668212890625,-1.2811899185180664
1787729884800200200,11.0212001953125,0.9359984397888184,0.10401248931884766,-0.9146611094474792
1787729884815890200,11.03689013671875,0.7869217395782471,-0.05744171142578125,-0.5759359002113342
1787729884832156200,11.05315625,0.5565519332885742,-0.2919464111328125,-0.25490593910217285
1787729884847964000,11.0689638671875,0.31662511825561523,-0.49700260162353516,-0.18290680646896362
1787729884863977500,11.0849775390625,0.1435863971710205,-0.3697080612182617,-0.2993515133857727
1787729884880280300,11.1012802734375,0.19935059547424316,-0.3751974105834961,-0.24856644868850708
1787729884895896000,11.11689599609375,0.27518177032470703,-0.3237133026123047,-0.07377225160598755
1787729884912060400,11.133060302734375,0.3508574962615967,-0.3696174621582031,0.13418340682983398
1787729884927957500,11.14895751953125,1.1005847454071045,-0.4535818099975586,0.1935550570487976
1787729884943894000,11.16489404296875,1.1858084201812744,-0.4454326629638672,0.2687251567840576
1787729884975916000,11.196916015625,0.6729977130889893,-0.3634052276611328,0.2811184823513031
1787729884992038700,11.21303857421875,0.5431075096130371,-0.2974672317504883,0.3730296194553375
1787729885007939000,11.22893896484375,0.7746446132659912,-0.302093505859375,0.7464748024940491
1787729885024351200,11.245351318359376,0.9947552680969238,-0.1983318328857422,0.7775461673736572
1787729885040180700,11.2611806640625,1.216484785079956,-0.14112377166748047,0.755652666091919
1787729885055822600,11.276822509765625,0.43636441230773926,-0.09991836547851562,0.6411451101303101
1787729885071987200,11.2929873046875,0.125870943069458,0.2336282730102539,0.2504734992980957
1787729885087869700,11.30886962890625,0.7977073192596436,0.14715290069580078,0.49371084570884705
1787729885103863800,11.32486376953125,1.4581153392791748,-0.008654594421386719,0.8594844937324524
1787729885120095700,11.341095703125,1.7112584114074707,-0.13012123107910156,1.2075397968292236
1787729885135789800,11.356789794921875,1.3702466487884521,-0.2699747085571289,1.2606693506240845
1787729885151960800,11.3729609375,0.9475188255310059,-0.31112194061279297,1.1404528617858887
1787729885167825400,11.388825439453125,0.5247235298156738,-0.2792797088623047,0.8895017504692078
1787729885183827200,11.4048271484375,0.3122866153717041,-0.0976724624633789,0.858250617980957
1787729885200129300,11.42112939453125,-0.03355121612548828,0.09103107452392578,0.443180114030838
1787729885215746300,11.436746337890625,-0.2789881229400635,0.16032695770263672,0.12832915782928467
1787729885231944200,11.452944091796875,-0.12999486923217773,0.17603683471679688,0.04764348268508911
1787729885247807000,11.468806884765625,0.041052818298339844,0.0823812484741211,0.20098039507865906
1787729885263753000,11.4847529296875,0.46381330490112305,-0.2017345428466797,0.18431580066680908
1787729885280387000,11.501386962890624,0.7930164337158203,-0.2926969528198242,-0.14672315120697021
1787729885295718400,11.516718505859375,1.0357744693756104,-0.19400787353515625,-0.408732533454895
1787729885311883500,11.532883544921875,0.7336645126342773,-0.10515689849853516,-0.3506625294685364
1787729885327787800,11.548787841796875,0.2436962127685547,-0.03628826141357422,-0.18905335664749146
1787729885343715600,11.564715576171874,0.17536306381225586,-0.024883270263671875,-0.010646045207977295
1787729885360205300,11.581205322265625,0.27896761894226074,-0.15279674530029297,0.13255435228347778
1787729885375658200,11.596658203125,0.39871692657470703,-0.3499727249145508,0.3490884602069855
1787729885391914800,11.612914794921876,0.3969111442565918,-0.30370140075683594,0.42670121788978577
1787729885407772200,11.628772216796875,0.39400792121887207,-0.2847738265991211,0.3633052408695221
1787729885423717400,11.64471728515625,0.39248132705688477,-0.14171981811523438,0.15922951698303223
1787729885439930400,11.660930419921876,0.27352213859558105,-0.12246990203857422,0.04712569713592529
1787729885455694600,11.676694580078125,0.011001825332641602,-0.07328224182128906,0.09690165519714355
1787729885471887000,11.69288720703125,-0.34937238693237305,0.06068706512451172,0.11749738454818726
1787729885487731700,11.708731689453124,-0.6031560897827148,0.1652536392211914,0.3333677649497986
1787729885503718400,11.724718505859375,-0.8765435218811035,0.1876535415649414,0.48579519987106323
1787729885520062200,11.741062255859376,-0.8904249668121338,0.21864700317382812,0.3078063130378723
1787729885536123000,11.757122802734376,-0.6782124042510986,0.2208852767944336,0.04527503252029419
1787729885551891200,11.77289111328125,-0.213057279586792,0.13351917266845703,-0.26579058170318604
1787729885567783400,11.788783447265626,0.18023228645324707,0.06134986877441406,-0.34845399856567383
1787729885584182500,11.8051826171875,0.4522817134857178,0.06915855407714844,-0.22920620441436768
1787729885599928000,11.820927978515625,0.3988916873931885,0.16191673278808594,-0.17178142070770264
1787729885615649800,11.83664990234375,0.054903268814086914,0.2308177947998047,-0.014705061912536621
1787729885631927600,11.852927490234375,-0.21249914169311523,0.2854776382446289,0.13555073738098145
1787729885647719200,11.86871923828125,0.13224005699157715,0.3335590362548828,0.029827415943145752
1787729885663749400,11.884749267578124,0.8553998470306396,0.25481414794921875,-0.0848885178565979
1787729885680049000,11.901048828125,1.1577708721160889,0.15372943878173828,-0.2440088391304016
1787729885695622400,11.916622314453125,0.8243653774261475,0.20325946807861328,-0.3074427843093872
1787729885711831000,11.9328310546875,0.23168039321899414,0.17648887634277344,-0.1439683437347412
1787729885727744800,11.948744873046875,-0.21731328964233398,0.11937427520751953,0.21276628971099854
1787729885743684000,11.96468408203125,-0.3643815517425537,0.003931999206542969,0.6580512523651123
1787729885759931000,11.980930908203124,-0.5903606414794922,0.011272430419921875,0.7978610396385193
1787729885775589600,11.996589599609376,-0.7158262729644775,-0.03408622741699219,0.6185562014579773
1787729885791840000,12.012840087890625,-0.5345566272735596,-0.11538028717041016,0.3331722021102905
1787729885807655700,12.02865576171875,-0.09896016120910645,-0.23035907745361328,0.06154388189315796
1787729885823622400,12.044622314453125,0.25224971771240234,-0.3949394226074219,0.0838472843170166
1787729885840260400,12.06126025390625,0.3614983558654785,-0.48051929473876953,0.05751878023147583
1787729885855592700,12.0765927734375,0.08484911918640137,-0.4653940200805664,-0.009740650653839111
1787729885871755500,12.092755615234376,-0.34215545654296875,-0.3641843795776367,-0.005421578884124756
1787729885887672800,12.1086728515625,-0.6030676364898682,-0.2724027633666992,0.056770265102386475
1787729885903651300,12.1246513671875,-0.6476624011993408,-0.29103565216064453,0.21112000942230225
1787729885919842000,12.140842041015626,-0.42647624015808105,-0.37586307525634766,0.4250119924545288
1787729885935584500,12.15658447265625,-0.09089946746826172,-0.4958982467651367,0.5834824442863464
1787729885951769600,12.17276953125,0.26621317863464355,-0.4663887023925781,0.7518671154975891
1787729885967645400,12.1886455078125,0.6089038848876953,-0.24700069427490234,0.9370295405387878
1787729885983613000,12.204613037109375,0.28934431076049805,-0.042183876037597656,0.9460099935531616
1787729885999950600,12.22095068359375,-0.3849611282348633,0.1335611343383789,0.9321328401565552
1787729886015556600,12.236556640625,-1.020049810409546,0.34853267669677734,1.0455574989318848
1787729886031742000,12.252741943359375,-1.4034656286239624,0.47606849670410156,0.9889113903045654
1787729886047667700,12.268667724609376,-0.8973181247711182,0.42645835876464844,0.6862751841545105
1787729886063623400,12.28462353515625,0.19713902473449707,0.19614410400390625,0.2919811010360718
1787729886079856600,12.300856689453125,1.5698013305664062,-0.17220497131347656,-0.09281808137893677
1787729886095999000,12.3169990234375,2.267305374145508,-0.2764320373535156,-0.38819390535354614
1787729886111775500,12.332775390625,1.8580710887908936,-0.1748504638671875,-0.3804089426994324
1787729886127615700,12.34861572265625,0.6165697574615479,-0.001033782958984375,-0.055553436279296875
1787729886143642600,12.364642578125,-0.352886438369751,0.23665428161621094,0.2499222457408905
1787729886159886600,12.380886474609374,-0.820328950881958,0.3787517547607422,0.6648529171943665
1787729886175553800,12.3965537109375,-0.45016956329345703,0.3210906982421875,1.0343879461288452
1787729886191671000,12.412671142578125,0.29918360710144043,0.14597797393798828,1.0864239931106567
1787729886207585000,12.4285849609375,0.8704690933227539,-0.12185001373291016,0.9341115951538086
1787729886223534800,12.444534912109376,0.9665443897247314,-0.39004993438720703,0.7336426377296448
1787729886239744500,12.46074462890625,0.695857048034668,-0.4685382843017578,0.5691372752189636
1787729886255495700,12.47649560546875,0.26187682151794434,-0.4674224853515625,0.3613245487213135
1787729886271657200,12.4926572265625,-0.01659989356994629,-0.4158811569213867,0.20415657758712769
1787729886287504100,12.508504150390625,-0.0030689239501953125,-0.3874025344848633,0.01999068260192871
1787729886303471000,12.52447119140625,0.09556221961975098,-0.3837003707885742,-0.04495441913604736
1787729886319808500,12.54080859375,0.2968440055847168,-0.35872554779052734,0.09747135639190674
1787729886335455700,12.556455810546876,0.2646336555480957,-0.29237842559814453,0.40021219849586487
1787729886352108800,12.57310888671875,-0.07124948501586914,-0.15654659271240234,0.6591916680335999
1787729886367569700,12.588569580078126,-0.4047055244445801,-0.01540374755859375,0.8767869472503662
1787729886383577900,12.604577880859376,-0.4507765769958496,0.11666107177734375,1.0365269184112549
1787729886400151000,12.621151123046875,-0.16026091575622559,0.17376995086669922,1.1152604818344116
1787729886415499500,12.63649951171875,0.09448003768920898,0.1768350601196289,1.0020543336868286
1787729886431699000,12.652698974609375,0.2084059715270996,0.23405838012695312,0.7511492371559143
1787729886447644400,12.66864453125,0.2319498062133789,0.2522573471069336,0.6864748001098633
1787729886463567000,12.684567138671875,0.24537920951843262,0.35091495513916016,0.6586290597915649
1787729886479855000,12.700855224609375,0.29053521156311035,0.4736156463623047,0.6712257862091064
1787729886495522800,12.716522705078125,0.35108280181884766,0.5388431549072266,0.7019976377487183
1787729886511707000,12.732706787109375,0.3254828453063965,0.4155712127685547,0.8615829348564148
1787729886527606800,12.748606689453124,0.08049201965332031,0.27582740783691406,0.9340622425079346
1787729886543545600,12.764545654296874,-0.18635272979736328,0.26764392852783203,0.8875751495361328
1787729886559825200,12.7808251953125,-0.3812847137451172,0.25676536560058594,0.7768181562423706
1787729886575523300,12.7965234375,-0.5629928112030029,0.2117147445678711,0.6669161319732666
1787729886591689200,12.812689208984375,-0.8586819171905518,0.057364463806152344,0.6198299527168274
1787729886607993300,12.828993408203125,-1.0067272186279297,-0.07044124603271484,0.4884761571884155
1787729886623645400,12.8446455078125,-0.995039701461792,-0.16469764709472656,0.4201575517654419
1787729886639810000,12.86081005859375,-0.8220832347869873,-0.2070322036743164,0.41392216086387634
1787729886655998200,12.876998291015624,-0.6213817596435547,-0.23992347717285156,0.3944099545478821
1787729886671667200,12.892667236328125,-0.3425893783569336,-0.3553447723388672,0.4581891894340515
1787729886687553500,12.908553466796874,-0.17597651481628418,-0.42931652069091797,0.39360564947128296
1787729886703551700,12.9245517578125,-0.2887589931488037,-0.33681774139404297,0.30494242906570435
1787729886719745500,12.94074560546875,-0.5085625648498535,-0.2271900177001953,0.3490484058856964
1787729886735457500,12.95645751953125,-0.635333776473999,-0.10636329650878906,0.555658221244812
1787729886751750400,12.97275048828125,-0.493300199508667,0.10277748107910156,0.7125632166862488
1787729886767534800,12.988534912109374,-0.022899627685546875,0.28154754638671875,0.8087076544761658
1787729886783519000,13.00451904296875,0.7119410037994385,0.38330650329589844,0.9353916645050049
1787729886799925800,13.02092578125,1.4253993034362793,0.529632568359375,0.9273325800895691
1787729886815490800,13.03649072265625,1.7270729541778564,0.7578325271606445,0.7204799652099609
1787729886831659000,13.052658935546875,1.7076945304870605,0.8404474258422852,0.6140510439872742
1787729886847629300,13.06862939453125,1.4606804847717285,0.7723236083984375,0.5125777721405029
1787729886863594500,13.084594482421876,1.2063407897949219,0.7542190551757812,0.3508516550064087
1787729886879759000,13.100759033203126,1.1694347858428955,0.7137241363525391,0.33388766646385193
1787729886895487700,13.11648779296875,0.8730990886688232,0.8274517059326172,0.11868366599082947
1787729886912079600,13.13307958984375,-0.010648727416992188,1.0715951919555664,-0.19365152716636658
1787729886927486500,13.148486572265625,-0.7147853374481201,1.1745128631591797,-0.342933714389801
1787729886943497200,13.164497314453126,-0.9552452564239502,1.1462125778198242,-0.5499874949455261
1787729886959736800,13.18073681640625,-0.45259976387023926,0.9113178253173828,-0.8965972661972046
1787729886975358700,13.196358642578126,0.80458664894104,0.3726644515991211,-0.7145675420761108
1787729886991611400,13.212611328125,1.8782141208648682,-0.013533592224121094,-0.40592122077941895
1787729887007516200,13.22851611328125,2.1934287548065186,-0.2771930694580078,-0.15370261669158936
1787729887023471400,13.244471435546876,2.2205474376678467,-0.6622886657714844,0.19911974668502808
1787729887039605000,13.26060498046875,1.9573018550872803,-0.8513507843017578,0.4940551817417145
1787729887055298000,13.276298095703124,1.1093032360076904,-0.6678981781005859,0.5313447117805481
1787729887071566000,13.292566162109376,-0.16687226295471191,-0.4558439254760742,0.2399032711982727
1787729887087376600,13.308376708984374,-1.012433409690857,-0.3307609558105469,-0.07117953896522522
1787729887103348500,13.324348388671876,-1.064664602279663,-0.3274555206298828,-0.21180182695388794
1787729887119614700,13.34061474609375,-0.5962815284729004,-0.3593435287475586,-0.31576865911483765
1787729887135247600,13.35624755859375,-0.09679961204528809,-0.3791656494140625,-0.36209583282470703
1787729887151615700,13.37261572265625,0.20228195190429688,-0.3540687561035156,-0.2042611539363861
1787729887167892200,13.388892333984375,0.31471920013427734,-0.4096393585205078,-0.002084404230117798
1787729887183304200,13.40430419921875,0.35440754890441895,-0.5031070709228516,-0.07225245237350464
1787729887199519700,13.420519775390625,0.6592249870300293,-0.6532754898071289,-0.187934011220932
1787729887215291600,13.436291748046875,0.6889433860778809,-0.8315391540527344,-0.22017738223075867
1787729887231598800,13.452598876953125,0.3931443691253662,-0.8834543228149414,-0.042401790618896484
1787729887247353600,13.468353515625,0.06430363655090332,-0.8801403045654297,0.3538976013660431
1787729887263338000,13.484337890625,-0.22264981269836426,-0.8639640808105469,0.6354109644889832
1787729887279635000,13.500635009765626,-0.47187018394470215,-0.7521066665649414,0.17165566980838776
1787729887295234000,13.516234130859376,-0.6009976863861084,-0.7677698135375977,-0.17637711763381958
1787729887311507700,13.5325078125,-0.9304667711257935,-0.6159954071044922,-0.4475172460079193
1787729887327375600,13.548375732421874,-1.4162647724151611,-0.4226713180541992,-0.28595393896102905
1787729887343284000,13.564283935546875,-1.5846346616744995,-0.3078041076660156,-0.027233749628067017
1787729887359541000,13.580541015625,-1.5438789129257202,-0.29505443572998047,0.1666419357061386
1787729887375225900,13.596225830078126,-0.9266116619110107,-0.24951744079589844,0.08101795613765717
1787729887391475500,13.612475341796875,-0.2984652519226074,-0.16271305084228516,-0.2502884864807129
1787729887407605200,13.628605224609375,0.25027918815612793,-0.2522401809692383,-0.4091361165046692
1787729887423257000,13.644257080078125,0.6070103645324707,-0.3405427932739258,-0.422881156206131
1787729887439579400,13.660579345703125,0.6824374198913574,-0.29897499084472656,-0.256763219833374
1787729887455247000,13.6762470703125,0.6573758125305176,-0.1810779571533203,-0.055128008127212524
1787729887471840300,13.69284033203125,0.3596384525299072,-0.08642864227294922,0.12198358029127121
1787729887487288600,13.70828857421875,-0.3273947238922119,0.06847286224365234,0.2991463243961334
1787729887503295200,13.724295166015626,-0.5369546413421631,0.2324390411376953,0.1095142811536789
1787729887519582500,13.74058251953125,-0.10263800621032715,0.2502098083496094,-0.11314238607883453
1787729887535259600,13.756259765625,0.8075988292694092,0.13548851013183594,-0.37262773513793945
1787729887551537200,13.772537109375,1.4809355735778809,0.03900909423828125,-0.35687631368637085
1787729887567287000,13.788287109375,1.6990368366241455,0.13451766967773438,-0.10959960520267487
1787729887583239700,13.80423974609375,1.5180797576904297,0.3461627960205078,-0.09351852536201477
1787729887599638300,13.82063818359375,1.2211322784423828,0.5613918304443359,-0.16116321086883545
1787729887615160600,13.83616064453125,1.1682987213134766,0.6797323226928711,0.06768850982189178
1787729887631552800,13.852552734375,1.1921606063842773,0.7722291946411133,0.24704262614250183
1787729887647227000,13.868226806640624,0.8456230163574219,0.5750141143798828,0.3622773289680481
1787729887663229700,13.884229736328125,0.310349702835083,0.2731199264526367,0.16209113597869873
1787729887679542800,13.900542724609375,-0.32302021980285645,0.5944433212280273,-0.17336684465408325
1787729887695166200,13.916166259765625,-0.980471134185791,0.7709884643554688,0.12603344023227692
1787729887711650600,13.932650634765626,-1.4980218410491943,0.6038446426391602,0.5932883024215698
1787729887727724800,13.948724853515625,-1.3575397729873657,0.34665870666503906,0.8132538199424744
1787729887743168300,13.964168212890625,-0.15101385116577148,0.008487701416015625,0.9280465841293335
1787729887759658000,13.980657958984375,1.8126206398010254,-0.5384044647216797,1.1994743347167969
1787729887775144400,13.99614453125,3.1474483013153076,-0.7973546981811523,1.2990715503692627
1787729887791253500,14.01225341796875,3.4804043769836426,-0.8451499938964844,1.3938426971435547
1787729887807072800,14.02807275390625,2.0566763877868652,-0.6319437026977539,1.196884274482727
1787729887823076600,14.04407666015625,-0.007471561431884766,-0.5297088623046875,0.5644631385803223
1787729887839251200,14.060251220703124,-1.6857377290725708,-0.48424243927001953,-0.05274786055088043
1787729887855023400,14.0760234375,-2.063286542892456,-0.5633039474487305,-0.06492605805397034
1787729887871126000,14.0921259765625,-1.0110905170440674,-0.7210922241210938,0.48269233107566833
1787729887887039200,14.108039306640626,0.1896045207977295,-0.8022060394287109,0.9434894323348999
1787729887903031600,14.124031494140626,0.5884954929351807,-0.7868862152099609,1.0671093463897705
1787729887919321000,14.140321044921874,0.6401317119598389,-0.7336359024047852,1.0352964401245117
1787729887934945800,14.15594580078125,0.3229227066040039,-0.6898984909057617,0.8739262223243713
1787729887951128600,14.172128662109374,0.058928728103637695,-0.697352409362793,0.49371761083602905
1787729887967020000,14.18802001953125,0.30666565895080566,-0.7168111801147461,0.14409810304641724
1787729887983567000,14.204567138671875,0.5830240249633789,-0.6857357025146484,0.19133692979812622
1787729887999180300,14.22018017578125,0.5140111446380615,-0.5650119781494141,0.29266104102134705
1787729888014927400,14.23592724609375,0.0590517520904541,-0.3524456024169922,0.38440895080566406
1787729888031504000,14.25250390625,-0.6114616394042969,-0.13055801391601562,0.5698192715644836
1787729888047067400,14.2680673828125,-1.020190954208374,-0.055816650390625,0.5536036491394043
1787729888063020800,14.284020751953125,-1.0573670864105225,-0.056003570556640625,0.3709332048892975
1787729888079317800,14.30031787109375,-0.5495607852935791,-0.09384632110595703,0.240611732006073
1787729888094939100,14.315939208984375,0.06623196601867676,-0.15167617797851562,0.2741604745388031
1787729888111127300,14.332127197265624,0.3718833923339844,-0.08338451385498047,0.23999622464179993
1787729888126974700,14.347974609375,0.32264089584350586,0.07749080657958984,0.183577299118042
1787729888143000800,14.364000732421875,0.24039220809936523,0.20436763763427734,0.20875248312950134
1787729888159182600,14.3801826171875,0.1677098274230957,0.26464080810546875,0.2831653654575348
1787729888174907400,14.395907470703126,0.13322710990905762,0.3599987030029297,0.4884381592273712
1787729888191041500,14.41204150390625,0.04131937026977539,0.4580116271972656,0.5480319261550903
1787729888207025700,14.428025634765625,-0.1644442081451416,0.5664567947387695,0.4445248246192932
1787729888222885400,14.443885498046875,-0.33559274673461914,0.54168701171875,0.3655921518802643
1787729888239495400,14.460495361328125,-0.19670462608337402,0.493896484375,0.28387367725372314
1787729888254840000,14.475840087890624,0.16843032836914062,0.33869075775146484,0.21512365341186523
1787729888271020500,14.4920205078125,0.5876996517181396,0.234832763671875,0.19391489028930664
1787729888287450600,14.50845068359375,1.265307903289795,0.14781475067138672,0.299344927072525
1787729888302944300,14.5239443359375,1.682248592376709,0.2881345748901367,0.020186156034469604
1787729888326901800,14.54790185546875,0.6706573963165283,0.6292619705200195,-0.6485203504562378
1787729888350933800,14.571933837890626,-0.25485849380493164,0.9644641876220703,-1.1028779745101929
1787729888366802200,14.58780224609375,0.24836230278015137,1.0707588195800781,-1.360551357269287
1787729888382749200,14.603749267578126,1.32938814163208,0.7060432434082031,-0.9887837171554565
1787729888399070000,14.620070068359375,2.0878868103027344,0.21598339080810547,-0.5139347910881042
1787729888414657000,14.635656982421875,2.470547914505005,-0.17243003845214844,-0.22898314893245697
1787729888430911500,14.651911376953125,2.449378728866577,-0.4902458190917969,0.06912317872047424
1787729888446720000,14.667719970703125,2.0418992042541504,-0.6069974899291992,0.07797709107398987
1787729888462687000,14.68368701171875,1.5304474830627441,-0.662846565246582,-0.36375781893730164
1787729888478913300,14.699913330078125,1.3928170204162598,-0.6625766754150391,-1.0898382663726807
1787729888494633200,14.71563330078125,1.1311428546905518,-0.6861333847045898,-1.2636799812316895
1787729888510832400,14.731832275390625,0.7931797504425049,-0.5408792495727539,-1.054701566696167
1787729888526759400,14.747759521484374,0.20868706703186035,-0.24028778076171875,-0.8140244483947754
1787729888543141400,14.764141357421876,-0.3964226245880127,-0.12190437316894531,-0.4689725339412689
1787729888566709200,14.787709228515626,-0.29817986488342285,-0.3082761764526367,-0.2998443841934204
1787729888582705200,14.803705078125,0.19928669929504395,-0.4560108184814453,-0.3574957847595215
1787729888598901200,14.8199013671875,0.7537038326263428,-0.5925941467285156,-0.47001194953918457
1787729888614707000,14.83570703125,0.9354195594787598,-0.7629823684692383,-0.617158055305481
1787729888630861600,14.851861572265625,0.7233312129974365,-0.9265432357788086,-0.6972087025642395
1787729888647198000,14.868197998046876,0.3481009006500244,-0.9567995071411133,-0.74718177318573
1787729888662805200,14.88380517578125,0.12116694450378418,-0.8799858093261719,-0.847732424736023
1787729888678896600,14.899896728515625,0.08937430381774902,-0.7594451904296875,-0.9109984636306763
1787729888695192000,14.916192138671875,0.10603904724121094,-0.630152702331543,-0.7841430902481079
1787729888710824000,14.931823974609374,-0.021915197372436523,-0.4255847930908203,-0.7298941612243652
1787729888726717000,14.947717041015625,-0.2985727787017822,-0.2634258270263672,-0.6771297454833984
1787729888742656000,14.963656005859375,-0.46646761894226074,-0.17434406280517578,-0.6778106689453125
1787729888758918700,14.979918701171876,-0.5045349597930908,-0.14523601531982422,-0.6942744255065918
1787729888774651100,14.995651123046875,-0.3573293685913086,-0.17685222625732422,-0.6826810836791992
1787729888790834700,15.011834716796875,0.02669048309326172,-0.231964111328125,-0.5571501851081848
1787729888806652200,15.027652099609375,0.613525390625,-0.32707691192626953,-0.34713464975357056
1787729888822639900,15.043639892578126,1.071981430053711,-0.3310508728027344,-0.16299697756767273
1787729888838872000,15.0598720703125,1.3634345531463623,-0.26470184326171875,-0.033859383314847946
1787729888854628900,15.07562890625,1.1159260272979736,-0.140045166015625,-0.10269364714622498
1787729888870745000,15.0917451171875,0.41276097297668457,-0.10129928588867188,-0.38857290148735046
1787729888886665200,15.107665283203126,0.008834362030029297,-0.03466796875,-0.6699467301368713
1787729888902792400,15.12379248046875,0.11046457290649414,-0.009977340698242188,-0.6303495168685913
1787729888919032300,15.1400322265625,0.5146722793579102,-0.03792858123779297,-0.5099354982376099
1787729888934781000,15.155781005859374,1.0456974506378174,0.01187896728515625,-0.27950170636177063
1787729888951224600,15.172224609375,1.5440146923065186,0.1050729751586914,-0.2543846368789673
1787729888966628000,15.187628173828125,1.7391107082366943,0.27483177185058594,-0.3037336766719818
1787729888982684400,15.203684326171874,1.6106183528900146,0.45879077911376953,-0.4343089759349823
1787729888998828000,15.219828125,0.9821450710296631,0.5968351364135742,-0.17075306177139282
1787729889014629600,15.235629638671876,0.030871152877807617,0.5957136154174805,-0.08175638318061829
1787729889030831900,15.251831787109374,-0.6251480579376221,1.0683746337890625,-0.18723222613334656
1787729889046689500,15.267689453125,-0.7094705104827881,1.2479009628295898,0.4147065281867981
1787729889062599700,15.283599609375,-0.6399204730987549,1.1370983123779297,0.9405123591423035
1787729889078849800,15.299849853515624,-0.10275101661682129,0.8711071014404297,0.9796303510665894
1787729889094571800,15.31557177734375,1.4877798557281494,0.43166065216064453,0.8593533635139465
1787729889110853000,15.33185302734375,2.980173349380493,-0.14728355407714844,0.8732210993766785
1787729889126630700,15.347630615234374,3.514946937561035,-0.30149173736572266,0.8184335231781006
1787729889150793500,15.37179345703125,1.5762033462524414,-0.4250822067260742,0.7508319616317749
1787729889166590000,15.38758984375,-0.3868746757507324,-0.5283775329589844,0.5313197374343872
1787729889182562300,15.403562255859375,-1.3403651714324951,-0.5948104858398438,0.5532341003417969
1787729889198882300,15.41988232421875,-1.269155502319336,-0.8133354187011719,0.9404443502426147
1787729889214482000,15.43548193359375,-0.6000745296478271,-0.9783420562744141,0.8746712803840637
1787729889230929700,15.4519296875,-0.06780052185058594,-0.9559564590454102,0.5296558737754822
1787729889246497300,15.467497314453125,-0.013575077056884766,-0.8971776962280273,0.21112608909606934
1787729889262460700,15.483460693359374,-0.13916802406311035,-0.7712030410766602,0.061985328793525696
1787729889278709000,15.499708984375,-0.08679914474487305,-0.6510829925537109,-0.09832900017499924
1787729889294393300,15.515393310546875,-0.1358332633972168,-0.5371942520141602,-0.27594855427742004
1787729889310762000,15.531761962890625,-0.3383188247680664,-0.41399097442626953,-0.34646812081336975
1787729889326475000,15.54747509765625,-0.5391652584075928,-0.26930809020996094,-0.20454810559749603
1787729889342467800,15.5634677734375,-0.6759223937988281,-0.12039852142333984,0.10585188865661621
1787729889359045600,15.580045654296875,-0.6341428756713867,-0.04142570495605469,0.43001213669776917
1787729889374423800,15.595423828125,-0.404843807220459,-0.13656139373779297,0.7456510066986084
1787729889390598100,15.61159814453125,-0.0866086483001709,-0.178253173828125,0.6865035891532898
1787729889406475000,15.62747509765625,-0.06469273567199707,-0.23470783233642578,0.34702634811401367
1787729889422457600,15.64345751953125,-0.2538113594055176,-0.23957443237304688,0.062234267592430115
1787729889438718000,15.659718017578125,-0.22731947898864746,-0.2260904312133789,-0.011965319514274597
1787729889454417400,15.67541748046875,-0.3258042335510254,-0.23577404022216797,0.10542847216129303
1787729889470703000,15.691703125,-0.5662031173706055,-0.21384429931640625,0.21739216148853302
1787729889486598100,15.70759814453125,-0.8068985939025879,-0.23667526245117188,0.3598526120185852
1787729889502499300,15.723499267578125,-0.8691253662109375,-0.2039203643798828,0.42182987928390503
1787729889519095300,15.74009521484375,-0.6310381889343262,-0.13605690002441406,0.3982131779193878
1787729889534779100,15.755779052734376,-0.2982451915740967,-0.1400136947631836,0.3784969449043274
1787729889550658300,15.771658203125,-0.14185380935668945,-0.054637908935546875,0.39454349875450134
1787729889566519000,15.78751904296875,0.04022836685180664,0.0885763168334961,0.4364711344242096
1787729889582489300,15.8034892578125,0.12227463722229004,0.20056724548339844,0.41169142723083496
1787729889598691600,15.819691650390626,0.13459348678588867,0.39322853088378906,0.35174012184143066
1787729889614843600,15.83584375,0.08929777145385742,0.5075654983520508,0.4357784688472748
1787729889630600700,15.8516005859375,0.15562701225280762,0.49443531036376953,0.47804516553878784
1787729889646502700,15.867502685546874,0.3655269145965576,0.4440422058105469,0.5611461400985718
1787729889662436600,15.8834365234375,0.5203089714050293,0.4136228561401367,0.6653933525085449
1787729889678790100,15.8997900390625,0.765669584274292,0.38259029388427734,0.5940337181091309
1787729889694355000,15.91535498046875,1.224247694015503,0.3767547607421875,0.2691795229911804
1787729889710571500,15.931571533203124,1.1315553188323975,0.5523815155029297,0.02360883355140686
1787729889726561800,15.947561767578126,0.36437058448791504,0.6862068176269531,-0.32883915305137634
1787729889742444800,15.96344482421875,-0.18722748756408691,0.845759391784668,-0.6612522602081299
1787729889758963000,15.979962890625,-0.4583115577697754,0.9816360473632812,-0.6361655592918396
1787729889774418700,15.995418701171875,-0.5297093391418457,0.8622703552246094,-0.7209141254425049
1787729889790543000,16.011543212890626,0.5637285709381104,0.3917694091796875,-0.6485260128974915
1787729889806385200,16.02738525390625,2.1368906497955322,-0.06676101684570312,-0.37201860547065735
1787729889822374000,16.043373779296875,2.962646484375,-0.17742252349853516,-0.5320152044296265
1787729889838645800,16.059645751953123,2.905442476272583,-0.17984676361083984,-0.5854246020317078
1787729889854248000,16.075248046875,2.3344454765319824,-0.2697629928588867,-0.49698907136917114
1787729889870920200,16.091920166015626,1.4352045059204102,-0.31599903106689453,-0.2335544228553772
1787729889886365700,16.10736572265625,0.8889362812042236,-0.3324441909790039,0.042159080505371094
1787729889902317600,16.123317626953124,0.74729323387146,-0.4554462432861328,0.2199147343635559
1787729889918880500,16.139880615234375,0.817685604095459,-0.5149765014648438,0.002791672945022583
1787729889934243000,16.1552431640625,0.5602917671203613,-0.5497627258300781,-0.3303651809692383
1787729889950434300,16.171434326171877,0.24068927764892578,-0.5709695816040039,-0.5245814919471741
1787729889966308600,16.18730859375,0.006133556365966797,-0.5891742706298828,-0.5958257913589478
1787729889982279200,16.203279052734374,-0.2301769256591797,-0.6070966720581055,-0.5954533815383911
1787729889998599200,16.21959912109375,-0.45375967025756836,-0.6803598403930664,-0.4786520004272461
1787729890014212000,16.235212158203126,-0.6808767318725586,-0.7521762847900391,-0.3376334309577942
1787729890030403600,16.251403564453124,-0.8980634212493896,-0.8321418762207031,-0.2624359428882599
1787729890046333000,16.2673330078125,-1.2316908836364746,-0.7420072555541992,-0.371208518743515
1787729890062425600,16.283425537109373,-1.4111692905426025,-0.6712131500244141,-0.4681156873703003
1787729890078544100,16.299544189453126,-1.1647355556488037,-0.7439708709716797,-0.49664217233657837
1787729890094220800,16.315220703125,-0.870826005935669,-0.7078847885131836,-0.6353137493133545
1787729890110435600,16.331435546875,-0.697871208190918,-0.6076374053955078,-0.5647681951522827
1787729890126340600,16.347340576171874,-0.5224783420562744,-0.4329357147216797,-0.2785845398902893
1787729890142325500,16.363325439453124,-0.47536158561706543,-0.35050106048583984,-0.16178908944129944
1787729890158858800,16.379858642578125,-0.3969557285308838,-0.2738533020019531,-0.20973201096057892
1787729890174901500,16.395901611328124,-0.12163209915161133,-0.18896007537841797,-0.2242443710565567
1787729890190437400,16.411437255859376,-0.029258251190185547,-0.1164846420288086,-0.31120502948760986
1787729890206321400,16.4273212890625,0.2774505615234375,-0.1270608901977539,-0.2955746054649353
1787729890222290700,16.443290771484374,0.46677589416503906,-0.06674575805664062,-0.18766193091869354
1787729890238549000,16.459549072265624,0.1895914077758789,0.09445953369140625,-0.20100465416908264
1787729890254249700,16.475249755859377,-0.08759737014770508,0.21410274505615234,-0.24170857667922974
1787729890270413300,16.491413330078124,-0.06224346160888672,0.31530094146728516,-0.2766675055027008
1787729890286308600,16.50730859375,0.14992189407348633,0.40903472900390625,-0.33933016657829285
1787729890302322700,16.52332275390625,0.5028691291809082,0.3074979782104492,-0.48954716324806213
1787729890318589700,16.539589599609375,0.901275634765625,0.28695201873779297,-0.7108126878738403
1787729890334166800,16.555166748046876,1.0774540901184082,0.3440380096435547,-0.70942622423172
1787729890350373600,16.57137353515625,1.0516357421875,0.5167694091796875,-0.6170938014984131
1787729890366288000,16.587287841796876,1.0279302597045898,0.6996994018554688,-0.5449905395507812
1787729890382237000,16.60323681640625,0.8141579627990723,1.0813779830932617,-0.38418492674827576
1787729890398418700,16.619418701171874,0.17950963973999023,1.0073423385620117,-0.2215365767478943
1787729890414150000,16.63514990234375,-0.4465019702911377,0.9149580001831055,-0.2442147135734558
1787729890430818600,16.651818603515625,-0.7264692783355713,1.0310335159301758,0.03786153346300125
1787729890446310700,16.667310546875,-0.8984663486480713,1.0974292755126953,0.5856478810310364
1787729890462200300,16.683200439453124,-0.6116847991943359,0.8600606918334961,0.988239586353302
1787729890478518300,16.699518310546875,0.6229629516601562,0.3621797561645508,1.205957293510437
1787729890494098200,16.71509814453125,1.9500865936279297,-0.02153301239013672,1.1776759624481201
1787729890510350800,16.731350830078124,2.814622402191162,-0.2031879425048828,1.378909945487976
1787729890526306600,16.747306640625,2.7897253036499023,-0.14203262329101562,1.283146858215332
1787729890542476000,16.76347607421875,1.4055371284484863,-0.32273006439208984,0.9333371520042419
1787729890558414000,16.7794140625,-0.3890964984893799,-0.4092264175415039,0.27608048915863037
1787729890574176500,16.795176513671876,-1.0808229446411133,-0.45948314666748047,-0.11172273755073547
1787729890590382800,16.8113828125,-0.5859503746032715,-0.7110233306884766,-0.2176503837108612
1787729890606203100,16.827203125,0.26013898849487305,-0.8463630676269531,-0.1946156919002533
1787729890622209300,16.843209228515626,0.31781578063964844,-0.6684360504150391,-0.024653375148773193
1787729890638581200,16.859581298828125,-0.35953450202941895,-0.4539651870727539,0.18685279786586761
1787729890654175200,16.87517529296875,-0.8657472133636475,-0.37758731842041016,0.2163863629102707
1787729890670350000,16.89135009765625,-0.8696162700653076,-0.39449501037597656,0.09250029921531677
1787729890686778400,16.9077783203125,-0.4003779888153076,-0.47339344024658203,-0.21032749116420746
1787729890702198000,16.923197998046874,0.04233121871948242,-0.5162477493286133,-0.31284868717193604
1787729890718401800,16.93940185546875,0.16022539138793945,-0.4560718536376953,-0.24551250040531158
1787729890742224400,16.963224365234375,-0.5554928779602051,-0.13295745849609375,0.15874314308166504
1787729890758437000,16.97943701171875,-0.8209736347198486,-0.03267478942871094,0.7026002407073975
1787729890774214700,16.995214599609376,-0.9530878067016602,-0.08606243133544922,1.0379083156585693
1787729890790349000,17.01134912109375,-0.9760253429412842,-0.26538658142089844,0.9266906976699829
1787729890806240000,17.027239990234374,-0.533804178237915,-0.3861722946166992,0.10428851842880249
1787729890822199800,17.04319970703125,0.061129093170166016,-0.4329404830932617,-0.5871295928955078
1787729890838787800,17.059787841796876,0.33315515518188477,-0.3356027603149414,-0.7947919368743896
1787729890854419500,17.07541943359375,0.11810445785522461,-0.1718893051147461,-0.4887126088142395
1787729890870462700,17.091462646484374,-0.34293055534362793,-0.049187660217285156,0.0783018171787262
1787729890886212600,17.107212646484374,-0.7366092205047607,-0.02185535430908203,0.5618927478790283
1787729890902172200,17.123172119140627,-0.8394033908843994,0.011749267578125,0.4906001687049866
1787729890918399700,17.139399658203125,-0.45500969886779785,0.02211475372314453,0.06740501523017883
1787729890934221000,17.155220947265626,0.1915271282196045,0.019219398498535156,-0.2584143579006195
1787729890950297600,17.171297607421874,0.38600873947143555,0.13123226165771484,-0.2007465809583664
1787729890974060300,17.195060302734376,-0.10135650634765625,0.32007503509521484,0.2510714530944824
1787729890990728200,17.211728271484375,-0.39110517501831055,0.41095542907714844,0.4613882899284363
1787729891006160600,17.22716064453125,-0.1373293399810791,0.3713188171386719,0.323262095451355
1787729891022206500,17.24320654296875,0.39383935928344727,0.2257232666015625,0.2028900384902954
1787729891038349300,17.259349365234375,0.8232057094573975,0.15635299682617188,0.32401975989341736
1787729891054066000,17.27506591796875,1.1132683753967285,0.10268783569335938,0.6238342523574829
1787729891070479400,17.291479248046876,1.2768535614013672,0.44553375244140625,0.609761655330658
1787729891086208300,17.307208251953124,0.8041386604309082,0.7660331726074219,0.2895885109901428
1787729891102168000,17.32316796875,0.4287114143371582,0.8116731643676758,-0.10807019472122192
1787729891118483700,17.339483642578124,0.31870341300964355,0.988469123840332,-0.4338496923446655
1787729891134073000,17.355072998046875,0.24681425094604492,0.8534765243530273,-0.09980812668800354
1787729891150274300,17.3712744140625,0.5985305309295654,0.5936689376831055,0.3000495433807373
1787729891166169000,17.387169189453125,1.4011499881744385,0.1541576385498047,0.4813191592693329
1787729891182175000,17.403175048828125,2.0120742321014404,0.07026481628417969,0.340614378452301
1787729891198356500,17.4193564453125,1.8712668418884277,-0.024680137634277344,0.15102088451385498
1787729891214015500,17.435015380859376,1.1048130989074707,-0.038532257080078125,-0.02473023533821106
1787729891230237200,17.4512373046875,0.30901670455932617,0.018573760986328125,-0.14465457201004028
1787729891246638300,17.467638427734375,0.0480191707611084,-0.0450897216796875,-0.18869929015636444
1787729891262400300,17.483400146484374,0.2563657760620117,-0.15782642364501953,-0.11814020574092865
1787729891278439700,17.499439697265625,0.5662243366241455,-0.17824649810791016,-0.1088934987783432
1787729891294087400,17.51508740234375,0.48589444160461426,-0.16613006591796875,-0.18894188106060028
1787729891310223600,17.5312236328125,0.13689684867858887,-0.28736305236816406,-0.2591761350631714
1787729891326630700,17.547630615234375,-0.16837501525878906,-0.42364978790283203,-0.2749716639518738
1787729891342171400,17.56317138671875,-0.281522274017334,-0.6763992309570312,0.03349587321281433
1787729891358390300,17.579390380859376,-0.23601913452148438,-0.8627920150756836,0.3053342401981354
1787729891374151200,17.595151123046875,-0.3270692825317383,-0.8959598541259766,0.3499460816383362
1787729891390308000,17.61130810546875,-0.6314370632171631,-0.9159040451049805,0.47071564197540283
1787729891406182000,17.627181884765626,-0.6621303558349609,-0.8970556259155273,0.5544371604919434
1787729891422187000,17.64318701171875,-0.6319963932037354,-0.8755006790161133,0.3604946732521057
1787729891438491600,17.65949169921875,-0.8373560905456543,-0.8345623016357422,-0.03390197455883026
1787729891454112500,17.675112548828125,-1.0432305335998535,-0.7578496932983398,-0.23274710774421692
1787729891470316500,17.691316650390625,-0.9694557189941406,-0.6585474014282227,-0.3857417702674866
1787729891486189300,17.707189208984374,-0.8608207702636719,-0.5483779907226562,-0.37722137570381165
1787729891502617600,17.72361767578125,-0.6759748458862305,-0.36156558990478516,-0.28236252069473267
1787729891518377200,17.739377197265625,-0.30013155937194824,-0.27594661712646484,-0.08916472643613815
1787729891534080000,17.755080078125,-0.0071446895599365234,-0.2778663635253906,0.06161181628704071
1787729891550737400,17.7717373046875,0.24077081680297852,-0.2556781768798828,-0.06388663500547409
1787729891566230000,17.78722998046875,0.45024609565734863,-0.216339111328125,-0.11807342618703842
1787729891582167300,17.803167236328125,0.2975776195526123,-0.07907676696777344,-0.09311360865831375
1787729891598441000,17.81944091796875,-0.06725263595581055,-0.03267955780029297,-0.07995104789733887
1787729891614040300,17.835040283203124,-0.2877922058105469,-0.007823944091796875,-0.26208221912384033
1787729891630250500,17.85125048828125,-0.2722513675689697,-0.03998374938964844,-0.38640594482421875
1787729891646127400,17.86712744140625,-0.3313145637512207,-0.018250465393066406,-0.4755876064300537
1787729891662082600,17.88308251953125,-0.1303262710571289,0.021399497985839844,-0.49456822872161865
1787729891678330600,17.89933056640625,0.37969517707824707,0.07343673706054688,-0.16563713550567627
1787729891694045400,17.91504541015625,0.8716566562652588,0.22502899169921875,-0.025912001729011536
1787729891710269000,17.93126904296875,0.9855260848999023,0.32737255096435547,-0.048544544726610184
1787729891726229000,17.94722900390625,1.0070419311523438,0.4593791961669922,-0.1617041826248169
1787729891742207500,17.96320751953125,0.9702281951904297,0.6067180633544922,0.09418080747127533
1787729891758430700,17.9794306640625,0.6770930290222168,0.6453819274902344,0.8182358741760254
1787729891774097400,17.995097412109374,0.058640241622924805,0.6508464813232422,1.2223882675170898
1787729891790231000,18.01123095703125,-0.5500876903533936,0.9051132202148438,1.5031993389129639
1787729891806591700,18.027591796875,-1.1679043769836426,1.1094551086425781,1.9842257499694824
1787729891822101200,18.043101318359376,-1.248720645904541,0.8374662399291992,1.9389910697937012
1787729891838275800,18.05927587890625,-0.11524438858032227,0.37159156799316406,1.8311121463775635
1787729891854013000,18.075012939453124,1.9655656814575195,-0.0883169174194336,1.895613193511963
1787729891870144300,18.091144287109376,3.151853561401367,-0.3462705612182617,1.8416247367858887
1787729891886046500,18.10704638671875,2.955016613006592,-0.19632339477539062,1.2746648788452148
1787729891901996300,18.122996337890626,1.1298270225524902,-0.19387340545654297,0.753602147102356
1787729891918340000,18.139340087890623,-0.5138299465179443,-0.12841129302978516,0.3449944853782654
1787729891934022700,18.155022705078125,-1.3022079467773438,-0.028638839721679688,0.12142740190029144
1787729891950240000,18.171239990234376,-0.7204580307006836,-0.13559913635253906,0.1293199062347412
1787729891966037000,18.187037109375,0.44460153579711914,-0.3356962203979492,0.5795192718505859
1787729891982038500,18.20303857421875,1.0776896476745605,-0.2802448272705078,0.8669137954711914
1787729891998206200,18.219206298828126,1.2263264656066895,-0.3149423599243164,0.8885155916213989
1787729892013958700,18.234958740234376,1.2558321952819824,-0.3364992141723633,0.7929340600967407
1787729892038246400,18.259246337890627,0.8561220169067383,-0.3205404281616211,0.3896414041519165
1787729892053980200,18.274980224609376,0.2922019958496094,-0.40725040435791016,-0.050672486424446106
1787729892070139000,18.291138916015626,-0.06480550765991211,-0.5531072616577148,-0.19972676038742065
1787729892086126300,18.307126220703125,-0.3165607452392578,-0.6148681640625,-0.003274783492088318
1787729892102016300,18.323016357421874,-0.5923705101013184,-0.6440191268920898,0.20551088452339172
1787729892118253000,18.339253173828126,-0.8572478294372559,-0.6892509460449219,0.4097893238067627
1787729892134017500,18.355017578125,-0.8309521675109863,-0.8238143920898438,0.8540247678756714
1787729892150232800,18.37123291015625,-0.6469800472259521,-0.7489643096923828,1.1470540761947632
1787729892166095600,18.387095703125,-0.6167862415313721,-0.5808687210083008,1.043509840965271
1787729892182179300,18.403179443359374,-0.6081633567810059,-0.48852062225341797,0.5129831433296204
1787729892198287000,18.419287109375,-0.4418511390686035,-0.4643287658691406,0.12581366300582886
1787729892214469400,18.435469482421876,-0.20325660705566406,-0.4030294418334961,0.1358233094215393
1787729892230169300,18.45116943359375,-0.06616353988647461,-0.18292617797851562,0.267054945230484
1787729892253973200,18.47497314453125,0.21222257614135742,0.09886741638183594,0.6210317611694336
1787729892270186200,18.491186279296876,0.14195871353149414,0.2389373779296875,0.6551470756530762
1787729892286143000,18.50714306640625,0.09837770462036133,0.3369903564453125,0.5903247594833374
1787729892302079500,18.52307958984375,0.23849821090698242,0.3538980484008789,0.3830786943435669
1787729892318687000,18.53968701171875,0.20528221130371094,0.41638851165771484,0.14919596910476685
1787729892334008600,18.555008544921876,0.01651620864868164,0.47460365295410156,-0.09199643135070801
1787729892350185000,18.57118505859375,-0.002891063690185547,0.5461997985839844,-0.16371524333953857
1787729892366520000,18.58752001953125,0.08123159408569336,0.42988109588623047,-0.007766544818878174
1787729892382012200,18.60301220703125,0.2953062057495117,0.3638620376586914,0.3471122086048126
1787729892398343400,18.619343505859376,0.5181231498718262,0.3259458541870117,0.6067328453063965
1787729892413977600,18.6349775390625,0.7529711723327637,0.22678089141845703,0.5908792018890381
1787729892430170600,18.651170654296877,1.070547103881836,0.1731433868408203,0.23643502593040466
1787729892446024700,18.667024658203125,0.9667453765869141,0.23125076293945312,-0.2491811215877533
1787729892461995000,18.6829951171875,0.5835776329040527,0.1081399917602539,-0.492215633392334
1787729892478245400,18.699245361328124,0.6169395446777344,0.052600860595703125,-0.6432552337646484
1787729892493941200,18.714941162109376,0.8237085342407227,0.1006784439086914,-0.8521513938903809
1787729892510130700,18.731130615234374,1.2164416313171387,-0.15626049041748047,-0.9742456674575806
1787729892526022400,18.7470224609375,1.8254733085632324,-0.39131736755371094,-0.8354559540748596
1787729892541953000,18.762953125,2.1808724403381348,-0.34816932678222656,-0.511795699596405
1787729892558288100,18.7792880859375,2.066643238067627,-0.22919178009033203,-0.35249650478363037
1787729892573970200,18.79497021484375,1.307234287261963,-0.03670501708984375,-0.39719605445861816
1787729892590135300,18.81113525390625,0.4446401596069336,0.2166728973388672,-0.5427218675613403
1787729892605917400,18.82691748046875,0.03303194046020508,0.311920166015625,-0.11584053933620453
1787729892622483500,18.8434833984375,0.19455289840698242,0.2681617736816406,0.34774670004844666
1787729892638078700,18.85907861328125,0.6501374244689941,0.28212738037109375,0.49765491485595703
1787729892653779700,18.87477978515625,0.8654756546020508,0.2807044982910156,0.42492255568504333
1787729892670045200,18.891045166015626,0.8488459587097168,0.21406841278076172,0.3535945415496826
1787729892685890000,18.90689013671875,0.7990279197692871,0.1255474090576172,0.4611147344112396
1787729892701835300,18.922835205078126,0.8036637306213379,-0.03135204315185547,0.5453346967697144
1787729892718229500,18.9392294921875,0.8194036483764648,-0.2244739532470703,0.3998141586780548
1787729892733780700,18.95478076171875,0.6838717460632324,-0.3482074737548828,0.12571224570274353
1787729892750200600,18.97120068359375,0.3877596855163574,-0.4504432678222656,-0.15452975034713745
1787729892765878000,18.9868779296875,0.016869544982910156,-0.5575275421142578,-0.34589171409606934
1787729892781881300,19.00288134765625,-0.4370856285095215,-0.5363969802856445,-0.5362210869789124
1787729892798187800,19.019187744140623,-0.779343843460083,-0.49109649658203125,-0.6450546979904175
1787729892813826600,19.03482666015625,-1.022524356842041,-0.5012102127075195,-0.7579805254936218
1787729892829999600,19.05099951171875,-1.1612491607666016,-0.4877500534057617,-0.778082549571991
1787729892845878500,19.06687841796875,-1.0465335845947266,-0.3730583190917969,-0.6183323860168457
1787729892861826600,19.08282666015625,-0.6935243606567383,-0.34474849700927734,-0.500025749206543
1787729892878415600,19.09941552734375,-0.2568049430847168,-0.3784313201904297,-0.5285688638687134
1787729892893752000,19.114751953125,0.09493350982666016,-0.32528018951416016,-0.6963626146316528
1787729892909952000,19.130951904296875,0.19443035125732422,-0.24686622619628906,-0.7657485008239746
1787729892925837600,19.146837646484375,0.18015193939208984,-0.11202239990234375,-0.7634899616241455
1787729892941789000,19.162788818359374,-0.008100509643554688,-0.12862110137939453,-0.7341712117195129
1787729892958006000,19.179006103515626,-0.26910829544067383,-0.1879596710205078,-0.7578443288803101
1787729892973721300,19.194721435546874,-0.3191070556640625,-0.1407012939453125,-0.6663833260536194
1787729892989969700,19.2109697265625,-0.1879105567932129,-0.12396907806396484,-0.3914090096950531
1787729893005760000,19.226760009765623,-0.043314456939697266,-0.05869007110595703,-0.2574889063835144
1787729893021760000,19.242760009765625,0.22603607177734375,-0.035370826721191406,-0.3085746467113495
1787729893038082600,19.25908251953125,0.38007450103759766,0.03473663330078125,-0.3720008432865143
1787729893053684000,19.27468408203125,0.3564944267272949,0.11823749542236328,-0.5002680420875549
1787729893070073600,19.291073486328123,0.2191781997680664,0.2011241912841797,-0.3547413647174835
1787729893085802800,19.306802734375,0.20099496841430664,0.3144807815551758,-0.2674529552459717
1787729893101759500,19.322759521484375,0.24132299423217773,0.3783302307128906,-0.17029635608196259
1787729893117939000,19.33893896484375,0.3861989974975586,0.43903160095214844,-0.224371075630188
1787729893134130700,19.355130615234376,0.47437000274658203,0.46936798095703125,-0.19952362775802612
1787729893149824300,19.37082421875,0.6638474464416504,0.3759651184082031,-0.21326133608818054
1787729893165746000,19.386745849609376,0.9338111877441406,0.44713878631591797,-0.2516498267650604
1787729893181704200,19.4027041015625,0.4636702537536621,0.6276035308837891,-0.2394648939371109
1787729893197997000,19.4189970703125,-0.5274636745452881,0.633976936340332,-0.06403523683547974
1787729893213611300,19.434611328125,-1.0379960536956787,0.5987930297851562,0.1684960424900055
1787729893229833700,19.450833740234376,-0.8381600379943848,0.603240966796875,0.35189270973205566
1787729893245699600,19.466699462890624,-0.6688635349273682,0.37584781646728516,0.40937313437461853
1787729893261654500,19.482654541015624,-0.5863606929779053,-0.013558387756347656,0.1499444842338562
1787729893277856000,19.49885595703125,-0.3191227912902832,-0.2797813415527344,-0.23845425248146057
1787729893293632500,19.514632568359374,0.5133051872253418,-0.5565595626831055,-0.30830955505371094
1787729893309755600,19.530755615234376,1.4866576194763184,-0.8517727851867676,0.09683394432067871
1787729893325615900,19.546615966796875,1.838150978088379,-0.8929295539855957,0.5559110641479492
1787729893349732600,19.570732666015626,0.04548072814941406,-0.48712730407714844,0.8759891390800476
1787729893365583000,19.5865830078125,-1.2558386325836182,-0.2712850570678711,0.7102653980255127
1787729893381555200,19.60255517578125,-1.3558712005615234,-0.20142364501953125,0.7059227228164673
1787729893397708800,19.618708740234375,-0.6184079647064209,-0.08716392517089844,0.4698144793510437
1787729893413555000,19.634554931640626,0.4317455291748047,-0.17218589782714844,0.3392754793167114
1787729893429606700,19.650606689453124,0.9639139175415039,-0.10557746887207031,0.2086152732372284
1787729893445507800,19.6665078125,1.033968448638916,-0.023166656494140625,0.13204963505268097
1787729893461511200,19.68251123046875,0.5706219673156738,0.07344818115234375,0.050046756863594055
1787729893477750800,19.698750732421875,0.032080650329589844,0.1933126449584961,0.2114206850528717
1787729893501447200,19.722447265625,0.2024683952331543,0.18753623962402344,0.3011053204536438
1787729893517988900,19.73898876953125,0.566802978515625,-0.003856658935546875,-0.0074888914823532104
1787729893533362000,19.75436181640625,0.6234407424926758,-0.13239479064941406,-0.2135658860206604
1787729893549587700,19.770587646484376,0.3822002410888672,-0.12167072296142578,-0.1364443600177765
1787729893565597200,19.78659716796875,-0.25548601150512695,-0.010158538818359375,0.14330781996250153
1787729893581463800,19.8024638671875,-0.9321191310882568,0.07270431518554688,0.5177873373031616
1787729893597579500,19.81857958984375,-1.3206217288970947,0.13500499725341797,0.6510878205299377
1787729893613721300,19.834721435546875,-1.186645269393921,0.02469348907470703,0.45553165674209595
1787729893629663500,19.85066357421875,-0.557462215423584,-0.11416816711425781,0.15451864898204803
1787729893653350100,19.87435009765625,0.19428777694702148,-0.2463550567626953,-0.2767485976219177
1787729893669505300,19.89050537109375,-0.020508289337158203,-0.1632232666015625,-0.29832446575164795
1787729893685506300,19.90650634765625,-0.36499452590942383,-0.09892749786376953,-0.10158494114875793
1787729893701350400,19.922350341796875,-0.7249648571014404,-0.05778026580810547,0.144852414727211
1787729893717602000,19.93860205078125,-0.8117234706878662,0.01567363739013672,0.27248072624206543
1787729893733314300,19.954314208984375,-0.6256000995635986,0.02230072021484375,0.2099301666021347
1787729893749904100,19.970904052734376,-0.3127021789550781,-0.019957542419433594,0.14322423934936523
1787729893773317000,19.994317138671875,-0.12323617935180664,0.09563446044921875,0.1327759176492691
1787729893789511200,20.01051123046875,-0.05749177932739258,0.14367961883544922,0.2906292676925659
1787729893805445000,20.026445068359376,-0.12192296981811523,0.15290355682373047,0.34045708179473877
1787729893821320200,20.0423203125,0.15271854400634766,0.05010032653808594,0.33242547512054443
1787729893869463800,20.0904638671875,0.6041369438171387,0.4488410949707031,0.08818945288658142
1787729893885345000,20.106344970703127,0.1782379150390625,0.5950717926025391,-0.29382455348968506
1787729893901314600,20.122314453125,-0.2288956642150879,0.770258903503418,-0.5319923758506775
1787729893917519600,20.13851953125,-0.6645135879516602,0.831141471862793,-0.5358484387397766
1787729893933300200,20.15430029296875,-0.5035345554351807,0.667109489440918,-0.371958464384079
1787729893949911800,20.170911865234373,0.8546462059020996,0.3369607925415039,-0.2391127049922943
1787729893965355500,20.18635546875,2.4194793701171875,-0.03903388977050781,-0.3519870936870575
1787729893981279500,20.202279541015624,3.08575439453125,-0.46917152404785156,-0.655551552772522
