time,seconds_elapsed,z,y,x
1788051827554064000,0.13106396484375,8.962685585021973,3.9792327880859375,-0.07979805022478104
1788051827570605800,0.147605712890625,8.959692001342773,3.9861862659454346,-0.06799933314323425
1788051827586668000,0.16366796875,8.957348823547363,3.9916493892669678,-0.05500562861561775
1788051827602716200,0.179716064453125,8.957913398742676,3.9905426502227783,-0.04186353087425232
1788051827618773500,0.1957734375,8.961299896240234,3.9830329418182373,-0.030690321698784828
1788051827634791700,0.211791748046875,8.966286659240723,3.9718406200408936,-0.02359042689204216
1788051827650835500,0.22783544921875,8.971497535705566,3.960083246231079,-0.01907441020011902
1788051827666843400,0.243843505859375,8.97487735748291,3.9524312019348145,-0.015866847708821297
1788051827682898000,0.25989794921875,8.975747108459473,3.9504542350769043,-0.016330299898982048
1788051827698965000,0.275965087890625,8.976248741149902,3.949313163757324,-0.016355324536561966
1788051827714996000,0.291995849609375,8.977879524230957,3.945610284805298,-0.015352576971054077
1788051827731029500,0.308029541015625,8.97978401184082,3.9412715435028076,-0.0156923308968544
1788051827746993200,0.3239931640625,8.980785369873047,3.9389734268188477,-0.01908445730805397
1788051827763057200,0.34005712890625,8.981099128723145,3.9382340908050537,-0.02348693087697029
1788051827779133000,0.3561328125,8.980489730834961,3.9395992755889893,-0.027462812140583992
1788051827795172400,0.37217236328125,8.979012489318848,3.9429433345794678,-0.030228422954678535
1788051827811213800,0.3882138671875,8.976700782775879,3.948220729827881,-0.02825823612511158
1788051827827180300,0.40418017578125,8.974480628967285,3.9533016681671143,-0.022069940343499184
1788051827843205600,0.42020556640625,8.97363567352295,3.9552597999572754,-0.013162191025912762
1788051827859241500,0.436241455078125,8.97465991973877,3.952951431274414,-0.004903517663478851
1788051827875292400,0.45229248046875,8.977117538452148,3.947373151779175,-0.0015916896518319845
1788051827891342800,0.4683427734375,8.980003356933594,3.9408018589019775,-0.003833605209365487
1788051827907312400,0.4843125,8.982044219970703,3.9361391067504883,-0.008844729512929916
1788051827923346200,0.50034619140625,8.982719421386719,3.934579610824585,-0.014695118181407452
1788051827939392500,0.516392578125,8.982937812805176,3.9340624809265137,-0.019079141318798065
1788051827955449600,0.53244970703125,8.98396110534668,3.9317104816436768,-0.021748671308159828
1788051827971509200,0.54850927734375,8.986271858215332,3.926414728164673,-0.02393348701298237
1788051827987487000,0.564487060546875,8.988076210021973,3.9222705364227295,-0.02579226717352867
1788051828003525600,0.580525634765625,8.988397598266602,3.9215211868286133,-0.027817798778414726
1788051828019578000,0.596578125,8.987872123718262,3.922724723815918,-0.027783403173089027
1788051828035647000,0.61264697265625,8.988211631774902,3.921968698501587,-0.024721549823880196
1788051828051718100,0.62871826171875,8.990241050720215,3.9173407554626465,-0.019869836047291756
1788051828067697000,0.64469677734375,8.993571281433105,3.909712553024292,-0.014417561702430248
1788051828083744500,0.66074462890625,8.996500015258789,3.902984619140625,-0.00920119695365429
1788051828099799300,0.67679931640625,8.998485565185547,3.8984150886535645,-0.001948156743310392
1788051828115820300,0.6928203125,8.99891185760498,3.8974218368530273,0.008686616085469723
1788051828131848200,0.70884814453125,8.998717308044434,3.8978288173675537,0.02031911350786686
1788051828147848000,0.724847900390625,8.99875259399414,3.897695302963257,0.028433483093976974
1788051828163916500,0.74091650390625,8.999512672424316,3.8959226608276367,0.030591264367103577
1788051828179990300,0.756990234375,9.00040340423584,3.893871545791626,0.02995685674250126
1788051828196030700,0.77303076171875,9.00070571899414,3.893162488937378,0.03121679462492466
1788051828212075300,0.7890751953125,9.001355171203613,3.891611099243164,0.03687546029686928
1788051828228068000,0.805068115234375,9.002769470214844,3.8881964683532715,0.04950125887989998
1788051828244091100,0.821091064453125,9.003654479980469,3.8858144283294678,0.07095571607351303
1788051828260129300,0.83712939453125,9.003387451171875,3.8857674598693848,0.10102538764476776
1788051828276180200,0.85318017578125,9.00319766998291,3.8852782249450684,0.13202282786369324
1788051828292237000,0.869237060546875,9.005785942077637,3.8783082962036133,0.15789218246936798
1788051828308235000,0.885235107421875,9.011543273925781,3.8642115592956543,0.17417830228805542
1788051828324273200,0.901273193359375,9.01810359954834,3.848628044128418,0.17964333295822144
1788051828340326400,0.917326416015625,9.023090362548828,3.8369245529174805,0.17954590916633606
1788051828356379000,0.93337890625,9.025867462158203,3.8304250240325928,0.1787533313035965
1788051828372443600,0.949443603515625,9.027924537658691,3.8256070613861084,0.17800237238407135
1788051828388459300,0.965459228515625,9.030877113342285,3.818582773208618,0.17910152673721313
1788051828404507600,0.981507568359375,9.034886360168457,3.8089466094970703,0.18203110992908478
1788051828420570600,0.997570556640625,9.03876781463623,3.7994658946990967,0.18740759789943695
1788051828436647000,1.01364697265625,9.041255950927734,3.7932353019714355,0.19353146851062775
1788051828452715800,1.0297158203125,9.042804718017578,3.789214611053467,0.19979242980480194
1788051828468728600,1.045728515625,9.043815612792969,3.786562442779541,0.2043038159608841
1788051828484781000,1.061781005859375,9.04493236541748,3.783797025680542,0.20604634284973145
1788051828500844800,1.0778447265625,9.0469970703125,3.778886556625366,0.20554986596107483
1788051828516873200,1.093873291015625,9.050376892089844,3.770829677581787,0.20471319556236267
1788051828532902400,1.10990234375,9.054933547973633,3.7597014904022217,0.20785008370876312
1788051828548877800,1.1258779296875,9.059000015258789,3.7494869232177734,0.21505805850028992
1788051828564940000,1.14193994140625,9.060778617858887,3.7447454929351807,0.22263525426387787
1788051828581016000,1.15801611328125,9.060585975646973,3.745054006576538,0.2252914160490036
1788051828597055500,1.174055419921875,9.059931755065918,3.7467432022094727,0.22344300150871277
1788051828613096000,1.190095947265625,9.060691833496094,3.7450225353240967,0.22149555385112762
1788051828629063700,1.206063720703125,9.062707901000977,3.7403345108032227,0.2182283252477646
1788051828645136400,1.222136474609375,9.064885139465332,3.7353291511535645,0.21347284317016602
1788051828661222400,1.238222412109375,9.067030906677246,3.73034930229187,0.20934899151325226
1788051828677272600,1.2542724609375,9.068816184997559,3.726090908050537,0.2078690230846405
1788051828693324800,1.27032470703125,9.069807052612305,3.7236149311065674,0.20899587869644165
1788051828709295900,1.2862958984375,9.06987476348877,3.7234206199645996,0.20949485898017883
1788051828725367300,1.3023671875,9.069476127624512,3.7244253158569336,0.20889420807361603
1788051828741405700,1.31840576171875,9.069645881652832,3.7239577770233154,0.209880992770195
1788051828757449000,1.334448974609375,9.070403099060059,3.722064733505249,0.21072743833065033
1788051828773499100,1.3504990234375,9.070843696594238,3.7211008071899414,0.20877058804035187
1788051828789468200,1.36646826171875,9.070591926574707,3.722014904022217,0.20335547626018524
1788051828805502700,1.382502685546875,9.070202827453613,3.723395824432373,0.19526223838329315
1788051828821546800,1.398546630859375,9.06982421875,3.7246944904327393,0.18793675303459167
1788051828837603600,1.414603515625,9.068737030029297,3.7276432514190674,0.18186140060424805
1788051828853664000,1.4306640625,9.066977500915527,3.7321157455444336,0.17781220376491547
1788051828869639700,1.4466396484375,9.064608573913574,3.737989664077759,0.17520399391651154
1788051828885699300,1.46269921875,9.06199836730957,3.744375705718994,0.17383980751037598
1788051828901748500,1.47874853515625,9.059521675109863,3.75044322013855,0.1721683144569397
1788051828917819000,1.49481884765625,9.056994438171387,3.756700277328491,0.1686515063047409
1788051828933842400,1.510842529296875,9.05467414855957,3.7624638080596924,0.16471706330776215
1788051828949830000,1.526829833984375,9.052701950073242,3.7673375606536865,0.16171090304851532
1788051828965876700,1.542876708984375,9.051257133483887,3.770901679992676,0.1594841033220291
1788051828981931800,1.558931884765625,9.050594329833984,3.772453784942627,0.1604045331478119
1788051828997953800,1.574953857421875,9.05024528503418,3.7731614112854004,0.163422629237175
1788051829013981200,1.590981201171875,9.04931354522705,3.775202989578247,0.16779857873916626
1788051829029973000,1.606972900390625,9.047696113586426,3.778989791870117,0.16977107524871826
1788051829046031400,1.62303125,9.045705795288086,3.7837891578674316,0.1689319759607315
1788051829062103000,1.63910302734375,9.044553756713867,3.786668062210083,0.16604924201965332
1788051829078132700,1.6551328125,9.045066833496094,3.7855851650238037,0.16275858879089355
1788051829094177000,1.671177001953125,9.046309471130371,3.7828476428985596,0.15725234150886536
1788051829110165800,1.687165771484375,9.046829223632812,3.7818355560302734,0.1516120433807373
1788051829126240800,1.70324072265625,9.046306610107422,3.783200979232788,0.14866480231285095
1788051829142324200,1.71932421875,9.044812202453613,3.786787509918213,0.14832265675067902
1788051829158374400,1.73537451171875,9.042905807495117,3.7913360595703125,0.148314967751503
1788051829174425300,1.75142529296875,9.041730880737305,3.7941932678222656,0.14690721035003662
1788051829190425300,1.76742529296875,9.041132926940918,3.7957217693328857,0.1442389041185379
1788051829206456800,1.783456787109375,9.040040969848633,3.7984466552734375,0.14090289175510406
1788051829222501600,1.799501708984375,9.037945747375488,3.8034567832946777,0.14014801383018494
1788051829238550000,1.815550048828125,9.034499168395996,3.811579704284668,0.1416909247636795
1788051829254607400,1.831607421875,9.025870323181152,3.8318631649017334,0.14451168477535248
1788051829270615000,1.847614990234375,9.018390655517578,3.84932017326355,0.14752618968486786
1788051829286656800,1.86365673828125,9.017189025878906,3.8521814346313477,0.14627839624881744
1788051829302707500,1.87970751953125,9.01788330078125,3.850750207901001,0.14100363850593567
1788051829318771700,1.895771728515625,9.019408226013184,3.8474411964416504,0.13366326689720154
1788051829334839600,1.911839599609375,9.019920349121094,3.8465139865875244,0.1255035400390625
1788051829350852600,1.9278525390625,9.01957893371582,3.8474643230438232,0.12086775153875351
1788051829366897000,1.94389697265625,9.019299507141113,3.848137855529785,0.12029270827770233
1788051829382956300,1.959956298828125,9.018914222717285,3.8490357398986816,0.1203850731253624
1788051829399028500,1.976028564453125,9.0186128616333,3.8497886657714844,0.11888206750154495
1788051829415057200,1.99205712890625,9.017959594726562,3.8514411449432373,0.11483483761548996
1788051829431121700,2.00812158203125,9.016485214233398,3.855091094970703,0.10797196626663208
1788051829447180300,2.02418017578125,9.014814376831055,3.85915207862854,0.10225764662027359
1788051829463237400,2.0402373046875,9.012757301330566,3.864011764526367,0.0999898836016655
1788051829479309800,2.056309814453125,9.009474754333496,3.8715217113494873,0.10518237948417664
1788051829495339500,2.072339599609375,9.005166053771973,3.8811213970184326,0.11947806924581528
1788051829511312000,2.088311767578125,9.000838279724121,3.890582799911499,0.13660800457000732
1788051829527371500,2.10437158203125,8.997543334960938,3.897808790206909,0.14729663729667664
1788051829543447800,2.12044775390625,8.99575138092041,3.901888847351074,0.14869967103004456
1788051829559479800,2.136479736328125,8.995205879211426,3.903383255004883,0.14233581721782684
1788051829575519500,2.15251953125,8.994428634643555,3.9054982662200928,0.13317003846168518
1788051829591488000,2.168488037109375,8.991899490356445,3.911635160446167,0.12346449494361877
1788051829607553000,2.184552978515625,8.98751449584961,3.9220597743988037,0.11145934462547302
1788051829623637500,2.200637451171875,8.981297492980957,3.9366767406463623,0.09619224816560745
1788051829639684000,2.21668408203125,8.974514961242676,3.952460527420044,0.08079131692647934
1788051829663724300,2.240724365234375,8.964835166931152,3.974752902984619,0.0588269978761673
1788051829679745300,2.256745361328125,8.961906433105469,3.9815847873687744,0.04004449024796486
1788051829695779600,2.272779541015625,8.963557243347168,3.9780170917510986,0.02040722593665123
1788051829711804700,2.2888046875,8.968990325927734,3.9657862186431885,0.012268127873539925
1788051829727878400,2.30487841796875,8.978507041931152,3.944157361984253,0.020460285246372223
1788051829743894500,2.32089453125,8.987967491149902,3.9224493503570557,0.034907080233097076
1788051829759919900,2.336919921875,8.992409706115723,3.912006378173828,0.056235313415527344
1788051829775954000,2.352953857421875,8.994009017944336,3.9079599380493164,0.07775881886482239
1788051829791985700,2.368985595703125,8.994959831237793,3.9055306911468506,0.08892841637134552
1788051829808059000,2.385058837890625,8.996866226196289,3.9011857509613037,0.0868765115737915
1788051829824086000,2.4010859375,9.00079345703125,3.892397403717041,0.07318205386400223
1788051829840112600,2.417112548828125,9.004446983337402,3.884251832962036,0.053893379867076874
1788051829856159200,2.4331591796875,9.005497932434082,3.8820314407348633,0.03496065363287926
1788051829872202500,2.449202392578125,9.000444412231445,3.8938188552856445,0.02377297170460224
1788051829888239600,2.465239501953125,8.98880672454834,3.9206278324127197,0.020535748451948166
1788051829904259600,2.481259521484375,8.97472858428955,3.95273494720459,0.022915130481123924
1788051829920305200,2.49730517578125,8.961153984069824,3.9833836555480957,0.027459600940346718
1788051829936361200,2.513361328125,8.950017929077148,4.008309841156006,0.03183888643980026
1788051829952359400,2.529359375,8.941812515258789,4.026543617248535,0.03638981282711029
1788051829968406500,2.545406494140625,8.935757637023926,4.039956569671631,0.03702519088983536
1788051829984441300,2.56144140625,8.931589126586914,4.0491943359375,0.03353109955787659
1788051830000492300,2.5774921875,8.92870044708252,4.0555877685546875,0.030023053288459778
1788051830016552200,2.59355224609375,8.92618179321289,4.061155319213867,0.02628690004348755
1788051830032553000,2.609552978515625,8.923124313354492,4.0678791999816895,0.024506479501724243
1788051830048610800,2.62561083984375,8.918913841247559,4.077112197875977,0.02297443524003029
1788051830064640000,2.641639892578125,8.913333892822266,4.089332103729248,0.01553862914443016
1788051830080652500,2.657652587890625,8.906562805175781,4.1040873527526855,-0.0014905205462127924
1788051830096677000,2.673677001953125,8.900481224060059,4.117186546325684,-0.024505600333213806
1788051830112668200,2.689668212890625,8.898090362548828,4.122125148773193,-0.04954301565885544
1788051830128727600,2.7057275390625,8.898711204528809,4.120448112487793,-0.07231368124485016
1788051830144767000,2.72176708984375,8.898865699768066,4.119723320007324,-0.09199310094118118
1788051830160785200,2.73778515625,8.897403717041016,4.1223554611206055,-0.11309535801410675
1788051830176832500,2.75383251953125,8.893789291381836,4.129165172576904,-0.14458538591861725
1788051830192854300,2.769854248046875,8.889472961425781,4.137199401855469,-0.17675623297691345
1788051830208928300,2.78592822265625,8.88925838470459,4.136946678161621,-0.19272403419017792
1788051830224970800,2.801970703125,8.89792537689209,4.118940353393555,-0.1778961718082428
1788051830240996600,2.81799658203125,8.91676139831543,4.080010890960693,-0.12355274707078934
1788051830257032000,2.834031982421875,8.937979698181152,4.034881114959717,-0.05145879089832306
1788051830273097200,2.85009716796875,8.951622009277344,4.0048508644104,0.005014539230614901
1788051830289154000,2.866154052734375,8.946746826171875,4.015728950500488,0.005981788970530033
1788051830305235500,2.8822353515625,8.923965454101562,4.0658087730407715,-0.04933895915746689
1788051830321276200,2.898276123046875,8.890948295593262,4.135609149932861,-0.13476932048797607
1788051830337330400,2.914330322265625,8.859012603759766,4.199970245361328,-0.22032465040683746
1788051830353365000,2.930364990234375,8.838621139526367,4.2388014793396,-0.28587275743484497
1788051830369436400,2.9464365234375,8.831534385681152,4.252124309539795,-0.3063276410102844
1788051830385445600,2.962445556640625,8.832655906677246,4.251467227935791,-0.2821410000324249
1788051830401483300,2.978483154296875,8.833772659301758,4.252272129058838,-0.2302766889333725
1788051830417539300,2.994539306640625,8.828047752380371,4.266807556152344,-0.17412006855010986
1788051830433529000,3.010529052734375,8.817310333251953,4.290810585021973,-0.11990843713283539
1788051830449556500,3.026556396484375,8.8079833984375,4.310940742492676,-0.07492128014564514
1788051830465609500,3.042609375,8.802420616149902,4.32275390625,-0.03979439660906792
1788051830481656800,3.05865673828125,8.800600051879883,4.326595306396484,-0.020127417519688606
1788051830497721900,3.074721923828125,8.799518585205078,4.328760147094727,-0.026468703523278236
1788051830513725700,3.0907255859375,8.796440124511719,4.334746837615967,-0.05484161525964737
1788051830529785900,3.106785888671875,8.790764808654785,4.34550142288208,-0.09723909199237823
1788051830545796400,3.12279638671875,8.783568382263184,4.358767032623291,-0.14309875667095184
1788051830561854200,3.138854248046875,8.777167320251465,4.370487689971924,-0.1747904270887375
1788051830577925600,3.154925537109375,8.7716064453125,4.381130218505859,-0.187099888920784
1788051830593940500,3.1709404296875,8.766353607177734,4.391962051391602,-0.17917415499687195
1788051830610003200,3.187003173828125,8.76261043548584,4.400396823883057,-0.1535017192363739
1788051830626017300,3.203017333984375,8.762533187866211,4.401698112487793,-0.11598235368728638
1788051830642032000,3.2190322265625,8.76627254486084,4.395127296447754,-0.0755688026547432
1788051830658063000,3.23506298828125,8.773573875427246,4.380993843078613,-0.0408577136695385
1788051830674090500,3.251090576171875,8.78334903717041,4.361538410186768,-0.0124037005007267
1788051830690163500,3.26716357421875,8.794014930725098,4.339993476867676,0.012261059135198593
1788051830706179000,3.283178955078125,8.801798820495605,4.32408332824707,0.032089851796627045
1788051830722205000,3.299204833984375,8.804793357849121,4.317907810211182,0.04085620865225792
1788051830738240000,3.315239990234375,8.803871154785156,4.319806098937988,0.03900923952460289
1788051830754271200,3.331271240234375,8.799315452575684,4.329057216644287,0.041216202080249786
1788051830770314200,3.347314208984375,8.795167922973633,4.337466239929199,0.04243530333042145
1788051830786335500,3.36333544921875,8.79374885559082,4.340392589569092,0.03693846985697746
1788051830802367500,3.379367431640625,8.795172691345215,4.337503433227539,0.03718242421746254
1788051830818412000,3.395412109375,8.798789978027344,4.330103874206543,0.04342580959200859
1788051830834452500,3.411452392578125,8.799642562866211,4.328318119049072,0.048499271273612976
1788051830850535000,3.427534912109375,8.795516014099121,4.336773872375488,0.04095086455345154
1788051830866563600,3.4435634765625,8.793649673461914,4.3406548500061035,0.028801728039979935
1788051830882605000,3.45960498046875,8.803727149963379,4.320254325866699,0.013036409392952919
1788051830898656800,3.47565673828125,8.832098007202148,4.261967658996582,-0.006954002194106579
1788051830914649900,3.49164990234375,8.879253387451172,4.162812232971191,-0.01536688394844532
1788051830930723600,3.5077236328125,8.929171562194824,4.05460262298584,-0.02202131412923336
1788051830946782200,3.5237822265625,8.965911865234375,3.9726457595825195,-0.030034229159355164
1788051830962832600,3.53983251953125,8.973532676696777,3.9552667140960693,-0.04427969455718994
1788051830978894800,3.555894775390625,8.9487943649292,4.010481834411621,-0.07419314980506897
1788051830994942000,3.57194189453125,8.902026176452637,4.112315654754639,-0.11480077356100082
1788051831011029200,3.588029296875,8.845030784606934,4.232255935668945,-0.15433992445468903
1788051831027082200,3.604082275390625,8.790268898010254,4.343899250030518,-0.17916269600391388
1788051831043148800,3.620148681640625,8.74919319152832,4.4261932373046875,-0.1755615919828415
1788051831059174000,3.636173828125,8.716784477233887,4.490750312805176,-0.1456645280122757
1788051831075184400,3.652184326171875,8.69167423248291,4.54045295715332,-0.09730850160121918
1788051831091254800,3.6682548828125,8.670755386352539,4.581087112426758,-0.045033831149339676
1788051831107291600,3.684291748046875,8.65153694152832,4.617497444152832,-0.003755023470148444
1788051831123309600,3.7003095703125,8.636205673217773,4.646084785461426,0.015252687968313694
1788051831139344100,3.71634423828125,8.629135131835938,4.659204959869385,0.014578825794160366
1788051831155402800,3.73240283203125,8.634073257446289,4.650064468383789,-0.008043728768825531
1788051831171457500,3.74845751953125,8.650364875793457,4.619438171386719,-0.048574063926935196
1788051831187532000,3.764531982421875,8.677671432495117,4.567093849182129,-0.10029392689466476
1788051831203561200,3.780561279296875,8.71368408203125,4.496489524841309,-0.15391471982002258
1788051831219600000,3.796599853515625,8.757797241210938,4.408084869384766,-0.2004188895225525
1788051831235632400,3.81263232421875,8.809123039245605,4.30232572555542,-0.24441032111644745
1788051831251713500,3.828713623046875,8.865944862365723,4.181202411651611,-0.28803011775016785
1788051831267760400,3.844760498046875,8.92851448059082,4.042027473449707,-0.3376733660697937
1788051831283795000,3.860794921875,8.99669361114502,3.8823959827423096,-0.39609000086784363
1788051831299839700,3.87683984375,9.069443702697754,3.70137619972229,-0.46410632133483887
1788051831315905800,3.89290576171875,9.147204399108887,3.4937524795532227,-0.5410402417182922
1788051831331964400,3.90896435546875,9.227306365966797,3.261152982711792,-0.6261730194091797
1788051831347974000,3.924973876953125,9.311120986938477,2.994338035583496,-0.7122952342033386
1788051831364011500,3.941011474609375,9.394767761230469,2.703813314437866,-0.7733833193778992
1788051831380060200,3.95706005859375,9.473481178283691,2.3993096351623535,-0.8166159391403198
1788051831396047000,3.973047119140625,9.5433931350708,2.090498685836792,-0.8507916927337646
1788051831412089900,3.98908984375,9.602703094482422,1.789096474647522,-0.8704104423522949
1788051831428143400,4.005143310546875,9.648648262023926,1.5114082098007202,-0.8886036276817322
1788051831444157200,4.0211572265625,9.67809009552002,1.2794791460037231,-0.9316120743751526
1788051831460216000,4.037216064453125,9.697614669799805,1.0841130018234253,-0.9753753542900085
1788051831476216600,4.053216552734375,9.714454650878906,0.9137853980064392,-0.9822227954864502
1788051831492259600,4.069259521484375,9.730697631835938,0.7671424150466919,-0.9462574124336243
1788051831508314400,4.085314453125,9.746970176696777,0.6267178654670715,-0.8798801302909851
1788051831524370000,4.101369873046875,9.760489463806152,0.49047231674194336,-0.8140432834625244
1788051831540435700,4.117435791015625,9.769487380981445,0.36062341928482056,-0.7729507088661194
1788051831556446200,4.1334462890625,9.774948120117188,0.2258429378271103,-0.7548315525054932
1788051831572489200,4.1494892578125,9.776849746704102,0.07848231494426727,-0.7598888278007507
1788051831588525800,4.16552587890625,9.775150299072266,-0.07792691886425018,-0.7815067768096924
1788051831604544800,4.181544677734375,9.770830154418945,-0.22029508650302887,-0.8079236149787903
1788051831620573700,4.19757373046875,9.766304969787598,-0.3307687044143677,-0.8247861266136169
1788051831636623400,4.213623291015625,9.763439178466797,-0.39882513880729675,-0.828603208065033
1788051831652659200,4.2296591796875,9.762757301330566,-0.4261634945869446,-0.8230119347572327
1788051831668705500,4.24570556640625,9.763140678405762,-0.4296375513076782,-0.8166283369064331
1788051831684725200,4.261725341796875,9.763052940368652,-0.42447030544281006,-0.8203728199005127
1788051831700763000,4.277762939453125,9.761515617370605,-0.4371589720249176,-0.8319178223609924
1788051831716778200,4.2937783203125,9.75777816772461,-0.4921436607837677,-0.8449598550796509
1788051831732846800,4.309846923828125,9.752187728881836,-0.5867577791213989,-0.8490791916847229
1788051831748906200,4.32590625,9.745463371276855,-0.6984269022941589,-0.8417393565177917
1788051831764934000,4.341933837890625,9.739648818969727,-0.7961916923522949,-0.8220163583755493
1788051831780967700,4.3579677734375,9.736492156982422,-0.8629735112190247,-0.7914442420005798
1788051831796995000,4.3739951171875,9.736079216003418,-0.8975884914398193,-0.7572795152664185
1788051831813077500,4.390077392578125,9.737092971801758,-0.9099570512771606,-0.7289683222770691
1788051831829150200,4.406150146484375,9.737672805786133,-0.9131278991699219,-0.7171551585197449
1788051831845192400,4.4221923828125,9.73681354522705,-0.916374146938324,-0.7246373295783997
1788051831861242400,4.438242431640625,9.734416961669922,-0.9243277907371521,-0.7464165091514587
1788051831877228300,4.454228271484375,9.73178768157959,-0.9290040135383606,-0.7743664383888245
1788051831893270800,4.470270751953125,9.729608535766602,-0.9318549633026123,-0.7979683876037598
1788051831909346000,4.486345947265625,9.727919578552246,-0.9364534616470337,-0.8130383491516113
1788051831925394200,4.502394287109375,9.726465225219727,-0.9474617838859558,-0.8176664113998413
1788051831941457700,4.518457763671875,9.725529670715332,-0.965731680393219,-0.807357132434845
1788051831957463800,4.5344638671875,9.725924491882324,-0.9872949123382568,-0.7758986353874207
1788051831973521400,4.550521484375,9.728446006774902,-1.0029288530349731,-0.7223973274230957
1788051831989601300,4.566601318359375,9.73345947265625,-1.0057764053344727,-0.6469623446464539
1788051832005619200,4.582619140625,9.74070930480957,-0.9935256242752075,-0.5494213700294495
1788051832021645300,4.598645263671875,9.749079704284668,-0.9699239730834961,-0.4302026033401489
1788051832037656300,4.61465625,9.756598472595215,-0.9443097710609436,-0.29572048783302307
1788051832053716000,4.630716064453125,9.76201057434082,-0.9212855100631714,-0.15734648704528809
1788051832069789000,4.646788818359375,9.765351295471191,-0.8986421227455139,-0.027194442227482796
1788051832085795300,4.66279541015625,9.766990661621094,-0.8772029876708984,0.0823746919631958
1788051832101820400,4.6788203125,9.767010688781738,-0.8648008108139038,0.16733884811401367
1788051832117867300,4.6948671875,9.765359878540039,-0.8689491748809814,0.23036052286624908
1788051832133933600,4.71093359375,9.761963844299316,-0.8923215866088867,0.27967384457588196
1788051832150021000,4.727021240234375,9.757165908813477,-0.9300426840782166,0.3211402893066406
1788051832166049800,4.7430498046875,9.751745223999023,-0.9724700450897217,0.35799193382263184
1788051832182090000,4.759090087890625,9.747014045715332,-1.0099371671676636,0.38226231932640076
1788051832198123500,4.77512353515625,9.741251945495605,-1.052799105644226,0.41232138872146606
1788051832214192000,4.791192138671875,9.732410430908203,-1.1152292490005493,0.45478934049606323
1788051832230274300,4.8072744140625,9.721177101135254,-1.199219822883606,0.4805983603000641
1788051832246305000,4.823304931640625,9.70841121673584,-1.2935900688171387,0.4937192499637604
1788051832262349800,4.839349853515625,9.696587562561035,-1.3798538446426392,0.49251818656921387
1788051832278368300,4.8553681640625,9.690457344055176,-1.4319183826446533,0.463724285364151
1788051832294436900,4.871436767578125,9.691179275512695,-1.4413560628890991,0.41705647110939026
1788051832310493000,4.887492919921875,9.69815444946289,-1.407920479774475,0.36598271131515503
1788051832326537200,4.903537109375,9.709447860717773,-1.340844988822937,0.3148483335971832
1788051832342591500,4.919591552734375,9.7233304977417,-1.2480953931808472,0.26362839341163635
1788051832358576400,4.935576416015625,9.736273765563965,-1.1504149436950684,0.22782933712005615
1788051832374602500,4.9516025390625,9.745887756347656,-1.0658918619155884,0.22789235413074493
1788051832390657300,4.9676572265625,9.751861572265625,-0.998883068561554,0.27168503403663635
1788051832406715000,4.98371484375,9.75422191619873,-0.9528554081916809,0.34294676780700684
1788051832422789400,4.999789306640625,9.753666877746582,-0.9272064566612244,0.4203002154827118
1788051832438797300,5.01579736328125,9.752167701721191,-0.9143259525299072,0.4791710078716278
1788051832454855000,5.03185498046875,9.752151489257812,-0.9018675088882446,0.502559244632721
1788051832470911500,5.047911376953125,9.753982543945312,-0.8894301056861877,0.489014208316803
1788051832486926000,5.063926025390625,9.756498336791992,-0.8835771083831787,0.44768276810646057
1788051832502955000,5.079955078125,9.758514404296875,-0.8904819488525391,0.38576433062553406
1788051832518974200,5.09597412109375,9.759271621704102,-0.9099208116531372,0.3147116005420685
1788051832535040500,5.11204052734375,9.758513450622559,-0.9385084509849548,0.24697788059711456
1788051832551096000,5.128095947265625,9.756300926208496,-0.9733099341392517,0.19402281939983368
1788051832567112000,5.14411181640625,9.753113746643066,-1.0102275609970093,0.16309326887130737
1788051832583145200,5.160145263671875,9.749838829040527,-1.0438047647476196,0.1466396003961563
1788051832599172000,5.176172119140625,9.747018814086914,-1.0714341402053833,0.1343080997467041
1788051832615244500,5.19224462890625,9.74424934387207,-1.0975786447525024,0.12376104295253754
1788051832631309600,5.2083095703125,9.741154670715332,-1.1258071660995483,0.11339578032493591
1788051832647335700,5.224335693359375,9.737493515014648,-1.1578651666641235,0.10466112941503525
1788051832663373800,5.240373779296875,9.733308792114258,-1.1932059526443481,0.09665831178426743
1788051832679405600,5.256405517578125,9.730399131774902,-1.2178374528884888,0.0812441036105156
1788051832695480800,5.272480712890625,9.730806350708008,-1.2163504362106323,0.04786861687898636
1788051832711549400,5.288549560546875,9.73462200164795,-1.1863758563995361,-0.0063097551465034485
1788051832727583000,5.3045830078125,9.736557006835938,-1.1699824333190918,-0.03141007572412491
1788051832743631000,5.320631103515625,9.740791320800781,-1.1333259344100952,-0.05432158708572388
1788051832759622000,5.336621826171875,9.745830535888672,-1.0882192850112915,-0.07044310122728348
1788051832775697200,5.352697265625,9.749874114990234,-1.0511993169784546,-0.07299508899450302
1788051832791775200,5.368775146484375,9.752703666687012,-1.0254091024398804,-0.060692913830280304
1788051832807822800,5.38482275390625,9.755240440368652,-1.001963496208191,-0.04167580232024193
1788051832823886800,5.400886962890625,9.7586669921875,-0.9681917428970337,-0.037482649087905884
1788051832839880200,5.416880126953125,9.7632474899292,-0.9183588027954102,-0.07746389508247375
1788051832855923000,5.4329228515625,9.76708698272705,-0.8684471845626831,-0.14208486676216125
1788051832872002600,5.44900244140625,9.768796920776367,-0.8367135524749756,-0.20224791765213013
1788051832888060700,5.465060791015625,9.768654823303223,-0.8232293725013733,-0.25702083110809326
1788051832904128300,5.481128173828125,9.768452644348145,-0.8170413374900818,-0.28310877084732056
1788051832920164000,5.4971640625,9.77148723602295,-0.7905434966087341,-0.2519111931324005
1788051832936250600,5.513250732421875,9.779303550720215,-0.7114946246147156,-0.17144358158111572
1788051832952307700,5.5293076171875,9.790164947509766,-0.5655316114425659,-0.05677987262606621
1788051832968317400,5.5453173828125,9.799551963806152,-0.3673110008239746,0.06512574851512909
1788051832984336000,5.5613359375,9.80392074584961,-0.15192043781280518,0.1745104193687439
1788051833000342000,5.577342041015625,9.80300521850586,0.05954670533537865,0.2606199085712433
1788051833016394200,5.593394287109375,9.797825813293457,0.24992716312408447,0.3324654698371887
1788051833032475400,5.609475341796875,9.788887023925781,0.4226478040218353,0.4116339385509491
1788051833048491800,5.62549169921875,9.776268005371094,0.5921815037727356,0.4942648112773895
1788051833064520700,5.641520751953125,9.75854778289795,0.7810457348823547,0.575406014919281
1788051833080580400,5.657580322265625,9.731616973876953,1.018258810043335,0.6551021933555603
1788051833096631600,5.673631591796875,9.69054889678955,1.3075076341629028,0.7443543672561646
1788051833112704800,5.689704833984375,9.629996299743652,1.6466896533966064,0.8496883511543274
1788051833128732000,5.70573193359375,9.546622276306152,2.0274858474731445,0.960045576095581
1788051833144766700,5.7217666015625,9.442872047424316,2.4335591793060303,1.0393974781036377
1788051833160797000,5.737796875,9.321102142333984,2.8539741039276123,1.0687658786773682
1788051833176871000,5.753870849609375,9.182117462158203,3.278074264526367,1.0551434755325317
1788051833192968700,5.76996875,9.020744323730469,3.707972526550293,1.023472785949707
1788051833217003500,5.79400341796875,8.74886417388916,4.324112892150879,0.9642695784568787
1788051833233051600,5.8100517578125,8.554719924926758,4.702712059020996,0.9336270689964294
1788051833249129700,5.826129638671875,8.339801788330078,5.0870232582092285,0.8604062795639038
1788051833265190400,5.8421904296875,8.09101390838623,5.486335754394531,0.7784661054611206
1788051833281171000,5.8581708984375,7.8249831199646,5.867525577545166,0.7156617045402527
1788051833297227500,5.8742275390625,7.538998603820801,6.231530666351318,0.7084598541259766
1788051833313329200,5.8903291015625,7.2340192794799805,6.579998016357422,0.7368764877319336
1788051833329352000,5.90635205078125,6.91752815246582,6.906248569488525,0.7886254191398621
1788051833345419000,5.9224189453125,6.589617729187012,7.211885452270508,0.857925295829773
1788051833361415400,5.93841552734375,6.247622489929199,7.501364231109619,0.9311940670013428
1788051833377475800,5.954475830078125,5.904230117797852,7.765258312225342,1.005603313446045
1788051833393544000,5.9705439453125,5.564967155456543,8.000222206115723,1.0945249795913696
1788051833409583900,5.986583984375,5.230304718017578,8.214690208435059,1.1546350717544556
1788051833425613600,6.002613525390625,4.908698081970215,8.411713600158691,1.1481108665466309
1788051833441622500,6.01862255859375,4.596400260925293,8.589241027832031,1.1262590885162354
1788051833457652500,6.034652587890625,4.300893306732178,8.742383003234863,1.1151050329208374
1788051833473674200,6.05067431640625,4.034300804138184,8.870484352111816,1.099697232246399
1788051833489729300,6.066729248046875,3.801393508911133,8.97665786743164,1.067431092262268
1788051833505771800,6.082771728515625,3.595247507095337,9.065938949584961,1.0263252258300781
1788051833521783300,6.098783203125,3.4045798778533936,9.14413070678711,0.9818698167800903
1788051833537811700,6.114811767578125,3.2256195545196533,9.213092803955078,0.9405950307846069
1788051833553847600,6.13084765625,3.054286003112793,9.27544116973877,0.8988535404205322
1788051833569884400,6.146884521484375,2.9063191413879395,9.32817268371582,0.8419569134712219
1788051833585949700,6.16294970703125,2.790799856185913,9.36909008026123,0.7758813500404358
1788051833601927700,6.178927734375,2.699611186981201,9.401812553405762,0.6988812685012817
1788051833617966000,6.194966064453125,2.6200222969055176,9.430147171020508,0.614986002445221
1788051833634011100,6.21101123046875,2.5358810424804688,9.457984924316406,0.5350158214569092
1788051833650089500,6.22708935546875,2.4360125064849854,9.487896919250488,0.4648137390613556
1788051833666165000,6.2431650390625,2.3168749809265137,9.52074146270752,0.3974362015724182
1788051833682163500,6.25916357421875,2.1820783615112305,9.555158615112305,0.3284476697444916
1788051833698214400,6.27521435546875,2.0442070960998535,9.58785629272461,0.25419142842292786
1788051833714262800,6.2912626953125,1.9121896028518677,9.616785049438477,0.17705854773521423
1788051833738379000,6.31537890625,1.754980206489563,9.648003578186035,0.0803665742278099
1788051833754412300,6.331412353515625,1.6974537372589111,9.658567428588867,0.0333944670855999
1788051833770455600,6.34745556640625,1.6797720193862915,9.661715507507324,0.004948196932673454
1788051833786510800,6.3635107421875,1.6948379278182983,9.659076690673828,-0.012032164260745049
1788051833802498800,6.379498779296875,1.7306649684906006,9.652703285217285,-0.022392302751541138
1788051833818511000,6.395510986328125,1.773374319076538,9.644927978515625,-0.029867608100175858
1788051833834576400,6.411576416015625,1.815923810005188,9.636981010437012,-0.03780921548604965
1788051833850589700,6.427589599609375,1.8522112369537354,9.630034446716309,-0.0462605245411396
1788051833866660000,6.44366015625,1.877355694770813,9.625107765197754,-0.057043492794036865
1788051833882671600,6.459671630859375,1.8950752019882202,9.621541023254395,-0.07095131278038025
1788051833898732800,6.47573291015625,1.9127212762832642,9.617918968200684,-0.08675999939441681
1788051833914764800,6.491764892578125,1.934493899345398,9.613373756408691,-0.10581015050411224
1788051833930777900,6.50777783203125,1.9542968273162842,9.60906982421875,-0.13003303110599518
1788051833946806300,6.52380615234375,1.9681358337402344,9.605829238891602,-0.1577192097902298
1788051833962826800,6.53982666015625,1.9826898574829102,9.602377891540527,-0.1834825873374939
1788051833978894300,6.555894287109375,2.0021274089813232,9.59793472290039,-0.20377135276794434
1788051833994929700,6.5719296875,2.0231592655181885,9.59309196472168,-0.22319559752941132
1788051834010908000,6.587907958984375,2.0360846519470215,9.589861869812012,-0.24354864656925201
1788051834026944300,6.6039443359375,2.0341897010803223,9.58970832824707,-0.2645171880722046
1788051834043014400,6.620014404296875,2.015079975128174,9.59324836730957,-0.2818494439125061
1788051834059095000,6.636094970703125,1.9856460094451904,9.599120140075684,-0.29068857431411743
1788051834075198700,6.65219873046875,1.94991934299469,9.606489181518555,-0.2891109585762024
1788051834091233300,6.6682333984375,1.9103130102157593,9.614720344543457,-0.279710978269577
1788051834107281400,6.684281494140625,1.8745195865631104,9.622233390808105,-0.2630135118961334
1788051834123312400,6.7003125,1.8474119901657104,9.62808895111084,-0.23953063786029816
1788051834139394800,6.716394775390625,1.8240283727645874,9.633079528808594,-0.21704934537410736
1788051834155454000,6.732453857421875,1.7957868576049805,9.638700485229492,-0.2024438977241516
1788051834171492000,6.7484921875,1.7578215599060059,9.645560264587402,-0.20894260704517365
1788051834187545600,6.764545654296875,1.7240926027297974,9.65113639831543,-0.23126433789730072
1788051834203536400,6.780536376953125,1.715299129486084,9.652124404907227,-0.25421997904777527
1788051834219573500,6.796573486328125,1.7334873676300049,9.648417472839355,-0.27103492617607117
1788051834235623400,6.81262353515625,1.7704730033874512,9.641434669494629,-0.2802697718143463
1788051834251670300,6.828670166015625,1.8130133152008057,9.633454322814941,-0.2827393710613251
1788051834267733000,6.84473291015625,1.8434151411056519,9.627817153930664,-0.2781473696231842
1788051834283718000,6.8607177734375,1.8435111045837402,9.628039360046387,-0.2696823179721832
1788051834299765000,6.876764892578125,1.815853476524353,9.633505821228027,-0.262025386095047
1788051834315816700,6.892816650390625,1.774026870727539,9.641247749328613,-0.2637391984462738
1788051834331876000,6.9088759765625,1.7351415157318115,9.647995948791504,-0.2753857970237732
1788051834347941000,6.924941162109375,1.7120418548583984,9.65164852142334,-0.291518896818161
1788051834363936800,6.940936767578125,1.7077120542526245,9.651928901672363,-0.3072480857372284
1788051834379992800,6.956992919921875,1.7188024520874023,9.649774551391602,-0.31298866868019104
1788051834396006100,6.973006103515625,1.7353312969207764,9.647125244140625,-0.30333617329597473
1788051834412066300,6.98906640625,1.7514547109603882,9.644856452941895,-0.28200551867485046
1788051834428088600,7.005088623046875,1.7671327590942383,9.642801284790039,-0.25298985838890076
1788051834444102100,7.02110205078125,1.7876111268997192,9.639819145202637,-0.22068536281585693
1788051834460170800,7.037170654296875,1.8139067888259888,9.635580062866211,-0.18903818726539612
1788051834476185000,7.05318505859375,1.8448946475982666,9.630266189575195,-0.15732114017009735
1788051834492203500,7.06920361328125,1.8698525428771973,9.625901222229004,-0.12680326402187347
1788051834508234200,7.085234130859375,1.8793957233428955,9.624350547790527,-0.10072305798530579
1788051834524258300,7.10125830078125,1.876054048538208,9.62522029876709,-0.07705985754728317
1788051834540326700,7.11732666015625,1.867891788482666,9.626976013183594,-0.05206833407282829
1788051834556384000,7.133384033203125,1.8634493350982666,9.627947807312012,-0.024083763360977173
1788051834572419000,7.149419189453125,1.865492820739746,9.627581596374512,0.004182546399533749
1788051834588462800,7.165462890625,1.869662880897522,9.626724243164062,0.030800797045230865
1788051834604495600,7.18149560546875,1.86949622631073,9.626639366149902,0.05633680522441864
1788051834620520400,7.1975205078125,1.8662720918655396,9.627081871032715,0.08207155019044876
1788051834636552400,7.213552490234375,1.8630788326263428,9.627405166625977,0.11138415336608887
1788051834652596500,7.229596435546875,1.8487060070037842,9.62963581085205,0.15096242725849152
1788051834668659000,7.245658935546875,1.8259820938110352,9.633194923400879,0.1943143755197525
1788051834684649000,7.26164892578125,1.7986066341400146,9.637311935424805,0.24008388817310333
1788051834700689000,7.27768896484375,1.7708646059036255,9.641176223754883,0.2866264581680298
1788051834716726000,7.29372607421875,1.7454917430877686,9.644780158996582,0.31917381286621094
1788051834732774000,7.30977392578125,1.720644235610962,9.647928237915039,0.35677698254585266
1788051834748838400,7.32583837890625,1.7043787240982056,9.649608612060547,0.3880161643028259
1788051834764828200,7.341828125,1.703075885772705,9.648974418640137,0.40892714262008667
1788051834780887300,7.35788720703125,1.7227303981781006,9.644970893859863,0.42087653279304504
1788051834796910000,7.37391015625,1.752989411354065,9.63953685760498,0.4204457402229309
1788051834812922000,7.389922119140625,1.78285551071167,9.634648323059082,0.40662938356399536
1788051834828986600,7.405986572265625,1.8166017532348633,9.62926959991455,0.38411039113998413
1788051834844994800,7.421994873046875,1.866640329360962,9.620473861694336,0.3640393614768982
1788051834861061600,7.4380615234375,1.933640480041504,9.607867240905762,0.34687021374702454
1788051834877143600,7.4541435546875,2.0023791790008545,9.59486198425293,0.3154626786708832
1788051834893169700,7.470169677734375,2.0557546615600586,9.585136413574219,0.2634957432746887
1788051834909206500,7.48620654296875,2.079664707183838,9.581548690795898,0.19826164841651917
1788051834925213700,7.502213623046875,2.0708768367767334,9.584538459777832,0.1360156089067459
1788051834941288700,7.518288818359375,2.033858060836792,9.592981338500977,0.09224340319633484
1788051834957372200,7.5343720703125,1.9769588708877563,9.60499095916748,0.07860533893108368
1788051834973404400,7.550404296875,1.9122295379638672,9.618017196655273,0.08678162842988968
1788051834989446000,7.56644580078125,1.8467355966567993,9.630560874938965,0.11066753417253494
1788051835005461500,7.58246142578125,1.801062822341919,9.638753890991211,0.14490503072738647
1788051835021536000,7.598535888671875,1.787253499031067,9.640654563903809,0.1841810941696167
1788051835037590800,7.6145908203125,1.8063912391662598,9.636226654052734,0.22470833361148834
1788051835053622800,7.630622802734375,1.8589661121368408,9.6251802444458,0.2655658423900604
1788051835069673000,7.6466728515625,1.9414392709732056,9.60784912109375,0.30072832107543945
1788051835085699600,7.662699462890625,2.036860704421997,9.58755874633789,0.316732257604599
1788051835101777000,7.67877685546875,2.131225824356079,9.567522048950195,0.3013342022895813
1788051835117788000,7.694787841796875,2.217921018600464,9.549239158630371,0.2515016496181488
1788051835133827800,7.710827880859375,2.298893690109253,9.53166675567627,0.1811705231666565
1788051835149885000,7.726885009765625,2.3825418949127197,9.51228141784668,0.10208441317081451
1788051835165875500,7.74287548828125,2.4688057899475098,9.490764617919922,0.028014088049530983
1788051835181907500,7.758907470703125,2.5496764183044434,9.46934700012207,-0.03189326822757721
1788051835197920300,7.774920166015625,2.6238396167755127,9.448827743530273,-0.07423018664121628
1788051835213972000,7.790971923828125,2.6944010257720947,9.428794860839844,-0.09177929162979126
1788051835230039800,7.807039794921875,2.7678892612457275,9.407567977905273,-0.08279752731323242
1788051835246040000,7.8230400390625,2.845989227294922,9.384406089782715,-0.0605216883122921
1788051835262091300,7.83909130859375,2.93752384185791,9.356291770935059,-0.034074995666742325
1788051835278098400,7.855098388671875,3.0608789920806885,9.316727638244629,-0.0023135377559810877
1788051835294151000,7.87115087890625,3.2170422077178955,9.263911247253418,0.03122282214462757
1788051835310223000,7.88722314453125,3.4049885272979736,9.196344375610352,0.06090046092867851
1788051835326232000,7.903232177734375,3.626831531524658,9.110930442810059,0.0862114280462265
1788051835342288100,7.9192880859375,3.8780412673950195,9.006555557250977,0.1146022379398346
1788051835358297600,7.935297607421875,4.1624369621276855,8.878097534179688,0.15458090603351593
1788051835374359300,7.951359375,4.470385551452637,8.726082801818848,0.20378683507442474
1788051835390386000,7.967385986328125,4.798917293548584,8.54822826385498,0.2619079053401947
1788051835406389500,7.983389404296875,5.145269393920898,8.342098236083984,0.32559770345687866
1788051835422445300,7.9994453125,5.498606204986572,8.111498832702637,0.37323155999183655
1788051835438497300,8.015497314453125,5.859842777252197,7.853219032287598,0.39949822425842285
1788051835454525400,8.031525390625,6.234850883483887,7.557381629943848,0.4277881979942322
1788051835470562600,8.0475625,6.608143329620361,7.230818271636963,0.4670122563838959
1788051835486619400,8.063619384765625,6.9323296546936035,6.919224739074707,0.48737290501594543
1788051835502628400,8.07962841796875,7.192182540893555,6.6492719650268555,0.47965750098228455
1788051835518682400,8.095682373046875,7.412074565887451,6.404006004333496,0.4693097174167633
1788051835534713900,8.1117138671875,7.618908405303955,6.155703067779541,0.4795338809490204
1788051835550755300,8.12775537109375,7.824860572814941,5.890287399291992,0.496447890996933
1788051835566779100,8.143779052734375,8.039331436157227,5.5916547775268555,0.5224417448043823
1788051835582861000,8.159861083984374,8.26318359375,5.251549243927002,0.5580439567565918
1788051835598919400,8.17591943359375,8.486021995544434,4.877177715301514,0.6090623140335083
1788051835614960600,8.191960693359375,8.688933372497559,4.50075626373291,0.6449857354164124
1788051835631015700,8.208015625,8.860064506530762,4.152614116668701,0.652265191078186
1788051835647034400,8.224034423828124,8.994884490966797,3.857720136642456,0.6167962551116943
1788051835663108000,8.240108154296875,9.096991539001465,3.6177706718444824,0.57172030210495
1788051835679181000,8.25618115234375,9.169208526611328,3.4341955184936523,0.5498199462890625
1788051835695238100,8.272238037109375,9.20710563659668,3.3328402042388916,0.5401558876037598
1788051835711309800,8.288309814453125,9.221185684204102,3.295228958129883,0.5306441187858582
1788051835727309000,8.30430908203125,9.226119995117188,3.2819247245788574,0.5273234844207764
1788051835743350300,8.320350341796875,9.235474586486816,3.25537109375,0.5281642079353333
1788051835759427600,8.336427490234374,9.252007484436035,3.2055318355560303,0.5434203147888184
1788051835775444200,8.3524443359375,9.271364212036133,3.1433773040771484,0.5756461024284363
1788051835791474400,8.368474365234375,9.289318084716797,3.0804741382598877,0.6242106556892395
1788051835807489500,8.384489501953125,9.303882598876953,3.023662567138672,0.6823705434799194
1788051835823557400,8.400557373046874,9.31374740600586,2.9794297218322754,0.739931046962738
1788051835839640300,8.416640380859375,9.320565223693848,2.9446258544921875,0.7915975451469421
1788051835855667700,8.432667724609376,9.326894760131836,2.9127142429351807,0.833982527256012
1788051835871706000,8.4487060546875,9.333867073059082,2.879366159439087,0.8709582090377808
1788051835887729200,8.464729248046876,9.342857360839844,2.839897871017456,0.9035320281982422
1788051835903804000,8.480803955078125,9.354535102844238,2.7917516231536865,0.9323002099990845
1788051835919900200,8.496900146484375,9.36861801147461,2.7371788024902344,0.9524970650672913
1788051835935933000,8.512932861328125,9.384711265563965,2.678260326385498,0.9615104794502258
1788051835951977500,8.5289775390625,9.3998441696167,2.622446060180664,0.9675257205963135
1788051835968010500,8.545010498046874,9.410563468933105,2.582829475402832,0.9698801636695862
1788051835984102000,8.561101806640625,9.417387962341309,2.557220220565796,0.9715055227279663
1788051836000212500,8.57721240234375,9.422063827514648,2.5376932621002197,0.9773538708686829
1788051836016250000,8.59325,9.425406455993652,2.521517515182495,0.9869415760040283
1788051836032303400,8.609303466796876,9.427266120910645,2.5093042850494385,1.000214695930481
1788051836048337400,8.62533740234375,9.428252220153809,2.4986329078674316,1.0174829959869385
1788051836064379100,8.641379150390625,9.43017864227295,2.4795827865600586,1.0458413362503052
1788051836080438800,8.657438720703125,9.431615829467773,2.4610331058502197,1.0762622356414795
1788051836096487400,8.6734873046875,9.431811332702637,2.451080799102783,1.097055435180664
1788051836112546300,8.68954638671875,9.432453155517578,2.4448201656341553,1.1054761409759521
1788051836128545000,8.705544921875,9.436665534973145,2.4321489334106445,1.0974481105804443
1788051836144593400,8.721593505859374,9.444480895996094,2.409722328186035,1.0795398950576782
1788051836160652500,8.737652587890626,9.455387115478516,2.374479055404663,1.0620239973068237
1788051836176702000,8.753701904296875,9.469191551208496,2.3182082176208496,1.0633488893508911
1788051836192771000,8.76977099609375,9.487788200378418,2.2379794120788574,1.0694422721862793
1788051836208777000,8.78577685546875,9.509953498840332,2.142630100250244,1.06785249710083
1788051836224869600,8.80186962890625,9.532988548278809,2.051295518875122,1.0414930582046509
1788051836240913700,8.81791357421875,9.553297996520996,1.985581398010254,0.9809960126876831
1788051836256976600,8.8339765625,9.566798210144043,1.9558985233306885,0.9062073230743408
1788051836273056300,8.85005615234375,9.572258949279785,1.9589253664016724,0.8395604491233826
1788051836289088800,8.8660888671875,9.571832656860352,1.982345700263977,0.7878569960594177
1788051836305146600,8.882146728515625,9.567706108093262,2.0172367095947266,0.7484273314476013
1788051836321187300,8.898187255859375,9.561409950256348,2.0601799488067627,0.7109683752059937
1788051836337209600,8.914209716796876,9.557513236999512,2.0913565158843994,0.6712397336959839
1788051836353240000,8.930239990234375,9.557182312011719,2.095081329345703,0.6642942428588867
1788051836369291800,8.946291748046875,9.561142921447754,2.069793224334717,0.6862170696258545
1788051836385340400,8.96234033203125,9.569817543029785,2.020034074783325,0.7130532264709473
1788051836401394700,8.978394775390624,9.581613540649414,1.9559301137924194,0.7330724596977234
1788051836417423400,8.99442333984375,9.594573020935059,1.8834820985794067,0.7530251145362854
1788051836433453800,9.010453857421876,9.609030723571777,1.796317219734192,0.781125545501709
1788051836449477000,9.02647705078125,9.625919342041016,1.6898401975631714,0.810251772403717
1788051836465555700,9.0425556640625,9.643082618713379,1.5821081399917603,0.8235750794410706
1788051836481622000,9.0586220703125,9.660649299621582,1.482101321220398,0.8035001158714294
1788051836497610000,9.07460986328125,9.674040794372559,1.4242466688156128,0.7448714971542358
1788051836513654000,9.090654052734376,9.685551643371582,1.3846585750579834,0.6657286286354065
1788051836529686800,9.106686767578125,9.694485664367676,1.3535873889923096,0.5959348082542419
1788051836545763000,9.12276318359375,9.701457977294922,1.32996666431427,0.532249927520752
1788051836561842700,9.1388427734375,9.707547187805176,1.3066824674606323,0.4759240448474884
1788051836577883100,9.154883056640625,9.713432312011719,1.2792949676513672,0.4278053045272827
1788051836593940200,9.170940185546876,9.721120834350586,1.2371106147766113,0.3738296926021576
1788051836609926400,9.186926513671875,9.731200218200684,1.172133207321167,0.3165837526321411
1788051836625964500,9.202964599609375,9.742621421813965,1.0875074863433838,0.2627720534801483
1788051836642043100,9.219043212890625,9.754073143005371,0.991162121295929,0.21459506452083588
1788051836658090500,9.235090576171874,9.763602256774902,0.9013640284538269,0.1732122153043747
1788051836674149000,9.251149169921876,9.770039558410645,0.835114598274231,0.13889293372631073
1788051836690139100,9.26713916015625,9.773773193359375,0.7943241000175476,0.11310255527496338
1788051836706187800,9.283187744140625,9.774937629699707,0.7815871834754944,0.10044218599796295
1788051836722258400,9.299258544921875,9.774270057678223,0.7899516224861145,0.10008171200752258
1788051836738276400,9.3152763671875,9.772090911865234,0.8153343200683594,0.10891976207494736
1788051836754301400,9.331301513671875,9.768733024597168,0.8523322343826294,0.1255921721458435
1788051836770313000,9.34731298828125,9.764663696289062,0.8950138092041016,0.14386595785617828
1788051836786375400,9.36337548828125,9.760193824768066,0.9400401711463928,0.1591438204050064
1788051836802457600,9.37945751953125,9.755633354187012,0.9847060441970825,0.16840402781963348
1788051836818479600,9.395479736328125,9.751622200012207,1.0226598978042603,0.17439693212509155
1788051836834512600,9.4115126953125,9.748451232910156,1.0525716543197632,0.17372867465019226
1788051836850530800,9.42753076171875,9.746476173400879,1.0716235637664795,0.16792075335979462
1788051836866596000,9.44359619140625,9.74637508392334,1.074001669883728,0.1583622843027115
1788051836882685700,9.459685791015625,9.748838424682617,1.0546175241470337,0.1353112906217575
1788051836898711800,9.4757119140625,9.753083229064941,1.018337368965149,0.10370441526174545
1788051836914756400,9.49175634765625,9.757586479187012,0.9766009449958801,0.07837223261594772
1788051836930820600,9.507820556640626,9.760448455810547,0.9482502937316895,0.0696708932518959
1788051836946884900,9.523884765625,9.760884284973145,0.9434568285942078,0.0736863762140274
1788051836962956800,9.539956787109375,9.759888648986816,0.9538474678993225,0.07158201932907104
1788051836978992600,9.55599267578125,9.758336067199707,0.9702085256576538,0.06290262192487717
1788051836995044000,9.572044189453125,9.756303787231445,0.9905989766120911,0.06030110642313957
1788051837011021800,9.588021728515624,9.753522872924805,1.0163654088974,0.07862696051597595
1788051837027105300,9.604105224609375,9.753111839294434,1.0186911821365356,0.09731754660606384
1788051837043145200,9.620145263671875,9.751424789428711,1.0333445072174072,0.11084456741809845
1788051837059193300,9.636193359375,9.747430801391602,1.0697646141052246,0.11659317463636398
1788051837075254000,9.65225390625,9.746356010437012,1.0789721012115479,0.12146170437335968
1788051837091247900,9.668247802734374,9.74825382232666,1.0606094598770142,0.1305864155292511
1788051837107296500,9.684296630859375,9.751679420471191,1.0264631509780884,0.1466318964958191
1788051837123350500,9.7003505859375,9.755648612976074,0.9845792651176453,0.16826915740966797
1788051837139402500,9.716402587890625,9.759598731994629,0.9389910101890564,0.19729042053222656
1788051837155473200,9.73247314453125,9.762788772583008,0.8940517902374268,0.24294088780879974
1788051837171474700,9.748474609375,9.764483451843262,0.8538839817047119,0.31006813049316406
1788051837187530000,9.764530029296875,9.76446533203125,0.8220319151878357,0.3871295750141144
1788051837203588600,9.780588623046874,9.763405799865723,0.797558605670929,0.45846083760261536
1788051837219604700,9.796604736328124,9.763091087341309,0.7732691168785095,0.5044793486595154
1788051837235634200,9.81263427734375,9.764351844787598,0.742189884185791,0.5262777209281921
1788051837251642000,9.82864208984375,9.76693058013916,0.7034275531768799,0.5316402912139893
1788051837267706400,9.844706298828125,9.77008056640625,0.6594533920288086,0.5301192998886108
1788051837283761700,9.86076171875,9.7736234664917,0.6087538599967957,0.5254454612731934
1788051837299777300,9.87677734375,9.777271270751953,0.5520486831665039,0.5201765298843384
1788051837315809500,9.8928095703125,9.780651092529297,0.4951176047325134,0.5139144062995911
1788051837331821600,9.908821533203126,9.783496856689453,0.44486573338508606,0.5056403875350952
1788051837347891000,9.924890869140626,9.786134719848633,0.3821704387664795,0.5058614611625671
1788051837363949800,9.94094970703125,9.788429260253906,0.30497750639915466,0.5138419270515442
1788051837379968300,9.95696826171875,9.789624214172363,0.2428940087556839,0.5240716338157654
1788051837396003300,9.97300341796875,9.789775848388672,0.19635386765003204,0.5404762625694275
1788051837412022500,9.9890224609375,9.788931846618652,0.1662510186433792,0.5653011798858643
1788051837428070100,10.005070068359375,9.786822319030762,0.15997175872325897,0.6024233102798462
1788051837444142000,10.02114208984375,9.78415584564209,0.15976481139659882,0.6443315148353577
1788051837460177000,10.037177001953125,9.781336784362793,0.16196869313716888,0.6852779388427734
1788051837476220200,10.05322021484375,9.77818775177002,0.17243821918964386,0.7264256477355957
1788051837492198400,10.069198486328125,9.774867057800293,0.19227616488933563,0.7651046514511108
1788051837508228600,10.085228515625,9.772113800048828,0.21657033264636993,0.793271541595459
1788051837524294400,10.10129443359375,9.771344184875488,0.24330921471118927,0.7949928045272827
1788051837540329500,10.11732958984375,9.772846221923828,0.27458083629608154,0.7658044695854187
1788051837556378000,10.133378173828126,9.773604393005371,0.2933107614517212,0.7490003705024719
1788051837572354000,10.14935400390625,9.77486801147461,0.2788560688495636,0.7379589080810547
1788051837588376800,10.165376953125,9.77772045135498,0.21792113780975342,0.7204703092575073
1788051837604438800,10.181438720703126,9.78177261352539,0.11512551456689835,0.6885218620300293
1788051837620488700,10.19748876953125,9.786212921142578,-0.006069527938961983,0.6327622532844543
1788051837636546600,10.213546630859375,9.791098594665527,-0.12406619638204575,0.5379519462585449
1788051837652575700,10.22957568359375,9.795417785644531,-0.21119293570518494,0.4190099239349365
1788051837668608800,10.24560888671875,9.799330711364746,-0.24860934913158417,0.2858350872993469
1788051837684680400,10.261680419921875,9.802358627319336,-0.24219785630702972,0.15965652465820312
1788051837700645400,10.277645263671875,9.804404258728027,-0.20035997033119202,0.06251624971628189
1788051837716669700,10.293669677734375,9.805662155151367,-0.13922928273677826,-0.0010464346269145608
1788051837732667100,10.309667236328124,9.806333541870117,-0.07094449549913406,-0.03426187112927437
1788051837748725200,10.325725341796876,9.806557655334473,-0.012224427424371243,-0.040797241032123566
1788051837764803000,10.341802978515625,9.806534767150879,0.030876487493515015,-0.036115143448114395
1788051837780824300,10.35782421875,9.806477546691895,0.05416585132479668,-0.02114354446530342
1788051837796859400,10.373859375,9.806486129760742,0.0561094768345356,0.008677136152982712
1788051837812876800,10.389876708984374,9.806439399719238,0.044849786907434464,0.04601985216140747
1788051837828941600,10.405941650390625,9.806294441223145,0.02956349402666092,0.07817036658525467
1788051837845036000,10.4220361328125,9.806181907653809,0.016994021832942963,0.0942784994840622
1788051837861060600,10.438060546875,9.806154251098633,0.0012615569867193699,0.09859231114387512
1788051837877107200,10.454107177734375,9.806361198425293,-0.0032224999740719795,0.07528003305196762
1788051837893142800,10.470142822265625,9.80654525756836,-0.011215860955417156,0.04385392740368843
1788051837909230600,10.486230712890626,9.806598663330078,-0.028615765273571014,0.013806892558932304
1788051837925334000,10.502333984375,9.806503295898438,-0.05323130264878273,-0.007091789040714502
1788051837941377000,10.518376953125,9.806303024291992,-0.08245956152677536,0.003444771282374859
1788051837957436700,10.534436767578125,9.806037902832031,-0.10512450337409973,0.030925877392292023
1788051837973427500,10.550427490234375,9.805671691894531,-0.1290745884180069,0.05033879354596138
1788051837989473000,10.56647314453125,9.80517292022705,-0.1541743129491806,0.07215464115142822
1788051838005536500,10.58253662109375,9.804518699645996,-0.1823735386133194,0.09240026026964188
1788051838021579000,10.5985791015625,9.80382251739502,-0.21268795430660248,0.10109928995370865
1788051838037648600,10.614648681640626,9.80322551727295,-0.24207080900669098,0.09250292181968689
1788051838053644000,10.63064404296875,9.802825927734375,-0.2637532353401184,0.07362546026706696
1788051838069690400,10.6466904296875,9.802779197692871,-0.2708343267440796,0.05069644749164581
1788051838085750800,10.662750732421875,9.802984237670898,-0.265495240688324,0.03736509382724762
1788051838101804500,10.678804443359375,9.803406715393066,-0.2503625452518463,0.03054475411772728
1788051838117871600,10.69487158203125,9.803922653198242,-0.22912712395191193,0.031401585787534714
1788051838133875700,10.710875732421876,9.804387092590332,-0.20720574259757996,0.03808296099305153
1788051838149926400,10.726926513671875,9.804654121398926,-0.1897684633731842,0.05603073537349701
1788051838165987600,10.742987548828125,9.804697036743164,-0.18039998412132263,0.07592904567718506
1788051838182014200,10.75901416015625,9.804561614990234,-0.17784486711025238,0.09661713242530823
1788051838198051800,10.7750517578125,9.804299354553223,-0.18020032346248627,0.1167188286781311
1788051838214069800,10.79106982421875,9.803984642028809,-0.18615885078907013,0.13272088766098022
1788051838230138400,10.807138427734374,9.80364990234375,-0.19609345495700836,0.1427634060382843
1788051838246196500,10.823196533203125,9.803340911865234,-0.21051064133644104,0.14349448680877686
1788051838262225400,10.839225341796874,9.803264617919922,-0.22215868532657623,0.1305084526538849
1788051838278267000,10.855266845703126,9.803505897521973,-0.22587497532367706,0.10323072969913483
1788051838294289400,10.871289306640625,9.803871154785156,-0.22281129658222198,0.06964579969644547
1788051838310366200,10.8873662109375,9.804157257080078,-0.21774505078792572,0.0384250283241272
1788051838326437000,10.90343701171875,9.80426025390625,-0.2162204384803772,0.01117608230561018
1788051838342477000,10.91947705078125,9.804226875305176,-0.21768639981746674,-0.012017432600259781
1788051838358519600,10.93551953125,9.80416488647461,-0.2181633859872818,-0.03361613675951958
1788051838374549200,10.95154931640625,9.804200172424316,-0.21314015984535217,-0.0511971116065979
1788051838390623200,10.967623291015625,9.804383277893066,-0.20119015872478485,-0.06310559809207916
1788051838406699500,10.983699462890625,9.804720878601074,-0.18150950968265533,-0.06994588673114777
1788051838422740700,10.99974072265625,9.805116653442383,-0.15767282247543335,-0.07221213728189468
1788051838438800000,11.0157998046875,9.805484771728516,-0.1335880160331726,-0.07079349458217621
1788051838454789000,11.0317890625,9.805791854858398,-0.11092443764209747,-0.06720781326293945
1788051838470838300,11.04783837890625,9.80603313446045,-0.09007380902767181,-0.06306970864534378
1788051838486927400,11.06392724609375,9.806204795837402,-0.06900974363088608,-0.06297816336154938
1788051838502981000,11.079981201171876,9.806302070617676,-0.049869414418935776,-0.06583120673894882
1788051838519042000,11.0960419921875,9.80631160736084,-0.037425898015499115,-0.07249108701944351
1788051838535030500,11.112030517578125,9.806228637695312,-0.03256533294916153,-0.08486976474523544
1788051838551073800,11.12807373046875,9.806116104125977,-0.032459668815135956,-0.09701615571975708
1788051838567142700,11.144142578125,9.806061744689941,-0.034170445054769516,-0.10187024623155594
1788051838583158500,11.160158447265625,9.806140899658203,-0.0337047353386879,-0.09414741396903992
1788051838599188200,11.176188232421875,9.806327819824219,-0.033093973994255066,-0.07225243747234344
1788051838615196700,11.19219677734375,9.806507110595703,-0.03604774549603462,-0.038854438811540604
1788051838631254000,11.20825390625,9.806533813476562,-0.04222691059112549,-0.02227252721786499
1788051838647337200,11.224337158203125,9.806490898132324,-0.055324405431747437,0.007906154729425907
1788051838663354600,11.240354736328126,9.80622673034668,-0.07573343068361282,0.050779759883880615
1788051838679388200,11.25638818359375,9.805502891540527,-0.10368968546390533,0.10832640528678894
1788051838695406600,11.272406494140625,9.80414867401123,-0.13538755476474762,0.1752970814704895
1788051838711467500,11.288467529296875,9.80214786529541,-0.16658160090446472,0.2460448294878006
1788051838727556400,11.304556396484376,9.799491882324219,-0.1973186880350113,0.31845465302467346
1788051838743555600,11.3205556640625,9.796309471130371,-0.22704732418060303,0.38879039883613586
1788051838759593200,11.33659326171875,9.793042182922363,-0.25093451142311096,0.4513838589191437
1788051838775613400,11.352613525390625,9.789765357971191,-0.2666659653186798,0.5096802711486816
1788051838791684000,11.36868408203125,9.786924362182617,-0.27130240201950073,0.559377133846283
1788051838807773000,11.38477294921875,9.785194396972656,-0.26532861590385437,0.5915606617927551
1788051838823797000,11.400796875,9.784393310546875,-0.25703150033950806,0.6082473993301392
1788051838839839200,11.416839111328125,9.784148216247559,-0.2500590980052948,0.6150586605072021
1788051838855898400,11.4328984375,9.784485816955566,-0.2412632405757904,0.6131922006607056
1788051838871975700,11.4489755859375,9.785560607910156,-0.2261294275522232,0.6017166972160339
1788051838888079600,11.46507958984375,9.787360191345215,-0.2031715214252472,0.5802469849586487
1788051838904123600,11.48112353515625,9.787991523742676,-0.1961585283279419,0.571964681148529
1788051838920180200,11.49718017578125,9.788806915283203,-0.18717704713344574,0.5608989000320435
1788051838936167700,11.513167724609374,9.789777755737305,-0.17423541843891144,0.5479696989059448
1788051838952260000,11.529260009765625,9.790817260742188,-0.1559298038482666,0.5347625613212585
1788051838968320800,11.54532080078125,9.791698455810547,-0.1305641531944275,0.5253282189369202
1788051838984370200,11.5613701171875,9.79223346710205,-0.10353570431470871,0.5213772058486938
1788051839000435000,11.57743505859375,9.792533874511719,-0.08041153848171234,0.5198090076446533
1788051839016433200,11.59343310546875,9.792826652526855,-0.06889341026544571,0.5159441828727722
1788051839032479500,11.6094794921875,9.79319953918457,-0.07524781674146652,0.5079119801521301
1788051839048537300,11.625537353515625,9.793680191040039,-0.09740228205919266,0.4947091341018677
1788051839064591000,11.641591064453126,9.794142723083496,-0.12893681228160858,0.4780445098876953
1788051839080662000,11.657662109375,9.794590950012207,-0.1606203317642212,0.45888036489486694
1788051839096659000,11.673658935546875,9.795076370239258,-0.18322128057479858,0.43965041637420654
1788051839112711700,11.689711669921875,9.795746803283691,-0.1854824274778366,0.42346641421318054
1788051839128767700,11.705767822265624,9.79650592803955,-0.16349397599697113,0.414889931678772
1788051839144827000,11.721826904296876,9.796916007995605,-0.12602536380290985,0.4182843565940857
1788051839160899000,11.737899169921874,9.797039985656738,-0.0857449397444725,0.4254889488220215
1788051839176905500,11.753905517578126,9.79709243774414,-0.06461403518915176,0.4280066192150116
1788051839192968400,11.769968505859374,9.797566413879395,-0.07308099418878555,0.4156196713447571
1788051839209031200,11.78603125,9.798495292663574,-0.10457206517457962,0.3859376311302185
1788051839225056500,11.802056396484375,9.799413681030273,-0.14047397673130035,0.34947991371154785
1788051839241100300,11.818100341796875,9.800094604492188,-0.15326060354709625,0.3240925967693329
1788051839257129000,11.83412890625,9.800529479980469,-0.13085657358169556,0.3207809329032898
1788051839273209000,11.850208984375,9.800402641296387,-0.07802776992321014,0.34119269251823425
1788051839289278200,11.8662783203125,9.799201011657715,-0.011429083533585072,0.3819892406463623
1788051839305305900,11.882305908203126,9.796723365783691,0.05299825966358185,0.43793007731437683
1788051839321347800,11.898347900390625,9.793418884277344,0.10330728441476822,0.4986652731895447
1788051839337379800,11.9143798828125,9.789703369140625,0.1309148073196411,0.561202883720398
1788051839353462300,11.930462158203126,9.786044120788574,0.13602454960346222,0.6206649541854858
1788051839369534000,11.946533935546874,9.783263206481934,0.12167417258024216,0.6658327579498291
1788051839385574700,11.96257470703125,9.781712532043457,0.09995114058256149,0.691737949848175
1788051839401624800,11.978624755859375,9.781014442443848,0.08448345959186554,0.7035754919052124
1788051839417607700,11.994607666015625,9.780693054199219,0.08468247205018997,0.7080023884773254
1788051839433650400,12.010650390625,9.78038215637207,0.1053512841463089,0.7095221281051636
1788051839449732000,12.026732177734376,9.77967643737793,0.14119884371757507,0.713010311126709
1788051839465786600,12.04278662109375,9.778743743896484,0.18422797322273254,0.7159703969955444
1788051839481849000,12.05884912109375,9.778194427490234,0.22713404893875122,0.7111315131187439
1788051839497837600,12.074837646484376,9.778388977050781,0.2647886276245117,0.6952568888664246
1788051839513886500,12.090886474609375,9.788684844970703,0.2384856790304184,0.5432931184768677
1788051839529962800,12.106962646484375,9.794410705566406,0.22460056841373444,0.4352669417858124
1788051839545979600,12.122979736328125,9.796012878417969,0.2296905517578125,0.3946736454963684
1788051839562052600,12.139052490234375,9.797662734985352,0.22850151360034943,0.35210874676704407
1788051839578064100,12.155064208984374,9.801298141479492,0.2061440646648407,0.24990397691726685
1788051839594126800,12.171126953125,9.804795265197754,0.16436819732189178,0.09680790454149246
1788051839610214400,12.18721435546875,9.80580997467041,0.11985986679792404,-0.04593132808804512
1788051839626234600,12.203234619140625,9.80478572845459,0.07177165150642395,-0.17723798751831055
1788051839642269200,12.219269287109375,9.802377700805664,0.0242250207811594,-0.28842300176620483
1788051839658287000,12.235287109375,9.799433708190918,-0.01990233175456524,-0.3756258189678192
1788051839674359300,12.251359375,9.796344757080078,-0.060587238520383835,-0.44534963369369507
1788051839690450200,12.2674501953125,9.79330062866211,-0.09546351432800293,-0.5025169253349304
1788051839706475500,12.2834755859375,9.79029369354248,-0.11986880749464035,-0.5533174872398376
1788051839722518800,12.299518798828124,9.7872953414917,-0.1306828260421753,-0.6018087267875671
1788051839738541600,12.31554150390625,9.787461280822754,-0.1207207590341568,-0.6011817455291748
1788051839754620000,12.331619873046876,9.787381172180176,-0.1027940958738327,-0.6058022379875183
1788051839770719200,12.34771923828125,9.78698444366455,-0.08289698511362076,-0.615179181098938
1788051839786754300,12.36375439453125,9.786535263061523,-0.06879176944494247,-0.6240022778511047
1788051839802799400,12.37979931640625,9.786551475524902,-0.07162735611200333,-0.6234369277954102
1788051839818831400,12.395831298828124,9.785360336303711,-0.08695371448993683,-0.6399551630020142
1788051839842944500,12.419944580078125,9.785375595092773,-0.12320852279663086,-0.6337307691574097
1788051839859010000,12.436010009765624,9.785941123962402,-0.15772473812103271,-0.6171456575393677
1788051839875066600,12.452066650390625,9.787145614624023,-0.1996857225894928,-0.5850583910942078
1788051839891122700,12.468122802734374,9.788803100585938,-0.25849318504333496,-0.5318877696990967
1788051839907154700,12.48415478515625,9.788126945495605,-0.3165069818496704,-0.512630045413971
1788051839923191000,12.50019091796875,9.78619384765625,-0.34966063499450684,-0.5277637839317322
1788051839939204900,12.516204833984375,9.784546852111816,-0.3431248664855957,-0.5615180134773254
1788051839955271200,12.532271240234374,9.782913208007812,-0.307392954826355,-0.6086975932121277
1788051839971339300,12.54833935546875,9.782305717468262,-0.2561640739440918,-0.6412931680679321
1788051839987394000,12.56439404296875,9.782758712768555,-0.20343440771102905,-0.653176486492157
1788051840003435300,12.580435302734376,9.78386116027832,-0.15865248441696167,-0.6490535736083984
1788051840019457300,12.596457275390625,9.78565788269043,-0.13266783952713013,-0.6274444460868835
1788051840035536000,12.612535888671875,9.788004875183105,-0.12450797855854034,-0.5914682149887085
1788051840051612700,12.62861279296875,9.79076099395752,-0.12737217545509338,-0.5433002710342407
1788051840067669800,12.644669677734376,9.793760299682617,-0.12975673377513885,-0.4856027364730835
1788051840083722500,12.660722412109376,9.796782493591309,-0.12586383521556854,-0.421407550573349
1788051840099745000,12.6767451171875,9.800294876098633,-0.09965062886476517,-0.33864009380340576
1788051840115779000,12.692779052734375,9.803574562072754,-0.05843934416770935,-0.23853719234466553
1788051840131816700,12.708816650390625,9.805651664733887,-0.023466922342777252,-0.13798709213733673
1788051840147878400,12.72487841796875,9.806556701660156,-0.0040132589638233185,-0.042585816234350204
1788051840163939000,12.74093896484375,9.806550025939941,-0.0006895206170156598,0.04434523731470108
1788051840179966200,12.75696630859375,9.805932998657227,-0.0055644153617322445,0.11847838014364243
1788051840196012300,12.77301220703125,9.8056640625,-0.027105974033474922,0.13639122247695923
1788051840212058600,12.78905859375,9.805673599243164,-0.0388844795525074,0.13282449543476105
1788051840228134400,12.805134521484375,9.805867195129395,-0.04119904711842537,0.11691087484359741
1788051840244203300,12.821203369140624,9.806131362915039,-0.036677081137895584,0.09393028914928436
1788051840260241000,12.837240966796875,9.806356430053711,-0.02884739078581333,0.07021612673997879
1788051840276304000,12.853303955078125,9.80642318725586,-0.01103300228714943,0.06580408662557602
1788051840292359200,12.869359130859374,9.806273460388184,0.013872234150767326,0.08476271480321884
1788051840308393700,12.885393798828124,9.805944442749023,0.03497790917754173,0.11232949793338776
1788051840324476000,12.901475830078125,9.805439949035645,0.0536644347012043,0.14440971612930298
1788051840340522200,12.917522216796876,9.804765701293945,0.0725959837436676,0.17800146341323853
1788051840356586200,12.933586181640624,9.803991317749023,0.09228789806365967,0.20884720981121063
1788051840372648000,12.94964794921875,9.803180694580078,0.11138175427913666,0.23587721586227417
1788051840388674800,12.9656748046875,9.802331924438477,0.1302366405725479,0.2601965665817261
1788051840404716500,12.981716552734374,9.801514625549316,0.1483336091041565,0.28051334619522095
1788051840420764700,12.9977646484375,9.800946235656738,0.16494283080101013,0.2909170091152191
1788051840436830500,13.01383056640625,9.800759315490723,0.17861822247505188,0.28912848234176636
1788051840452896500,13.029896484375,9.800950050354004,0.1884078085422516,0.27615606784820557
1788051840468909600,13.04590966796875,9.801301002502441,0.19579988718032837,0.2579532265663147
1788051840484955000,13.061954833984375,9.801593780517578,0.20221051573753357,0.24137365818023682
1788051840500986000,13.077986083984374,9.80169677734375,0.20803746581077576,0.23204126954078674
1788051840517019000,13.094018798828126,9.801580429077148,0.21464306116104126,0.230979323387146
1788051840533046300,13.11004638671875,9.801288604736328,0.21978329122066498,0.23838026821613312
1788051840549094400,13.126094482421875,9.800995826721191,0.22271692752838135,0.24753732979297638
1788051840565146000,13.14214599609375,9.800912857055664,0.22303612530231476,0.25053367018699646
1788051840581186000,13.15818603515625,9.801159858703613,0.22063444554805756,0.2428491711616516
1788051840597223400,13.174223388671875,9.801728248596191,0.21573768556118011,0.2235666811466217
1788051840613310000,13.19031005859375,9.802488327026367,0.20823895931243896,0.19556890428066254
1788051840629377500,13.20637744140625,9.8032865524292,0.200668603181839,0.1602724939584732
1788051840645432800,13.222432861328125,9.803930282592773,0.19687996804714203,0.12073059380054474
1788051840661487600,13.238487548828125,9.804306983947754,0.19881007075309753,0.08017151057720184
1788051840677535500,13.254535400390624,9.804368019104004,0.20623746514320374,0.0471002496778965
1788051840693584400,13.27058447265625,9.804226875305176,0.2164352834224701,0.02599189430475235
1788051840709655000,13.286655029296876,9.803942680358887,0.22959648072719574,0.019545895978808403
1788051840725725000,13.302724853515626,9.803608894348145,0.2426142543554306,0.027944503352046013
1788051840741790500,13.31879052734375,9.80319595336914,0.255829781293869,0.04780611768364906
1788051840757838000,13.334838134765626,9.802694320678711,0.2703913152217865,0.06685928255319595
1788051840773892900,13.350892822265624,9.802074432373047,0.2893262505531311,0.07755149900913239
1788051840789922800,13.3669228515625,9.80148696899414,0.308223158121109,0.07900584489107132
1788051840805997600,13.38299755859375,9.801140785217285,0.3188527226448059,0.07965915650129318
1788051840822015200,13.39901513671875,9.801047325134277,0.32152241468429565,0.0804564505815506
1788051840838076000,13.415075927734375,9.801156997680664,0.3179306089878082,0.08144381642341614
1788051840854134500,13.431134521484376,9.801342010498047,0.31163719296455383,0.08352396637201309
1788051840870169900,13.447169921875,9.801466941833496,0.3063439130783081,0.0881771594285965
1788051840886201000,13.463201171875,9.80153751373291,0.30248263478279114,0.09347610175609589
1788051840902220500,13.479220458984376,9.801660537719727,0.2967805862426758,0.09886258840560913
1788051840918286000,13.4952861328125,9.801921844482422,0.2854219079017639,0.10611627995967865
1788051840934362400,13.5113623046875,9.802351951599121,0.2661357522010803,0.11601448059082031
1788051840950403300,13.5274033203125,9.802875518798828,0.23872771859169006,0.13043752312660217
1788051840966439700,13.543439697265624,9.803351402282715,0.2070496380329132,0.1477375328540802
1788051840982457000,13.55945703125,9.803689002990723,0.1749352216720581,0.16571645438671112
1788051840998530800,13.57553076171875,9.80383586883545,0.14776532351970673,0.1826661378145218
1788051841014615600,13.591615478515624,9.80378246307373,0.12796176970005035,0.19964082539081573
1788051841030665700,13.607665771484376,9.803544998168945,0.11657311767339706,0.2175077646970749
1788051841046715100,13.623715087890625,9.803214073181152,0.1120530217885971,0.2341262698173523
1788051841062736000,13.63973583984375,9.802910804748535,0.1141621321439743,0.2455586940050125
1788051841078770000,13.65577001953125,9.802690505981445,0.12047363817691803,0.25127261877059937
1788051841094817800,13.67181787109375,9.802475929260254,0.12971699237823486,0.25498634576797485
1788051841110874600,13.68787451171875,9.802207946777344,0.14194820821285248,0.2587622106075287
1788051841126939400,13.703939453125,9.802020072937012,0.15391762554645538,0.25902828574180603
1788051841142971100,13.71997119140625,9.8021821975708,0.16226376593112946,0.24754004180431366
1788051841159014400,13.736014404296874,9.802848815917969,0.16359463334083557,0.2185925543308258
1788051841175060200,13.752060302734375,9.80373477935791,0.15822553634643555,0.17925424873828888
1788051841191184000,13.768183837890625,9.80448055267334,0.14908438920974731,0.1425272673368454
1788051841207255800,13.784255859375,9.804915428161621,0.14192120730876923,0.11775629222393036
1788051841223262700,13.8002626953125,9.805020332336426,0.14356356859207153,0.10648924857378006
1788051841239316000,13.81631591796875,9.804801940917969,0.1573539823293686,0.10716423392295837
1788051841255368400,13.832368408203125,9.804256439208984,0.18333986401557922,0.11547743529081345
1788051841271446500,13.848446533203125,9.803753852844238,0.20155693590641022,0.127170592546463
1788051841287520800,13.864520751953124,9.802919387817383,0.23336161673069,0.13674941658973694
1788051841303564000,13.88056396484375,9.801630020141602,0.27986225485801697,0.14185118675231934
1788051841319630800,13.896630859375,9.800159454345703,0.32869672775268555,0.13866043090820312
1788051841335703300,13.912703369140624,9.798376083374023,0.3821292817592621,0.1272864192724228
1788051841351737300,13.9287373046875,9.796038627624512,0.4424048662185669,0.11085410416126251
1788051841367768800,13.944768798828125,9.792802810668945,0.5129885673522949,0.0908096432685852
1788051841383826200,13.960826171875,9.788595199584961,0.5908257365226746,0.06868638098239899
1788051841399899400,13.9768994140625,9.783544540405273,0.6712862253189087,0.04498317837715149
1788051841415978000,13.99297802734375,9.777543067932129,0.754738450050354,0.01995062828063965
1788051841432027100,14.009027099609375,9.770193099975586,0.8447996377944946,-0.005488094408065081
1788051841448070100,14.025070068359375,9.761433601379395,0.9401374459266663,-0.03089013695716858
1788051841464112000,14.041112060546874,9.75236701965332,1.0289080142974854,-0.05543623864650726
1788051841480147000,14.05714697265625,9.74424934387207,1.1019190549850464,-0.07594726234674454
1788051841496182500,14.0731826171875,9.73739242553711,1.1597082614898682,-0.09302636981010437
1788051841512244000,14.089243896484374,9.732139587402344,1.201756238937378,-0.10786113142967224
1788051841528298000,14.105298095703125,9.728360176086426,1.2306954860687256,-0.12160494178533554
1788051841544352800,14.121352783203125,9.723994255065918,1.2629481554031372,-0.1388847827911377
1788051841560389400,14.137389404296876,9.718132019042969,1.3049707412719727,-0.15921540558338165
1788051841576440000,14.153440185546875,9.71009635925293,1.3610451221466064,-0.17880874872207642
1788051841592499000,14.1694990234375,9.697834014892578,1.4442551136016846,-0.19112278521060944
1788051841608558600,14.18555859375,9.680431365966797,1.5558605194091797,-0.19732965528964996
1788051841624614100,14.2016142578125,9.656693458557129,1.6960862874984741,-0.2048199474811554
1788051841640660200,14.21766015625,9.628217697143555,1.8487664461135864,-0.22331571578979492
1788051841656699000,14.233698974609375,9.600447654724121,1.985332727432251,-0.24544748663902283
1788051841672753700,14.249753662109375,9.580367088317871,2.077183723449707,-0.26881054043769836
1788051841688822000,14.265822021484375,9.575417518615723,2.0979092121124268,-0.28379249572753906
1788051841704887000,14.281886962890624,9.585588455200195,2.051429033279419,-0.2802131175994873
1788051841720937000,14.29793701171875,9.598926544189453,1.9902278184890747,-0.2645723521709442
1788051841737035300,14.31403515625,9.605852127075195,1.9586400985717773,-0.24842385947704315
1788051841753114400,14.3301142578125,9.601079940795898,1.9822747707366943,-0.2454351931810379
1788051841769182200,14.34618212890625,9.586560249328613,2.050426483154297,-0.2529745399951935
1788051841785231000,14.362231201171875,9.565694808959961,2.144559383392334,-0.2621690034866333
1788051841801290000,14.3782900390625,9.544838905334473,2.2344343662261963,-0.2715732157230377
1788051841817348000,14.39434814453125,9.525835990905762,2.3125922679901123,-0.2841763496398926
1788051841833389000,14.41038916015625,9.508726119995117,2.380749225616455,-0.2941901385784149
1788051841849468000,14.426468017578125,9.497735977172852,2.4243195056915283,-0.2934025526046753
1788051841865493000,14.442492919921875,9.492148399353027,2.4470856189727783,-0.28510597348213196
1788051841881559600,14.4585595703125,9.489567756652832,2.458491325378418,-0.2726101577281952
1788051841897633300,14.47463330078125,9.489585876464844,2.4607045650482178,-0.25117677450180054
1788051841913677300,14.49067724609375,9.491495132446289,2.456753730773926,-0.2151028960943222
1788051841929721300,14.506721435546876,9.49351978302002,2.452275514602661,-0.1726541668176651
1788051841945748000,14.522748046875,9.493778228759766,2.4538605213165283,-0.1308746039867401
1788051841961828000,14.538828125,9.489965438842773,2.470499038696289,-0.0870966836810112
1788051841977910800,14.554910888671875,9.488456726074219,2.4770848751068115,-0.06016520410776138
1788051841993959700,14.570959716796875,9.471834182739258,2.5404269695281982,-0.03122578002512455
1788051842010006300,14.58700634765625,9.450861930847168,2.617523193359375,-0.013335282914340496
1788051842026029600,14.603029541015625,9.428156852722168,2.6981914043426514,0.0025944369845092297
1788051842042115000,14.619114990234374,9.404520988464355,2.779391288757324,0.019126176834106445
1788051842058153000,14.635153076171875,9.381290435791016,2.8567373752593994,0.02879628911614418
1788051842074211800,14.6512119140625,9.355602264404297,2.93977689743042,0.02844780497252941
1788051842090265600,14.667265625,9.324058532714844,3.0383191108703613,0.030472952872514725
1788051842106287900,14.683287841796876,9.289055824279785,3.1436119079589844,0.03927643597126007
1788051842122325800,14.69932568359375,9.254993438720703,3.242326021194458,0.05299589782953262
1788051842138375700,14.715375732421874,9.22395133972168,3.3293745517730713,0.06606785207986832
1788051842154444500,14.731444580078126,9.196609497070312,3.4039037227630615,0.07869315892457962
1788051842170519300,14.747519287109375,9.170920372009277,3.4723870754241943,0.08452171832323074
1788051842186554000,14.76355419921875,9.140070915222168,3.5527021884918213,0.08824585378170013
1788051842202606600,14.779606689453125,9.101166725158691,3.6508896350860596,0.10077735036611557
1788051842218678000,14.795677978515625,9.047143936157227,3.7816848754882812,0.13577596843242645
1788051842234743300,14.811743408203125,8.984108924865723,3.927541971206665,0.17489077150821686
1788051842250799600,14.827799560546875,8.908357620239258,4.095437526702881,0.19735783338546753
1788051842266795300,14.843795166015624,8.818259239196777,4.285859107971191,0.2002679407596588
1788051842282855000,14.85985498046875,8.718526840209961,4.485855579376221,0.18648718297481537
1788051842298912800,14.875912841796875,8.614677429199219,4.683172702789307,0.1600342094898224
1788051842314941000,14.89194091796875,8.517178535461426,4.858930587768555,0.13730865716934204
1788051842331012900,14.908012939453124,8.437353134155273,4.996070384979248,0.14401493966579437
1788051842347055400,14.924055419921874,8.371731758117676,5.1040802001953125,0.18131357431411743
1788051842363128800,14.94012890625,8.301549911499023,5.2151336669921875,0.2387951761484146
1788051842379240200,14.956240234375,8.207412719726562,5.358925819396973,0.3011256754398346
1788051842395274000,14.97227392578125,8.076374053955078,5.551573753356934,0.3501458466053009
1788051842411348500,14.988348388671875,7.917318344116211,5.774163246154785,0.381440132856369
1788051842427371000,15.00437109375,7.74857759475708,5.997812747955322,0.3952009677886963
1788051842443455000,15.020455078125,7.595308303833008,6.1906304359436035,0.39720484614372253
1788051842459501800,15.036501708984375,7.450857162475586,6.363703727722168,0.39797115325927734
1788051842475562000,15.05256201171875,7.3098931312561035,6.5243821144104,0.41023340821266174
1788051842491605500,15.06860546875,7.176896572113037,6.668473720550537,0.44045931100845337
1788051842507653400,15.0846533203125,7.051753520965576,6.797859191894531,0.4819527864456177
1788051842523684000,15.10068408203125,6.936371326446533,6.9119977951049805,0.5305138230323792
1788051842539727600,15.1167275390625,6.831974029541016,7.011553764343262,0.5767526030540466
1788051842555789300,15.132789306640625,6.746516704559326,7.091015338897705,0.6102584004402161
1788051842571853800,15.148853759765625,6.688011169433594,7.144838333129883,0.6262298822402954
1788051842587894300,15.164894287109375,6.666201591491699,7.1657280921936035,0.6200725436210632
1788051842603942700,15.180942626953126,6.686885356903076,7.148652076721191,0.5939160585403442
1788051842620001800,15.197001708984375,6.735379219055176,7.106522560119629,0.5499009490013123
1788051842636076300,15.213076171875,6.794540882110596,7.054392337799072,0.4900570213794708
1788051842652144600,15.22914453125,6.845547199249268,7.009553909301758,0.41837212443351746
1788051842668167000,15.2451669921875,6.881763458251953,6.978274345397949,0.33972296118736267
1788051842684232400,15.261232421875,6.910062313079834,6.953387260437012,0.2679983079433441
1788051842700312300,15.277312255859375,6.9362640380859375,6.9293084144592285,0.20815248787403107
1788051842716348200,15.29334814453125,6.958461284637451,6.908260822296143,0.16166195273399353
1788051842732383700,15.3093837890625,6.974005222320557,6.893359184265137,0.12343641370534897
1788051842748362200,15.3253623046875,6.985580921173096,6.882125377655029,0.09166180342435837
1788051842764426000,15.341426025390625,6.99635124206543,6.871462345123291,0.06681903451681137
1788051842780506400,15.35750634765625,7.005527496337891,6.862268924713135,0.04739595949649811
1788051842796553700,15.3735537109375,7.011585235595703,6.856176853179932,0.03017696551978588
1788051842812600800,15.389600830078125,7.014393329620361,6.853357791900635,0.012428397312760353
1788051842828581000,15.4055810546875,7.015619277954102,6.852111339569092,-0.00658800033852458
1788051842844657200,15.4216572265625,7.014313697814941,6.85339879989624,-0.026823125779628754
1788051842860742400,15.437742431640626,7.010223865509033,6.857472896575928,-0.047100190073251724
1788051842876794400,15.45379443359375,7.006441116333008,6.861218452453613,-0.06204890087246895
1788051842892844300,15.46984423828125,7.005573749542236,6.86210298538208,-0.06224120780825615
1788051842908816400,15.48581640625,7.004281044006348,6.863513469696045,-0.05118687450885773
1788051842924851500,15.5018515625,6.999178409576416,6.868790626525879,-0.04004720225930214
1788051842940892200,15.51789208984375,6.985869407653809,6.882330894470215,-0.03925751522183418
1788051842956954400,15.533954345703124,6.962095260620117,6.906251430511475,-0.057585638016462326
1788051842973014800,15.550014892578124,6.928531646728516,6.939525127410889,-0.09398951381444931
1788051842989033200,15.566033203125,6.903365612030029,6.9639458656311035,-0.13187339901924133
1788051843005075200,15.5820751953125,6.900712966918945,6.965920925140381,-0.16280381381511688
1788051843021113300,15.59811328125,6.9307661056518555,6.935235500335693,-0.1933465451002121
1788051843037174300,15.61417431640625,6.995004177093506,6.8695454597473145,-0.22280864417552948
1788051843053228500,15.630228515625,7.081590175628662,6.779296875,-0.2502206861972809
1788051843069239300,15.6462392578125,7.171288013458252,6.68351411819458,-0.27140623331069946
1788051843085283600,15.66228369140625,7.238345146179199,6.6100945472717285,-0.2887834906578064
1788051843101363700,15.67836376953125,7.270064830780029,6.574158191680908,-0.3114456832408905
1788051843117431600,15.694431640625,7.267355918884277,6.576061725616455,-0.3336595594882965
1788051843133479200,15.710479248046875,7.243293762207031,6.602373123168945,-0.3372800946235657
1788051843149504500,15.72650439453125,7.222254753112793,6.625904560089111,-0.3268219828605652
1788051843165564700,15.742564697265625,7.214531898498535,6.6353068351745605,-0.30597925186157227
1788051843181630200,15.758630126953125,7.220297336578369,6.6306633949279785,-0.2683206796646118
1788051843197668000,15.774668212890624,7.236095905303955,6.615204811096191,-0.21992285549640656
1788051843213705700,15.790705810546875,7.257047653198242,6.593714714050293,-0.16905994713306427
1788051843229715700,15.8067158203125,7.281076431274414,6.568211078643799,-0.12214023619890213
1788051843245789000,15.822788818359374,7.309236526489258,6.537454128265381,-0.08450111746788025
1788051843261874400,15.83887451171875,7.351974964141846,6.489633560180664,-0.05927928909659386
1788051843277917400,15.85491748046875,7.40957498550415,6.423916816711426,-0.043475862592458725
1788051843293964800,15.87096484375,7.452040672302246,6.374678134918213,-0.031107086688280106
1788051843309965800,15.8869658203125,7.5139594078063965,6.301623821258545,-0.018628127872943878
1788051843326049500,15.903049560546876,7.565707683563232,6.239426612854004,-0.002414367627352476
1788051843342137300,15.919137451171874,7.602461814880371,6.19455623626709,0.0210034791380167
1788051843358193200,15.935193115234375,7.627533912658691,6.163486480712891,0.050477996468544006
1788051843374248400,15.95124853515625,7.649878978729248,6.135380268096924,0.08279489725828171
1788051843390259500,15.967259521484374,7.677732944488525,6.09993314743042,0.11667948216199875
1788051843406294500,15.98329443359375,7.711333274841309,6.056651592254639,0.15069471299648285
1788051843422337300,15.999337158203126,7.745275020599365,6.0123515129089355,0.18093042075634003
1788051843438395400,16.0153955078125,7.776854991912842,5.970564842224121,0.20801614224910736
1788051843454460000,16.0314599609375,7.807127952575684,5.930080890655518,0.2308317869901657
1788051843470464000,16.047464111328125,7.8369526863098145,5.889791011810303,0.2508487403392792
1788051843486516000,16.063515869140623,7.862913608551025,5.854337692260742,0.26778629422187805
1788051843502577400,16.079577392578123,7.8808207511901855,5.829311847686768,0.286674827337265
1788051843518648600,16.095648681640625,7.889989852905273,5.815778732299805,0.30847880244255066
1788051843534728700,16.111728759765626,7.889974117279053,5.814731597900391,0.3280259370803833
1788051843550710800,16.127710693359376,7.8836870193481445,5.822145462036133,0.3471158444881439
1788051843566766800,16.143766845703126,7.875108242034912,5.832268238067627,0.37110286951065063
1788051843582829300,16.159829345703123,7.8672895431518555,5.84112548828125,0.39674893021583557
1788051843598910500,16.175910400390624,7.861311435699463,5.8477559089660645,0.41703489422798157
1788051843614944800,16.19194482421875,7.856766223907471,5.852929592132568,0.42991337180137634
1788051843630974700,16.207974609375,7.852337837219238,5.858534336090088,0.4344610869884491
1788051843647041000,16.224041015625,7.85072135925293,5.860526084899902,0.4368073642253876
1788051843663108000,16.240108154296873,7.8615031242370605,5.844590187072754,0.45599108934402466
1788051843679144700,16.256144775390624,7.890454292297363,5.802194118499756,0.49564725160598755
1788051843695206100,16.2722060546875,7.928294658660889,5.745614528656006,0.5481281280517578
1788051843711212300,16.28821240234375,7.964327812194824,5.690940856933594,0.5941972136497498
1788051843727277800,16.30427783203125,7.989439487457275,5.654011249542236,0.6094233989715576
1788051843743383800,16.3203837890625,7.996514320373535,5.646651268005371,0.5843607187271118
1788051843759427600,16.336427490234374,7.985291004180908,5.667642593383789,0.5322996973991394
1788051843775470000,16.352469970703126,7.958835601806641,5.709754943847656,0.4754225015640259
1788051843791490000,16.368489990234377,7.923347473144531,5.762028694152832,0.4358687698841095
1788051843807569400,16.3845693359375,7.881923198699951,5.819189071655273,0.4274475574493408
1788051843823662600,16.40066259765625,7.833556652069092,5.8819098472595215,0.45708268880844116
1788051843839722200,16.41672216796875,7.780797958374023,5.946784973144531,0.5150929689407349
1788051843855767800,16.432767822265625,7.7238593101501465,6.013375282287598,0.5930489301681519
1788051843871748400,16.448748291015626,7.6621317863464355,6.082241535186768,0.6844491362571716
1788051843887830000,16.464830078125,7.597550868988037,6.151806354522705,0.7764564156532288
1788051843903870200,16.4808701171875,7.534370422363281,6.218705177307129,0.8551983833312988
1788051843919928300,16.49692822265625,7.479219436645508,6.278194427490234,0.9032944440841675
1788051843935988200,16.51298828125,7.441521644592285,6.322229862213135,0.907501220703125
1788051843951967500,16.528967529296875,7.4207587242126465,6.351341724395752,0.8736096024513245
1788051843968007400,16.54500732421875,7.40712833404541,6.375550270080566,0.8106738328933716
1788051843984059400,16.561059326171875,7.380467414855957,6.417205810546875,0.7201173901557922
1788051844000123400,16.577123291015624,7.327563762664795,6.4885029792785645,0.6136226058006287
1788051844016190200,16.593190185546874,7.243829727172852,6.590755462646484,0.5091744065284729
1788051844032176000,16.609176025390624,7.130264759063721,6.71987771987915,0.4158877730369568
1788051844048225000,16.62522509765625,6.9979376792907715,6.8618645668029785,0.33774566650390625
1788051844064268500,16.6412685546875,6.850951671600342,7.01129150390625,0.27685704827308655
1788051844080334300,16.657334228515627,6.692881107330322,7.163888931274414,0.23330460488796234
1788051844096400400,16.673400390625,6.519242763519287,7.323466777801514,0.19161854684352875
1788051844112436200,16.689436279296874,6.337030410766602,7.48272180557251,0.14596563577651978
1788051844128495600,16.70549560546875,6.164212703704834,7.626463413238525,0.09961655735969543
1788051844144559600,16.7215595703125,6.007230758666992,7.751139163970947,0.05828560143709183
1788051844160595000,16.737594970703125,5.856437683105469,7.865891933441162,0.016818156465888023
1788051844176629200,16.753629150390626,5.697088718414307,7.981988906860352,-0.03774784132838249
1788051844192682800,16.769682861328125,5.5162882804870605,8.107396125793457,-0.10526157915592194
1788051844208753400,16.78575341796875,5.3148651123046875,8.239500999450684,-0.1822746843099594
1788051844224823300,16.8018232421875,5.103871822357178,8.369873046875,-0.25713205337524414
1788051844240861700,16.81786181640625,4.908989906311035,8.483980178833008,-0.30705752968788147
1788051844256900900,16.83390087890625,4.731130123138428,8.583601951599121,-0.329540878534317
1788051844272936400,16.8499365234375,4.569124221801758,8.670785903930664,-0.3331044316291809
1788051844289019000,16.866018798828126,4.431586265563965,8.742435455322266,-0.318255215883255
1788051844305106000,16.88210595703125,4.314566135406494,8.801732063293457,-0.29057109355926514
1788051844321153000,16.898153076171877,4.196232795715332,8.859367370605469,-0.27136868238449097
1788051844337207800,16.914207763671875,4.062008857727051,8.921737670898438,-0.2703346610069275
1788051844353209300,16.930209228515626,3.9159135818481445,8.986557006835938,-0.2789247930049896
1788051844369240800,16.94624072265625,3.789764404296875,9.040533065795898,-0.2771957814693451
1788051844385294300,16.96229443359375,3.6992506980895996,9.078577041625977,-0.2557324171066284
1788051844401349400,16.978349365234376,3.6304755210876465,9.107154846191406,-0.22309038043022156
1788051844417414100,16.9944140625,3.5650739669799805,9.133768081665039,-0.18682606518268585
1788051844433466000,17.010466064453126,3.500744342803955,9.159350395202637,-0.14648674428462982
1788051844449512700,17.0265126953125,3.4450130462646484,9.181035995483398,-0.10428542643785477
1788051844465563600,17.042563720703125,3.409510612487793,9.194689750671387,-0.057332828640937805
1788051844481642500,17.058642578125,3.38964581489563,9.202205657958984,-0.010878536850214005
1788051844497720600,17.074720458984373,3.371782064437866,9.208727836608887,0.028385551646351814
1788051844513783000,17.090782958984374,3.3404414653778076,9.220030784606934,0.05357026308774948
1788051844529837000,17.106837158203124,3.324040412902832,9.225903511047363,0.062186699360609055
1788051844545890800,17.122890869140626,3.290174961090088,9.237931251525879,0.07590396702289581
1788051844561968400,17.138968505859374,3.262953042984009,9.247438430786133,0.09169775247573853
1788051844578043000,17.15504296875,3.249699831008911,9.251890182495117,0.1112125962972641
1788051844594020600,17.1710205078125,3.2602505683898926,9.247859954833984,0.13508768379688263
1788051844610081300,17.187081298828126,3.2905502319335938,9.236717224121094,0.16036534309387207
1788051844626157600,17.203157470703125,3.336266279220581,9.219802856445312,0.18699614703655243
1788051844642186200,17.219186279296874,3.385833740234375,9.20113468170166,0.21367928385734558
1788051844658217000,17.235217041015623,3.4325878620147705,9.183119773864746,0.24093963205814362
1788051844674234000,17.251234130859373,3.4788358211517334,9.164690017700195,0.2766854763031006
1788051844690302200,17.26730224609375,3.5194091796875,9.14783000946045,0.31835195422172546
1788051844706385200,17.28338525390625,3.545876979827881,9.136075973510742,0.3595525622367859
1788051844722434000,17.29943408203125,3.556138038635254,9.13080883026123,0.3906733989715576
1788051844738470100,17.31547021484375,3.5678765773773193,9.124773979187012,0.4232447147369385
1788051844754484500,17.331484375,3.5825815200805664,9.117452621459961,0.4555836617946625
1788051844770566100,17.347566162109374,3.599661111831665,9.109368324279785,0.4819163978099823
1788051844786609000,17.36360888671875,3.6197898387908936,9.100133895874023,0.5050634741783142
1788051844802659300,17.379659423828127,3.6395716667175293,9.090856552124023,0.5293640494346619
1788051844818720000,17.395719970703126,3.6554324626922607,9.083062171936035,0.5533359050750732
1788051844834700500,17.411700439453124,3.666879415512085,9.076909065246582,0.5780112147331238
1788051844850745900,17.427745849609376,3.680211305618286,9.070121765136719,0.5994275212287903
1788051844866794800,17.443794677734374,3.6889796257019043,9.065223693847656,0.6193164587020874
1788051844882860000,17.459860107421875,3.6849446296691895,9.065638542175293,0.6369938254356384
1788051844898926800,17.4759267578125,3.670419454574585,9.07060718536377,0.6499924659729004
1788051844914912500,17.49191259765625,3.6490676403045654,9.078682899475098,0.65743488073349
1788051844930983200,17.507983154296873,3.6261961460113525,9.087447166442871,0.6628761887550354
1788051844947038000,17.524037841796876,3.6049575805664062,9.096778869628906,0.6506161093711853
1788051844963110000,17.54010986328125,3.5835773944854736,9.105932235717773,0.6405977010726929
1788051844979182600,17.5561826171875,3.562570571899414,9.114757537841797,0.632209837436676
1788051844995174700,17.572174560546873,3.5432848930358887,9.122905731201172,0.6229989528656006
1788051845011233300,17.5882333984375,3.5206499099731445,9.132501602172852,0.6105796098709106
1788051845027295000,17.604294921875,3.493865728378296,9.143797874450684,0.5952063798904419
1788051845043377700,17.620377685546874,3.4819936752319336,9.148831367492676,0.5873597264289856
1788051845059444200,17.6364443359375,3.504180669784546,9.1395845413208,0.599275529384613
1788051845075438300,17.652438232421876,3.558830499649048,9.117227554321289,0.6174784302711487
1788051845091500000,17.6685,3.631558895111084,9.08814811706543,0.6226780414581299
1788051845107572000,17.684572021484374,3.698641300201416,9.062151908874512,0.6065192222595215
1788051845123604700,17.700604736328124,3.7359910011291504,9.049786567687988,0.5604632496833801
1788051845139678500,17.716678466796875,3.7424588203430176,9.051029205322266,0.4932447075843811
1788051845155725800,17.732725830078124,3.7305550575256348,9.059357643127441,0.4259086549282074
1788051845171788500,17.74878857421875,3.708526849746704,9.070638656616211,0.37514615058898926
1788051845187858700,17.764858642578126,3.6737961769104004,9.085962295532227,0.344838410615921
1788051845203893500,17.7808935546875,3.6269168853759766,9.105180740356445,0.3339768052101135
1788051845219933400,17.796933349609375,3.5732808113098145,9.12621784210205,0.3379290699958801
1788051845235971800,17.812971923828126,3.52333664894104,9.14503288269043,0.35334494709968567
1788051845252060000,17.829059814453124,3.488485097885132,9.157346725463867,0.37930092215538025
1788051845268150500,17.845150634765623,3.4742112159729004,9.161189079284668,0.41575464606285095
1788051845284204000,17.8612041015625,3.486704111099243,9.154468536376953,0.45716392993927
1788051845300258300,17.87725830078125,3.522520065307617,9.138949394226074,0.49179744720458984
1788051845316302000,17.893302001953124,3.578247308731079,9.116846084594727,0.4996618926525116
1788051845332339700,17.909339599609375,3.642148971557617,9.092840194702148,0.4747700095176697
1788051845348377300,17.92537744140625,3.7026703357696533,9.071148872375488,0.4181850850582123
1788051845364443400,17.941443359375,3.7475621700286865,9.055954933166504,0.3403761684894562
1788051845380506600,17.957506591796875,3.7768964767456055,9.046509742736816,0.2571256160736084
1788051845396562700,17.973562744140626,3.7933754920959473,9.04145622253418,0.18102584779262543
1788051845412610000,17.989610107421875,3.800995349884033,9.039247512817383,0.12177724391222
1788051845428669400,18.00566943359375,3.8047406673431396,9.038101196289062,0.08421937376260757
1788051845444750000,18.02175,3.8082144260406494,9.036752700805664,0.07070581614971161
1788051845460828400,18.037828369140627,3.815659523010254,9.03360366821289,0.07178746908903122
1788051845476857600,18.053857666015624,3.8315658569335938,9.026782989501953,0.08167758584022522
1788051845492921000,18.069921142578124,3.855599880218506,9.016435623168945,0.09295126050710678
1788051845508994300,18.085994384765623,3.8876633644104004,9.002571105957031,0.10092062503099442
1788051845525030400,18.102030517578125,3.9256694316864014,8.986058235168457,0.10132628679275513
1788051845541105400,18.11810546875,3.975503444671631,8.964168548583984,0.09718494862318039
1788051845557123000,18.134123046875,4.031732082366943,8.93911361694336,0.08822481334209442
1788051845573185000,18.15018505859375,4.0538249015808105,8.929370880126953,0.05692337453365326
1788051845589261300,18.16626123046875,4.037436008453369,8.936972618103027,0.004306757356971502
1788051845605309400,18.182309326171875,4.003881454467773,8.951904296875,-0.05243570730090141
1788051845621350100,18.19835009765625,3.9620985984802246,8.970026969909668,-0.10391221195459366
1788051845637371000,18.214370849609374,3.9183192253112793,8.988741874694824,-0.14037585258483887
1788051845653438700,18.230438720703123,3.8763527870178223,9.006591796875,-0.15993629395961761
1788051845669521000,18.24652099609375,3.8357551097869873,9.023839950561523,-0.16635960340499878
1788051845685565400,18.2625654296875,3.7920284271240234,9.042317390441895,-0.16557283699512482
1788051845701611500,18.278611572265625,3.7516398429870605,9.059226989746094,-0.1612374484539032
1788051845717589000,18.294589111328126,3.7304632663726807,9.06810474395752,-0.15331190824508667
1788051845733668600,18.310668701171874,3.7487611770629883,9.060769081115723,-0.14016863703727722
1788051845749700900,18.326700927734375,3.7917752265930176,9.04304027557373,-0.1274137943983078
1788051845765745200,18.3427451171875,3.839747667312622,9.022911071777344,-0.11749211698770523
1788051845781784600,18.35878466796875,3.8691697120666504,9.010379791259766,-0.11394201964139938
1788051845797798000,18.3747978515625,3.8693203926086426,9.010257720947266,-0.11833587288856506
1788051845813878000,18.3908779296875,3.8512837886810303,9.017919540405273,-0.123040109872818
1788051845829923800,18.406923828125,3.8303067684173584,9.026823997497559,-0.1248869001865387
1788051845845985800,18.42298583984375,3.8153514862060547,9.033174514770508,-0.12350626289844513
1788051845862033400,18.439033447265626,3.8055036067962646,9.03742504119873,-0.11611732095479965
1788051845878008800,18.4550087890625,3.8074190616607666,9.036725044250488,-0.10743775218725204
1788051845894053000,18.47105322265625,3.805180311203003,9.037822723388672,-0.0936553105711937
1788051845910104800,18.487104736328124,3.780162811279297,9.048495292663574,-0.07422317564487457
1788051845926173700,18.503173583984374,3.746161699295044,9.062747955322266,-0.05702829360961914
1788051845942243000,18.5192431640625,3.7171289920806885,9.074766159057617,-0.044298283755779266
1788051845958277400,18.53527734375,3.6998157501220703,9.081887245178223,-0.03261252120137215
1788051845974327800,18.551327880859375,3.698941707611084,9.082281112670898,-0.020414426922798157
1788051845990390000,18.56739013671875,3.714836835861206,9.075807571411133,-0.009158289059996605
1788051846006473500,18.583473388671877,3.749650716781616,9.061485290527344,-0.002813888480886817
1788051846022543000,18.599543212890627,3.79826021194458,9.041214942932129,-0.005748772993683815
1788051846038578700,18.61557861328125,3.8549084663391113,9.017192840576172,-0.017526011914014816
1788051846054642000,18.631641845703125,3.9088733196258545,8.993886947631836,-0.03346329554915428
1788051846070711000,18.6477109375,4.024111747741699,8.942808151245117,-0.055712826550006866
1788051846086745600,18.66374560546875,4.120593547821045,8.898594856262207,-0.07812485843896866
1788051846102779400,18.679779296875,4.173593521118164,8.87374496459961,-0.09028671681880951
1788051846118823000,18.695822998046875,4.191532611846924,8.865312576293945,-0.08776216208934784
1788051846134890800,18.711890869140625,4.207186222076416,8.85798168182373,-0.07829495519399643
1788051846150965800,18.7279658203125,4.221511363983154,8.851280212402344,-0.06380319595336914
1788051846167038000,18.744037841796874,4.2333760261535645,8.845721244812012,-0.04613952711224556
1788051846183085800,18.7600859375,4.242282867431641,8.841534614562988,-0.02670242078602314
1788051846199081000,18.7760810546875,4.251368045806885,8.837202072143555,-0.011888590641319752
1788051846215114500,18.792114501953126,4.259241104125977,8.833416938781738,0.002746960613876581
1788051846231152000,18.808152099609377,4.268871307373047,8.828754425048828,0.015627777203917503
1788051846247206100,18.8242060546875,4.281304836273193,8.82270336151123,0.02713175304234028
1788051846263271000,18.84027099609375,4.29500675201416,8.816004753112793,0.03730389475822449
1788051846279327500,18.856327392578127,4.307700157165527,8.809765815734863,0.046150051057338715
1788051846295359500,18.872359375,4.318807125091553,8.804306030273438,0.04978109896183014
1788051846311402500,18.888402587890624,4.33052396774292,8.79857063293457,0.04604162275791168
1788051846327464400,18.90446435546875,4.341423988342285,8.793259620666504,0.031654492020606995
1788051846343538000,18.920537841796875,4.345789909362793,8.791156768798828,0.007533610332757235
1788051846359555000,18.93655517578125,4.335689544677734,8.796112060546875,-0.024267595261335373
1788051846375604000,18.95260400390625,4.313894271850586,8.806648254394531,-0.06048135831952095
1788051846391650300,18.968650390625,4.27282190322876,8.826251983642578,-0.10320055484771729
1788051846407723300,18.98472314453125,4.231504440307617,8.845636367797852,-0.13961626589298248
1788051846423797200,19.00079736328125,4.206225872039795,8.857290267944336,-0.1626274436712265
1788051846439821000,19.016821044921876,4.199592113494873,8.860248565673828,-0.1726931929588318
1788051846455884800,19.032884765625,4.223148822784424,8.849040985107422,-0.1728667914867401
1788051846471942700,19.048942626953124,4.249416828155518,8.836462020874023,-0.1725970357656479
1788051846487983400,19.0649833984375,4.267655372619629,8.827632904052734,-0.17437954246997833
1788051846504013600,19.081013671875,4.271649360656738,8.825628280639648,-0.17803221940994263
1788051846519993600,19.09699365234375,4.258153915405273,8.832084655761719,-0.18111616373062134
1788051846536054800,19.1130546875,4.236263751983643,8.842220306396484,-0.1989455372095108
1788051846552116200,19.1291162109375,4.215972423553467,8.851617813110352,-0.21176819503307343
1788051846568152600,19.145152587890625,4.187435626983643,8.865222930908203,-0.2088341861963272
1788051846584181500,19.161181396484373,4.146385192871094,8.884915351867676,-0.19014205038547516
1788051846600161500,19.17716162109375,4.105047702789307,8.904640197753906,-0.16238953173160553
1788051846616238000,19.193238037109374,4.101582050323486,8.906850814819336,-0.12419132143259048
1788051846632325400,19.209325439453124,4.105928421020508,8.905349731445312,-0.08061287552118301
1788051846648378600,19.225378662109375,4.1177077293396,8.900188446044922,-0.0387333445250988
1788051846664430000,19.24143017578125,4.116910457611084,8.900641441345215,0.0042933132499456406
1788051846680445400,19.257445556640626,4.137068748474121,8.89117431640625,0.04556026682257652
1788051846696478700,19.273478759765624,4.156627178192139,8.881753921508789,0.08542495220899582
1788051846712514800,19.289514892578126,4.173421382904053,8.873405456542969,0.12511135637760162
1788051846728574700,19.30557470703125,4.178923606872559,8.870172500610352,0.16436521708965302
1788051846744634400,19.32163427734375,4.171535491943359,8.872943878173828,0.1988394409418106
1788051846760651500,19.337651611328123,4.162504196166992,8.876457214355469,0.22901245951652527
1788051846776687900,19.35368798828125,4.154567241668701,8.879526138305664,0.25291678309440613
1788051846792774700,19.369774658203124,4.148082733154297,8.881969451904297,0.2727738618850708
1788051846808832300,19.385832275390626,4.14372444152832,8.883529663085938,0.28785452246665955
1788051846824894500,19.40189453125,4.143451690673828,8.883389472961426,0.29598551988601685
1788051846840876800,19.417876708984377,4.147862434387207,8.881234169006348,0.2988710105419159
1788051846856926000,19.433926025390626,4.151366233825684,8.879611015319824,0.2984355390071869
1788051846872980200,19.449980224609376,4.14840030670166,8.881221771240234,0.2916431128978729
1788051846889060900,19.466060791015625,4.14047908782959,8.885465621948242,0.2744689881801605
1788051846905141800,19.482141845703126,4.1372270584106445,8.88764762878418,0.2519780397415161
1788051846921130500,19.498130615234373,4.138779640197754,8.8875732421875,0.22788551449775696
1788051846937184500,19.5141845703125,4.139854907989502,8.88720417022705,0.22272944450378418
1788051846953240800,19.53024072265625,4.132953643798828,8.890544891357422,0.21747517585754395
1788051846969275400,19.546275390625,4.123359203338623,8.89564037322998,0.18949002027511597
1788051846985310700,19.562310791015626,4.09945011138916,8.907038688659668,0.17194238305091858
1788051847001305600,19.5783056640625,4.06372594833374,8.923547744750977,0.16375058889389038
1788051847017372400,19.594372314453125,4.025904178619385,8.940886497497559,0.15178045630455017
1788051847033438200,19.610438232421874,3.9893906116485596,8.957523345947266,0.133924201130867
1788051847049457400,19.62645751953125,3.9578936100006104,8.971831321716309,0.10814239829778671
1788051847065496600,19.64249658203125,3.9310548305511475,8.983976364135742,0.07345686852931976
1788051847081500000,19.6585,3.9066784381866455,8.994839668273926,0.03330576419830322
1788051847097569300,19.6745693359375,3.8861727714538574,9.003774642944336,-0.009527998976409435
1788051847113644800,19.690644775390624,3.870612859725952,9.010303497314453,-0.056225161999464035
1788051847129693200,19.706693115234376,3.8593204021453857,9.014686584472656,-0.10706482827663422
1788051847145744100,19.722744140625,3.8506250381469727,9.017607688903809,-0.16072598099708557
1788051847161739500,19.738739501953123,3.842419385910034,9.02001667022705,-0.21336306631565094
1788051847177771800,19.754771728515625,3.8324990272521973,9.023022651672363,-0.25965601205825806
1788051847193814300,19.770814208984376,3.817875862121582,9.028047561645508,-0.2976332902908325
1788051847209875200,19.786875244140624,3.7949655055999756,9.03673267364502,-0.3257105052471161
1788051847225932000,19.80293212890625,3.765376091003418,9.048295974731445,-0.3473956882953644
1788051847241933600,19.81893359375,3.7302722930908203,9.062149047851562,-0.36459800601005554
1788051847257973500,19.834973388671877,3.6934938430786133,9.07660961151123,-0.37901684641838074
1788051847274023400,19.8510234375,3.6830875873565674,9.079032897949219,-0.4200315773487091
1788051847290092800,19.8670927734375,3.663611650466919,9.085766792297363,-0.444056898355484
1788051847306163500,19.88316357421875,3.640170097351074,9.094364166259766,-0.4605483114719391
1788051847322176800,19.8991767578125,3.6212902069091797,9.100689888000488,-0.4838026463985443
1788051847338224400,19.915224365234376,3.603015184402466,9.10626220703125,-0.5144532322883606
1788051847354280400,19.931280517578124,3.5848629474639893,9.111383438110352,-0.5493934750556946
1788051847370353400,19.947353515625,3.5701873302459717,9.115067481994629,-0.5828585028648376
1788051847386425000,19.963425048828125,3.562994956970215,9.1160306930542,-0.6111019849777222
1788051847402400300,19.979400146484377,3.571157217025757,9.11149787902832,-0.630761981010437
1788051847418454300,19.995454345703124,3.6203267574310303,9.090977668762207,-0.6463502645492554
1788051847434501400,20.01150146484375,3.641059637069702,9.082289695739746,-0.65200275182724
1788051847450529800,20.02752978515625,3.6855335235595703,9.06369400024414,-0.6608452796936035
1788051847466562300,20.043562255859374,3.6868112087249756,9.06309700012207,-0.6618754863739014
1788051847482537000,20.059536865234374,3.720745325088501,9.048633575439453,-0.6698256134986877
1788051847498603000,20.07560302734375,3.7949397563934326,9.016538619995117,-0.686183750629425
1788051847514673000,20.0916728515625,3.8752670288085938,8.980916023254395,-0.7041629552841187
1788051847530710500,20.10771044921875,3.9528963565826416,8.94548511505127,-0.723410964012146
1788051847546747600,20.12374755859375,4.0153093338012695,8.915764808654785,-0.7462199330329895
1788051847562723300,20.139723388671875,4.033552646636963,8.905132293701172,-0.7742607593536377
1788051847578795300,20.155795166015626,4.01932954788208,8.908987998962402,-0.8033320307731628
1788051847594862300,20.1718623046875,4.005857944488525,8.912638664245605,-0.829684853553772
1788051847610894800,20.187894775390625,4.014262676239014,8.906658172607422,-0.8529579639434814
1788051847626938600,20.203938720703125,4.042185306549072,8.891585350036621,-0.8779704570770264
1788051847642911200,20.2199111328125,4.062107086181641,8.879316329956055,-0.9096251726150513
1788051847658983400,20.2359833984375,4.06253719329834,8.875428199768066,-0.9449772834777832
1788051847675066000,20.252066162109376,4.038882732391357,8.88247013092041,-0.9795637130737305
1788051847691115500,20.268115478515625,3.976989269256592,8.907976150512695,-1.0009618997573853
1788051847707168500,20.28416845703125,3.9042186737060547,8.939480781555176,-1.0065639019012451
1788051847723190500,20.3001904296875,3.8302979469299316,8.972305297851562,-0.9984765648841858
1788051847739227100,20.31622705078125,3.7677056789398193,9.000801086425781,-0.9799723029136658
1788051847755305000,20.332304931640625,3.7178754806518555,9.02431869506836,-0.953665554523468
1788051847771366000,20.348365966796877,3.6792943477630615,9.043355941772461,-0.9224438071250916
1788051847787422500,20.36442236328125,3.6843619346618652,9.045685768127441,-0.8783165812492371
1788051847803446300,20.3804462890625,3.6937096118927,9.045403480529785,-0.8411774039268494
1788051847819487700,20.39648779296875,3.739128351211548,9.030762672424316,-0.7966431379318237
1788051847835537200,20.412537109375,3.778848648071289,9.017011642456055,-0.7643164396286011
1788051847851604000,20.42860400390625,3.808351516723633,9.006290435791016,-0.7440266609191895
1788051847867678200,20.44467822265625,3.799659490585327,9.009696006774902,-0.7472338080406189
1788051847883670500,20.46067041015625,3.7621281147003174,9.023640632629395,-0.7685682773590088
1788051847899719400,20.476719482421874,3.726879596710205,9.036309242248535,-0.7911182641983032
1788051847915768000,20.49276806640625,3.6977696418762207,9.046492576599121,-0.8110799789428711
1788051847931795200,20.508795166015624,3.6985602378845215,9.046042442321777,-0.8124968409538269
1788051847947819300,20.5248193359375,3.7008419036865234,9.045671463012695,-0.8062191009521484
1788051847963810600,20.540810546875,3.6975786685943604,9.048063278198242,-0.7942629456520081
1788051847979870500,20.556870361328127,3.681586265563965,9.055965423583984,-0.7783388495445251
1788051847995922400,20.57292236328125,3.6526403427124023,9.069392204284668,-0.7581225633621216
1788051848011950800,20.588950927734373,3.639817953109741,9.07619571685791,-0.7381126284599304
