time,seconds_elapsed,z,y,x
1788051827578933800,0.155933837890625,-0.012217304669320583,-0.10018189996480942,0.02321287989616394
1788051827594990600,0.171990478515625,-0.033597588539123535,-0.10751228034496307,-0.03298672288656235
1788051827611096000,0.188095947265625,-0.051312681287527084,-0.09346238523721695,-0.0757472887635231
1788051827627085800,0.2040859375,-0.06658431142568588,-0.08002334833145142,-0.0806342139840126
1788051827643143000,0.220142822265625,-0.06414084881544113,-0.07391469180583954,-0.06719517707824707
1788051827659020800,0.236020751953125,-0.05803219974040985,-0.06108652427792549,-0.021991148591041565
1788051827675064600,0.252064697265625,-0.05864306539297104,-0.039706241339445114,0.013439035043120384
1788051827691288600,0.26828857421875,-0.05192354694008827,-0.04948008432984352,0.009162978269159794
1788051827707050800,0.28405078125,-0.039706241339445114,-0.05192354694008827,-0.00855211354792118
1788051827723102000,0.30010205078125,-0.031154127791523933,-0.03726277872920036,-0.004886921960860491
1788051827739368200,0.3163681640625,-0.02015855349600315,-0.012217304669320583,0.012217304669320583
1788051827755391500,0.3323916015625,-0.006108652334660292,-0.00733038317412138,0.019547687843441963
1788051827771454500,0.348454345703125,0.00366519158706069,-0.0006108652451075613,0.033597588539123535
1788051827787222300,0.36422216796875,0.0024434609804302454,-0.01710422709584236,0.042760565876960754
1788051827803231700,0.380231689453125,-0.001832595793530345,-0.05314527451992035,0.051312681287527084
1788051827819389700,0.3963896484375,-0.014049900695681572,-0.08857546001672745,0.04214970022439957
1788051827835417300,0.412417236328125,-0.016493361443281174,-0.10506882518529892,0.015271631069481373
1788051827851562500,0.4285625,-0.024434609338641167,-0.09346238523721695,-0.01710422709584236
1788051827867386000,0.44438623046875,-0.04337143152952194,-0.060475658625364304,-0.0354301854968071
1788051827883402000,0.460402099609375,-0.05253441259264946,-0.02871066704392433,-0.0354301854968071
1788051827899727400,0.476727294921875,-0.05497787147760391,-0.015882495790719986,-0.014049900695681572
1788051827915532000,0.492531982421875,-0.059864792972803116,-0.013439035043120384,0.007941247895359993
1788051827931710500,0.50871044921875,-0.04337143152952194,-0.024434609338641167,0.009773843921720982
1788051827947558700,0.52455859375,-0.028099801391363144,-0.028099801391363144,-0.007941247895359993
1788051827963574300,0.54057421875,-0.02076941914856434,-0.027488935738801956,-0.02626720629632473
1788051827979763000,0.556762939453125,-0.015882495790719986,-0.02932153269648552,-0.007941247895359993
1788051827995785500,0.572785400390625,-0.016493361443281174,-0.028099801391363144,0.01771509274840355
1788051828011897600,0.588897705078125,-0.01038470957428217,-0.048258353024721146,0.02382374368607998
1788051828027852000,0.60485205078125,-0.006108652334660292,-0.06414084881544113,0.0024434609804302454
1788051828043981000,0.62098095703125,-0.003054326167330146,-0.07024950534105301,-0.025656340643763542
1788051828060111400,0.637111328125,0.00366519158706069,-0.07024950534105301,-0.04092797264456749
1788051828076067000,0.653067138671875,0.01038470957428217,-0.06719517707824707,-0.02871066704392433
1788051828092123000,0.669122802734375,0.014049900695681572,-0.08185594528913498,-0.009773843921720982
1788051828108004900,0.6850048828125,0.013439035043120384,-0.10506882518529892,0.01466076634824276
1788051828124025000,0.701025146484375,-0.003054326167330146,-0.10812314599752426,0.018936822190880775
1788051828140112100,0.717112060546875,-0.00855211354792118,-0.07880161702632904,0.01466076634824276
1788051828156248600,0.73324853515625,-0.004886921960860491,-0.03787364438176155,0.005497787147760391
1788051828172311600,0.7493115234375,0.003054326167330146,-0.02626720629632473,0.006108652334660292
1788051828188201500,0.765201416015625,0.006719517521560192,-0.04642575979232788,0.009773843921720982
1788051828204379400,0.78137939453125,0.01160643994808197,-0.07513642311096191,-0.0024434609804302454
1788051828220481000,0.79748095703125,0.009162978269159794,-0.12767083942890167,-0.01038470957428217
1788051828236424000,0.813423828125,0.006719517521560192,-0.20952677726745605,0.001832595793530345
1788051828252448800,0.82944873046875,0.006108652334660292,-0.26145032048225403,0.018325956538319588
1788051828268327200,0.8453271484375,0.015882495790719986,-0.2528982162475586,0.00366519158706069
1788051828284365600,0.861365478515625,0.02687807008624077,-0.19792033731937408,-0.056810468435287476
1788051828300648000,0.87764794921875,0.02626720629632473,-0.12461651116609573,-0.09346238523721695
1788051828316603400,0.893603271484375,0.025656340643763542,-0.05192354694008827,-0.09162978827953339
1788051828332645000,0.90964501953125,0.02015855349600315,-0.015882495790719986,-0.05192354694008827
1788051828348667100,0.925667236328125,0.004886921960860491,-0.02382374368607998,-0.025045474991202354
1788051828364664000,0.9416640625,-0.010995574295520782,-0.02871066704392433,-0.022602014243602753
1788051828380871700,0.95787158203125,-0.01038470957428217,-0.04459316283464432,-0.04153883829712868
1788051828396836600,0.973836669921875,-0.010995574295520782,-0.05925392732024193,-0.059864792972803116
1788051828412887800,0.9898876953125,-0.01771509274840355,-0.07819075137376785,-0.0507018156349659
1788051828428901000,1.005901123046875,-0.022602014243602753,-0.08307767659425735,-0.025045474991202354
1788051828445001700,1.022001708984375,-0.01771509274840355,-0.0910189226269722,-0.006719517521560192
1788051828461141800,1.038141845703125,-0.015271631069481373,-0.07269296050071716,0.001832595793530345
1788051828477111600,1.054111572265625,-0.00427605677396059,-0.05314527451992035,-0.00427605677396059
1788051828493163800,1.070163818359375,0.0024434609804302454,-0.03176499158143997,-0.027488935738801956
1788051828509130500,1.086130615234375,0.003054326167330146,-0.03176499158143997,-0.051312681287527084
1788051828525140200,1.10214013671875,0.001832595793530345,-0.06536258012056351,-0.06963863968849182
1788051828541207300,1.118207275390625,-0.019547687843441963,-0.09346238523721695,-0.05314527451992035
1788051828557269200,1.134269287109375,-0.030543262138962746,-0.09224065393209457,-0.009162978269159794
1788051828573334300,1.150334228515625,-0.02871066704392433,-0.05192354694008827,0.018936822190880775
1788051828589239300,1.1662392578125,-0.012217304669320583,-0.021380282938480377,0.02015855349600315
1788051828605398000,1.18239794921875,-0.015882495790719986,-0.02687807008624077,-0.009773843921720982
1788051828621476000,1.19847607421875,-0.02626720629632473,-0.015882495790719986,-0.025045474991202354
1788051828637466000,1.214466064453125,-0.018936822190880775,-0.00733038317412138,-0.025045474991202354
1788051828653540000,1.2305400390625,-0.018325956538319588,-0.01771509274840355,-0.024434609338641167
1788051828669560600,1.246560546875,-0.022602014243602753,-0.03726277872920036,-0.018325956538319588
1788051828685428500,1.262428466796875,-0.02871066704392433,-0.0555887371301651,-0.001832595793530345
1788051828701585000,1.2785849609375,-0.031154127791523933,-0.04764748737215996,0.012828170321881771
1788051828717700400,1.294700439453125,-0.02321287989616394,-0.04153883829712868,0.015882495790719986
1788051828733725400,1.310725341796875,-0.033597588539123535,-0.05803219974040985,0.0012217304902151227
1788051828749717000,1.326717041015625,-0.051312681287527084,-0.054367005825042725,-0.005497787147760391
1788051828765642500,1.342642578125,-0.05864306539297104,-0.03237585723400116,0.00733038317412138
1788051828781822700,1.35882275390625,-0.06169738993048668,-0.013439035043120384,0.018936822190880775
1788051828797815000,1.37481494140625,-0.05803219974040985,0.0006108652451075613,0.02076941914856434
1788051828813868300,1.390868408203125,-0.04948008432984352,-0.006108652334660292,0.02076941914856434
1788051828829894400,1.406894287109375,-0.036041051149368286,-0.012828170321881771,0.03420845419168472
1788051828845935400,1.422935302734375,-0.025045474991202354,-0.021991148591041565,0.04398229718208313
1788051828861898000,1.43889794921875,-0.021380282938480377,-0.03176499158143997,0.05253441259264946
1788051828878032600,1.45503271484375,-0.018325956538319588,-0.03787364438176155,0.05375614017248154
1788051828894069000,1.471069091796875,-0.015882495790719986,-0.03176499158143997,0.04764748737215996
1788051828910030000,1.487030029296875,-0.02687807008624077,-0.021380282938480377,0.0403171069920063
1788051828926146300,1.503146240234375,-0.04153883829712868,-0.0354301854968071,0.02687807008624077
1788051828942245000,1.5192451171875,-0.048258353024721146,-0.048258353024721146,0.01771509274840355
1788051828958209500,1.53520947265625,-0.05253441259264946,-0.06352998316287994,0.00733038317412138
1788051828974254800,1.5512548828125,-0.05192354694008827,-0.08796459436416626,0.005497787147760391
1788051828990198000,1.567197998046875,-0.04886921867728233,-0.09529497474431992,0.01466076634824276
1788051829006285800,1.583285888671875,-0.03726277872920036,-0.1160643994808197,0.0354301854968071
1788051829022386000,1.599385986328125,-0.01038470957428217,-0.09651670604944229,0.05864306539297104
1788051829038364000,1.615364013671875,0.004886921960860491,-0.07330382615327835,0.054367005825042725
1788051829054422500,1.631422607421875,0.010995574295520782,-0.04886921867728233,0.025656340643763542
1788051829070420000,1.647419921875,0.0024434609804302454,-0.030543262138962746,-0.01038470957428217
1788051829086387000,1.663386962890625,-0.004886921960860491,-0.00855211354792118,-0.01466076634824276
1788051829102578400,1.679578369140625,-0.019547687843441963,-0.02076941914856434,-0.0024434609804302454
1788051829118571500,1.695571533203125,-0.025656340643763542,-0.045204028487205505,0.012828170321881771
1788051829134644200,1.711644287109375,-0.024434609338641167,-0.06536258012056351,0.021380282938480377
1788051829150662400,1.727662353515625,-0.021380282938480377,-0.06169738993048668,0.01038470957428217
1788051829166727000,1.743726806640625,-0.015271631069481373,-0.05009094998240471,-0.02015855349600315
1788051829182838500,1.759838623046875,-0.01466076634824276,-0.036041051149368286,-0.036651913076639175
1788051829198787000,1.775787109375,-0.02321287989616394,-0.036651913076639175,-0.03420845419168472
1788051829214818800,1.79181884765625,-0.024434609338641167,-0.05497787147760391,-0.025045474991202354
1788051829230848300,1.80784814453125,-0.025045474991202354,-0.05803219974040985,-0.021380282938480377
1788051829246820600,1.823820556640625,-0.03848451003432274,-0.04214970022439957,-0.03298672288656235
1788051829263027700,1.84002783203125,-0.07452555745840073,-0.039095375686883926,-0.06841690838336945
1788051829278987000,1.855987060546875,-0.0959058403968811,-0.02382374368607998,-0.09285151958465576
1788051829295028500,1.872028564453125,-0.10384709388017654,-0.012217304669320583,-0.09040805697441101
1788051829311059500,1.8880595703125,-0.09712757170200348,-0.012217304669320583,-0.07269296050071716
1788051829327142100,1.90414208984375,-0.08307767659425735,-0.006719517521560192,-0.042760565876960754
1788051829343233000,1.92023291015625,-0.06475171446800232,-0.03481931984424591,-0.039706241339445114
1788051829359227400,1.936227294921875,-0.06230825558304787,-0.04764748737215996,-0.048258353024721146
1788051829375273200,1.952273193359375,-0.06475171446800232,-0.036651913076639175,-0.04886921867728233
1788051829391317000,1.96831689453125,-0.07635815441608429,-0.018936822190880775,-0.045204028487205505
1788051829407359500,1.984359375,-0.07880161702632904,0.003054326167330146,-0.03420845419168472
1788051829423498200,2.000498291015625,-0.06719517707824707,0.022602014243602753,-0.02015855349600315
1788051829439510000,2.016510009765625,-0.06108652427792549,0.00427605677396059,-0.019547687843441963
1788051829455558100,2.03255810546875,-0.051312681287527084,-0.030543262138962746,-0.00855211354792118
1788051829471548000,2.0485478515625,-0.03420845419168472,-0.08735372871160507,0.004886921960860491
1788051829487641900,2.064641845703125,-0.022602014243602753,-0.14049901068210602,0.01038470957428217
1788051829503725000,2.08072509765625,-0.02932153269648552,-0.1313360333442688,-0.0006108652451075613
1788051829519700500,2.096700439453125,-0.05192354694008827,-0.07269296050071716,-0.019547687843441963
1788051829535765000,2.112764892578125,-0.07880161702632904,-0.01160643994808197,-0.03420845419168472
1788051829551712800,2.128712646484375,-0.07513642311096191,0.016493361443281174,-0.03420845419168472
1788051829567826000,2.144825927734375,-0.05742133408784866,0.027488935738801956,-0.01160643994808197
1788051829583844400,2.16084423828125,-0.039095375686883926,0.03420845419168472,0.021380282938480377
1788051829599835400,2.17683544921875,-0.033597588539123535,0.06414084881544113,0.04153883829712868
1788051829615955000,2.192954833984375,-0.03176499158143997,0.09651670604944229,0.03726277872920036
1788051829631971300,2.208971435546875,-0.03787364438176155,0.12767083942890167,-0.00366519158706069
1788051829648039000,2.225038818359375,-0.04398229718208313,0.15943582355976105,-0.048258353024721146
1788051829663998000,2.240998046875,-0.0403171069920063,0.2021963894367218,-0.1014036312699318
1788051829680005000,2.257005126953125,-0.04703662544488907,0.22479841113090515,-0.17959438264369965
1788051829696108500,2.273108642578125,-0.08491026610136032,0.14233160018920898,-0.242513507604599
1788051829711999500,2.28899951171875,-0.1062905490398407,0.0012217304902151227,-0.24434609711170197
1788051829728126000,2.3051259765625,-0.1368338167667389,-0.16310101747512817,-0.1722639948129654
1788051829744205600,2.32120556640625,-0.14844025671482086,-0.2321287989616394,-0.07452555745840073
1788051829760248600,2.33724853515625,-0.11728613078594208,-0.2382374405860901,-0.021991148591041565
1788051829776283100,2.353283203125,-0.07757988572120667,-0.16920967400074005,-0.004886921960860491
1788051829792314400,2.369314453125,-0.04092797264456749,-0.0507018156349659,-0.01038470957428217
1788051829808221400,2.385221435546875,-0.01160643994808197,0.05009094998240471,-0.045204028487205505
1788051829824484000,2.401484130859375,0.010995574295520782,0.1007927656173706,-0.054367005825042725
1788051829840441600,2.417441650390625,0.027488935738801956,0.12400564551353455,-0.02076941914856434
1788051829856488200,2.43348828125,0.04581489413976669,0.09651670604944229,0.04337143152952194
1788051829872531500,2.449531494140625,0.05619960278272629,0.07452555745840073,0.08918632566928864
1788051829888568600,2.465568603515625,0.05497787147760391,0.031154127791523933,0.10751228034496307
1788051829904610800,2.48161083984375,0.039095375686883926,-0.003054326167330146,0.10995574295520782
1788051829920604000,2.49760400390625,0.010995574295520782,-0.02382374368607998,0.09529497474431992
1788051829936689400,2.513689453125,-0.01160643994808197,-0.05497787147760391,0.06658431142568588
1788051829952604400,2.5296044921875,-0.00366519158706069,-0.0354301854968071,0.04642575979232788
1788051829968550100,2.545550048828125,0.016493361443281174,0.003054326167330146,0.02687807008624077
1788051829984713500,2.56171337890625,0.033597588539123535,0.014049900695681572,0.003054326167330146
1788051830000711200,2.577711181640625,0.04337143152952194,0.02382374368607998,-0.02321287989616394
1788051830016880000,2.593880126953125,0.039095375686883926,0.025656340643763542,-0.0403171069920063
1788051830040924000,2.617923828125,0.005497787147760391,0.04337143152952194,-0.0507018156349659
1788051830056965400,2.63396533203125,-0.012828170321881771,0.10018189996480942,-0.036651913076639175
1788051830072954400,2.649954345703125,-0.014049900695681572,0.16920967400074005,-0.02321287989616394
1788051830088978000,2.66597802734375,-0.006719517521560192,0.19608774781227112,-0.02687807008624077
1788051830105106200,2.682106201171875,0.003054326167330146,0.17776179313659668,-0.03176499158143997
1788051830121033500,2.698033447265625,0.018936822190880775,0.14294247329235077,-0.01466076634824276
1788051830137079600,2.71407958984375,0.04459316283464432,0.12339477986097336,0.012828170321881771
1788051830153081300,2.730081298828125,0.08307767659425735,0.15882496535778046,0.03848451003432274
1788051830169128700,2.746128662109375,0.16065755486488342,0.2632829248905182,0.06291911751031876
1788051830185239800,2.76223974609375,0.2174680233001709,0.2626720666885376,0.05314527451992035
1788051830201221400,2.778221435546875,0.22663100063800812,0.12767083942890167,-0.02932153269648552
1788051830217281300,2.79428125,0.18509216606616974,-0.10567969083786011,-0.152105450630188
1788051830233283600,2.81028369140625,0.04581489413976669,-0.4440990388393402,-0.2871066629886627
1788051830249320700,2.82632080078125,-0.11972958594560623,-0.5907067060470581,-0.294437050819397
1788051830265470000,2.842469970703125,-0.2015855312347412,-0.4538728892803192,-0.14966198801994324
1788051830281465000,2.858465087890625,-0.18081611394882202,-0.02015855349600315,0.15821409225463867
1788051830297506800,2.8745068359375,-0.02626720629632473,0.4453207552433014,0.4294382631778717
1788051830313551000,2.890551025390625,0.20891591906547546,0.6884451508522034,0.5094616413116455
1788051830329604900,2.90660498046875,0.4642575979232788,0.7483099102973938,0.44715335965156555
1788051830345730000,2.92272998046875,0.598647952079773,0.5448917746543884,0.29077184200286865
1788051830361721600,2.9387216796875,0.5900958180427551,0.19364428520202637,0.10384709388017654
1788051830377790700,2.954790771484375,0.47280970215797424,-0.12400564551353455,0.025045474991202354
1788051830393759700,2.970759765625,0.2767219543457031,-0.3744603991508484,0.08857546001672745
1788051830409811200,2.986811279296875,0.13805554807186127,-0.45631635189056396,0.22540926933288574
1788051830425937700,3.002937744140625,0.11850785464048386,-0.4447098970413208,0.2791654169559479
1788051830441871600,3.01887158203125,0.17104226350784302,-0.3604104816913605,0.2590068578720093
1788051830457911300,3.034911376953125,0.24007004499435425,-0.23335053026676178,0.20463985204696655
1788051830473924900,3.0509248046875,0.28955012559890747,-0.08368854224681854,0.1618792861700058
1788051830489984300,3.066984375,0.3219259977340698,0.14844025671482086,0.14844025671482086
1788051830506125000,3.083125,0.3341432809829712,0.3335324227809906,0.14355333149433136
1788051830522091800,3.099091796875,0.33597588539123535,0.43676865100860596,0.13439035415649414
1788051830538139000,3.115138916015625,0.32498031854629517,0.4447098970413208,0.10934487730264664
1788051830554111500,3.131111572265625,0.2993239760398865,0.31459560990333557,0.0861319974064827
1788051830570182400,3.147182373046875,0.24190263450145721,0.13316862285137177,0.0806342139840126
1788051830586336000,3.1633359375,0.1918116807937622,-0.019547687843441963,0.08307767659425735
1788051830602309400,3.179309326171875,0.1514945775270462,-0.16065755486488342,0.06108652427792549
1788051830618359800,3.19535986328125,0.10690141469240189,-0.26145032048225403,0
1788051830634332700,3.211332763671875,0.06780604273080826,-0.28038713335990906,-0.04703662544488907
1788051830650359000,3.227359130859375,0.013439035043120384,-0.26083946228027344,-0.09896016865968704
1788051830666474200,3.24347412109375,-0.04398229718208313,-0.23945917189121246,-0.13561208546161652
1788051830682460000,3.2594599609375,-0.09651670604944229,-0.25106561183929443,-0.13866640627384186
1788051830698518800,3.275518798828125,-0.1472185254096985,-0.24495697021484375,-0.07024950534105301
1788051830714494500,3.291494384765625,-0.1569923609495163,-0.20097467303276062,0.039706241339445114
1788051830730532900,3.307532958984375,-0.15027284622192383,-0.18325957655906677,0.09712757170200348
1788051830746648800,3.32364892578125,-0.14538592100143433,-0.19975294172763824,0.1111774742603302
1788051830762604800,3.339604736328125,-0.15943582355976105,-0.2528982162475586,0.08491026610136032
1788051830778668300,3.355668212890625,-0.182648703455925,-0.31520646810531616,0.0354301854968071
1788051830794648800,3.37164892578125,-0.21502456068992615,-0.3390302062034607,-0.00366519158706069
1788051830810694000,3.38769384765625,-0.24923302233219147,-0.34697145223617554,-0.01160643994808197
1788051830826820900,3.40382080078125,-0.23090706765651703,-0.2541199326515198,0.03481931984424591
1788051830842820600,3.419820556640625,-0.1264491081237793,-0.060475658625364304,0.08368854224681854
1788051830858888000,3.435887939453125,-0.04581489413976669,0.027488935738801956,0.012217304669320583
1788051830874876700,3.451876708984375,-0.08124507963657379,0.04703662544488907,-0.2064724564552307
1788051830890930700,3.4679306640625,-0.15515977144241333,0.02382374368607998,-0.4703662395477295
1788051830907063600,3.4840634765625,-0.2681698501110077,-0.11484266817569733,-0.7281513810157776
1788051830923018200,3.500018310546875,-0.35674530267715454,-0.13744467496871948,-0.7318165898323059
1788051830939078000,3.516077880859375,-0.2919935882091522,-0.10384709388017654,-0.48319441080093384
1788051830955096800,3.532096923828125,-0.08796459436416626,0.04581489413976669,0.00366519158706069
1788051830971158000,3.548157958984375,0.14477506279945374,0.2687807083129883,0.4917465150356293
1788051830987337000,3.5643369140625,0.3378084897994995,0.413555771112442,0.7819074988365173
1788051831003312600,3.580312744140625,0.43188172578811646,0.44715335965156555,0.8613200187683105
1788051831019383000,3.596383056640625,0.42149701714515686,0.32498031854629517,0.7849618196487427
1788051831035397000,3.612397216796875,0.3378084897994995,0.10690141469240189,0.6279694437980652
1788051831051476200,3.628476318359375,0.21624629199504852,-0.10873401165008545,0.4954117238521576
1788051831067572000,3.644572021484375,0.019547687843441963,-0.3341432809829712,0.3744603991508484
1788051831083554000,3.660553955078125,-0.20036379992961884,-0.46364670991897583,0.3127630054950714
1788051831099608000,3.676608154296875,-0.36163222789764404,-0.4691445231437683,0.2779437005519867
1788051831115607000,3.69260693359375,-0.47708576917648315,-0.38667771220207214,0.19914206862449646
1788051831131637200,3.70863720703125,-0.5174028873443604,-0.26022860407829285,0.06414084881544113
1788051831147782000,3.724781982421875,-0.5027421116828918,-0.09407325088977814,-0.1007927656173706
1788051831163772700,3.740772705078125,-0.4715879559516907,0.03420845419168472,-0.2431243658065796
1788051831179810800,3.756810791015625,-0.43615779280662537,0.12278391420841217,-0.39095374941825867
1788051831195847400,3.772847412109375,-0.394008070230484,0.1411098688840866,-0.5265658497810364
1788051831211888400,3.788888427734375,-0.3549126982688904,0.11178833991289139,-0.6389650702476501
1788051831228007200,3.805007080078125,-0.3182607889175415,0.11972958594560623,-0.7525860071182251
1788051831244001000,3.8210009765625,-0.3066543638706207,0.1411098688840866,-0.8686503767967224
1788051831260066800,3.83706689453125,-0.2987131178379059,0.19120082259178162,-0.979827880859375
1788051831276074500,3.853074462890625,-0.29565876722335815,0.26083946228027344,-1.1203268766403198
1788051831292123600,3.86912353515625,-0.2779437005519867,0.34086281061172485,-1.2657127380371094
1788051831308276000,3.88527587890625,-0.2638937830924988,0.4043927788734436,-1.4330898523330688
1788051831324272400,3.9012724609375,-0.24617868661880493,0.47769662737846375,-1.5974125862121582
1788051831340340000,3.917340087890625,-0.20525072515010834,0.45142942667007446,-1.8093829154968262
1788051831356287700,3.933287841796875,-0.15393804013729095,0.2828305959701538,-1.9590448141098022
1788051831372335900,3.9493359375,-0.08429940044879913,0.2125810980796814,-1.99752938747406
1788051831388457200,3.965457275390625,0.0403171069920063,0.18875735998153687,-2.004859685897827
1788051831404413400,3.981413330078125,0.18325957655906677,0.10018189996480942,-1.9523253440856934
1788051831420442400,3.9974423828125,0.3127630054950714,0.1472185254096985,-1.8014415502548218
1788051831436455200,4.013455078125,0.44715335965156555,0.33108896017074585,-1.538158655166626
1788051831452481500,4.0294814453125,0.48747047781944275,0.2541199326515198,-1.291369080543518
1788051831468618200,4.0456181640625,0.41172316670417786,-0.0024434609804302454,-1.103833556175232
1788051831484585700,4.061585693359375,0.28527405858039856,-0.294437050819397,-0.9541715383529663
1788051831500615400,4.077615478515625,0.20830504596233368,-0.475253164768219,-0.9010262489318848
1788051831516627200,4.093627197265625,0.26633724570274353,-0.4105014503002167,-0.8747590184211731
1788051831532693000,4.10969287109375,0.3927863538265228,-0.24617868661880493,-0.8411614298820496
1788051831548839400,4.12583935546875,0.3885102868080139,-0.10567969083786011,-0.8912523984909058
1788051831564815600,4.141815673828125,0.28527405858039856,0.04764748737215996,-0.9822713136672974
1788051831580844500,4.157844482421875,0.16859880089759827,0.11911872029304504,-0.99876469373703
1788051831596841200,4.17384130859375,0.03420845419168472,0.13377949595451355,-0.8692612648010254
1788051831612872700,4.189872802734375,0,0.05009094998240471,-0.6145304441452026
1788051831629009400,4.206009521484375,0.09040805697441101,-0.02687807008624077,-0.3640756905078888
1788051831644978700,4.221978759765625,0.26450464129447937,-0.08918632566928864,-0.1411098688840866
1788051831661011500,4.238011474609375,0.4856378734111786,-0.08552113175392151,-0.016493361443281174
1788051831677015800,4.254015869140625,0.617584764957428,-0.01771509274840355,-0.012217304669320583
1788051831693052200,4.27005224609375,0.66584312915802,0.0024434609804302454,-0.15821409225463867
1788051831709157600,4.28615771484375,0.6004805564880371,-0.027488935738801956,-0.42149701714515686
1788051831725146000,4.30214599609375,0.4648684561252594,-0.08491026610136032,-0.6151412725448608
1788051831741200000,4.318199951171875,0.2993239760398865,-0.12767083942890167,-0.6786713004112244
1788051831757218000,4.334218017578125,0.14966198801994324,-0.19425514340400696,-0.5644394755363464
1788051831773257200,4.35025732421875,0.05192354694008827,-0.25106561183929443,-0.34574973583221436
1788051831789365500,4.366365478515625,0.006108652334660292,-0.24923302233219147,-0.16920967400074005
1788051831805363200,4.38236328125,0.04459316283464432,-0.2021963894367218,-0.036651913076639175
1788051831821430800,4.3984306640625,0.16920967400074005,-0.09896016865968704,0.030543262138962746
1788051831837461200,4.414461181640625,0.3066543638706207,-0.012217304669320583,0.04092797264456749
1788051831853515300,4.430515380859375,0.423329621553421,0.05803219974040985,0.02382374368607998
1788051831869643000,4.44664306640625,0.46303585171699524,0.09468411654233932,0.004886921960860491
1788051831885594400,4.462594482421875,0.45265114307403564,0.06414084881544113,-0.021991148591041565
1788051831901622800,4.478622802734375,0.40072759985923767,0.014049900695681572,-0.056810468435287476
1788051831925723100,4.50272314453125,0.24068090319633484,-0.08552113175392151,-0.11301007121801376
1788051831941786600,4.51878662109375,0.0757472887635231,-0.20830504596233368,-0.13377949595451355
1788051831957716000,4.534716064453125,-0.06780604273080826,-0.3390302062034607,-0.10018189996480942
1788051831973645600,4.5506455078125,-0.13316862285137177,-0.4593706727027893,-0.027488935738801956
1788051831989849000,4.56684912109375,-0.16249015927314758,-0.6096435189247131,0.0806342139840126
1788051832005935600,4.582935546875,-0.18509216606616974,-0.7519751191139221,0.16249015927314758
1788051832021974500,4.598974609375,-0.21013765037059784,-0.8478809595108032,0.1875356286764145
1788051832037752800,4.6147529296875,-0.2541199326515198,-0.901637077331543,0.1661553531885147
1788051832053866800,4.63086669921875,-0.2822197377681732,-0.8655960559844971,0.1563815027475357
1788051832070048500,4.647048583984375,-0.30543261766433716,-0.770301103591919,0.14233160018920898
1788051832086124000,4.6631240234375,-0.35185837745666504,-0.5968153476715088,0.09468411654233932
1788051832102150000,4.67914990234375,-0.4544837474822998,-0.41661009192466736,0.0024434609804302454
1788051832118190600,4.695190673828125,-0.578489363193512,-0.30970868468284607,-0.12339477986097336
1788051832134109400,4.711109375,-0.655458390712738,-0.24862214922904968,-0.22052235901355743
1788051832150323700,4.72732373046875,-0.6902777552604675,-0.21563543379306793,-0.2779437005519867
1788051832166378200,4.743378173828125,-0.617584764957428,-0.14355333149433136,-0.2577851414680481
1788051832182418200,4.759418212890625,-0.485027015209198,-0.13316862285137177,-0.25045475363731384
1788051832198452000,4.775451904296875,-0.49724429845809937,-0.2565633952617645,-0.37690386176109314
1788051832214520600,4.7915205078125,-0.5674937963485718,-0.15821409225463867,-0.5283984541893005
1788051832230625300,4.807625244140625,-0.6029239892959595,-0.059864792972803116,-0.6194173693656921
1788051832246633000,4.823633056640625,-0.6255260109901428,0.02871066704392433,-0.6029239892959595
1788051832262679000,4.839678955078125,-0.5601634383201599,0.19303341209888458,-0.4098905920982361
1788051832278630100,4.855630126953125,-0.3799581825733185,0.30543261766433716,-0.15027284622192383
1788051832294765800,4.871765869140625,-0.04703662544488907,0.30054569244384766,0.1514945775270462
1788051832310892000,4.88789208984375,0.2577851414680481,0.2571742534637451,0.4098905920982361
1788051832326866000,4.903865966796875,0.38667771220207214,0.25045475363731384,0.5925393104553223
1788051832342920400,4.91992041015625,0.3543018400669098,0.20341812074184418,0.6676757335662842
1788051832358904800,4.93590478515625,0.19120082259178162,0.036651913076639175,0.6352998614311218
1788051832374826800,4.95182666015625,-0.014049900695681572,-0.21013765037059784,0.5167919993400574
1788051832391056400,4.968056396484375,-0.15882496535778046,-0.3995058834552765,0.37690386176109314
1788051832407043800,4.9840439453125,-0.3017674386501312,-0.4691445231437683,0.21868975460529327
1788051832423118000,5.0001181640625,-0.4453207552433014,-0.3640756905078888,0.11423180252313614
1788051832439126800,5.016126708984375,-0.5265658497810364,-0.17531833052635193,0.09773843735456467
1788051832455183600,5.03218359375,-0.5277875661849976,0.07696902006864548,0.09773843735456467
1788051832471304000,5.048303955078125,-0.4697553813457489,0.24373523890972137,0.04703662544488907
1788051832487255000,5.064255126953125,-0.3793473243713379,0.3732386529445648,-0.029932396486401558
1788051832503283700,5.08028369140625,-0.3243694305419922,0.44776421785354614,-0.10201449692249298
1788051832519298600,5.096298583984375,-0.2871066629886627,0.43676865100860596,-0.16920967400074005
1788051832535366400,5.112366455078125,-0.2742784917354584,0.3640756905078888,-0.20891591906547546
1788051832551495200,5.1284951171875,-0.25473082065582275,0.22968533635139465,-0.23029619455337524
1788051832567463000,5.144462890625,-0.2217440903186798,0.1062905490398407,-0.21441370248794556
1788051832583474400,5.160474365234375,-0.1814269721508026,0.0708603709936142,-0.17348572611808777
1788051832599500500,5.17650048828125,-0.1514945775270462,0.054367005825042725,-0.15760323405265808
1788051832615573000,5.192572998046875,-0.1007927656173706,0.04642575979232788,-0.16737708449363708
1788051832631565000,5.20856494140625,-0.04703662544488907,0.030543262138962746,-0.1869247704744339
1788051832647664000,5.2246640625,-0.006719517521560192,0.015882495790719986,-0.2174680233001709
1788051832663702500,5.24070263671875,0.03787364438176155,-0.012217304669320583,-0.2474004179239273
1788051832679682300,5.256682373046875,0.09346238523721695,-0.01771509274840355,-0.21807889640331268
1788051832695809500,5.2728095703125,0.1814269721508026,0.021380282938480377,-0.10567969083786011
1788051832711948800,5.28894873046875,0.27488934993743896,0.05192354694008827,0.03298672288656235
1788051832727911400,5.304911376953125,0.39156460762023926,0.042760565876960754,0.1973094791173935
1788051832743959800,5.320959716796875,0.4905247986316681,0.001832595793530345,0.2791654169559479
1788051832759950600,5.33695068359375,0.5442809462547302,-0.07269296050071716,0.2535090744495392
1788051832776007000,5.3530068359375,0.5729916095733643,-0.16798794269561768,0.17837265133857727
1788051832792084500,5.36908447265625,0.5833762884140015,-0.22113321721553802,0.14905111491680145
1788051832808086300,5.385086181640625,0.607200026512146,-0.17776179313659668,0.19608774781227112
1788051832824215300,5.40121533203125,0.6982190012931824,0.06169738993048668,0.30054569244384766
1788051832840209000,5.417208984375,0.8454375267028809,0.3023782968521118,0.34086281061172485
1788051832856241400,5.433241455078125,0.8820894360542297,0.2767219543457031,0.2272418737411499
1788051832872331000,5.4493310546875,0.8423831462860107,0.2687807083129883,0.10812314599752426
1788051832888389400,5.465389404296875,0.7464773058891296,0.13866640627384186,0.02626720629632473
1788051832904457500,5.48145751953125,0.5998696684837341,-0.20097467303276062,0.10751228034496307
1788051832920492800,5.497492919921875,0.45204028487205505,-0.4960225820541382,0.37751471996307373
1788051832936430000,5.51343017578125,0.30604347586631775,-0.7525860071182251,0.8411614298820496
1788051832952707000,5.52970703125,0.24678955972194672,-0.8289441466331482,1.228450059890747
1788051832968646400,5.545646484375,0.2919935882091522,-0.7770205736160278,1.377501130104065
1788051832984664800,5.561664794921875,0.3927863538265228,-0.616973876953125,1.379333734512329
1788051833000670700,5.577670654296875,0.4764748811721802,-0.48808133602142334,1.274264931678772
1788051833016723200,5.59372314453125,0.5155702829360962,-0.5027421116828918,1.1545352935791016
1788051833032753400,5.60975341796875,0.5393940210342407,-0.5351179838180542,1.0989465713500977
1788051833048712400,5.62571240234375,0.523511528968811,-0.5192354321479797,1.197295904159546
1788051833064850200,5.64185009765625,0.4911356568336487,-0.4899139404296875,1.4715744256973267
1788051833080909000,5.657908935546875,0.43737950921058655,-0.5326744914054871,1.794722080230713
1788051833096852000,5.67385205078125,0.35552358627319336,-0.6310238242149353,2.161241292953491
1788051833113103400,5.690103271484375,0.28649580478668213,-0.7214318513870239,2.461786985397339
1788051833129030000,5.70602978515625,0.24617868661880493,-0.578489363193512,2.6597073078155518
1788051833145095400,5.722095458984375,0.2370157092809677,-0.24617868661880493,2.8020389080047607
1788051833161035800,5.738035888671875,0.24678955972194672,0.10201449692249298,2.886949062347412
1788051833177075000,5.754074951171875,0.303600013256073,0.27000242471694946,2.9681942462921143
1788051833193364200,5.7703642578125,0.384845107793808,0.394618958234787,3.0329458713531494
1788051833217332000,5.79433203125,0.242513507604599,0.33658674359321594,3.012787342071533
1788051833233451000,5.810450927734375,-0.05375614017248154,0.24007004499435425,2.9608638286590576
1788051833249458700,5.826458740234375,-0.43127086758613586,0.3695734739303589,3.132516860961914
1788051833265519600,5.84251953125,-0.5693264007568359,0.31581732630729675,3.1593949794769287
1788051833281499400,5.85849951171875,-0.4355469346046448,-0.19303341209888458,3.0659327507019043
1788051833297556700,5.874556640625,-0.16982053220272064,-0.36713001132011414,2.953533411026001
1788051833313728800,5.890728759765625,0.056810468435287476,-0.36102136969566345,2.905885934829712
1788051833329680600,5.9066806640625,0.25045475363731384,-0.3854559659957886,2.8900034427642822
1788051833345748000,5.922748046875,0.34513887763023376,-0.342695415019989,2.8576276302337646
1788051833361744100,5.938744140625,0.36163222789764404,-0.30543261766433716,2.81181263923645
1788051833377804500,5.954804443359375,0.5369505286216736,-0.23884831368923187,2.7012460231781006
1788051833393943000,5.970943115234375,0.41722095012664795,-0.2535090744495392,2.582738161087036
1788051833409912300,5.986912353515625,-0.036041051149368286,-0.13744467496871948,2.4581217765808105
1788051833425942800,6.00294287109375,-0.21502456068992615,-0.07757988572120667,2.3157901763916016
1788051833441951200,6.018951171875,-0.10384709388017654,-0.0507018156349659,2.188119411468506
1788051833457981700,6.034981689453125,-0.036041051149368286,0.07880161702632904,1.974927306175232
1788051833474072800,6.05107275390625,-0.09957103431224823,0.18814650177955627,1.7464637756347656
1788051833490058000,6.06705810546875,-0.15821409225463867,0.26939156651496887,1.5057828426361084
1788051833506100700,6.083100830078125,-0.19975294172763824,0.2370157092809677,1.3616186380386353
1788051833522112000,6.099112060546875,-0.26939156651496887,0.05253441259264946,1.2614367008209229
1788051833538139600,6.1151396484375,-0.3488040566444397,-0.26633724570274353,1.169806957244873
1788051833554246700,6.13124658203125,-0.46547931432724,-0.3597996234893799,1.0311405658721924
1788051833570212900,6.147212890625,-0.5711590051651001,-0.5119050741195679,0.8136724829673767
1788051833586278700,6.163278564453125,-0.6310238242149353,-0.5106833577156067,0.6316346526145935
1788051833602256400,6.17925634765625,-0.6908885836601257,-0.4807509481906891,0.5632177591323853
1788051833618294800,6.195294677734375,-0.685390830039978,-0.5106833577156067,0.5968153476715088
1788051833634410500,6.211410400390625,-0.6310238242149353,-0.5320636034011841,0.7031059265136719
1788051833650418000,6.22741796875,-0.6114761233329773,-0.5351179838180542,0.8552113175392151
1788051833666493700,6.24349365234375,-0.617584764957428,-0.48685958981513977,0.9608910083770752
1788051833682492400,6.259492431640625,-0.6200281977653503,-0.4092797040939331,0.9865473508834839
1788051833698543600,6.275543701171875,-0.616973876953125,-0.3090978264808655,0.921795666217804
1788051833714661400,6.291661376953125,-0.5143485069274902,-0.21624629199504852,0.7904596328735352
1788051833738449400,6.315449462890625,-0.37201693654060364,-0.18387043476104736,0.44165557622909546
1788051833754661400,6.331661376953125,-0.2541199326515198,-0.2376265823841095,0.20036379992961884
1788051833770682600,6.3476826171875,-0.18081611394882202,-0.32986724376678467,-0.04703662544488907
1788051833786839800,6.36383984375,-0.14233160018920898,-0.4056145250797272,-0.20036379992961884
1788051833802690600,6.379690673828125,-0.12889257073402405,-0.44226643443107605,-0.26145032048225403
1788051833818603500,6.395603515625,-0.13255776464939117,-0.4550946056842804,-0.2687807083129883
1788051833834975000,6.41197509765625,-0.13927727937698364,-0.45814892649650574,-0.23396138846874237
1788051833850801000,6.42780078125,-0.14477506279945374,-0.42210787534713745,-0.16432274878025055
1788051833866989300,6.4439892578125,-0.1508837193250656,-0.3494149148464203,-0.10873401165008545
1788051833882834700,6.459834716796875,-0.1514945775270462,-0.2681698501110077,-0.0959058403968811
1788051833898971400,6.475971435546875,-0.1514945775270462,-0.17837265133857727,-0.12217304855585098
1788051833915087000,6.492087158203125,-0.16798794269561768,-0.10201449692249298,-0.1258382350206375
1788051833931106800,6.50810693359375,-0.1814269721508026,-0.005497787147760391,-0.08307767659425735
1788051833947135000,6.524135009765625,-0.16798794269561768,0.051312681287527084,-0.07941248267889023
1788051833963155500,6.540155517578125,-0.1270599663257599,0.0959058403968811,-0.11362093687057495
1788051833979050200,6.55605029296875,-0.10262536257505417,0.18020524084568024,-0.14049901068210602
1788051833995192800,6.57219287109375,-0.09773843735456467,0.2687807083129883,-0.09957103431224823
1788051834011236600,6.588236572265625,-0.09834930300712585,0.32070425152778625,-0.010995574295520782
1788051834027273000,6.60427294921875,-0.06414084881544113,0.3628539443016052,0.10384709388017654
1788051834043343000,6.620343017578125,0.003054326167330146,0.37079519033432007,0.18570303916931152
1788051834059336200,6.636336181640625,0.0708603709936142,0.3488040566444397,0.22479841113090515
1788051834075487500,6.652487548828125,0.11911872029304504,0.3445279896259308,0.25595253705978394
1788051834091561700,6.668561767578125,0.15821409225463867,0.29565876722335815,0.24617868661880493
1788051834107610400,6.6846103515625,0.18936823308467865,0.19914206862449646,0.18997909128665924
1788051834123640800,6.700640869140625,0.18570303916931152,0.1563815027475357,0.16737708449363708
1788051834139723500,6.7167236328125,0.1508837193250656,0.18387043476104736,0.1820378452539444
1788051834155752000,6.732751953125,0.04581489413976669,0.2883284091949463,0.24129177629947662
1788051834171788800,6.748788818359375,-0.07024950534105301,0.31459560990333557,0.252287358045578
1788051834187874300,6.764874267578125,-0.10751228034496307,0.2736676335334778,0.11789698898792267
1788051834203820500,6.780820556640625,-0.06536258012056351,0.2974913716316223,-0.0806342139840126
1788051834219867600,6.79686767578125,0.0012217304902151227,0.39156460762023926,-0.22052235901355743
1788051834235916500,6.81291650390625,0.05375614017248154,0.45326200127601624,-0.2828305959701538
1788051834251937300,6.828937255859375,0.11545353382825851,0.4856378734111786,-0.23335053026676178
1788051834268062000,6.84506201171875,0.15027284622192383,0.5106833577156067,-0.051312681287527084
1788051834283954200,6.8609541015625,0.16371189057826996,0.5406157374382019,0.12767083942890167
1788051834300093700,6.87709375,0.13561208546161652,0.6230825781822205,0.28099802136421204
1788051834316087600,6.893087646484375,0.09162978827953339,0.6707300543785095,0.32070425152778625
1788051834332160500,6.909160400390625,0.07880161702632904,0.6798930168151855,0.24984388053417206
1788051834348269600,6.92526953125,0.09040805697441101,0.6670648455619812,0.11362093687057495
1788051834364266000,6.941265869140625,0.12889257073402405,0.6047565937042236,-0.014049900695681572
1788051834380321500,6.957321533203125,0.19608774781227112,0.503963828086853,-0.06963863968849182
1788051834396405000,6.973405029296875,0.2376265823841095,0.40622538328170776,-0.07513642311096191
1788051834412395000,6.98939501953125,0.26145032048225403,0.313373863697052,-0.06902777403593063
1788051834428417800,7.005417724609375,0.26633724570274353,0.27061331272125244,-0.1007927656173706
1788051834444430800,7.021430908203125,0.25534167885780334,0.24190263450145721,-0.14294247329235077
1788051834460499500,7.03749951171875,0.23884831368923187,0.1966986060142517,-0.1722639948129654
1788051834476584200,7.053584228515625,0.22418753802776337,0.1472185254096985,-0.14355333149433136
1788051834492532000,7.069531982421875,0.19975294172763824,0.13255776464939117,-0.07208210229873657
1788051834508563200,7.085563232421875,0.1765400618314743,0.12095131725072861,0.018325956538319588
1788051834524540000,7.101539794921875,0.1771509200334549,0.09346238523721695,0.06414084881544113
1788051834540477400,7.1174775390625,0.1918116807937622,0.07391469180583954,0.05375614017248154
1788051834556782600,7.133782470703125,0.19792033731937408,0.06169738993048668,0.006108652334660292
1788051834572747000,7.1497470703125,0.18448130786418915,0.045204028487205505,-0.01771509274840355
1788051834588791600,7.16579150390625,0.17104226350784302,0.01771509274840355,0.00427605677396059
1788051834604824300,7.18182421875,0.1569923609495163,-0.04764748737215996,0.03726277872920036
1788051834620849400,7.197849365234375,0.17837265133857727,-0.16065755486488342,0.060475658625364304
1788051834636851700,7.213851806640625,0.21380282938480377,-0.25534167885780334,0.10018189996480942
1788051834652925000,7.229925048828125,0.2376265823841095,-0.3084869384765625,0.15760323405265808
1788051834668988000,7.24598779296875,0.25534167885780334,-0.3494149148464203,0.1966986060142517
1788051834684852500,7.2618525390625,0.2669481039047241,-0.3933972120285034,0.19853121042251587
1788051834700854000,7.27785400390625,0.25595253705978394,-0.4440990388393402,0.1820378452539444
1788051834717002000,7.294001953125,0.21502456068992615,-0.49235737323760986,0.14049901068210602
1788051834733103000,7.31010302734375,0.1569923609495163,-0.5106833577156067,0.0708603709936142
1788051834749166600,7.32616650390625,0.08735372871160507,-0.5106833577156067,-0.012828170321881771
1788051834765157000,7.3421572265625,0.013439035043120384,-0.4709770977497101,-0.1160643994808197
1788051834781125600,7.358125732421875,-0.04886921867728233,-0.3646865487098694,-0.192422553896904
1788051834797237200,7.3742373046875,-0.10262536257505417,-0.1820378452539444,-0.192422553896904
1788051834813250800,7.390250732421875,-0.16065755486488342,-0.11545353382825851,-0.18997909128665924
1788051834829315300,7.4063154296875,-0.1820378452539444,-0.23273965716362,-0.2877175211906433
1788051834845316400,7.42231640625,-0.16310101747512817,-0.31154128909111023,-0.4196644127368927
1788051834861390800,7.438390869140625,-0.22907446324825287,-0.3378084897994995,-0.4612032473087311
1788051834877541600,7.454541748046875,-0.3579670190811157,-0.2376265823841095,-0.375071257352829
1788051834893498400,7.470498291015625,-0.43799036741256714,-0.09346238523721695,-0.1869247704744339
1788051834909535700,7.48653564453125,-0.4349360466003418,-0.01710422709584236,0.03298672288656235
1788051834925542100,7.502542236328125,-0.3481931984424591,-0.05864306539297104,0.29016098380088806
1788051834941564200,7.518564208984375,-0.18448130786418915,-0.19547687470912933,0.4758640229701996
1788051834957771000,7.53477099609375,-0.05803219974040985,-0.3274237811565399,0.5448917746543884
1788051834973732900,7.55073291015625,0.054367005825042725,-0.3701843321323395,0.523511528968811
1788051834989775000,7.566775146484375,0.11850785464048386,-0.40744712948799133,0.37262779474258423
1788051835005728000,7.58272802734375,0.15027284622192383,-0.4343251883983612,0.14966198801994324
1788051835021844500,7.598844482421875,0.13866640627384186,-0.49785518646240234,-0.06108652427792549
1788051835037947600,7.61494775390625,0.11484266817569733,-0.6298020482063293,-0.3017674386501312
1788051835053951700,7.63095166015625,0.05803219974040985,-0.7580837607383728,-0.5100724697113037
1788051835070002000,7.647001953125,-0.04214970022439957,-0.7648032903671265,-0.6023131608963013
1788051835086023400,7.6630234375,-0.22113321721553802,-0.6206390857696533,-0.6065891981124878
1788051835101940500,7.6789404296875,-0.394618958234787,-0.38117989897727966,-0.5534439086914062
1788051835118163200,7.6951630859375,-0.48747047781944275,-0.1875356286764145,-0.5149593949317932
1788051835134137000,7.71113720703125,-0.5161811113357544,-0.012217304669320583,-0.5283984541893005
1788051835150214000,7.7272138671875,-0.47830748558044434,0.06841690838336945,-0.5522221922874451
1788051835166204200,7.7432041015625,-0.39767327904701233,0.10323622822761536,-0.5369505286216736
1788051835182235600,7.759235595703125,-0.28527405858039856,0.07330382615327835,-0.4893030524253845
1788051835198319900,7.77531982421875,-0.1618792861700058,-0.03848451003432274,-0.4550946056842804
1788051835214301000,7.791301025390625,-0.028099801391363144,-0.21380282938480377,-0.46792277693748474
1788051835230368800,7.80736865234375,0.04642575979232788,-0.304210901260376,-0.4856378734111786
1788051835246368800,7.82336865234375,0.07391469180583954,-0.32986724376678467,-0.5632177591323853
1788051835262420000,7.839419921875,0.10018189996480942,-0.34636059403419495,-0.759305477142334
1788051835278446800,7.85544677734375,0.11301007121801376,-0.3683517575263977,-0.9737191796302795
1788051835294480100,7.871480224609375,0.1111774742603302,-0.2968805134296417,-1.207680583000183
1788051835310552000,7.887552001953125,0.10873401165008545,-0.18997909128665924,-1.4410310983657837
1788051835326560800,7.903560791015625,0.11423180252313614,-0.17959438264369965,-1.6475036144256592
1788051835342616600,7.919616455078125,0.13316862285137177,-0.30115658044815063,-1.9242255687713623
1788051835358695700,7.93569580078125,0.18631389737129211,-0.33597588539123535,-2.144136905670166
1788051835374688300,7.951688232421875,0.2272418737411499,-0.3335324227809906,-2.311514139175415
1788051835390713900,7.9677138671875,0.3127630054950714,-0.3176499307155609,-2.4935519695281982
1788051835406621000,7.983620849609375,0.34636059403419495,-0.10812314599752426,-2.6554312705993652
1788051835422773800,7.999773681640625,0.37262779474258423,0.19425514340400696,-2.7598891258239746
1788051835438896400,8.015896484375,0.42699480056762695,0.2828305959701538,-2.9413161277770996
1788051835454854400,8.0318544921875,0.5167919993400574,0.19120082259178162,-3.141069173812866
1788051835470892000,8.04789208984375,0.6407976150512695,0.3793473243713379,-2.9382617473602295
1788051835486948000,8.063947998046874,0.6212499737739563,0.5858197808265686,-2.501493215560913
1788051835502957000,8.07995703125,0.49785518646240234,0.5412266254425049,-2.0787744522094727
1788051835519081500,8.09608154296875,0.4862487316131592,0.3182607889175415,-2.012800931930542
1788051835535042300,8.112042236328126,0.5644394755363464,0.2828305959701538,-2.05433988571167
1788051835551084500,8.12808447265625,0.6438519954681396,0.2370157092809677,-2.2321016788482666
1788051835567107000,8.144107177734375,0.7507534027099609,0.18387043476104736,-2.49294114112854
1788051835583190300,8.160190185546876,0.837496280670166,0.10201449692249298,-2.682920217514038
1788051835599318300,8.176318359375,0.8924741148948669,0.15393804013729095,-2.7116308212280273
1788051835615289000,8.1922890625,0.8491026759147644,0.29138273000717163,-2.478891134262085
1788051835631345000,8.208344970703125,0.7825183868408203,0.5106833577156067,-2.070833206176758
1788051835647276500,8.224276611328126,0.7409795522689819,0.6328563690185547,-1.712866187095642
1788051835663227400,8.240227294921874,0.7171558141708374,0.4398229718208313,-1.3060299158096313
1788051835679580000,8.256579833984375,0.6829473376274109,0.29016098380088806,-0.759305477142334
1788051835695539200,8.272539306640626,0.607810914516449,0.2620611786842346,-0.30054569244384766
1788051835711639300,8.288639404296875,0.5503895878791809,0.19547687470912933,-0.04948008432984352
1788051835727638500,8.304638427734375,0.5381723046302795,0.16798794269561768,-0.10262536257505417
1788051835743611000,8.32061083984375,0.5283984541893005,0.09040805697441101,-0.2535090744495392
1788051835759760400,8.336760498046875,0.513737678527832,-0.04642575979232788,-0.36713001132011414
1788051835775773200,8.352773193359376,0.46792277693748474,-0.18509216606616974,-0.3781255781650543
1788051835791803000,8.368802978515625,0.4080579876899719,-0.2828305959701538,-0.342695415019989
1788051835807762000,8.384761962890625,0.3579670190811157,-0.31459560990333557,-0.2675589919090271
1788051835823711500,8.40071142578125,0.2840523421764374,-0.303600013256073,-0.1765400618314743
1788051835839982000,8.416982177734376,0.20525072515010834,-0.2577851414680481,-0.14538592100143433
1788051835855996400,8.432996337890625,0.15027284622192383,-0.23457226157188416,-0.1722639948129654
1788051835872034800,8.449034912109376,0.11667526513338089,-0.21563543379306793,-0.22602014243602753
1788051835888057600,8.4650576171875,0.08918632566928864,-0.2015855312347412,-0.2883284091949463
1788051835903930400,8.480930419921876,0.06414084881544113,-0.1716531366109848,-0.33658674359321594
1788051835920118300,8.4971181640625,0.02626720629632473,-0.09224065393209457,-0.37079519033432007
1788051835936192800,8.51319287109375,-0.018325956538319588,-0.08185594528913498,-0.3830125033855438
1788051835952306700,8.529306640625,-0.03237585723400116,-0.07880161702632904,-0.3127630054950714
1788051835968339500,8.54533935546875,-0.04764748737215996,-0.0806342139840126,-0.2278527319431305
1788051835984430800,8.561430908203125,-0.1014036312699318,-0.1215621829032898,-0.182648703455925
1788051836000588500,8.577588623046875,-0.152105450630188,-0.1814269721508026,-0.17592918872833252
1788051836016578300,8.593578369140625,-0.19608774781227112,-0.23029619455337524,-0.17287486791610718
1788051836032632300,8.60963232421875,-0.25045475363731384,-0.3072652220726013,-0.17898350954055786
1788051836048546000,8.625546142578125,-0.29993483424186707,-0.3744603991508484,-0.19914206862449646
1788051836064531500,8.641531494140626,-0.3182607889175415,-0.3885102868080139,-0.18325957655906677
1788051836080795400,8.65779541015625,-0.32559117674827576,-0.35246923565864563,-0.11972958594560623
1788051836096816000,8.673816162109375,-0.34025195240974426,-0.26450464129447937,-0.06902777403593063
1788051836112875000,8.689875,-0.31581732630729675,-0.1569923609495163,-0.08674286305904388
1788051836128874000,8.7058740234375,-0.24678955972194672,-0.018325956538319588,-0.14355333149433136
1788051836144921900,8.721921875,-0.1466076523065567,0.06719517707824707,-0.21441370248794556
1788051836160968000,8.737968017578124,-0.15271630883216858,-0.059864792972803116,-0.3390302062034607
1788051836177001500,8.75400146484375,-0.1875356286764145,-0.11789698898792267,-0.494189977645874
1788051836193100500,8.7701005859375,-0.19792033731937408,-0.09162978827953339,-0.6218608021736145
1788051836209045200,8.786045166015626,-0.21868975460529327,0.0507018156349659,-0.6328563690185547
1788051836225069600,8.802069580078125,-0.2376265823841095,0.2541199326515198,-0.513737678527832
1788051836241312500,8.8183125,-0.26083946228027344,0.40256020426750183,-0.25961771607398987
1788051836257305600,8.8343056640625,-0.2773328125476837,0.3689626157283783,-0.03176499158143997
1788051836273407500,8.850407470703125,-0.29138273000717163,0.2718350291252136,0.1111774742603302
1788051836289345800,8.866345703125,-0.32131510972976685,0.1973094791173935,0.22479841113090515
1788051836305446000,8.88244580078125,-0.3390302062034607,0.17409659922122955,0.28466320037841797
1788051836321586200,8.898586181640624,-0.3170390725135803,0.19486601650714874,0.22968533635139465
1788051836337538300,8.914538330078125,-0.2779437005519867,0.030543262138962746,0.07696902006864548
1788051836353568800,8.93056884765625,-0.2773328125476837,-0.20891591906547546,-0.1313360333442688
1788051836369477400,8.946477294921875,-0.23884831368923187,-0.2681698501110077,-0.303600013256073
1788051836385371400,8.962371337890625,-0.17898350954055786,-0.2125810980796814,-0.3982841372489929
1788051836401794000,8.9787939453125,-0.1411098688840866,-0.17898350954055786,-0.45692721009254456
1788051836417752000,8.994751953125,-0.16737708449363708,-0.22418753802776337,-0.5247332453727722
1788051836433782800,9.01078271484375,-0.18448130786418915,-0.23335053026676178,-0.6047565937042236
1788051836449806000,9.02680615234375,-0.17531833052635193,-0.16371189057826996,-0.6401867866516113
1788051836465751800,9.042751708984374,-0.17776179313659668,0.04153883829712868,-0.5503895878791809
1788051836481926700,9.0589267578125,-0.22602014243602753,0.28649580478668213,-0.3903428912162781
1788051836497938200,9.074938232421875,-0.28466320037841797,0.44837507605552673,-0.2528982162475586
1788051836513982700,9.090982666015625,-0.3219259977340698,0.4178318381309509,-0.16737708449363708
1788051836529932800,9.106932861328126,-0.30115658044815063,0.3500257730484009,-0.11423180252313614
1788051836546092500,9.123092529296875,-0.27000242471694946,0.34208452701568604,-0.13072516024112701
1788051836562240800,9.13924072265625,-0.24923302233219147,0.25961771607398987,-0.16737708449363708
1788051836578212000,9.155212158203126,-0.23090706765651703,0.25473082065582275,-0.24068090319633484
1788051836594269400,9.17126953125,-0.21135938167572021,0.31154128909111023,-0.36529740691185
1788051836610254600,9.187254638671876,-0.18631389737129211,0.3017674386501312,-0.513126790523529
1788051836626163000,9.203162841796875,-0.1661553531885147,0.26450464129447937,-0.6096435189247131
1788051836642441700,9.219441650390625,-0.1563815027475357,0.23090706765651703,-0.6139195561408997
1788051836658409700,9.23540966796875,-0.13805554807186127,0.17470745742321014,-0.5021312236785889
1788051836674477600,9.2514775390625,-0.11972958594560623,0.12217304855585098,-0.32070425152778625
1788051836690358000,9.26735791015625,-0.0959058403968811,0.04642575979232788,-0.12767083942890167
1788051836706328000,9.283328125,-0.08674286305904388,-0.021991148591041565,0.012217304669320583
1788051836722657500,9.299657470703124,-0.07391469180583954,-0.08735372871160507,0.14477506279945374
1788051836738584000,9.315583984375,-0.036651913076639175,-0.1417207419872284,0.23090706765651703
1788051836754630700,9.331630615234374,0.03481931984424591,-0.15271630883216858,0.2718350291252136
1788051836770495500,9.34749560546875,0.14233160018920898,-0.13377949595451355,0.29626965522766113
1788051836786428700,9.3634287109375,0.2535090744495392,-0.08552113175392151,0.304210901260376
1788051836802856400,9.3798564453125,0.32681289315223694,-0.05864306539297104,0.2718350291252136
1788051836818751500,9.39575146484375,0.41233405470848083,-0.012217304669320583,0.21624629199504852
1788051836834842000,9.411842041015625,0.4807509481906891,0.04581489413976669,0.15271630883216858
1788051836850774800,9.42777490234375,0.4954117238521576,0.0555887371301651,0.06658431142568588
1788051836866774000,9.44377392578125,0.5424483418464661,0.14477506279945374,-0.06719517707824707
1788051836883059500,9.4600595703125,0.6090326309204102,0.23151792585849762,-0.192422553896904
1788051836899040500,9.47604052734375,0.6279694437980652,0.2125810980796814,-0.25595253705978394
1788051836915085300,9.492085205078125,0.6285803318023682,0.12278391420841217,-0.20525072515010834
1788051836931149000,9.508149169921875,0.6322455406188965,0.01710422709584236,-0.05253441259264946
1788051836947213800,9.5242138671875,0.5803219676017761,0.02321287989616394,0.0708603709936142
1788051836971271700,9.548271728515624,0.485027015209198,0.0757472887635231,0.1258382350206375
1788051836987319300,9.5643193359375,0.44165557622909546,0.004886921960860491,0.15271630883216858
1788051837003433200,9.58043310546875,0.4343251883983612,-0.14294247329235077,0.22907446324825287
1788051837019391200,9.59639111328125,0.4080579876899719,-0.16920967400074005,0.28649580478668213
1788051837035461400,9.61246142578125,0.40133845806121826,-0.08124507963657379,0.33169981837272644
1788051837051460600,9.628460693359376,0.39706242084503174,-0.024434609338641167,0.2376265823841095
1788051837067520800,9.644520751953126,0.4660901725292206,-0.01466076634824276,0.030543262138962746
1788051837083654400,9.660654296875,0.5766568183898926,-0.04092797264456749,-0.14233160018920898
1788051837099616800,9.67661669921875,0.6603453159332275,-0.07330382615327835,-0.21135938167572021
1788051837115653000,9.692653076171876,0.7153232097625732,-0.11667526513338089,-0.22540926933288574
1788051837131666200,9.708666259765625,0.7073819637298584,-0.19425514340400696,-0.19486601650714874
1788051837147730000,9.72472998046875,0.655458390712738,-0.3072652220726013,-0.15332718193531036
1788051837171614000,9.748614013671874,0.5076290369033813,-0.46670106053352356,-0.07513642311096191
1788051837187571500,9.764571533203124,0.3842342495918274,-0.4642575979232788,-0.04337143152952194
1788051837203770600,9.7807705078125,0.28038713335990906,-0.33108896017074585,-0.06963863968849182
1788051837219764200,9.79676416015625,0.20891591906547546,-0.18570303916931152,-0.13988813757896423
1788051837235946000,9.812946044921874,0.11789698898792267,-0.07819075137376785,-0.21380282938480377
1788051837251737900,9.82873779296875,0.025045474991202354,-0.02626720629632473,-0.26083946228027344
1788051837267845000,9.84484521484375,-0.06291911751031876,-0.009773843921720982,-0.3023782968521118
1788051837283985200,9.860985107421875,-0.12522737681865692,0.0012217304902151227,-0.34086281061172485
1788051837300016000,9.87701611328125,-0.18081611394882202,0.013439035043120384,-0.34086281061172485
1788051837316138500,9.893138427734375,-0.22968533635139465,0.029932396486401558,-0.2889392673969269
1788051837332001000,9.9090009765625,-0.26022860407829285,0.022602014243602753,-0.2382374405860901
1788051837348109600,9.925109619140626,-0.29016098380088806,-0.02321287989616394,-0.19120082259178162
1788051837364209200,9.941209228515625,-0.32681289315223694,-0.08002334833145142,-0.16554448008537292
1788051837380227800,9.957227783203125,-0.3591887652873993,-0.14416420459747314,-0.14049901068210602
1788051837396332000,9.97333203125,-0.3927863538265228,-0.2223549485206604,-0.09834930300712585
1788051837412317700,9.989317626953126,-0.41233405470848083,-0.2742784917354584,-0.048258353024721146
1788051837428258000,10.005258056640624,-0.43737950921058655,-0.3072652220726013,-0.01771509274840355
1788051837444494600,10.02149462890625,-0.4642575979232788,-0.32009339332580566,0.006719517521560192
1788051837460432600,10.0374326171875,-0.48747047781944275,-0.32498031854629517,0.04764748737215996
1788051837476549000,10.053549072265625,-0.5064072608947754,-0.3341432809829712,0.11484266817569733
1788051837492501800,10.069501708984374,-0.49724429845809937,-0.35246923565864563,0.16310101747512817
1788051837508364500,10.085364501953125,-0.4538728892803192,-0.3194825351238251,0.17959438264369965
1788051837524531700,10.10153173828125,-0.3640756905078888,-0.21868975460529327,0.15393804013729095
1788051837540561200,10.11756103515625,-0.24984388053417206,-0.12278391420841217,0.09285151958465576
1788051837556706600,10.13370654296875,-0.09773843735456467,-0.0024434609804302454,-0.05375614017248154
1788051837572682500,10.1496826171875,0.018936822190880775,0.060475658625364304,-0.31642818450927734
1788051837588421400,10.16542138671875,0.04764748737215996,0.11972958594560623,-0.5949827432632446
1788051837604582000,10.181581787109375,0.059864792972803116,0.27550023794174194,-0.7953465580940247
1788051837620817000,10.19781689453125,0.07391469180583954,0.504574716091156,-0.7965682744979858
1788051837636874800,10.213874755859376,0.09407325088977814,0.6707300543785095,-0.616973876953125
1788051837652793600,10.229793701171875,0.10506882518529892,0.8069530129432678,-0.3170390725135803
1788051837668881000,10.245880859375,0.1007927656173706,0.7971791625022888,-0.00366519158706069
1788051837684983800,10.26198388671875,0.07941248267889023,0.6310238242149353,0.24129177629947662
1788051837700973800,10.277973876953125,0.03726277872920036,0.43799036741256714,0.375071257352829
1788051837716998000,10.293997802734374,-0.042760565876960754,0.22540926933288574,0.44837507605552673
1788051837732911900,10.309911865234374,-0.1411098688840866,0.06841690838336945,0.4105014503002167
1788051837749054000,10.326053955078125,-0.21930062770843506,-0.01160643994808197,0.3243694305419922
1788051837765201400,10.342201416015625,-0.3078760802745819,-0.0861319974064827,0.192422553896904
1788051837781130200,10.358130126953125,-0.3842342495918274,-0.18570303916931152,0.05192354694008827
1788051837797188400,10.374188232421876,-0.42271876335144043,-0.24862214922904968,-0.039706241339445114
1788051837813205800,10.390205810546876,-0.43615779280662537,-0.22540926933288574,-0.07757988572120667
1788051837829270000,10.40627001953125,-0.45753806829452515,-0.12828169763088226,-0.05619960278272629
1788051837845433900,10.422433837890624,-0.4648684561252594,0.010995574295520782,-0.022602014243602753
1788051837861389300,10.438389404296874,-0.43188172578811646,0.11972958594560623,0.00366519158706069
1788051837877436200,10.454436279296875,-0.3927863538265228,0.18631389737129211,-0.01038470957428217
1788051837893428000,10.470427978515625,-0.37262779474258423,0.192422553896904,-0.07269296050071716
1788051837909322500,10.486322509765625,-0.35552358627319336,0.14966198801994324,-0.12339477986097336
1788051837925733600,10.502733642578125,-0.34513887763023376,0.05619960278272629,-0.16065755486488342
1788051837941705200,10.518705322265625,-0.33292156457901,-0.04642575979232788,-0.1661553531885147
1788051837957766000,10.534765869140625,-0.32620203495025635,-0.11239920556545258,-0.15332718193531036
1788051837973756700,10.550756591796874,-0.3170390725135803,-0.14355333149433136,-0.15577064454555511
1788051837989695000,10.566695068359374,-0.30054569244384766,-0.12400564551353455,-0.182648703455925
1788051838005771500,10.582771484375,-0.27977627515792847,-0.06352998316287994,-0.1973094791173935
1788051838021813800,10.598813720703125,-0.2480112910270691,0.03726277872920036,-0.18631389737129211
1788051838037977900,10.614977783203125,-0.21807889640331268,0.11545353382825851,-0.13744467496871948
1788051838053911000,10.6309111328125,-0.2028072625398636,0.12889257073402405,-0.054367005825042725
1788051838069859300,10.646859375,-0.19853121042251587,0.1062905490398407,0.02871066704392433
1788051838086060300,10.663060302734374,-0.20525072515010834,0.039095375686883926,0.09773843735456467
1788051838102131200,10.679131103515624,-0.2021963894367218,-0.009162978269159794,0.14294247329235077
1788051838118200000,10.695199951171874,-0.18936823308467865,-0.04642575979232788,0.15454891324043274
1788051838134204700,10.71120458984375,-0.16920967400074005,-0.07819075137376785,0.13316862285137177
1788051838150215200,10.727215087890626,-0.1466076523065567,-0.10506882518529892,0.08674286305904388
1788051838166386700,10.74338671875,-0.12400564551353455,-0.11972958594560623,0.04703662544488907
1788051838182343200,10.75934326171875,-0.1007927656173706,-0.11850785464048386,0.01160643994808197
1788051838198381600,10.775381591796876,-0.1007927656173706,-0.10384709388017654,-0.01038470957428217
1788051838214339600,10.791339599609374,-0.09346238523721695,-0.08368854224681854,-0.018936822190880775
1788051838230328000,10.807328125,-0.07819075137376785,-0.05253441259264946,-0.04153883829712868
1788051838246496800,10.823496826171874,-0.02687807008624077,0.012217304669320583,-0.02321287989616394
1788051838262554000,10.83955419921875,0.028099801391363144,0.09346238523721695,0.015271631069481373
1788051838278595300,10.85559521484375,0.07024950534105301,0.15271630883216858,0.04398229718208313
1788051838294618600,10.87161865234375,0.1014036312699318,0.15271630883216858,0.05375614017248154
1788051838310544000,10.8875439453125,0.11239920556545258,0.13255776464939117,0.028099801391363144
1788051838326835500,10.90383544921875,0.11301007121801376,0.10445795953273773,-0.0006108652451075613
1788051838342782500,10.919782470703124,0.1014036312699318,0.09651670604944229,-0.006108652334660292
1788051838358848500,10.9358486328125,0.07147123664617538,0.07635815441608429,0.027488935738801956
1788051838374878700,10.951878662109374,0.030543262138962746,0.05009094998240471,0.06780604273080826
1788051838390952200,10.9679521484375,-0.00366519158706069,0.013439035043120384,0.11850785464048386
1788051838407098000,10.98409814453125,-0.03298672288656235,-0.015271631069481373,0.1569923609495163
1788051838423069200,11.000069091796876,-0.07147123664617538,-0.039095375686883926,0.16249015927314758
1788051838439129000,11.016129150390626,-0.1062905490398407,-0.04886921867728233,0.15393804013729095
1788051838455118300,11.032118408203125,-0.15760323405265808,-0.051312681287527084,0.1313360333442688
1788051838471167200,11.048167236328124,-0.20830504596233368,-0.012828170321881771,0.1160643994808197
1788051838487326500,11.064326416015625,-0.2565633952617645,0.0354301854968071,0.09346238523721695
1788051838503241000,11.080240966796875,-0.31459560990333557,0.08491026610136032,0.036041051149368286
1788051838519370500,11.09637060546875,-0.37201693654060364,0.12767083942890167,-0.01771509274840355
1788051838535176400,11.112176513671875,-0.4153883755207062,0.14416420459747314,-0.04642575979232788
1788051838551254300,11.128254150390624,-0.46670106053352356,0.1264491081237793,-0.056810468435287476
1788051838567538000,11.144537841796875,-0.5174028873443604,0.09468411654233932,-0.033597588539123535
1788051838583480000,11.16047998046875,-0.5876523852348328,0.03787364438176155,-0.003054326167330146
1788051838599517400,11.176517333984375,-0.646906316280365,-0.018325956538319588,0.0006108652451075613
1788051838615525400,11.192525390625,-0.7086036801338196,-0.07452555745840073,-0.014049900695681572
1788051838631538000,11.208537841796876,-0.7867944240570068,-0.1514945775270462,-0.051312681287527084
1788051838647736000,11.224736083984375,-0.8594874143600464,-0.21563543379306793,-0.09224065393209457
1788051838663683300,11.240683349609375,-0.9560040831565857,-0.303600013256073,-0.14538592100143433
1788051838679717400,11.25671728515625,-1.054964303970337,-0.3634648323059082,-0.1771509200334549
1788051838695735300,11.2727353515625,-1.122159481048584,-0.37629300355911255,-0.18020524084568024
1788051838711796000,11.2887958984375,-1.2217304706573486,-0.3591887652873993,-0.18020524084568024
1788051838727955000,11.304954833984375,-1.3255776166915894,-0.3378084897994995,-0.182648703455925
1788051838743884300,11.32088427734375,-1.4007140398025513,-0.29993483424186707,-0.17104226350784302
1788051838759922700,11.336922607421876,-1.5027284622192383,-0.2889392673969269,-0.1411098688840866
1788051838775942000,11.35294189453125,-1.6206254959106445,-0.26633724570274353,-0.09712757170200348
1788051838792012000,11.369011962890625,-1.7116444110870361,-0.17348572611808777,-0.03726277872920036
1788051838808107300,11.385107177734374,-1.7568484544754028,-0.07330382615327835,-0.01710422709584236
1788051838824126000,11.4011259765625,-1.7928894758224487,-0.0012217304902151227,-0.02871066704392433
1788051838840168200,11.417168212890624,-1.8093829154968262,0.04703662544488907,-0.02382374368607998
1788051838856226800,11.433226806640626,-1.7989981174468994,0.09407325088977814,0.007941247895359993
1788051838872304400,11.449304443359376,-1.7715091705322266,0.1612684279680252,0.06963863968849182
1788051838888387600,11.4653876953125,-1.740355134010315,0.20036379992961884,0.1313360333442688
1788051838904451800,11.481451904296875,-1.6963727474212646,0.21013765037059784,0.17104226350784302
1788051838920509200,11.49750927734375,-1.6365079879760742,0.2028072625398636,0.20586158335208893
1788051838936496000,11.51349609375,-1.5815300941467285,0.17898350954055786,0.24495697021484375
1788051838952589000,11.529589111328125,-1.538158655166626,0.14049901068210602,0.2926044464111328
1788051838968719400,11.54571923828125,-1.511891484260559,0.09651670604944229,0.33047810196876526
1788051838984699000,11.561698974609374,-1.4917329549789429,0.08002334833145142,0.3677408695220947
1788051839000764400,11.577764404296875,-1.4892895221710205,0.09712757170200348,0.37140607833862305
1788051839016674000,11.593674072265625,-1.4960089921951294,0.13255776464939117,0.34574973583221436
1788051839032696600,11.609696533203126,-1.5161675214767456,0.17776179313659668,0.2926044464111328
1788051839048935200,11.62593505859375,-1.5570955276489258,0.21135938167572021,0.24068090319633484
1788051839064901000,11.641901123046875,-1.5968017578125,0.23090706765651703,0.22663100063800812
1788051839080989400,11.657989501953125,-1.6438384056091309,0.24373523890972137,0.24617868661880493
1788051839096900900,11.67390087890625,-1.6896532773971558,0.21624629199504852,0.2889392673969269
1788051839113040400,11.690040283203125,-1.718363881111145,0.16310101747512817,0.33108896017074585
1788051839129166800,11.706166748046876,-1.7556266784667969,0.056810468435287476,0.3488040566444397
1788051839145155600,11.722155517578125,-1.7996090650558472,-0.03176499158143997,0.2742784917354584
1788051839161227800,11.738227783203126,-1.824654459953308,-0.04764748737215996,0.11850785464048386
1788051839177080300,11.754080322265626,-1.8234328031539917,0.021991148591041565,-0.05619960278272629
1788051839193249000,11.7702490234375,-1.7806721925735474,0.1411098688840866,-0.20952677726745605
1788051839209430300,11.78643017578125,-1.7244726419448853,0.1814269721508026,-0.2272418737411499
1788051839225385000,11.802385009765626,-1.683544635772705,0.1368338167667389,-0.1258382350206375
1788051839241429500,11.818429443359374,-1.6499470472335815,0.007941247895359993,0.08674286305904388
1788051839257458200,11.834458251953125,-1.6310101747512817,-0.14966198801994324,0.2919935882091522
1788051839273537500,11.85053759765625,-1.6279559135437012,-0.2919935882091522,0.3988949954509735
1788051839289677600,11.866677490234375,-1.6365079879760742,-0.45142942667007446,0.423329621553421
1788051839305583600,11.88258349609375,-1.6701055765151978,-0.5455026626586914,0.3530801236629486
1788051839321677000,11.898677001953125,-1.7165313959121704,-0.5907067060470581,0.2168571650981903
1788051839337708500,11.91470849609375,-1.7654005289077759,-0.588263213634491,0.06841690838336945
1788051839353634300,11.93063427734375,-1.8222110271453857,-0.5222898125648499,-0.07880161702632904
1788051839369839400,11.94683935546875,-1.86497163772583,-0.40194934606552124,-0.15760323405265808
1788051839385877000,11.962876953125,-1.8564194440841675,-0.2675589919090271,-0.16920967400074005
1788051839401953300,11.978953369140624,-1.8197675943374634,-0.152105450630188,-0.10506882518529892
1788051839417749500,11.99474951171875,-1.7873916625976562,-0.09285151958465576,0.007941247895359993
1788051839433886200,12.01088623046875,-1.7654005289077759,-0.0959058403968811,0.10567969083786011
1788051839450045700,12.027045654296876,-1.7275269031524658,-0.13072516024112701,0.1814269721508026
1788051839466115000,12.043114990234375,-1.6646077632904053,-0.13439035415649414,0.21074850857257843
1788051839482178000,12.059177978515624,-1.6004669666290283,-0.12095131725072861,0.20830504596233368
1788051839498166500,12.07516650390625,-1.5436564683914185,-0.09407325088977814,0.18509216606616974
1788051839514215700,12.091215576171875,-1.474017858505249,-0.04642575979232788,0.13439035415649414
1788051839530143500,12.1071435546875,-1.4080443382263184,-0.0012217304902151227,0.06719517707824707
1788051839546173200,12.123173095703125,-1.3628404140472412,0.01771509274840355,0.022602014243602753
1788051839562381600,12.139381591796875,-1.320690631866455,0.031154127791523933,0.00427605677396059
1788051839578313700,12.155313720703125,-1.2944234609603882,0.015271631069481373,0.004886921960860491
1788051839594269200,12.171269287109375,-1.2718214988708496,-0.00427605677396059,-0.003054326167330146
1788051839610590700,12.1875908203125,-1.2510520219802856,-0.039095375686883926,-0.02076941914856434
1788051839626507800,12.2035078125,-1.224173903465271,-0.06780604273080826,-0.02932153269648552
1788051839642597400,12.219597412109374,-1.1985175609588623,-0.0910189226269722,-0.029932396486401558
1788051839658484500,12.235484375,-1.1649199724197388,-0.11239920556545258,-0.022602014243602753
1788051839674505700,12.251505615234375,-1.1166616678237915,-0.11789698898792267,-0.01038470957428217
1788051839690752000,12.267751953125,-1.0433578491210938,-0.10445795953273773,0.02076941914856434
1788051839706804200,12.28380419921875,-0.9651671051979065,-0.09529497474431992,0.06414084881544113
1788051839722847500,12.299847412109376,-0.8607091307640076,-0.10262536257505417,0.12767083942890167
1788051839738871000,12.31587109375,-0.7745771408081055,-0.09529497474431992,0.1765400618314743
1788051839754832000,12.331831787109374,-0.6921103000640869,-0.07819075137376785,0.18875735998153687
1788051839771117800,12.348117919921876,-0.5827654600143433,-0.06352998316287994,0.1508837193250656
1788051839787083300,12.364083251953126,-0.4447098970413208,-0.182648703455925,0.04459316283464432
1788051839803128800,12.38012890625,-0.3793473243713379,-0.015882495790719986,-0.07391469180583954
1788051839819098000,12.39609814453125,-0.2736676335334778,-0.09773843735456467,-0.12217304855585098
1788051839834996200,12.411996337890624,-0.2675589919090271,-0.21380282938480377,-0.21441370248794556
1788051839851420700,12.428420654296875,-0.2828305959701538,-0.27061331272125244,-0.252287358045578
1788051839867394800,12.444394775390625,-0.3084869384765625,-0.3286454975605011,-0.2938261926174164
1788051839883450400,12.460450439453124,-0.2577851414680481,-0.38117989897727966,-0.4001167416572571
1788051839899442700,12.476442626953125,-0.19792033731937408,-0.09957103431224823,-0.32681289315223694
1788051839915490800,12.49249072265625,-0.15271630883216858,0.10445795953273773,-0.1411098688840866
1788051839931615500,12.508615478515624,-0.1007927656173706,0.22968533635139465,0.10690141469240189
1788051839947600600,12.5246005859375,-0.05742133408784866,0.24556782841682434,0.2785545587539673
1788051839963667700,12.540667724609374,0.004886921960860491,0.12767083942890167,0.3170390725135803
1788051839979581200,12.556581298828124,0.08246681094169617,-0.01038470957428217,0.2773328125476837
1788051839995606300,12.572606201171874,0.14966198801994324,-0.11850785464048386,0.182648703455925
1788051840011785500,12.588785400390625,0.19608774781227112,-0.21441370248794556,0.0659734457731247
1788051840027865000,12.604864990234375,0.22663100063800812,-0.28649580478668213,-0.025045474991202354
1788051840043941000,12.620941162109375,0.2535090744495392,-0.35552358627319336,-0.07941248267889023
1788051840059776000,12.63677587890625,0.2571742534637451,-0.4056145250797272,-0.06108652427792549
1788051840075756800,12.6527568359375,0.2321287989616394,-0.42149701714515686,-0.010995574295520782
1788051840092014800,12.669014892578126,0.182648703455925,-0.4331034719944,0.05314527451992035
1788051840108108800,12.68510888671875,0.12522737681865692,-0.43799036741256714,0.09162978827953339
1788051840124144400,12.701144287109376,0.08796459436416626,-0.4251621961593628,0.0806342139840126
1788051840140051700,12.7170517578125,0.05619960278272629,-0.3885102868080139,-0.005497787147760391
1788051840156084500,12.73308447265625,0.059864792972803116,-0.30543261766433716,-0.11484266817569733
1788051840172211700,12.749211669921875,0.09834930300712585,-0.17531833052635193,-0.17104226350784302
1788051840188339500,12.76533935546875,0.15271630883216858,-0.05253441259264946,-0.14905111491680145
1788051840204385300,12.78138525390625,0.20402899384498596,0.06475171446800232,-0.07513642311096191
1788051840220417300,12.797417236328124,0.21991148591041565,0.1319468915462494,-0.009162978269159794
1788051840236440600,12.813440673828126,0.2125810980796814,0.16310101747512817,0.025045474991202354
1788051840252472000,12.82947216796875,0.18997909128665924,0.15943582355976105,0.039706241339445114
1788051840268537600,12.84553759765625,0.1508837193250656,0.14844025671482086,0.036651913076639175
1788051840284684300,12.861684326171876,0.10812314599752426,0.12217304855585098,0.01038470957428217
1788051840300678000,12.877677978515624,0.056810468435287476,0.07269296050071716,-0.024434609338641167
1788051840316590000,12.893590087890624,0.02015855349600315,0.02871066704392433,-0.033597588539123535
1788051840332929300,12.90992919921875,-0.0012217304902151227,0.004886921960860491,-0.02321287989616394
1788051840348913000,12.925912841796874,-0.01160643994808197,0.015271631069481373,-0.014049900695681572
1788051840364974800,12.941974853515624,-0.01466076634824276,0.025656340643763542,-0.010995574295520782
1788051840380943000,12.957943115234375,-0.006719517521560192,0.028099801391363144,-0.006719517521560192
1788051840396871200,12.97387109375,0.012828170321881771,0.029932396486401558,-0.00733038317412138
1788051840413087000,12.9900869140625,0.04398229718208313,0.06963863968849182,-0.00427605677396059
1788051840429157600,13.00615771484375,0.08124507963657379,0.1258382350206375,-0.005497787147760391
1788051840445223400,13.022223388671875,0.1111774742603302,0.16004669666290283,-0.00427605677396059
1788051840461230300,13.038230224609375,0.1270599663257599,0.17776179313659668,-0.0012217304902151227
1788051840477090600,13.054090576171875,0.1160643994808197,0.1612684279680252,0.006108652334660292
1788051840493396200,13.070396240234375,0.07819075137376785,0.10384709388017654,0.00733038317412138
1788051840509347600,13.08634765625,0.05009094998240471,0.05742133408784866,0.012828170321881771
1788051840525375700,13.102375732421875,0.00427605677396059,0.004886921960860491,-0.0024434609804302454
1788051840549422600,13.126422607421874,-0.03481931984424591,-0.004886921960860491,-0.04214970022439957
1788051840565474800,13.142474853515624,-0.027488935738801956,0.029932396486401558,-0.06658431142568588
1788051840581514800,13.1585146484375,-0.009162978269159794,0.07819075137376785,-0.08185594528913498
1788051840597552400,13.174552490234374,0.0024434609804302454,0.12767083942890167,-0.0959058403968811
1788051840613708800,13.190708740234374,0.001832595793530345,0.16310101747512817,-0.09651670604944229
1788051840629705700,13.206705810546875,0.00855211354792118,0.18325957655906677,-0.08002334833145142
1788051840645761500,13.222761474609374,0.00733038317412138,0.19486601650714874,-0.042760565876960754
1788051840661816300,13.23881640625,-0.018936822190880775,0.16371189057826996,-0.00366519158706069
1788051840677864700,13.25486474609375,-0.05742133408784866,0.09651670604944229,0.014049900695681572
1788051840693983700,13.270983642578125,-0.10690141469240189,-0.003054326167330146,0.03726277872920036
1788051840709983500,13.2869833984375,-0.1618792861700058,-0.09529497474431992,0.059864792972803116
1788051840726054100,13.30305419921875,-0.18875735998153687,-0.17104226350784302,0.0806342139840126
1788051840742118700,13.31911865234375,-0.19853121042251587,-0.17409659922122955,0.09224065393209457
1788051840758166800,13.335166748046875,-0.20830504596233368,-0.16004669666290283,0.09651670604944229
1788051840774292000,13.3512919921875,-0.20586158335208893,-0.1319468915462494,0.08368854224681854
1788051840790251300,13.367251220703125,-0.20036379992961884,-0.10690141469240189,0.0555887371301651
1788051840806327000,13.3833271484375,-0.18936823308467865,-0.0910189226269722,0.009162978269159794
1788051840822344200,13.39934423828125,-0.17898350954055786,-0.08674286305904388,-0.02932153269648552
1788051840838404400,13.415404296875,-0.17104226350784302,-0.08491026610136032,-0.04886921867728233
1788051840854533400,13.431533447265625,-0.16859880089759827,-0.10445795953273773,-0.04948008432984352
1788051840870497500,13.44749755859375,-0.16310101747512817,-0.11362093687057495,-0.03848451003432274
1788051840886529800,13.46352978515625,-0.15515977144241333,-0.11545353382825851,-0.04581489413976669
1788051840902549200,13.47954931640625,-0.1459967941045761,-0.12522737681865692,-0.07635815441608429
1788051840918614000,13.495614013671876,-0.1368338167667389,-0.1319468915462494,-0.12461651116609573
1788051840934761200,13.51176123046875,-0.14416420459747314,-0.15577064454555511,-0.18020524084568024
1788051840950732000,13.52773193359375,-0.15454891324043274,-0.17531833052635193,-0.21319197118282318
1788051840966769000,13.543768798828125,-0.16371189057826996,-0.18325957655906677,-0.21991148591041565
1788051840982786000,13.5597861328125,-0.16004669666290283,-0.17837265133857727,-0.19425514340400696
1788051840998859500,13.575859619140624,-0.1508837193250656,-0.17776179313659668,-0.14905111491680145
1788051841015014100,13.59201416015625,-0.13805554807186127,-0.16859880089759827,-0.09346238523721695
1788051841030994400,13.607994384765625,-0.1362229436635971,-0.14966198801994324,-0.04703662544488907
1788051841047043300,13.624043212890625,-0.12950342893600464,-0.11056660860776901,-0.015271631069481373
1788051841063065000,13.640065185546876,-0.1160643994808197,-0.05742133408784866,-0.009773843921720982
1788051841079097900,13.656097900390625,-0.09468411654233932,-0.001832595793530345,-0.030543262138962746
1788051841095216600,13.672216552734374,-0.08246681094169617,0.02932153269648552,-0.05619960278272629
1788051841111203800,13.688203857421875,-0.07635815441608429,0.04214970022439957,-0.07635815441608429
1788051841127268900,13.704268798828124,-0.05803219974040985,0.06414084881544113,-0.11301007121801376
1788051841143300000,13.720300048828125,-0.010995574295520782,0.1062905490398407,-0.1514945775270462
1788051841159342600,13.736342529296875,0.054367005825042725,0.1563815027475357,-0.1722639948129654
1788051841175458600,13.75245849609375,0.10995574295520782,0.15821409225463867,-0.17959438264369965
1788051841191512800,13.768512939453124,0.13561208546161652,0.10445795953273773,-0.15271630883216858
1788051841207585000,13.7845849609375,0.14049901068210602,0.03481931984424591,-0.08796459436416626
1788051841223591200,13.800591064453124,0.12828169763088226,-0.029932396486401558,-0.01160643994808197
1788051841239645000,13.81664501953125,0.09957103431224823,-0.08552113175392151,0.060475658625364304
1788051841255767000,13.83276708984375,0.06658431142568588,-0.10751228034496307,0.09834930300712585
1788051841271775000,13.84877490234375,0.03848451003432274,-0.09529497474431992,0.09896016865968704
1788051841287850200,13.864850341796876,0.004886921960860491,-0.04214970022439957,0.08368854224681854
1788051841303893000,13.88089306640625,-0.031154127791523933,0.02687807008624077,0.08307767659425735
1788051841319959300,13.896959228515625,-0.0555887371301651,0.08918632566928864,0.10567969083786011
1788051841336102100,13.91310205078125,-0.07696902006864548,0.13866640627384186,0.16371189057826996
1788051841352066000,13.929066162109375,-0.08979719132184982,0.16920967400074005,0.2376265823841095
1788051841368097800,13.945097900390625,-0.10323622822761536,0.18509216606616974,0.2919935882091522
1788051841384155400,13.9611552734375,-0.09529497474431992,0.18448130786418915,0.3182607889175415
1788051841400228400,13.977228271484375,-0.06108652427792549,0.1814269721508026,0.34758231043815613
1788051841416376800,13.993376953125,-0.02871066704392433,0.182648703455925,0.39706242084503174
1788051841432356000,14.009356201171874,-0.006719517521560192,0.18875735998153687,0.4294382631778717
1788051841448398800,14.02539892578125,0.024434609338641167,0.17470745742321014,0.4178318381309509
1788051841464441300,14.04144140625,0.06169738993048668,0.14477506279945374,0.3579670190811157
1788051841480475400,14.057475341796875,0.08674286305904388,0.1215621829032898,0.2840523421764374
1788051841496581400,14.073581298828126,0.10934487730264664,0.09896016865968704,0.2021963894367218
1788051841512572700,14.08957275390625,0.12950342893600464,0.07941248267889023,0.16004669666290283
1788051841528626700,14.105626708984374,0.16310101747512817,0.09468411654233932,0.18997909128665924
1788051841544681500,14.121681396484375,0.18448130786418915,0.11850785464048386,0.25534167885780334
1788051841560718000,14.137718017578125,0.19303341209888458,0.12828169763088226,0.36163222789764404
1788051841576838700,14.153838623046875,0.18814650177955627,0.08857546001672745,0.5070181488990784
1788051841592828000,14.169827880859375,0.19120082259178162,0.04398229718208313,0.6664539575576782
1788051841608887300,14.18588720703125,0.2125810980796814,0.0403171069920063,0.8674286603927612
1788051841624943600,14.201943603515625,0.21868975460529327,0.1160643994808197,0.9999864101409912
1788051841640988000,14.21798779296875,0.22296582162380219,0.1514945775270462,0.969443142414093
1788051841657097000,14.234096923828124,0.2638937830924988,0.16982053220272064,0.7202101349830627
1788051841673082600,14.25008251953125,0.30970868468284607,0.1313360333442688,0.29016098380088806
1788051841689150500,14.266150390625,0.32070425152778625,0.01710422709584236,-0.17837265133857727
1788051841705216000,14.282216064453126,0.30482175946235657,-0.06352998316287994,-0.3878994286060333
1788051841721266000,14.298265869140625,0.2993239760398865,-0.08491026610136032,-0.27000242471694946
1788051841737434000,14.31443408203125,0.2822197377681732,-0.015882495790719986,0.0806342139840126
1788051841753443600,14.330443603515626,0.24862214922904968,0.05742133408784866,0.37262779474258423
1788051841769511400,14.346511474609375,0.24617868661880493,0.08246681094169617,0.5998696684837341
1788051841785559300,14.362559326171874,0.28038713335990906,0.07330382615327835,0.6774495840072632
1788051841801619000,14.378618896484374,0.31093040108680725,0.07269296050071716,0.665232241153717
1788051841817747200,14.394747314453125,0.32559117674827576,0.08979719132184982,0.5522221922874451
1788051841833718300,14.41071826171875,0.3597996234893799,0.04153883829712868,0.36651915311813354
1788051841849797000,14.426797119140625,0.4080579876899719,-0.006719517521560192,0.2076941877603531
1788051841865822000,14.442822021484375,0.4245513379573822,-0.025045474991202354,0.13988813757896423
1788051841881889000,14.458888916015624,0.3891211748123169,-0.08918632566928864,0.08124507963657379
1788051841898031400,14.47503125,0.3170390725135803,-0.20952677726745605,0.04398229718208313
1788051841914006000,14.491006103515625,0.2583959996700287,-0.27122417092323303,0.04214970022439957
1788051841930050600,14.507050537109375,0.2028072625398636,-0.28466320037841797,0.09224065393209457
1788051841946077000,14.523076904296875,0.14782938361167908,-0.32070425152778625,0.19364428520202637
1788051841962156000,14.539156005859375,0.12034045159816742,-0.30970868468284607,0.33597588539123535
1788051841978309600,14.5553095703125,0.1014036312699318,-0.24984388053417206,0.5002986192703247
1788051841994288600,14.57128857421875,0.09834930300712585,-0.16004669666290283,0.5907067060470581
1788051842010335000,14.5873349609375,0.10934487730264664,-0.1258382350206375,0.5974262356758118
1788051842026357800,14.603357666015626,0.09468411654233932,-0.12889257073402405,0.588874101638794
1788051842042443800,14.61944384765625,0.0806342139840126,-0.1362229436635971,0.6261368989944458
1788051842058551800,14.6355517578125,0.07391469180583954,-0.12217304855585098,0.7177666425704956
1788051842074540300,14.651540283203126,0.07880161702632904,-0.12339477986097336,0.788627028465271
1788051842090593800,14.66759375,0.07880161702632904,-0.15332718193531036,0.8038986921310425
1788051842106616600,14.683616455078125,0.0659734457731247,-0.17837265133857727,0.7440338730812073
1788051842122654500,14.699654541015626,0.048258353024721146,-0.1765400618314743,0.6768386960029602
1788051842138774300,14.715774169921875,0.021991148591041565,-0.20341812074184418,0.6298020482063293
1788051842154773500,14.7317734375,-0.01771509274840355,-0.22113321721553802,0.66584312915802
1788051842170848500,14.7478486328125,-0.051312681287527084,-0.20402899384498596,0.769690215587616
1788051842186883000,14.763883056640625,-0.06963863968849182,-0.23151792585849762,0.8546004891395569
1788051842202935300,14.779935302734375,-0.09162978827953339,-0.3029891550540924,0.9193521738052368
1788051842219076600,14.79607666015625,-0.12950342893600464,-0.37079519033432007,0.9944885969161987
1788051842235071700,14.81207177734375,-0.15821409225463867,-0.3017674386501312,1.1215485334396362
1788051842251128800,14.82812890625,-0.2015855312347412,-0.17348572611808777,1.309084177017212
1788051842267124200,14.844124267578126,-0.2480112910270691,-0.07635815441608429,1.423926830291748
1788051842283183400,14.860183349609375,-0.24068090319633484,0.01038470957428217,1.4440854787826538
1788051842299311900,14.876311767578125,-0.18814650177955627,0.059864792972803116,1.348179578781128
1788051842315269600,14.89226953125,-0.18020524084568024,-0.1417207419872284,1.0891727209091187
1788051842331342000,14.908342041015626,-0.20036379992961884,-0.3842342495918274,0.8289441466331482
1788051842347383600,14.924383544921875,-0.18631389737129211,-0.5387831330299377,0.7929030656814575
1788051842363457800,14.940457763671875,-0.2015855312347412,-0.6401867866516113,1.0097602605819702
1788051842379639000,14.95663916015625,-0.2583959996700287,-0.6010913848876953,1.3952162265777588
1788051842395602700,14.972602783203126,-0.2968805134296417,-0.5259549617767334,1.6829338073730469
1788051842411677700,14.988677734375,-0.323147714138031,-0.39767327904701233,1.7910568714141846
1788051842427700000,15.004699951171874,-0.3066543638706207,-0.2932153046131134,1.7244726419448853
1788051842443806500,15.020806396484375,-0.26572638750076294,-0.21502456068992615,1.6059647798538208
1788051842459901000,15.03690087890625,-0.16249015927314758,-0.21991148591041565,1.4538593292236328
1788051842475890400,15.052890380859376,-0.06108652427792549,-0.2993239760398865,1.3017538785934448
1788051842491934700,15.068934814453126,-0.010995574295520782,-0.3689626157283783,1.1759155988693237
1788051842507982600,15.084982666015625,-0.009162978269159794,-0.44837507605552673,1.0757336616516113
1788051842524012500,15.101012451171876,-0.0403171069920063,-0.504574716091156,0.9425650835037231
1788051842540126700,15.117126708984374,-0.11423180252313614,-0.48380526900291443,0.7745771408081055
1788051842556118000,15.133117919921874,-0.20402899384498596,-0.4538728892803192,0.5778785347938538
1788051842572182000,15.14918212890625,-0.32498031854629517,-0.3634648323059082,0.2528982162475586
1788051842588223000,15.165222900390624,-0.4153883755207062,-0.2626720666885376,-0.11850785464048386
1788051842604271600,15.181271728515625,-0.46731191873550415,-0.16920967400074005,-0.3689626157283783
1788051842620401400,15.1974013671875,-0.5112941861152649,-0.0403171069920063,-0.5094616413116455
1788051842636405000,15.213405029296876,-0.543059229850769,0.0507018156349659,-0.46364670991897583
1788051842652473900,15.229473876953126,-0.543059229850769,0.12339477986097336,-0.32131510972976685
1788051842668496000,15.245495849609375,-0.5161811113357544,0.1319468915462494,-0.24617868661880493
1788051842684561700,15.261561767578126,-0.45631635189056396,0.07635815441608429,-0.22113321721553802
1788051842700711200,15.277711181640624,-0.39156460762023926,0.02321287989616394,-0.19914206862449646
1788051842716676600,15.293676513671874,-0.3591887652873993,-0.021991148591041565,-0.14477506279945374
1788051842732713000,15.309712890625,-0.34147366881370544,-0.06108652427792549,-0.09468411654233932
1788051842748691700,15.325691650390626,-0.32131510972976685,-0.08674286305904388,-0.0959058403968811
1788051842764755000,15.3417548828125,-0.2938261926174164,-0.09162978827953339,-0.1014036312699318
1788051842780905500,15.357905517578125,-0.26939156651496887,-0.0757472887635231,-0.09162978827953339
1788051842796882000,15.3738818359375,-0.24984388053417206,-0.048258353024721146,-0.06352998316287994
1788051842812930000,15.389929931640625,-0.21930062770843506,-0.01466076634824276,-0.04581489413976669
1788051842828910300,15.405910400390624,-0.17592918872833252,0.0403171069920063,-0.022602014243602753
1788051842844985300,15.4219853515625,-0.11423180252313614,0.07880161702632904,0.009773843921720982
1788051842861141800,15.438141845703125,-0.04214970022439957,0.09285151958465576,0.03176499158143997
1788051842877122800,15.454122802734375,0.029932396486401558,0.042760565876960754,0.015882495790719986
1788051842893173800,15.470173828125,0.1270599663257599,0.006108652334660292,0.018325956538319588
1788051842909144300,15.486144287109376,0.182648703455925,0.04153883829712868,0.05253441259264946
1788051842925180400,15.502180419921874,0.20036379992961884,0.11728613078594208,0.10873401165008545
1788051842941291300,15.518291259765626,0.18570303916931152,0.28649580478668213,0.2272418737411499
1788051842957283600,15.53428369140625,0.1472185254096985,0.4349360466003418,0.31581732630729675
1788051842973343700,15.55034375,0.09285151958465576,0.4331034719944,0.2773328125476837
1788051842989362400,15.566362548828126,0.13255776464939117,0.39645153284072876,0.06536258012056351
1788051843005404200,15.582404052734375,0.20586158335208893,0.43615779280662537,-0.24190263450145721
1788051843021512700,15.5985126953125,0.2779437005519867,0.48380526900291443,-0.5571091175079346
1788051843037503000,15.6145029296875,0.2926044464111328,0.48319441080093384,-0.7715228199958801
1788051843053557800,15.630557861328125,0.3029891550540924,0.4502076804637909,-0.8497135639190674
1788051843069568000,15.646568115234375,0.25473082065582275,0.3628539443016052,-0.7037167549133301
1788051843085612000,15.662612060546875,0.19547687470912933,0.31459560990333557,-0.413555771112442
1788051843101762800,15.6787626953125,0.12095131725072861,0.29504790902137756,-0.04214970022439957
1788051843117760500,15.694760498046875,0.2021963894367218,0.22479841113090515,0.2119702398777008
1788051843133807900,15.710807861328124,0.3188716471195221,0.1563815027475357,0.2736676335334778
1788051843149833500,15.72683349609375,0.384845107793808,0.06658431142568588,0.18570303916931152
1788051843165893600,15.7428935546875,0.42699480056762695,-0.025656340643763542,0.03420845419168472
1788051843182029800,15.75902978515625,0.45753806829452515,-0.07635815441608429,-0.08857546001672745
1788051843197996800,15.774996826171876,0.4508185386657715,-0.10201449692249298,-0.1472185254096985
1788051843214035000,15.791034912109374,0.44165557622909546,-0.07880161702632904,-0.1771509200334549
1788051843230044700,15.807044677734375,0.4398229718208313,-0.00427605677396059,-0.21135938167572021
1788051843246118100,15.8231181640625,0.4288274049758911,0.0659734457731247,-0.26083946228027344
1788051843262274000,15.839274169921875,0.3982841372489929,0.13072516024112701,-0.32131510972976685
1788051843278246400,15.855246337890625,0.3695734739303589,0.17776179313659668,-0.3530801236629486
1788051843294294300,15.871294189453126,0.3445279896259308,0.17531833052635193,-0.34147366881370544
1788051843310294800,15.887294677734374,0.32070425152778625,0.13988813757896423,-0.2767219543457031
1788051843326378200,15.903378173828125,0.2968805134296417,0.06536258012056351,-0.20525072515010834
1788051843342537200,15.919537109375,0.2785545587539673,-0.009162978269159794,-0.1716531366109848
1788051843358522000,15.935522216796874,0.2565633952617645,-0.07391469180583954,-0.18814650177955627
1788051843374577400,15.951577392578125,0.23273965716362,-0.11239920556545258,-0.2541199326515198
1788051843390588000,15.967587890625,0.20402899384498596,-0.1514945775270462,-0.3286454975605011
1788051843406623500,15.98362353515625,0.15454891324043274,-0.1618792861700058,-0.3494149148464203
1788051843422736400,15.999736328125,0.08246681094169617,-0.18448130786418915,-0.33475416898727417
1788051843438724600,16.015724609375,0.015882495790719986,-0.19303341209888458,-0.33719760179519653
1788051843454788900,16.031788818359374,-0.039095375686883926,-0.2174680233001709,-0.33658674359321594
1788051843470793000,16.04779296875,-0.1014036312699318,-0.24129177629947662,-0.294437050819397
1788051843486845000,16.063844970703126,-0.16249015927314758,-0.2877175211906433,-0.2119702398777008
1788051843502976800,16.079976806640627,-0.18081611394882202,-0.34147366881370544,-0.13011430203914642
1788051843518977500,16.0959775390625,-0.19303341209888458,-0.3341432809829712,-0.021991148591041565
1788051843535058000,16.112057861328125,-0.20830504596233368,-0.33292156457901,0.05253441259264946
1788051843551039700,16.128039794921875,-0.2168571650981903,-0.36713001132011414,0.08246681094169617
1788051843567094800,16.1440947265625,-0.2278527319431305,-0.4056145250797272,0.07635815441608429
1788051843583228200,16.160228271484375,-0.2590068578720093,-0.4086688458919525,0.05925392732024193
1788051843599239200,16.1762392578125,-0.27977627515792847,-0.3701843321323395,0.04642575979232788
1788051843615274000,16.19227392578125,-0.28649580478668213,-0.3170390725135803,0.04092797264456749
1788051843631303400,16.208303466796874,-0.26450464129447937,-0.2480112910270691,0.01771509274840355
1788051843647370000,16.224369873046875,-0.28527405858039856,-0.3640756905078888,-0.10567969083786011
1788051843663507000,16.2405068359375,-0.31031954288482666,-0.5296201705932617,-0.2926044464111328
1788051843679496200,16.25649609375,-0.3084869384765625,-0.6572909951210022,-0.44104471802711487
1788051843695535000,16.27253515625,-0.3830125033855438,-0.7018841505050659,-0.46242499351501465
1788051843711541200,16.288541259765626,-0.46181413531303406,-0.5681046843528748,-0.3701843321323395
1788051843727607000,16.30460693359375,-0.5259549617767334,-0.28955012559890747,-0.15760323405265808
1788051843743783200,16.320783203125,-0.5338962078094482,-0.030543262138962746,0.09285151958465576
1788051843759756500,16.336756591796874,-0.5027421116828918,0.07269296050071716,0.2840523421764374
1788051843775799300,16.35279931640625,-0.44654250144958496,0.02076941914856434,0.3799581825733185
1788051843791818500,16.368818603515624,-0.38117989897727966,-0.1618792861700058,0.45875978469848633
1788051843807898400,16.3848984375,-0.32498031854629517,-0.4196644127368927,0.5192354321479797
1788051843824062000,16.40106201171875,-0.2938261926174164,-0.6206390857696533,0.5467243790626526
1788051843840051000,16.417051025390624,-0.27977627515792847,-0.7837401032447815,0.5668829679489136
1788051843856097300,16.43309716796875,-0.2742784917354584,-0.901637077331543,0.5919284224510193
1788051843872077600,16.44907763671875,-0.2785545587539673,-0.9468411207199097,0.6163630485534668
1788051843888159000,16.465158935546874,-0.27977627515792847,-0.902247965335846,0.6120869517326355
1788051843904268500,16.4812685546875,-0.27488934993743896,-0.6890559792518616,0.5595525503158569
1788051843920257300,16.49725732421875,-0.2974913716316223,-0.3536909818649292,0.4392121136188507
1788051843936317400,16.5133173828125,-0.3396410644054413,-0.07819075137376785,0.3170390725135803
1788051843952295700,16.529295654296874,-0.42088615894317627,0.15760323405265808,0.27488934993743896
1788051843968336400,16.54533642578125,-0.5100724697113037,0.3139847218990326,0.40194934606552124
1788051843984458800,16.561458740234375,-0.5668829679489136,0.4086688458919525,0.6053674817085266
1788051844000451800,16.577451904296876,-0.607200026512146,0.3695734739303589,0.8900306820869446
1788051844016519400,16.59351953125,-0.588874101638794,0.29077184200286865,1.1691961288452148
1788051844032504800,16.6095048828125,-0.5290092825889587,0.23518311977386475,1.3622294664382935
1788051844048553500,16.625553466796877,-0.45692721009254456,0.1215621829032898,1.4581353664398193
1788051844064667600,16.641667724609373,-0.3634648323059082,0.018325956538319588,1.4880677461624146
1788051844080663000,16.6576630859375,-0.2669481039047241,0.06841690838336945,1.5552629232406616
1788051844096729600,16.6737294921875,-0.22357667982578278,0.1362229436635971,1.5845844745635986
1788051844112765400,16.689765380859374,-0.17959438264369965,0.2223549485206604,1.4880677461624146
1788051844128824600,16.705824462890625,-0.1258382350206375,0.25473082065582275,1.3194689750671387
1788051844144958500,16.72195849609375,-0.11178833991289139,0.22907446324825287,1.228450059890747
1788051844160923100,16.737923095703124,-0.08124507963657379,0.42149701714515686,1.2712105512619019
1788051844176958500,16.75395849609375,-0.11362093687057495,0.5436700582504272,1.4123204946517944
1788051844193011700,16.77001171875,-0.15943582355976105,0.616973876953125,1.5625933408737183
1788051844209082400,16.786082275390626,-0.16493362188339233,0.6536257863044739,1.6224581003189087
1788051844225223000,16.802222900390625,-0.09712757170200348,0.5222898125648499,1.493565559387207
1788051844241190000,16.81818994140625,-0.004886921960860491,0.33719760179519653,1.3408491611480713
1788051844257229600,16.8342294921875,0.10445795953273773,0.24434609711170197,1.2015719413757324
1788051844273266000,16.850265869140625,0.20952677726745605,0.18387043476104736,1.0152580738067627
1788051844289347600,16.86634765625,0.29138273000717163,0.13439035415649414,0.8417723178863525
1788051844305505000,16.882505126953124,0.29504790902137756,0.21807889640331268,0.817337691783905
1788051844321482000,16.89848193359375,0.25961771607398987,0.4544837474822998,0.911410927772522
1788051844337537000,16.914537109375,0.20952677726745605,0.5791002511978149,1.0073168277740479
1788051844353538300,16.930538330078125,0.19120082259178162,0.47830748558044434,0.9297369122505188
1788051844369570000,16.946570068359375,0.24190263450145721,0.24617868661880493,0.6597344875335693
1788051844385693400,16.962693359375,0.30115658044815063,0.15760323405265808,0.48197266459465027
1788051844401677800,16.978677734375,0.32681289315223694,0.1771509200334549,0.45265114307403564
1788051844417743400,16.994743408203124,0.33108896017074585,0.11789698898792267,0.4495968222618103
1788051844433795000,17.010795166015626,0.32620203495025635,0.04886921867728233,0.4141666293144226
1788051844449841400,17.02684130859375,0.323147714138031,-0.059864792972803116,0.2883284091949463
1788051844465962800,17.042962646484376,0.3286454975605011,-0.09285151958465576,0.18020524084568024
1788051844481971500,17.058971435546876,0.31459560990333557,-0.021380282938480377,0.16432274878025055
1788051844498049800,17.0750498046875,0.2583959996700287,0.10018189996480942,0.26145032048225403
1788051844514112000,17.091112060546877,0.19486601650714874,0.15821409225463867,0.3481931984424591
1788051844530165500,17.10716552734375,0.16798794269561768,0.1514945775270462,0.3323107063770294
1788051844546290000,17.1232900390625,0.15821409225463867,0.11850785464048386,0.23151792585849762
1788051844562297600,17.139297607421874,0.16065755486488342,0.07757988572120667,0.13072516024112701
1788051844578371800,17.155371826171876,0.16982053220272064,0.024434609338641167,-0.022602014243602753
1788051844594349300,17.171349365234374,0.17348572611808777,0.0006108652451075613,-0.17837265133857727
1788051844610410200,17.18741015625,0.16920967400074005,-0.031154127791523933,-0.29016098380088806
1788051844626556400,17.203556396484377,0.1618792861700058,-0.0555887371301651,-0.3286454975605011
1788051844642515000,17.219514892578125,0.1514945775270462,-0.06230825558304787,-0.30543261766433716
1788051844658546000,17.2355458984375,0.14782938361167908,-0.11056660860776901,-0.24434609711170197
1788051844674562300,17.251562255859376,0.14905111491680145,-0.11789698898792267,-0.15393804013729095
1788051844690631400,17.26763134765625,0.15393804013729095,-0.10690141469240189,-0.07269296050071716
1788051844706784800,17.28378466796875,0.16493362188339233,-0.10934487730264664,-0.048258353024721146
1788051844722762800,17.2997626953125,0.16004669666290283,-0.09773843735456467,-0.06414084881544113
1788051844738799400,17.31579931640625,0.14782938361167908,-0.07452555745840073,-0.11667526513338089
1788051844754813400,17.3318134765625,0.13011430203914642,-0.024434609338641167,-0.17104226350784302
1788051844770895400,17.347895263671877,0.11301007121801376,0.003054326167330146,-0.22479841113090515
1788051844787008000,17.364008056640625,0.10506882518529892,-0.03787364438176155,-0.26083946228027344
1788051844802988500,17.379988525390626,0.08796459436416626,-0.08185594528913498,-0.2626720666885376
1788051844819049200,17.39604931640625,0.06414084881544113,-0.1820378452539444,-0.23335053026676178
1788051844835029800,17.41202978515625,0.04214970022439957,-0.2565633952617645,-0.18081611394882202
1788051844851075600,17.42807568359375,0.018936822190880775,-0.3170390725135803,-0.09162978827953339
1788051844867193900,17.44419384765625,-0.021380282938480377,-0.3878994286060333,-0.001832595793530345
1788051844883189000,17.46018896484375,-0.05375614017248154,-0.4147774875164032,0.06780604273080826
1788051844899256000,17.476256103515624,-0.08307767659425735,-0.3927863538265228,0.12950342893600464
1788051844915263200,17.49226318359375,-0.08735372871160507,-0.384845107793808,0.1459967941045761
1788051844931311400,17.508311279296876,-0.07330382615327835,-0.3842342495918274,0.152105450630188
1788051844947437000,17.52443701171875,-0.05619960278272629,-0.39645153284072876,0.15454891324043274
1788051844963438300,17.540438232421874,-0.056810468435287476,-0.42699480056762695,0.14966198801994324
1788051844979511600,17.556511474609376,-0.08368854224681854,-0.4544837474822998,0.13377949595451355
1788051844995503400,17.57250341796875,-0.11178833991289139,-0.42271876335144043,0.1264491081237793
1788051845011562500,17.5885625,-0.14294247329235077,-0.3023782968521118,0.15027284622192383
1788051845027693000,17.604693115234376,-0.17043140530586243,-0.3188716471195221,0.10018189996480942
1788051845043706400,17.620706298828125,-0.12950342893600464,-0.47769662737846375,-0.09162978827953339
1788051845059773400,17.6367734375,-0.08491026610136032,-0.5870414972305298,-0.3549126982688904
1788051845075767300,17.652767333984375,-0.15760323405265808,-0.5778785347938538,-0.513126790523529
1788051845091829000,17.6688291015625,-0.2541199326515198,-0.5149593949317932,-0.5204572081565857
1788051845107970600,17.684970458984374,-0.3805690407752991,-0.31093040108680725,-0.33597588539123535
1788051845123934000,17.700933837890624,-0.4642575979232788,-0.07452555745840073,-0.0757472887635231
1788051845140008000,17.717008056640626,-0.4703662395477295,0.00427605677396059,0.08857546001672745
1788051845156054800,17.7330546875,-0.3952298164367676,-0.009162978269159794,0.17776179313659668
1788051845172117200,17.7491171875,-0.2724458873271942,-0.07941248267889023,0.29504790902137756
1788051845188257500,17.765257568359374,-0.16065755486488342,-0.13561208546161652,0.38606682419776917
1788051845204222500,17.781222412109376,-0.07819075137376785,-0.16004669666290283,0.4153883755207062
1788051845220262700,17.7972626953125,-0.0012217304902151227,-0.20097467303276062,0.3732386529445648
1788051845236300500,17.813300537109374,0.03481931984424591,-0.27550023794174194,0.2626720666885376
1788051845252388900,17.829388916015624,0.05314527451992035,-0.3885102868080139,0.1313360333442688
1788051845268550000,17.8455498046875,0.054367005825042725,-0.49846604466438293,-0.05925392732024193
1788051845284532500,17.861532470703125,-0.003054326167330146,-0.5400048494338989,-0.23273965716362
1788051845300587300,17.877587158203124,-0.11911872029304504,-0.3952298164367676,-0.3500257730484009
1788051845316631000,17.893631103515624,-0.2370157092809677,-0.15821409225463867,-0.3878994286060333
1788051845332668200,17.909668212890626,-0.3591887652873993,0.11301007121801376,-0.34208452701568604
1788051845348777000,17.92577685546875,-0.4300491213798523,0.2981022298336029,-0.2272418737411499
1788051845364771800,17.941771728515626,-0.4349360466003418,0.37079519033432007,-0.13316862285137177
1788051845380835300,17.95783544921875,-0.3701843321323395,0.39156460762023926,-0.056810468435287476
1788051845396892000,17.973891845703125,-0.27061331272125244,0.36163222789764404,-0.01160643994808197
1788051845412939000,17.98993896484375,-0.1618792861700058,0.30482175946235657,0.006108652334660292
1788051845429068000,18.006068115234374,-0.02932153269648552,0.19486601650714874,0.0024434609804302454
1788051845445078800,18.022078857421874,0.0757472887635231,0.15027284622192383,-0.02321287989616394
1788051845461157400,18.038157470703126,0.13377949595451355,0.12034045159816742,-0.08491026610136032
1788051845477186800,18.054186767578123,0.1472185254096985,0.10506882518529892,-0.1417207419872284
1788051845501310200,18.078310302734376,0.09407325088977814,0.07757988572120667,-0.22357667982578278
1788051845517242000,18.0942421875,0.024434609338641167,0.08429940044879913,-0.24678955972194672
1788051845533291000,18.110291015625,-0.03848451003432274,0.17043140530586243,-0.19975294172763824
1788051845549534500,18.126534423828126,-0.08491026610136032,0.28038713335990906,-0.08918632566928864
1788051845565511200,18.14251123046875,-0.12461651116609573,0.4447098970413208,0.07513642311096191
1788051845581579500,18.15857958984375,-0.1258382350206375,0.6108652353286743,0.22357667982578278
1788051845597494300,18.174494384765627,-0.07513642311096191,0.7269296646118164,0.3127630054950714
1788051845613579500,18.19057958984375,0.013439035043120384,0.788016140460968,0.33169981837272644
1788051845629668600,18.206668701171875,0.14844025671482086,0.8161159753799438,0.3225368559360504
1788051845645763600,18.222763671875,0.2828305959701538,0.8307767510414124,0.2926044464111328
1788051845661835800,18.238835693359373,0.36529740691185,0.8607091307640076,0.2791654169559479
1788051845677734000,18.25473388671875,0.3903428912162781,0.8515461683273315,0.2993239760398865
1788051845693726000,18.270725830078124,0.35735616087913513,0.7391469478607178,0.2431243658065796
1788051845709997800,18.286997802734376,0.34697145223617554,0.6505714654922485,0.07269296050071716
1788051845725852400,18.302852294921873,0.3549126982688904,0.608421802520752,-0.1771509200334549
1788051845742025700,18.319025634765627,0.33658674359321594,0.5845980644226074,-0.3274237811565399
1788051845758041900,18.335041748046876,0.31154128909111023,0.5644394755363464,-0.31581732630729675
1788051845773807400,18.350807373046877,0.28527405858039856,0.617584764957428,-0.16004669666290283
1788051845790067200,18.367067138671874,0.2736676335334778,0.7049384713172913,0.042760565876960754
1788051845806205700,18.383205810546876,0.2981022298336029,0.7287622094154358,0.15821409225463867
1788051845822239500,18.399239501953126,0.33475416898727417,0.740368664264679,0.18325957655906677
1788051845838080300,18.415080322265624,0.3793473243713379,0.7409795522689819,0.15882496535778046
1788051845854091300,18.43109130859375,0.4190535545349121,0.7061602473258972,0.14355333149433136
1788051845870377000,18.447376953125,0.43737950921058655,0.6328563690185547,0.17837265133857727
1788051845886271000,18.46327099609375,0.42699480056762695,0.5510004758834839,0.26572638750076294
1788051845902421800,18.479421875,0.37751471996307373,0.5112941861152649,0.3219259977340698
1788051845918335700,18.495335693359376,0.32070425152778625,0.4709770977497101,0.2974913716316223
1788051845934338800,18.5113388671875,0.26939156651496887,0.4282165467739105,0.21991148591041565
1788051845950688800,18.527688720703125,0.23518311977386475,0.35124751925468445,0.10873401165008545
1788051845966656000,18.543656005859376,0.2064724564552307,0.2773328125476837,-0.00855211354792118
1788051845982705000,18.559704833984377,0.1814269721508026,0.2382374405860901,-0.11972958594560623
1788051845998650600,18.575650634765626,0.1472185254096985,0.26572638750076294,-0.23029619455337524
1788051846022872300,18.599872314453126,0.0757472887635231,0.33108896017074585,-0.3029891550540924
1788051846038907600,18.61590771484375,0.04703662544488907,0.33719760179519653,-0.2626720666885376
1788051846054970600,18.631970703125,0.03237585723400116,0.27550023794174194,-0.1869247704744339
1788051846071110000,18.64810986328125,0.030543262138962746,0.17776179313659668,-0.08796459436416626
1788051846087075000,18.664074951171877,0.036651913076639175,0.08368854224681854,-0.03726277872920036
1788051846103108400,18.6801083984375,0.04459316283464432,0.005497787147760391,-0.03298672288656235
1788051846119152600,18.696152587890627,0.05803219974040985,-0.07696902006864548,-0.042760565876960754
1788051846135220000,18.712219970703124,0.05375614017248154,-0.16004669666290283,-0.05192354694008827
1788051846151387400,18.728387451171876,0.04948008432984352,-0.21441370248794556,-0.0507018156349659
1788051846167367000,18.744366943359374,0.0555887371301651,-0.22418753802776337,-0.039706241339445114
1788051846183414800,18.760414794921875,0.05009094998240471,-0.21868975460529327,-0.033597588539123535
1788051846199410000,18.776409912109376,0.04398229718208313,-0.20036379992961884,-0.039706241339445114
1788051846215443500,18.792443359375,0.05009094998240471,-0.14844025671482086,-0.054367005825042725
1788051846231551000,18.808551025390624,0.05192354694008827,-0.10812314599752426,-0.0757472887635231
1788051846247534800,18.824534912109375,0.048258353024721146,-0.08552113175392151,-0.08674286305904388
1788051846263600400,18.840600341796875,0.03420845419168472,-0.10384709388017654,-0.07757988572120667
1788051846279656700,18.85665673828125,-0.009162978269159794,-0.12828169763088226,-0.059864792972803116
1788051846295688400,18.8726884765625,-0.0659734457731247,-0.13316862285137177,-0.04948008432984352
1788051846311801600,18.888801513671876,-0.13377949595451355,-0.11423180252313614,-0.03848451003432274
1788051846327792600,18.904792724609376,-0.19853121042251587,-0.09285151958465576,-0.003054326167330146
1788051846343867100,18.9208671875,-0.2577851414680481,-0.10751228034496307,0.06780604273080826
1788051846359883800,18.9368837890625,-0.2822197377681732,-0.10567969083786011,0.13377949595451355
1788051846375933000,18.952932861328126,-0.27611109614372253,-0.09162978827953339,0.152105450630188
1788051846392049200,18.969049072265626,-0.23579397797584534,-0.12217304855585098,0.09957103431224823
1788051846408051700,18.9850517578125,-0.17409659922122955,-0.17592918872833252,-0.012217304669320583
1788051846424126000,19.0011259765625,-0.1215621829032898,-0.20952677726745605,-0.09896016865968704
1788051846440150000,19.01714990234375,-0.0959058403968811,-0.22602014243602753,-0.16859880089759827
1788051846456213500,19.033213623046876,-0.1014036312699318,-0.242513507604599,-0.19058994948863983
1788051846472342000,19.049342041015624,-0.12950342893600464,-0.252287358045578,-0.14966198801994324
1788051846488312300,19.065312255859375,-0.16065755486488342,-0.21868975460529327,-0.059864792972803116
1788051846504342800,19.0813427734375,-0.19547687470912933,-0.17043140530586243,0.06475171446800232
1788051846520322000,19.097322021484374,-0.20586158335208893,-0.12217304855585098,0.14294247329235077
1788051846544449500,19.121449462890624,-0.14844025671482086,-0.1411098688840866,0.08552113175392151
1788051846560440000,19.137440185546875,-0.0806342139840126,-0.19853121042251587,0.01710422709584236
1788051846576429300,19.15342919921875,0.00427605677396059,-0.25961771607398987,-0.00733038317412138
1788051846592524500,19.169524658203127,0.08307767659425735,-0.3139847218990326,-0.004886921960860491
1788051846608466400,19.185466552734376,0.1411098688840866,-0.32681289315223694,-0.031154127791523933
1788051846624646100,19.201646240234375,0.17837265133857727,-0.2981022298336029,-0.0861319974064827
1788051846640512300,19.21751220703125,0.17959438264369965,-0.2480112910270691,-0.13561208546161652
1788051846656551400,19.233551513671873,0.17409659922122955,-0.24190263450145721,-0.16249015927314758
1788051846672856000,19.24985595703125,0.16859880089759827,-0.25106561183929443,-0.1459967941045761
1788051846688785700,19.26578564453125,0.15454891324043274,-0.2583959996700287,-0.07819075137376785
1788051846704838100,19.281838134765625,0.13316862285137177,-0.27977627515792847,0.021380282938480377
1788051846720661000,19.297660888671874,0.11484266817569733,-0.304210901260376,0.08124507963657379
1788051846736704800,19.313704833984374,0.0806342139840126,-0.3176499307155609,0.08979719132184982
1788051846753026600,19.330026611328126,0.0354301854968071,-0.30604347586631775,0.059864792972803116
1788051846769015000,19.34601513671875,0.0012217304902151227,-0.27977627515792847,0.012828170321881771
1788051846785048800,19.362048828125,-0.02015855349600315,-0.2565633952617645,-0.04886921867728233
1788051846801117000,19.378116943359377,-0.033597588539123535,-0.22113321721553802,-0.08796459436416626
1788051846817074400,19.394074462890625,-0.03787364438176155,-0.17959438264369965,-0.10201449692249298
1788051846833285600,19.41028564453125,-0.027488935738801956,-0.13805554807186127,-0.0959058403968811
1788051846849253600,19.426253662109374,-0.015882495790719986,-0.1014036312699318,-0.06230825558304787
1788051846865301800,19.4423017578125,-0.0012217304902151227,-0.0354301854968071,-0.021380282938480377
1788051846881291500,19.45829150390625,0.016493361443281174,0.02321287989616394,-0.02321287989616394
1788051846897439500,19.474439453125,0.05009094998240471,0.08002334833145142,-0.045204028487205505
1788051846913501400,19.49050146484375,0.07819075137376785,0.14233160018920898,-0.025656340643763542
1788051846929511000,19.506510986328124,0.10018189996480942,0.1918116807937622,0.021991148591041565
1788051846945562000,19.52256201171875,0.1270599663257599,0.25106561183929443,0.09162978827953339
1788051846961560300,19.538560302734375,0.14844025671482086,0.3078760802745819,0.17898350954055786
1788051846977515800,19.554515869140626,0.16737708449363708,0.3591887652873993,0.24495697021484375
1788051846993715700,19.5707158203125,0.18814650177955627,0.43188172578811646,0.2871066629886627
1788051847009700400,19.586700439453125,0.19853121042251587,0.5308418869972229,0.2883284091949463
1788051847025761800,19.60276171875,0.2064724564552307,0.6585127115249634,0.25534167885780334
1788051847041754600,19.618754638671874,0.19914206862449646,0.7819074988365173,0.2064724564552307
1788051847057684200,19.634684326171875,0.2015855312347412,0.921795666217804,0.16920967400074005
1788051847073816800,19.65081689453125,0.21441370248794556,1.0323622226715088,0.13866640627384186
1788051847089898000,19.66689794921875,0.23335053026676178,1.1233811378479004,0.10567969083786011
1788051847105969400,19.682969482421875,0.2590068578720093,1.244943380355835,0.06780604273080826
1788051847121878000,19.6988779296875,0.29077184200286865,1.387274980545044,0.036651913076639175
1788051847137892400,19.714892333984373,0.33047810196876526,1.4966198205947876,0.02321287989616394
1788051847154095600,19.731095703125,0.3903428912162781,1.5949691534042358,0.02321287989616394
1788051847170100000,19.747099853515625,0.4660901725292206,1.6475036144256592,0.045204028487205505
1788051847186134800,19.763134765625,0.5375614166259766,1.673770785331726,0.0861319974064827
1788051847202101500,19.7791015625,0.6206390857696533,1.7189748287200928,0.14966198801994324
