time,seconds_elapsed,z,y,x
1788680943318472700,0.17647265625,-0.04764748737215996,-0.10384709388017654,-0.006108652334660292
1788680943334341600,0.192341552734375,-0.06169738993048668,-0.13439035415649414,0.09896016865968704
1788680943350210800,0.2082109375,-0.08002334833145142,-0.16310101747512817,0.1569923609495163
1788680943366019000,0.22401904296875,-0.15027284622192383,-0.28466320037841797,-0.013439035043120384
1788680943381949200,0.23994921875,-0.1258382350206375,-0.16737708449363708,-0.18325957655906677
1788680943397757200,0.255757080078125,-0.06414084881544113,-0.059864792972803116,-0.29504790902137756
1788680943413656800,0.27165673828125,-0.03420845419168472,0.054367005825042725,-0.3445279896259308
1788680943429526000,0.287526123046875,-0.0507018156349659,0.05803219974040985,-0.29626965522766113
1788680943445364700,0.30336474609375,-0.04459316283464432,-0.027488935738801956,-0.15027284622192383
1788680943461264400,0.319264404296875,-0.01160643994808197,-0.07880161702632904,0.00855211354792118
1788680943477133600,0.335133544921875,0.028099801391363144,-0.10873401165008545,0.15577064454555511
1788680943500967700,0.3589677734375,0.03787364438176155,-0.17470745742321014,0.24495697021484375
1788680943516867300,0.374867431640625,-0.006719517521560192,-0.21135938167572021,0.2125810980796814
1788680943532797400,0.39079736328125,-0.00427605677396059,-0.1563815027475357,0.16493362188339233
1788680943548636200,0.40663623046875,-0.022602014243602753,-0.07696902006864548,0.0910189226269722
1788680943564505300,0.42250537109375,-0.06780604273080826,-0.03848451003432274,-0.09224065393209457
1788680943580374500,0.43837451171875,-0.05009094998240471,-0.031154127791523933,-0.2840523421764374
1788680943596243700,0.45424365234375,0.06902777403593063,-0.05742133408784866,-0.4948008358478546
1788680943612173800,0.470173828125,0.12889257073402405,-0.012217304669320583,-0.6126978397369385
1788680943628073500,0.486073486328125,0.10751228034496307,0.0708603709936142,-0.6695083379745483
1788680943643973000,0.50197314453125,0.07024950534105301,0.16493362188339233,-0.5112941861152649
1788680943659811800,0.517811767578125,0.01466076634824276,0.17592918872833252,-0.19058994948863983
1788680943675650300,0.533650390625,-0.10567969083786011,0.03787364438176155,0.2822197377681732
1788680943691580400,0.549580322265625,-0.20952677726745605,-0.1814269721508026,0.6298020482063293
1788680943707510800,0.5655107421875,-0.251676470041275,-0.384845107793808,0.8387179970741272
1788680943723318800,0.58131884765625,-0.22357667982578278,-0.39767327904701233,0.8112290501594543
1788680943739157500,0.597157470703125,-0.16554448008537292,-0.29077184200286865,0.5876523852348328
1788680943755087600,0.613087646484375,-0.10262536257505417,-0.1508837193250656,0.2919935882091522
1788680943771048200,0.629048095703125,-0.03787364438176155,0.036041051149368286,-0.056810468435287476
1788680943786917400,0.64491748046875,-0.00855211354792118,0.09346238523721695,-0.28099802136421204
1788680943802786600,0.66078662109375,-0.0006108652451075613,0.07024950534105301,-0.3903428912162781
1788680943818686200,0.676686279296875,-0.006108652334660292,0.01771509274840355,-0.3646865487098694
1788680943834585900,0.6925859375,0.001832595793530345,-0.09346238523721695,-0.23640485107898712
1788680943850546700,0.708546630859375,0.007941247895359993,-0.192422553896904,-0.08307767659425735
1788680943866385200,0.72438525390625,0.005497787147760391,-0.2480112910270691,0.1014036312699318
1788680943882284800,0.740284912109375,0.00366519158706069,-0.22479841113090515,0.2076941877603531
1788680943898154000,0.756154052734375,0.01771509274840355,-0.19853121042251587,0.2217440903186798
1788680943914023200,0.772023193359375,0.04459316283464432,-0.20586158335208893,0.1661553531885147
1788680943929922800,0.7879228515625,0.09407325088977814,-0.21135938167572021,0.07696902006864548
1788680943945822500,0.803822509765625,0.1368338167667389,-0.1820378452539444,0.00855211354792118
1788680943961630500,0.81963037109375,0.17592918872833252,-0.12217304855585098,-0.05864306539297104
1788680943977499600,0.835499755859375,0.18387043476104736,-0.04764748737215996,-0.08796459436416626
1788680943993338400,0.85133837890625,0.17104226350784302,0.02626720629632473,-0.07757988572120667
1788680944009238000,0.867238037109375,0.152105450630188,0.06169738993048668,-0.03176499158143997
1788680944025137700,0.8831376953125,0.1111774742603302,0.03298672288656235,0.05375614017248154
1788680944040945700,0.898945556640625,0.05253441259264946,-0.02076941914856434,0.13255776464939117
1788680944056784400,0.914784423828125,-0.0012217304902151227,-0.02015855349600315,0.16859880089759827
1788680944072653600,0.930653564453125,-0.04153883829712868,-0.0012217304902151227,0.1563815027475357
1788680944088553200,0.94655322265625,-0.0659734457731247,0.02321287989616394,0.09896016865968704
1788680944104422400,0.96242236328125,-0.12095131725072861,-0.25961771607398987,-0.26511552929878235
1788680944120322000,0.978322021484375,-0.19058994948863983,-0.03176499158143997,-0.5778785347938538
1788680944136221700,0.9942216796875,-0.05253441259264946,0.24495697021484375,-0.3891211748123169
1788680944152121300,1.010121337890625,-0.11239920556545258,0.09957103431224823,-0.33719760179519653
1788680944168051500,1.026051513671875,-0.17348572611808777,0.033597588539123535,-0.1966986060142517
1788680944183920600,1.041920654296875,-0.15943582355976105,-0.06658431142568588,-0.0659734457731247
1788680944199728600,1.057728759765625,-0.14355333149433136,-0.13805554807186127,0.039706241339445114
1788680944215628300,1.073628173828125,-0.15027284622192383,-0.14905111491680145,0.07757988572120667
1788680944231467000,1.089467041015625,-0.11545353382825851,-0.1771509200334549,0.039706241339445114
1788680944247397000,1.105397216796875,-0.1111774742603302,-0.18081611394882202,0.02321287989616394
1788680944263296800,1.121296875,-0.1667662113904953,-0.0806342139840126,0.024434609338641167
1788680944279196400,1.137196533203125,-0.15882496535778046,0.04398229718208313,-0.039095375686883926
1788680944295035100,1.15303515625,-0.08796459436416626,0.06902777403593063,-0.1472185254096985
1788680944310934800,1.168934814453125,-0.036651913076639175,0.05742133408784866,-0.21380282938480377
1788680944326865000,1.184864990234375,-0.025656340643763542,0.1014036312699318,-0.18936823308467865
1788680944342703600,1.20070361328125,-0.04153883829712868,0.11423180252313614,-0.11972958594560623
1788680944358572800,1.21657275390625,-0.06719517707824707,0.01038470957428217,-0.042760565876960754
1788680944374411300,1.232411376953125,-0.07941248267889023,-0.07330382615327835,0.029932396486401558
1788680944390311000,1.248310791015625,-0.05864306539297104,-0.11667526513338089,0.11056660860776901
1788680944406241300,1.2642412109375,-0.02626720629632473,-0.1313360333442688,0.1508837193250656
1788680944422171400,1.28017138671875,-0.012217304669320583,-0.08124507963657379,0.14355333149433136
1788680944438009900,1.296009765625,-0.02076941914856434,-0.05864306539297104,0.05375614017248154
1788680944453940200,1.311940185546875,-0.02321287989616394,-0.03787364438176155,-0.04153883829712868
1788680944469778700,1.32777880859375,-0.0012217304902151227,0.039706241339445114,-0.09224065393209457
1788680944485739500,1.343739501953125,0.015271631069481373,0.09651670604944229,-0.09040805697441101
1788680944501578000,1.359577880859375,0.004886921960860491,0.06414084881544113,-0.06658431142568588
1788680944517477600,1.3754775390625,-0.019547687843441963,0.014049900695681572,-0.04398229718208313
1788680944533377300,1.391377197265625,-0.04703662544488907,-0.05864306539297104,-0.01466076634824276
1788680944549277200,1.407277099609375,-0.09224065393209457,-0.11789698898792267,0.004886921960860491
1788680944565207300,1.423207275390625,-0.1472185254096985,-0.15332718193531036,-0.0024434609804302454
1788680944581076500,1.439076416015625,-0.152105450630188,-0.1667662113904953,-0.04153883829712868
1788680944596915000,1.4549150390625,-0.1160643994808197,-0.19303341209888458,-0.10567969083786011
1788680944612845000,1.470844970703125,-0.07941248267889023,-0.19486601650714874,-0.13988813757896423
1788680944628683800,1.486683837890625,-0.03848451003432274,-0.11301007121801376,-0.16249015927314758
1788680944644614000,1.50261376953125,-0.02321287989616394,-0.028099801391363144,-0.19058994948863983
1788680944660483000,1.518483154296875,-0.06108652427792549,0.0006108652451075613,-0.22907446324825287
1788680944676413200,1.5344130859375,-0.1215621829032898,-0.02382374368607998,-0.251676470041275
1788680944692252000,1.550251953125,-0.1667662113904953,-0.12034045159816742,-0.1973094791173935
1788680944708151600,1.566151611328125,-0.15577064454555511,-0.24984388053417206,-0.09834930300712585
1788680944724051200,1.58205126953125,-0.10445795953273773,-0.39217549562454224,0.02626720629632473
1788680944739950800,1.597950927734375,-0.06475171446800232,-0.43676865100860596,0.08796459436416626
1788680944755881000,1.613880859375,-0.029932396486401558,-0.42271876335144043,0.08552113175392151
1788680944771750100,1.629750244140625,-0.02321287989616394,-0.3634648323059082,0.0354301854968071
1788680944787588900,1.6455888671875,-0.048258353024721146,-0.22846360504627228,-0.02015855349600315
1788680944803458000,1.6614580078125,-0.0555887371301651,-0.02871066704392433,-0.07635815441608429
1788680944819388200,1.67738818359375,-0.02932153269648552,0.1007927656173706,-0.09040805697441101
1788680944835196200,1.693196044921875,-0.039095375686883926,0.19914206862449646,-0.07269296050071716
1788680944851095800,1.709095703125,-0.06291911751031876,0.1918116807937622,-0.04214970022439957
1788680944866995500,1.724995361328125,-0.06169738993048668,0.07696902006864548,0.006108652334660292
1788680944882925800,1.74092578125,-0.04214970022439957,-0.048258353024721146,0.07391469180583954
1788680944898825500,1.756825439453125,-0.06169738993048668,-0.15271630883216858,0.14538592100143433
1788680944914603000,1.77260302734375,-0.09040805697441101,-0.17043140530586243,0.14905111491680145
1788680944930472200,1.78847216796875,-0.12400564551353455,-0.1062905490398407,0.0806342139840126
1788680944946341400,1.80434130859375,-0.1716531366109848,-0.03298672288656235,-0.04459316283464432
1788680944962271500,1.820271484375,-0.17470745742321014,-0.0555887371301651,-0.2064724564552307
1788680944978110000,1.83610986328125,-0.11667526513338089,-0.059864792972803116,-0.2883284091949463
1788680944994009600,1.852009521484375,-0.07452555745840073,-0.0910189226269722,-0.33658674359321594
1788680945009848300,1.867848388671875,-0.0861319974064827,-0.16920967400074005,-0.323147714138031
1788680945025748000,1.883748046875,-0.09040805697441101,-0.15454891324043274,-0.252287358045578
1788680945041678000,1.899677978515625,-0.04764748737215996,-0.08002334833145142,-0.15760323405265808
1788680945057547300,1.91554736328125,0.004886921960860491,0.02076941914856434,-0.014049900695681572
1788680945073355500,1.93135546875,0.024434609338641167,0.07024950534105301,0.09651670604944229
1788680945089224400,1.947224365234375,0.03787364438176155,0.06352998316287994,0.15760323405265808
1788680945105124400,1.963124267578125,0.05925392732024193,0.030543262138962746,0.1667662113904953
1788680945121024000,1.97902392578125,0.07696902006864548,-0.005497787147760391,0.13744467496871948
1788680945136923600,1.994923583984375,0.1007927656173706,-0.025045474991202354,0.07147123664617538
1788680945152792600,2.01079248046875,0.12400564551353455,-0.06352998316287994,0.015271631069481373
1788680945168631300,2.02663134765625,0.1215621829032898,-0.08552113175392151,-0.00855211354792118
1788680945184531000,2.042531005859375,0.08979719132184982,-0.05742133408784866,-0.0012217304902151227
1788680945200461000,2.0584609375,0.06291911751031876,0.03481931984424591,0.001832595793530345
1788680945216299800,2.0742998046875,0.05742133408784866,0.1258382350206375,-0.03726277872920036
1788680945232199400,2.090199462890625,0.05314527451992035,0.1820378452539444,-0.14782938361167908
1788680945248068600,2.106068603515625,0.01466076634824276,0.1472185254096985,-0.26572638750076294
1788680945263968300,2.12196826171875,-0.02871066704392433,0.09468411654233932,-0.34574973583221436
1788680945279928800,2.1379287109375,-0.05497787147760391,0.03237585723400116,-0.34086281061172485
1788680945295737000,2.153737060546875,-0.10384709388017654,0.02626720629632473,-0.2681698501110077
1788680945311606300,2.169606201171875,-0.14294247329235077,0.08124507963657379,-0.18509216606616974
1788680945327506000,2.185505859375,-0.17776179313659668,0.2021963894367218,-0.11362093687057495
1788680945343405600,2.201405517578125,-0.1514945775270462,0.31459560990333557,-0.04642575979232788
1788680945359335700,2.217335693359375,-0.09957103431224823,0.3787364661693573,0.0403171069920063
1788680945375204900,2.233204833984375,-0.08796459436416626,0.28038713335990906,0.0806342139840126
1788680945391043300,2.249043212890625,-0.0959058403968811,0.09712757170200348,0.08491026610136032
1788680945406973700,2.2649736328125,-0.11728613078594208,-0.03176499158143997,0.05314527451992035
1788680945422812200,2.280812255859375,-0.17043140530586243,0.06169738993048668,-0.04398229718208313
1788680945438742300,2.2967421875,-0.12950342893600464,0.3500257730484009,-0.05742133408784866
1788680945454642200,2.31264208984375,0.042760565876960754,0.37568211555480957,0.009162978269159794
1788680945470480600,2.328480712890625,0.09162978827953339,0.13377949595451355,0.05253441259264946
1788680945486319400,2.3443193359375,0.027488935738801956,-0.29077184200286865,0.1258382350206375
1788680945502188500,2.3601884765625,-0.039706241339445114,-0.35735616087913513,0.21074850857257843
1788680945518088200,2.376088134765625,-0.028099801391363144,-0.29504790902137756,0.32131510972976685
1788680945534048800,2.392048828125,-0.26939156651496887,-0.2119702398777008,0.4954117238521576
1788680945549887500,2.407887451171875,-0.18509216606616974,-0.24923302233219147,0.4856378734111786
1788680945565695500,2.423695556640625,0.0806342139840126,-0.14233160018920898,0.32070425152778625
1788680945581595100,2.43959521484375,0.2370157092809677,-0.16859880089759827,0.1215621829032898
1788680945597556000,2.455555908203125,0.3738495409488678,-0.34025195240974426,-0.12034045159816742
1788680945613394400,2.47139453125,0.46731191873550415,-0.494189977645874,-0.2828305959701538
1788680945629263600,2.487263671875,0.45142942667007446,-0.6017022728919983,-0.4948008358478546
1788680945645163300,2.503163330078125,0.2528982162475586,-0.5937610268592834,-0.6200281977653503
1788680945661032400,2.519032470703125,0.09896016865968704,-0.3891211748123169,-0.7544185519218445
1788680945676962600,2.534962646484375,0.11789698898792267,0.0403171069920063,-0.7067710757255554
1788680945692862200,2.5508623046875,0.09407325088977814,0.36651915311813354,-0.5736024379730225
1788680945708701000,2.566700927734375,0.16249015927314758,0.6243042945861816,-0.4495968222618103
1788680945724600600,2.5826005859375,0.3170390725135803,0.7825183868408203,-0.31459560990333557
1788680945740500200,2.598500244140625,0.4300491213798523,0.5583308339118958,-0.20097467303276062
1788680945756460800,2.614460693359375,0.39645153284072876,0.10262536257505417,0.1508837193250656
1788680945772391200,2.63039111328125,0.23579397797584534,0.027488935738801956,0.6157521605491638
1788680945788260000,2.646260009765625,0.28038713335990906,-0.17043140530586243,0.6004805564880371
1788680945804129300,2.66212939453125,0.42577308416366577,-0.2926044464111328,0.36713001132011414
1788680945820059600,2.6780595703125,0.3995058834552765,-0.21502456068992615,0.1814269721508026
1788680945835989800,2.69398974609375,0.2742784917354584,-0.03787364438176155,-0.014049900695681572
1788680945851889400,2.709889404296875,0.16432274878025055,0.02382374368607998,-0.1062905490398407
1788680945867758600,2.725758544921875,0.048258353024721146,0.06658431142568588,-0.12767083942890167
1788680945883627500,2.74162744140625,0.10262536257505417,0.0861319974064827,-0.15271630883216858
1788680945899496700,2.75749658203125,0.342695415019989,-0.042760565876960754,-0.182648703455925
1788680945915457500,2.77345751953125,0.5277875661849976,-0.1062905490398407,-0.14782938361167908
1788680945931296000,2.7892958984375,0.5949827432632446,-0.08796459436416626,-0.0959058403968811
1788680945947195600,2.805195556640625,0.5674937963485718,-0.12767083942890167,-0.06963863968849182
1788680945963064800,2.82106494140625,0.4966334402561188,-0.16920967400074005,0.04153883829712868
1788680945978934000,2.83693408203125,0.4294382631778717,-0.19486601650714874,0.17592918872833252
1788680945994894800,2.852894775390625,0.34025195240974426,-0.192422553896904,0.3292563557624817
1788680946010702800,2.868702880859375,0.2626720666885376,-0.16737708449363708,0.4508185386657715
1788680946026572000,2.884572021484375,0.1722639948129654,-0.13011430203914642,0.48685958981513977
1788680946042502100,2.900502197265625,0.18020524084568024,-0.11239920556545258,0.40194934606552124
1788680946058432300,2.916432373046875,0.2321287989616394,-0.09407325088977814,0.28649580478668213
1788680946074362600,2.932362548828125,0.27061331272125244,-0.07452555745840073,0.14355333149433136
1788680946090262300,2.94826220703125,0.2828305959701538,-0.04337143152952194,-0.10995574295520782
1788680946106070300,2.9640703125,0.2773328125476837,-0.01160643994808197,-0.342695415019989
1788680946121939500,2.979939453125,0.2064724564552307,-0.009773843921720982,-0.5271766781806946
1788680946137808600,2.99580859375,0.1472185254096985,0.08185594528913498,-0.5827654600143433
1788680946153647000,3.011647216796875,0.08674286305904388,0.14355333149433136,-0.475253164768219
1788680946169546800,3.027546630859375,0.05925392732024193,0.13011430203914642,-0.26145032048225403
1788680946185385500,3.043385498046875,0.07024950534105301,0.012217304669320583,-0.09162978827953339
1788680946201285000,3.05928515625,0.08918632566928864,-0.15454891324043274,-0.006108652334660292
1788680946217123800,3.075123779296875,0.09285151958465576,-0.323147714138031,-0.012828170321881771
1788680946233023500,3.0910234375,0.0555887371301651,-0.3995058834552765,-0.1062905490398407
1788680946248892400,3.106892333984375,0.01710422709584236,-0.39156460762023926,-0.21319197118282318
1788680946264700700,3.12270068359375,0.021380282938480377,-0.25961771607398987,-0.29504790902137756
1788680946280630800,3.138630859375,0.04153883829712868,-0.07208210229873657,-0.2993239760398865
1788680946296469500,3.154469482421875,0.07024950534105301,0.1007927656173706,-0.2926044464111328
1788680946312369200,3.170369140625,0.0555887371301651,0.12828169763088226,-0.2730567753314972
1788680946328207600,3.18620751953125,0.012217304669320583,0.018325956538319588,-0.23029619455337524
1788680946344076800,3.202076904296875,-0.036651913076639175,-0.014049900695681572,-0.15577064454555511
1788680946360007000,3.2180068359375,-0.06841690838336945,-0.02626720629632473,-0.05314527451992035
1788680946375845600,3.233845703125,-0.0757472887635231,-0.028099801391363144,0.051312681287527084
1788680946391745300,3.249745361328125,-0.10873401165008545,0.05619960278272629,0.152105450630188
1788680946407614500,3.265614501953125,-0.16554448008537292,0.12828169763088226,0.16737708449363708
1788680946423422500,3.28142236328125,-0.2480112910270691,0.1362229436635971,0.15577064454555511
1788680946439322000,3.297322021484375,-0.2669481039047241,0.0959058403968811,0.15027284622192383
1788680946455221800,3.3132216796875,-0.22540926933288574,0.015271631069481373,0.182648703455925
1788680946471182600,3.3291826171875,-0.1973094791173935,-0.04092797264456749,0.2119702398777008
1788680946487021300,3.345021240234375,-0.22540926933288574,-0.04459316283464432,0.2577851414680481
1788680946502921000,3.3609208984375,-0.28466320037841797,-0.0757472887635231,0.2828305959701538
1788680946518820600,3.376820556640625,-0.3481931984424591,-0.19486601650714874,0.2223549485206604
1788680946534659000,3.3926591796875,-0.3579670190811157,-0.19914206862449646,0.14538592100143433
1788680946550558700,3.408558837890625,-0.2883284091949463,-0.12828169763088226,0.1618792861700058
1788680946566489000,3.424489013671875,-0.18997909128665924,0.010995574295520782,0.2669481039047241
1788680946582297000,3.440297119140625,-0.10262536257505417,0.15271630883216858,0.33597588539123535
1788680946598196700,3.45619677734375,-0.12461651116609573,0.1459967941045761,0.2064724564552307
1788680946614035500,3.472035400390625,-0.2119702398777008,0.1160643994808197,-0.048258353024721146
1788680946629904400,3.487904296875,-0.3078760802745819,0.1270599663257599,-0.384845107793808
1788680946645773600,3.503773681640625,-0.34758231043815613,0.1411098688840866,-0.4862487316131592
1788680946661673200,3.519673095703125,-0.29993483424186707,0.11301007121801376,-0.1875356286764145
1788680946677603600,3.535603515625,-0.24862214922904968,-0.021991148591041565,0.3194825351238251
1788680946693503200,3.551503173828125,-0.21319197118282318,-0.15027284622192383,0.8698720932006836
1788680946709372200,3.5673720703125,-0.21319197118282318,-0.20463985204696655,1.0464121103286743
1788680946725241300,3.583241455078125,-0.25045475363731384,-0.17898350954055786,0.8497135639190674
1788680946741141000,3.59914111328125,-0.27488934993743896,-0.07391469180583954,0.4740314185619354
1788680946757010200,3.61501025390625,-0.1472185254096985,-0.16920967400074005,0.5064072608947754
1788680946772879400,3.63087939453125,-0.08307767659425735,0.05253441259264946,0.029932396486401558
1788680946788809500,3.6468095703125,-0.3549126982688904,0.1722639948129654,-0.5571091175079346
1788680946804739600,3.662739501953125,-0.45753806829452515,0.21013765037059784,-0.8588765263557434
1788680946820547800,3.6785478515625,-0.3854559659957886,-0.10018189996480942,-0.5375614166259766
1788680946836447500,3.694447509765625,-0.3323107063770294,-0.4404338300228119,-0.04886921867728233
1788680946852347100,3.71034716796875,-0.21013765037059784,-0.29565876722335815,0.039095375686883926
1788680946868277200,3.72627734375,-0.03726277872920036,0.1459967941045761,-0.14355333149433136
1788680946884116000,3.742115966796875,0.006108652334660292,0.26633724570274353,-0.39706242084503174
1788680946899924000,3.757924072265625,-0.07880161702632904,0.20830504596233368,-0.5656611919403076
1788680946915793200,3.773793212890625,-0.1417207419872284,0.1661553531885147,-0.5204572081565857
1788680946931692800,3.78969287109375,-0.05253441259264946,0.11545353382825851,-0.35552358627319336
1788680946947623000,3.805622802734375,0.08674286305904388,0.013439035043120384,-0.1612684279680252
1788680946963461600,3.821461669921875,0.14416420459747314,-0.13011430203914642,-0.08307767659425735
1788680946979361300,3.837361328125,0.20525072515010834,-0.2015855312347412,-0.1264491081237793
1788680946995200000,3.853199951171875,0.26572638750076294,-0.18081611394882202,-0.1918116807937622
1788680947011099600,3.869099609375,0.2993239760398865,-0.1466076523065567,-0.16249015927314758
1788680947026999300,3.884999267578125,0.2981022298336029,-0.16554448008537292,-0.018936822190880775
1788680947042899000,3.90089892578125,0.2816088795661926,-0.24007004499435425,0.13255776464939117
1788680947058707000,3.91670703125,0.27122417092323303,-0.22357667982578278,0.24678955972194672
1788680947074545700,3.932545654296875,0.24434609711170197,-0.07391469180583954,0.2974913716316223
1788680947090353700,3.948353759765625,0.2968805134296417,0.13011430203914642,0.30482175946235657
1788680947106283800,3.96428369140625,0.40622538328170776,0.24007004499435425,0.2730567753314972
1788680947122153000,3.980153076171875,0.48197266459465027,0.21441370248794556,0.10995574295520782
1788680947138052600,3.996052490234375,0.4001167416572571,0.07391469180583954,-0.0507018156349659
1788680947153891300,4.011891357421875,0.28099802136421204,-0.13439035415649414,-0.20830504596233368
1788680947169760500,4.027760498046875,0.2785545587539673,-0.37079519033432007,-0.30115658044815063
1788680947185660200,4.04366015625,0.24984388053417206,-0.6200281977653503,-0.3701843321323395
1788680947201529300,4.059529296875,0.2028072625398636,-0.4447098970413208,-0.41172316670417786
1788680947217459500,4.07545947265625,0.24007004499435425,-0.49785518646240234,-0.4434881806373596
1788680947233298200,4.091298095703125,0.17409659922122955,-0.617584764957428,-0.2883284091949463
1788680947249167000,4.1071669921875,0.13377949595451355,-0.7531968355178833,0.21930062770843506
1788680947265097500,4.123097412109375,0.2883284091949463,-0.27488934993743896,0.598647952079773
1788680947280966400,4.13896630859375,0.27611109614372253,0.7605272531509399,0.931569516658783
1788680947296866000,4.154865966796875,0.12339477986097336,1.236391305923462,0.9053022861480713
1788680947312735200,4.1707353515625,-0.12034045159816742,1.0543533563613892,0.4715879559516907
1788680947328604400,4.1866044921875,-0.27611109614372253,0.5919284224510193,-0.012217304669320583
1788680947344565200,4.202565185546875,-0.3072652220726013,0.13927727937698364,-0.39217549562454224
1788680947360434200,4.21843408203125,-0.2822197377681732,-0.11484266817569733,-0.4599815309047699
1788680947376333800,4.234333740234375,-0.31093040108680725,-0.3078760802745819,-0.34513887763023376
1788680947392172500,4.250172607421875,-0.3952298164367676,-0.36102136969566345,-0.15454891324043274
1788680947408072200,4.266072265625,-0.4404338300228119,-0.31154128909111023,-0.014049900695681572
1788680947424002300,4.282002197265625,-0.4043927788734436,-0.1270599663257599,0.11362093687057495
1788680947439963100,4.297963134765625,-0.34513887763023376,0.27061331272125244,0.19120082259178162
1788680947455771100,4.313771240234375,-0.1966986060142517,0.4550946056842804,0.15760323405265808
1788680947471640300,4.329640380859375,-0.07147123664617538,0.5021312236785889,0.06291911751031876
1788680947487570400,4.3455703125,0.02687807008624077,0.637132465839386,-0.07024950534105301
1788680947503500800,4.361500732421875,0.08246681094169617,0.6420193910598755,-0.1918116807937622
1788680947519431000,4.377430908203125,0.08735372871160507,0.5589417219161987,-0.3274237811565399
1788680947535208400,4.39320849609375,0.08918632566928864,0.27061331272125244,-0.4043927788734436
1788680947551077600,4.40907763671875,0.08429940044879913,-0.025045474991202354,-0.4294382631778717
1788680947566885600,4.4248857421875,0.11545353382825851,-0.24068090319633484,-0.3341432809829712
1788680947582816000,4.44081591796875,0.12889257073402405,-0.33719760179519653,-0.05742133408784866
1788680947598654500,4.456654541015625,0.03420845419168472,-0.23579397797584534,0.1508837193250656
1788680947614554000,4.47255419921875,-0.03481931984424591,-0.11972958594560623,0.2590068578720093
1788680947630392800,4.488392822265625,-0.07696902006864548,-0.015882495790719986,0.2321287989616394
1788680947646292500,4.50429248046875,-0.2076941877603531,0.04398229718208313,0.13866640627384186
1788680947662222600,4.52022265625,-0.33047810196876526,0.018936822190880775,0.06536258012056351
1788680947678061300,4.536061279296875,-0.38179078698158264,-0.04886921867728233,0.03176499158143997
1788680947693961000,4.5519609375,-0.3933972120285034,-0.1258382350206375,0.051312681287527084
1788680947709830100,4.567830078125,-0.4190535545349121,-0.24678955972194672,0.09407325088977814
1788680947725729800,4.583729736328125,-0.4612032473087311,-0.25534167885780334,0.11667526513338089
1788680947741660000,4.599659912109375,-0.4398229718208313,-0.31154128909111023,0.17531833052635193
1788680947757590000,4.615590087890625,-0.42149701714515686,-0.18814650177955627,0.2321287989616394
1788680947773489700,4.63148974609375,-0.455705463886261,-0.05192354694008827,0.20463985204696655
1788680947789358800,4.64735888671875,-0.5943718552589417,-0.20097467303276062,0.01160643994808197
1788680947805258500,4.663258544921875,-0.7397578358650208,-0.37751471996307373,-0.1966986060142517
1788680947821188600,4.679188720703125,-0.7922922372817993,-0.38667771220207214,-0.28038713335990906
1788680947837149400,4.6951494140625,-0.6487388610839844,-0.09162978827953339,-0.16920967400074005
1788680947852957400,4.71095751953125,-0.33047810196876526,0.33719760179519653,0.045204028487205505
1788680947868796200,4.726796142578125,-0.09162978827953339,0.5455026626586914,0.20891591906547546
1788680947884665300,4.742665283203125,-0.014049900695681572,0.53328537940979,0.28527405858039856
1788680947900565000,4.75856494140625,-0.05864306539297104,0.27122417092323303,0.28527405858039856
1788680947916403500,4.774403564453125,-0.20891591906547546,-0.22479841113090515,0.20586158335208893
1788680947932242200,4.7902421875,-0.3646865487098694,-0.6444628238677979,0.10812314599752426
1788680947948172300,4.80617236328125,-0.5106833577156067,-0.9046914577484131,0.022602014243602753
1788680947964011000,4.822010986328125,-0.7556403279304504,-0.46853363513946533,0.21319197118282318
1788680947979941000,4.837941162109375,-0.8600982427597046,-0.5839871764183044,0.33475416898727417
1788680947995840800,4.8538408203125,-0.7684684991836548,-0.3585779070854187,0.46731191873550415
1788680948011648800,4.869648681640625,-0.47769662737846375,-0.19792033731937408,0.4911356568336487
1788680948027487500,4.885487548828125,-0.28038713335990906,-0.39706242084503174,0.4789183437824249
1788680948043387100,4.90138720703125,-0.13988813757896423,-0.5314527750015259,0.45814892649650574
1788680948059256300,4.91725634765625,-0.05375614017248154,-0.5736024379730225,0.3995058834552765
1788680948075125500,4.93312548828125,0.04581489413976669,-0.5448917746543884,0.22602014243602753
1788680948090994700,4.94899462890625,0.17287486791610718,-0.34147366881370544,0.08124507963657379
1788680948106924800,4.9649248046875,0.303600013256073,-0.25473082065582275,-0.07330382615327835
1788680948122824400,4.980824462890625,0.37201693654060364,-0.2070833146572113,-0.1612684279680252
1788680948138663200,4.9966630859375,0.40072759985923767,-0.294437050819397,-0.1612684279680252
1788680948154501600,5.012501708984375,0.33536502718925476,-0.25045475363731384,-0.08429940044879913
1788680948170401300,5.0284013671875,0.21380282938480377,-0.08246681094169617,-0.00855211354792118
1788680948186270500,5.0442705078125,0.17592918872833252,0.05192354694008827,0.06963863968849182
1788680948202170000,5.060170166015625,0.11667526513338089,0.04581489413976669,-0.01160643994808197
1788680948218131000,5.076130859375,0.14477506279945374,-0.006719517521560192,-0.13561208546161652
1788680948233969400,5.091969482421875,0.2669481039047241,-0.14782938361167908,-0.17898350954055786
1788680948249869000,5.107869140625,0.4184426963329315,-0.2278527319431305,-0.11728613078594208
1788680948265738200,5.12373828125,0.4813618063926697,-0.12950342893600464,-0.0708603709936142
1788680948281638000,5.139637939453125,0.5271766781806946,0.10323622822761536,-0.1313360333442688
1788680948297568000,5.155568115234375,0.5681046843528748,0.22602014243602753,-0.2382374405860901
1788680948313467600,5.171467529296875,0.5522221922874451,0.11362093687057495,-0.3799581825733185
1788680948329398000,5.18739794921875,0.45814892649650574,-0.21868975460529327,-0.5461135506629944
1788680948345328000,5.203328125,0.294437050819397,-0.6731734871864319,-0.7525860071182251
1788680948361166600,5.21916650390625,0.2638937830924988,-0.7202101349830627,-0.7000515460968018
1788680948377097000,5.235096923828125,0.39095374941825867,-0.32070425152778625,-0.15271630883216858
1788680948392966100,5.250966064453125,0.5387831330299377,0.18387043476104736,0.5174028873443604
1788680948408865800,5.26686572265625,0.5791002511978149,0.5387831330299377,1.0005972385406494
1788680948424765400,5.282765380859375,0.5277875661849976,0.5705481171607971,1.006095051765442
1788680948440634400,5.29863427734375,0.45142942667007446,0.3799581825733185,0.6719517707824707
1788680948456564700,5.314564697265625,0.43615779280662537,0.08491026610136032,0.12339477986097336
1788680948480368400,5.338368408203125,0.4294382631778717,-0.27122417092323303,-0.50335294008255
1788680948496298500,5.354298583984375,0.37201693654060364,-0.21441370248794556,-0.7220427393913269
1788680948512198100,5.3701982421875,0.2626720666885376,-0.051312681287527084,-0.7580837607383728
1788680948528036900,5.386036865234375,0.19547687470912933,0.11056660860776901,-0.6346889734268188
1788680948543936500,5.4019365234375,0.18936823308467865,0.21380282938480377,-0.46731191873550415
1788680948559805700,5.4178056640625,0.2223549485206604,0.1918116807937622,-0.2718350291252136
1788680948575766300,5.433766357421875,0.2376265823841095,0.1258382350206375,-0.0806342139840126
1788680948591605000,5.44960498046875,0.23884831368923187,0.028099801391363144,0.11178833991289139
1788680948607504600,5.465504638671875,0.22907446324825287,-0.025045474991202354,0.18020524084568024
1788680948623373800,5.481373779296875,0.23151792585849762,-0.033597588539123535,0.16493362188339233
1788680948639273500,5.4972734375,0.24923302233219147,-0.033597588539123535,0.12278391420841217
1788680948655234000,5.513234130859375,0.2932153046131134,-0.006108652334660292,0.0708603709936142
1788680948671103200,5.529103271484375,0.303600013256073,0.05253441259264946,0.009162978269159794
1788680948686972400,5.544972412109375,0.2834414839744568,0.16859880089759827,-0.039706241339445114
1788680948702811000,5.560810791015625,0.1765400618314743,0.323147714138031,-0.14844025671482086
1788680948718710500,5.57671044921875,0.059864792972803116,0.3072652220726013,-0.2993239760398865
1788680948734641000,5.592640869140625,0.051312681287527084,-0.059864792972803116,-0.394618958234787
1788680948750601500,5.6086015625,0.15943582355976105,-0.3579670190811157,-0.28955012559890747
1788680948766379000,5.62437890625,0.2730567753314972,-0.4404338300228119,-0.03726277872920036
1788680948782278700,5.640278564453125,0.18997909128665924,-0.24984388053417206,0.17287486791610718
1788680948798147800,5.65614794921875,-0.0555887371301651,-0.1569923609495163,0.2791654169559479
1788680948814078200,5.672078125,-0.22602014243602753,-0.042760565876960754,0.31520646810531616
1788680948829977900,5.687977783203125,-0.21502456068992615,0.2773328125476837,0.46364670991897583
1788680948845785900,5.703785888671875,-0.1514945775270462,0.5070181488990784,0.7018841505050659
1788680948861655000,5.719655029296875,-0.1667662113904953,0.4893030524253845,0.9266825914382935
1788680948877524200,5.735524169921875,-0.2932153046131134,0.35124751925468445,0.8845328688621521
1788680948893454300,5.751454345703125,-0.40744712948799133,0.3488040566444397,0.3640756905078888
1788680948909384400,5.767384521484375,-0.4398229718208313,0.4807509481906891,-0.24984388053417206
1788680948925253600,5.783253662109375,-0.42271876335144043,0.5546656250953674,-0.598647952079773
1788680948941122800,5.799122802734375,-0.3677408695220947,0.38179078698158264,-0.313373863697052
1788680948956961300,5.814961181640625,-0.3090978264808655,0.13744467496871948,0.26633724570274353
1788680948972891600,5.8308916015625,-0.2742784917354584,0.0006108652451075613,0.7922922372817993
1788680948988760600,5.846760498046875,-0.27488934993743896,-0.025656340643763542,0.8649851679801941
1788680949004599300,5.862599365234375,-0.2431243658065796,0.005497787147760391,0.523511528968811
1788680949020468500,5.878468505859375,-0.19486601650714874,0.05497787147760391,0.0555887371301651
1788680949036337700,5.894337646484375,-0.14782938361167908,0.0659734457731247,-0.41599923372268677
1788680949052267800,5.910267822265625,-0.12767083942890167,0.009162978269159794,-0.6352998614311218
1788680949068167400,5.92616748046875,-0.13439035415649414,-0.1362229436635971,-0.6499606370925903
1788680949084067000,5.942067138671875,-0.15882496535778046,-0.31520646810531616,-0.5259549617767334
1788680949099936300,5.957936279296875,-0.19486601650714874,-0.5204572081565857,-0.3341432809829712
1788680949115805400,5.973805419921875,-0.21868975460529327,-0.5455026626586914,-0.15882496535778046
1788680949131644000,5.989643798828125,-0.2070833146572113,-0.4056145250797272,0.03176499158143997
1788680949147574300,6.00557421875,-0.13988813757896423,-0.2590068578720093,0.17531833052635193
1788680949163382300,6.02138232421875,-0.02382374368607998,-0.06108652427792549,0.31642818450927734
1788680949179190300,6.037190185546875,0.012217304669320583,0.2590068578720093,0.3646865487098694
1788680949195059500,6.0530595703125,0.09896016865968704,0.1771509200334549,0.22540926933288574
1788680949211020300,6.069020263671875,0.1319468915462494,-0.13561208546161652,0.028099801391363144
1788680949226858800,6.084858642578125,0.1411098688840866,-0.22602014243602753,-0.17837265133857727
1788680949242728000,6.10072802734375,0.11301007121801376,-0.19425514340400696,-0.28527405858039856
1788680949258627600,6.116627685546875,0.04886921867728233,-0.2223549485206604,-0.3194825351238251
1788680949274466300,6.13246630859375,0.0403171069920063,-0.2278527319431305,-0.2583959996700287
1788680949290335500,6.14833544921875,0.08368854224681854,-0.1313360333442688,-0.12461651116609573
1788680949306204700,6.16420458984375,0.1411098688840866,-0.01160643994808197,-0.028099801391363144
1788680949322073600,6.180073486328125,0.2125810980796814,0.08735372871160507,0.04214970022439957
1788680949337973200,6.19597314453125,0.251676470041275,0.07513642311096191,0.08368854224681854
1788680949353873000,6.211872802734375,0.2767219543457031,0.04581489413976669,0.17287486791610718
1788680949369803300,6.22780322265625,0.2724458873271942,0.08124507963657379,0.37140607833862305
1788680949385703000,6.243702880859375,0.2834414839744568,0.11545353382825851,0.5613851547241211
1788680949401511000,6.259510986328125,0.3084869384765625,0.04092797264456749,0.588263213634491
1788680949417380000,6.275380126953125,0.3543018400669098,-0.10934487730264664,0.35185837745666504
1788680949433218800,6.29121875,0.43127086758613586,-0.3488040566444397,-0.07696902006864548
1788680949449149000,6.30714892578125,0.43188172578811646,-0.45753806829452515,-0.3433062732219696
1788680949464987400,6.3229873046875,0.38667771220207214,-0.3225368559360504,-0.32620203495025635
1788680949480856600,6.338856689453125,0.3878994286060333,-0.0006108652451075613,-0.03787364438176155
1788680949496725800,6.354725830078125,0.4300491213798523,0.2626720666885376,0.3604104816913605
1788680949512625400,6.37062548828125,0.44776421785354614,0.252287358045578,0.5381723046302795
1788680949528555500,6.386555419921875,0.4001167416572571,0.08307767659425735,0.43799036741256714
1788680949544455200,6.402455078125,0.3243694305419922,-0.12950342893600464,0.18448130786418915
1788680949560263400,6.418263427734375,0.22418753802776337,-0.3481931984424591,-0.0757472887635231
1788680949576163000,6.4341630859375,0.16859880089759827,-0.3982841372489929,-0.18448130786418915
1788680949592062700,6.450062744140625,0.13805554807186127,-0.3396410644054413,-0.22968533635139465
1788680949607992800,6.465992919921875,0.11239920556545258,-0.25961771607398987,-0.24190263450145721
1788680949623831600,6.48183154296875,0.08124507963657379,-0.15393804013729095,-0.21563543379306793
1788680949639670000,6.497669921875,0.06414084881544113,-0.12339477986097336,-0.1618792861700058
1788680949655508700,6.5135087890625,0.060475658625364304,-0.13744467496871948,-0.03481931984424591
1788680949671408400,6.529408447265625,0.08368854224681854,-0.14294247329235077,0.11972958594560623
1788680949687338500,6.54533837890625,0.1007927656173706,-0.10690141469240189,0.26939156651496887
1788680949703177200,6.56117724609375,0.08674286305904388,-0.02626720629632473,0.31581732630729675
1788680949719076900,6.577076904296875,0.05497787147760391,0.04214970022439957,0.23029619455337524
1788680949734976500,6.5929765625,0.0012217304902151227,0.08735372871160507,0.09468411654233932
1788680949750876200,6.608876220703125,-0.0507018156349659,0.09896016865968704,-0.02932153269648552
1788680949766806300,6.62480615234375,-0.09162978827953339,0.10506882518529892,-0.07269296050071716
1788680949782675500,6.640675537109375,-0.12278391420841217,0.11484266817569733,-0.06291911751031876
1788680949798514200,6.65651416015625,-0.1563815027475357,0.09957103431224823,-0.025045474991202354
1788680949814352600,6.6723525390625,-0.1875356286764145,0.018325956538319588,-0.006108652334660292
1788680949830252300,6.688252197265625,-0.242513507604599,-0.06719517707824707,-0.00366519158706069
1788680949846182700,6.7041826171875,-0.2724458873271942,-0.05925392732024193,-0.007941247895359993
1788680949862143200,6.720143310546875,-0.27488934993743896,-0.019547687843441963,0.025045474991202354
1788680949877951500,6.735951416015625,-0.242513507604599,0.04214970022439957,0.11789698898792267
1788680949893790000,6.7517900390625,-0.17592918872833252,0.14905111491680145,0.3878994286060333
1788680949909659100,6.7676591796875,-0.16554448008537292,0.17409659922122955,0.6255260109901428
1788680949925589200,6.78358935546875,-0.2382374405860901,0.17898350954055786,0.5601634383201599
1788680949941458400,6.79945849609375,-0.32070425152778625,0.18081611394882202,0.13988813757896423
1788680949957266400,6.815266357421875,-0.4447098970413208,0.08796459436416626,-0.6224716901779175
1788680949973074700,6.83107470703125,-0.5601634383201599,-0.036651913076639175,-1.0922271013259888
1788680949988944000,6.84694384765625,-0.5638286471366882,-0.15271630883216858,-0.9560040831565857
1788680950004874000,6.8628740234375,-0.48747047781944275,-0.18997909128665924,-0.30604347586631775
1788680950020773600,6.878773681640625,-0.43188172578811646,0.0024434609804302454,0.5186246037483215
1788680950036612400,6.8946123046875,-0.394618958234787,0.22663100063800812,0.7544185519218445
1788680950052450800,6.910450927734375,-0.36651915311813354,0.3689626157283783,0.47342056035995483
1788680950068350500,6.9263505859375,-0.31520646810531616,0.4795292317867279,0.015882495790719986
1788680950084250000,6.94225,-0.242513507604599,0.5510004758834839,-0.42271876335144043
1788680950100088800,6.9580888671875,-0.19547687470912933,0.45326200127601624,-0.5943718552589417
1788680950115958000,6.9739580078125,-0.20830504596233368,0.21074850857257843,-0.59803706407547
1788680950131857700,6.989857666015625,-0.2828305959701538,-0.039095375686883926,-0.5002986192703247
1788680950147726800,7.005726806640625,-0.3695734739303589,-0.31031954288482666,-0.3243694305419922
1788680950163657000,7.021656982421875,-0.3683517575263977,-0.41233405470848083,-0.13927727937698364
1788680950179495700,7.03749560546875,-0.32681289315223694,-0.38667771220207214,0.03237585723400116
1788680950195303700,7.0533037109375,-0.28527405858039856,-0.3274237811565399,0.12461651116609573
1788680950211142400,7.069142333984375,-0.24678955972194672,-0.24556782841682434,0.18814650177955627
1788680950227011300,7.08501123046875,-0.23579397797584534,-0.18997909128665924,0.17837265133857727
1788680950242941700,7.100941650390625,-0.2382374405860901,-0.19608774781227112,0.11301007121801376
1788680950258810600,7.116810546875,-0.22113321721553802,-0.21319197118282318,0.00855211354792118
1788680950274710500,7.13271044921875,-0.19303341209888458,-0.1918116807937622,-0.08857546001672745
1788680950290579500,7.148579345703125,-0.13561208546161652,-0.19486601650714874,-0.1771509200334549
1788680950306479000,7.16447900390625,-0.08979719132184982,-0.25534167885780334,-0.17287486791610718
1788680950322409500,7.180409423828125,-0.03848451003432274,-0.2742784917354584,-0.06230825558304787
1788680950338217500,7.196217529296875,0.015882495790719986,-0.25473082065582275,0.08674286305904388
1788680950354086700,7.212086669921875,0.1111774742603302,-0.25106561183929443,0.25473082065582275
1788680950369925400,7.22792529296875,0.2021963894367218,-0.22968533635139465,0.3023782968521118
1788680950385855500,7.24385546875,0.29016098380088806,-0.20402899384498596,0.23273965716362
1788680950401755100,7.259755126953125,0.36590829491615295,-0.1612684279680252,0.1514945775270462
1788680950417624300,7.275624267578125,0.4043927788734436,-0.09285151958465576,0.18997909128665924
1788680950433493200,7.2914931640625,0.423329621553421,0.001832595793530345,0.38728857040405273
1788680950449332000,7.30733203125,0.475253164768219,0.02076941914856434,0.598647952079773
1788680950465231600,7.323231689453125,0.5326744914054871,-0.09162978827953339,0.5528330206871033
1788680950481192400,7.3391923828125,0.5839871764183044,-0.35674530267715454,0.20586158335208893
1788680950497031000,7.355031005859375,0.5265658497810364,-0.6389650702476501,-0.16737708449363708
1788680950512869600,7.37086962890625,0.3787364661693573,-0.7391469478607178,-0.3683517575263977
1788680950528708000,7.3867080078125,0.27122417092323303,-0.5326744914054871,-0.2480112910270691
1788680950544607700,7.402607666015625,0.24862214922904968,-0.12400564551353455,0.11972958594560623
1788680950560538000,7.4185380859375,0.27488934993743896,0.12339477986097336,0.41111230850219727
1788680950576437800,7.434437744140625,0.28527405858039856,0.14905111491680145,0.47830748558044434
1788680950592245800,7.450245849609375,0.26939156651496887,0.004886921960860491,0.2981022298336029
1788680950608084500,7.46608447265625,0.21013765037059784,-0.27000242471694946,-0.07757988572120667
1788680950623984000,7.481984130859375,0.1417207419872284,-0.44715335965156555,-0.3341432809829712
1788680950639914200,7.497914306640625,0.0861319974064827,-0.48380526900291443,-0.43188172578811646
1788680950655753000,7.5137529296875,0.09773843735456467,-0.3695734739303589,-0.40133845806121826
1788680950671622100,7.5296220703125,0.1264491081237793,-0.16249015927314758,-0.3549126982688904
1788680950687491000,7.545490966796875,0.1459967941045761,0.07696902006864548,-0.3274237811565399
1788680950703360300,7.5613603515625,0.1313360333442688,0.12034045159816742,-0.3286454975605011
1788680950719290400,7.577290283203125,0.11545353382825851,0.02076941914856434,-0.26939156651496887
1788680950735159600,7.59315966796875,0.12095131725072861,-0.00366519158706069,-0.152105450630188
1788680950750998300,7.608998291015625,0.10445795953273773,-0.01466076634824276,-0.015882495790719986
1788680950766898000,7.62489794921875,0.07941248267889023,-0.03237585723400116,0.05619960278272629
1788680950782736600,7.640736572265625,0.045204028487205505,-0.04092797264456749,0.0659734457731247
1788680950798605600,7.65660546875,0.0024434609804302454,-0.02687807008624077,0.024434609338641167
1788680950814566400,7.67256640625,-0.029932396486401558,0.07330382615327835,-0.06169738993048668
1788680950830404900,7.68840478515625,-0.03787364438176155,0.1514945775270462,-0.1875356286764145
1788680950846243600,7.70424365234375,-0.07330382615327835,0.1918116807937622,-0.3445279896259308
1788680950862112800,7.72011279296875,-0.10812314599752426,0.18448130786418915,-0.3988949954509735
1788680950878043000,7.73604296875,-0.13927727937698364,0.09712757170200348,-0.32681289315223694
1788680950893881600,7.751881591796875,-0.1765400618314743,0.0659734457731247,-0.1368338167667389
1788680950909750800,7.767750732421875,-0.21563543379306793,0.14049901068210602,0.1466076523065567
1788680950925619700,7.78361962890625,-0.22357667982578278,0.2278527319431305,0.2889392673969269
1788680950941489000,7.799489013671875,-0.21441370248794556,0.23029619455337524,0.2974913716316223
1788680950957419300,7.815419189453125,-0.21380282938480377,0.20952677726745605,0.2119702398777008
1788680950973319000,7.83131884765625,-0.20097467303276062,0.23396138846874237,0.19486601650714874
1788680950989127000,7.847126953125,-0.18875735998153687,0.2382374405860901,0.31581732630729675
1788680951004965600,7.862965576171875,-0.2571742534637451,0.15454891324043274,0.39645153284072876
1788680951020804000,7.87880419921875,-0.33108896017074585,0.1514945775270462,0.26511552929878235
1788680951036703700,7.894703857421875,-0.3732386529445648,0.28649580478668213,-0.06352998316287994
1788680951052573000,7.910572998046875,-0.39217549562454224,0.4031710624694824,-0.31154128909111023
1788680951068411600,7.92641162109375,-0.3885102868080139,0.342695415019989,-0.3194825351238251
1788680951084280800,7.94228076171875,-0.35735616087913513,0.09529497474431992,0
1788680951100119300,7.958119384765625,-0.304210901260376,-0.24190263450145721,0.5027421116828918
1788680951116049400,7.97404931640625,-0.25595253705978394,-0.35552358627319336,0.7941248416900635
1788680951131949000,7.989948974609375,-0.22296582162380219,-0.24678955972194672,0.7678576111793518
1788680951147787800,8.005787841796876,-0.192422553896904,-0.00855211354792118,0.4813618063926697
1788680951163657000,8.021656982421876,-0.17409659922122955,0.19425514340400696,0.1215621829032898
1788680951179587000,8.037587158203126,-0.15821409225463867,0.3683517575263977,-0.2583959996700287
1788680951195456300,8.053456298828126,-0.16310101747512817,0.3335324227809906,-0.4599815309047699
1788680951211325400,8.069325439453126,-0.2174680233001709,0.1215621829032898,-0.5925393104553223
1788680951227194600,8.085194580078126,-0.27122417092323303,-0.08674286305904388,-0.5864306092262268
1788680951243124700,8.101124755859376,-0.2675589919090271,-0.18997909128665924,-0.4300491213798523
1788680951258963500,8.11696337890625,-0.19364428520202637,-0.16004669666290283,-0.20830504596233368
1788680951274893600,8.1328935546875,-0.08124507963657379,-0.06780604273080826,0.08002334833145142
1788680951290793200,8.148793212890626,-0.025045474991202354,0.036651913076639175,0.22418753802776337
1788680951306662400,8.164662353515626,-0.02932153269648552,0.039095375686883926,0.17409659922122955
1788680951322531300,8.18053125,-0.09712757170200348,-0.02076941914856434,-0.014049900695681572
1788680951338461700,8.196461669921876,-0.15027284622192383,-0.14966198801994324,-0.17287486791610718
1788680951354391800,8.212391845703126,-0.12400564551353455,-0.23029619455337524,-0.1771509200334549
1788680951370261000,8.228260986328126,-0.03237585723400116,-0.16371189057826996,-0.05253441259264946
1788680951386130200,8.244130126953126,0.06658431142568588,-0.07024950534105301,0.09834930300712585
1788680951402060300,8.260060302734376,0.14477506279945374,-0.0555887371301651,0.23579397797584534
1788680951417899000,8.27589892578125,0.1466076523065567,-0.1722639948129654,0.2535090744495392
1788680951433829000,8.2918291015625,0.1319468915462494,-0.4495968222618103,0.17104226350784302
1788680951449759200,8.30775927734375,0.1667662113904953,-0.6328563690185547,0.09712757170200348
1788680951465628400,8.32362841796875,0.23090706765651703,-0.5821545720100403,0.10018189996480942
1788680951481467000,8.339466796875,0.3384193480014801,-0.37568211555480957,0.17470745742321014
1788680951497336000,8.355336181640626,0.4141666293144226,-0.08429940044879913,0.3243694305419922
1788680951513266400,8.371266357421876,0.4434881806373596,0.1514945775270462,0.5754350423812866
1788680951529135400,8.38713525390625,0.4386012554168701,0.18448130786418915,0.6731734871864319
1788680951545035000,8.403034912109375,0.3842342495918274,0.00366519158706069,0.403781920671463
1788680951560904200,8.418904296875,0.3243694305419922,-0.17837265133857727,-0.15454891324043274
1788680951576773400,8.4347734375,0.24434609711170197,-0.2993239760398865,-0.8717046976089478
1788680951592734200,8.450734130859376,0.23273965716362,-0.19608774781227112,-1.0965031385421753
1788680951608633900,8.4666337890625,0.3194825351238251,0.045204028487205505,-0.6615670323371887
1788680951624441900,8.48244189453125,0.4331034719944,0.2938261926174164,0.0861319974064827
1788680951640341500,8.498341552734376,0.5076290369033813,0.3677408695220947,0.7684684991836548
1788680951656210700,8.514210693359376,0.48380526900291443,0.19364428520202637,0.8576548099517822
1788680951672110300,8.5301103515625,0.37568211555480957,-0.12828169763088226,0.4893030524253845
1788680951687979500,8.5459794921875,0.26572638750076294,-0.37079519033432007,0.08307767659425735
1788680951703848700,8.5618486328125,0.19303341209888458,-0.3927863538265228,-0.23945917189121246
1788680951719717600,8.577717529296875,0.1820378452539444,-0.18570303916931152,-0.37751471996307373
1788680951735586800,8.5935869140625,0.18081611394882202,0.10567969083786011,-0.4740314185619354
1788680951751486500,8.609486572265626,0.12828169763088226,0.24190263450145721,-0.5626068711280823
1788680951767416800,8.625416748046876,0.04337143152952194,0.18936823308467865,-0.5962044596672058
1788680951783285800,8.64128564453125,0.006719517521560192,0.06963863968849182,-0.4697553813457489
1788680951799216000,8.657216064453126,0.019547687843441963,0.029932396486401558,-0.15515977144241333
1788680951815024000,8.673024169921876,0.051312681287527084,0.08735372871160507,0.1667662113904953
1788680951830923800,8.688923828125,0.0659734457731247,0.09407325088977814,0.31581732630729675
1788680951846823400,8.704823486328126,0.06719517707824707,0.0555887371301651,0.3188716471195221
1788680951862662100,8.720662109375,0.039095375686883926,0.00855211354792118,0.20952677726745605
1788680951878500600,8.73650048828125,-0.006108652334660292,-0.09040805697441101,0.04642575979232788
1788680951894369800,8.752369873046876,-0.033597588539123535,-0.12828169763088226,-0.04703662544488907
1788680951910269400,8.76826953125,-0.04703662544488907,-0.08429940044879913,-0.10567969083786011
1788680951926169000,8.784169189453126,-0.05864306539297104,-0.02932153269648552,-0.09773843735456467
1788680951942038300,8.800038330078126,-0.08979719132184982,0.021991148591041565,-0.042760565876960754
1788680951957907500,8.815907470703126,-0.1270599663257599,0.05497787147760391,-0.00366519158706069
1788680951973746200,8.83174609375,-0.17104226350784302,0.01710422709584236,0.024434609338641167
1788680951989645800,8.847645751953126,-0.2119702398777008,-0.1160643994808197,0.05009094998240471
1788680952005606400,8.8636064453125,-0.21380282938480377,-0.0910189226269722,0.1508837193250656
1788680952021445000,8.879445068359376,-0.19914206862449646,0.06902777403593063,0.29077184200286865
1788680952037314000,8.89531396484375,-0.1466076523065567,0.19608774781227112,0.4996877610683441
1788680952053214000,8.9112138671875,-0.1722639948129654,0.1771509200334549,0.5357288122177124
1788680952069144000,8.92714404296875,-0.29138273000717163,0.12095131725072861,0.19486601650714874
1788680952085074200,8.94307421875,-0.3854559659957886,0.05314527451992035,-0.2791654169559479
1788680952100882200,8.958882080078125,-0.46364670991897583,0.013439035043120384,-0.6988298296928406
1788680952116751400,8.97475146484375,-0.4948008358478546,0.03726277872920036,-0.6786713004112244
1788680952132620500,8.99062060546875,-0.4153883755207062,-0.07208210229873657,-0.10873401165008545
1788680952148550700,9.006550537109375,-0.33108896017074585,-0.17592918872833252,0.5577199459075928
1788680952164419800,9.022419921875,-0.2785545587539673,-0.1368338167667389,1.0152580738067627
1788680952180289000,9.0382890625,-0.2785545587539673,-0.06108652427792549,0.9187413454055786
1788680952196188700,9.054188720703126,-0.30543261766433716,0.02687807008624077,0.3988949954509735
1788680952212057900,9.070057861328126,-0.2974913716316223,0.08307767659425735,-0.2474004179239273
1788680952227988000,9.085988037109376,-0.2791654169559479,0.051312681287527084,-0.694553792476654
1788680952243918000,9.10191796875,-0.24434609711170197,-0.0959058403968811,-0.9657779335975647
1788680952259726300,9.117726318359376,-0.24556782841682434,-0.18997909128665924,-0.9541715383529663
1788680952275595500,9.133595458984376,-0.2278527319431305,-0.2370157092809677,-0.720820963382721
1788680952291434000,9.14943408203125,-0.1820378452539444,-0.24190263450145721,-0.4184426963329315
1788680952307394800,9.165394775390626,-0.13255776464939117,-0.1466076523065567,-0.11423180252313614
1788680952323233300,9.1812333984375,-0.11301007121801376,-0.0354301854968071,0.03481931984424591
1788680952339102500,9.1971025390625,-0.11789698898792267,0.39706242084503174,0.38728857040405273
1788680952362967300,9.22096728515625,-0.07208210229873657,-0.16249015927314758,0.12339477986097336
1788680952378836500,9.23683642578125,-0.03237585723400116,-0.26083946228027344,-0.14782938361167908
1788680952394705400,9.252705322265625,-0.007941247895359993,-0.252287358045578,-0.23457226157188416
1788680952410544000,9.268544189453126,0.09224065393209457,-0.23396138846874237,-0.22602014243602753
1788680952434409000,9.292408935546876,0.12400564551353455,-0.28038713335990906,-0.15271630883216858
1788680952450217000,9.308217041015626,0.13011430203914642,-0.3500257730484009,-0.19547687470912933
1788680952466083300,9.324083251953125,0.2070833146572113,-0.3481931984424591,-0.23335053026676178
1788680952481952500,9.339952392578125,0.26939156651496887,-0.28038713335990906,-0.19914206862449646
1788680952497821700,9.35582177734375,0.31520646810531616,-0.12217304855585098,-0.07941248267889023
1788680952513690600,9.371690673828125,0.3695734739303589,-0.013439035043120384,0.08857546001672745
1788680952529529300,9.387529296875,0.3732386529445648,-0.015271631069481373,0.25595253705978394
1788680952545459500,9.40345947265625,0.3243694305419922,-0.05192354694008827,0.2926044464111328
1788680952561389800,9.419389892578126,0.31459560990333557,-0.1319468915462494,0.2724458873271942
1788680952577228300,9.435228271484375,0.3781255781650543,-0.1918116807937622,0.1667662113904953
1788680952593128000,9.4511279296875,0.46181413531303406,-0.3084869384765625,-0.07880161702632904
1788680952609027600,9.467027587890625,0.5253441333770752,-0.504574716091156,-0.5387831330299377
1788680952624958000,9.4829580078125,0.5076290369033813,-0.5198463201522827,-0.8234463334083557
1788680952640857600,9.498857666015626,0.4495968222618103,-0.2571742534637451,-0.4813618063926697
1788680952656726500,9.5147265625,0.4434881806373596,0.02871066704392433,0.1765400618314743
1788680952672626200,9.530626220703125,0.4593706727027893,0.29077184200286865,0.8417723178863525
1788680952688495400,9.546495361328125,0.4398229718208313,0.3494149148464203,0.970054030418396
1788680952704425700,9.56242578125,0.38179078698158264,0.2669481039047241,0.6444628238677979
1788680952720294700,9.578294677734375,0.3170390725135803,0.1313360333442688,0.15027284622192383
1788680952736194300,9.5941943359375,0.27000242471694946,-0.060475658625364304,-0.3634648323059082
1788680952752094000,9.610093994140625,0.24556782841682434,-0.12889257073402405,-0.6224716901779175
1788680952768024300,9.6260244140625,0.2028072625398636,-0.12034045159816742,-0.7715228199958801
1788680952783954400,9.641954345703125,0.17104226350784302,-0.02871066704392433,-0.7806857824325562
1788680952799823600,9.65782373046875,0.14844025671482086,0.0959058403968811,-0.6670648455619812
1788680952815692800,9.67369287109375,0.12217304855585098,0.12828169763088226,-0.4996877610683441
1788680952831623000,9.689622802734375,0.10201449692249298,0.0708603709936142,-0.2272418737411499
1788680952847492000,9.7054921875,0.08979719132184982,-0.031154127791523933,0.022602014243602753
1788680952863422200,9.721422119140625,0.0708603709936142,-0.16065755486488342,0.23090706765651703
1788680952879321900,9.73732177734375,0.04764748737215996,-0.19608774781227112,0.30604347586631775
1788680952895191000,9.75319091796875,0.036651913076639175,-0.16371189057826996,0.2822197377681732
1788680952911060200,9.769060302734376,0.019547687843441963,-0.08857546001672745,0.14416420459747314
1788680952926959900,9.7849599609375,0.001832595793530345,-0.028099801391363144,-0.013439035043120384
1788680952942859500,9.800859619140626,-0.02076941914856434,0.06963863968849182,-0.1160643994808197
1788680952958789600,9.81678955078125,-0.06352998316287994,0.09773843735456467,-0.12339477986097336
1788680952974597600,9.83259765625,-0.14049901068210602,0.06536258012056351,-0.10384709388017654
1788680952990497300,9.848497314453125,-0.19792033731937408,0.012828170321881771,-0.06841690838336945
1788680953006397000,9.86439697265625,-0.22052235901355743,-0.016493361443281174,-0.0024434609804302454
1788680953022327300,9.880327392578126,-0.22479841113090515,0.02382374368607998,0.0910189226269722
1788680953038257400,9.89625732421875,-0.2742784917354584,0.08979719132184982,0.19486601650714874
1788680953054065400,9.9120654296875,-0.33658674359321594,0.16065755486488342,0.2822197377681732
1788680953069904100,9.927904052734375,-0.39767327904701233,0.2632829248905182,0.3738495409488678
1788680953085773300,9.943773193359375,-0.3891211748123169,0.3017674386501312,0.48319441080093384
1788680953101703400,9.959703369140625,-0.3170390725135803,0.24556782841682434,0.7391469478607178
1788680953117572600,9.975572509765625,-0.2834414839744568,0.1264491081237793,0.9034696817398071
1788680953133441800,9.99144189453125,-0.3982841372489929,-0.021380282938480377,0.7006624341011047
1788680953149341400,10.007341552734376,-0.5650503635406494,-0.05619960278272629,0.1618792861700058
1788680953165210600,10.023210693359376,-0.6823364496231079,0.07208210229873657,-0.5400048494338989
1788680953181140700,10.039140625,-0.7104362845420837,0.0910189226269722,-0.7159340381622314
1788680953197040400,10.055040283203125,-0.6499606370925903,-0.15027284622192383,-0.22296582162380219
1788680953212818000,10.07081787109375,-0.5662720799446106,-0.3597996234893799,0.4764748811721802
1788680953228656600,10.08665673828125,-0.47708576917648315,-0.3536909818649292,1.0030407905578613
1788680953244556300,10.102556396484376,-0.4178318381309509,-0.2528982162475586,0.9388998746871948
1788680953260486400,10.118486328125,-0.3982841372489929,-0.10262536257505417,0.5100724697113037
1788680953276416500,10.13441650390625,-0.37140607833862305,0.11850785464048386,-0.18448130786418915
1788680953292224800,10.150224853515626,-0.32986724376678467,0.29016098380088806,-0.6951646208763123
1788680953308094000,10.166093994140626,-0.2932153046131134,0.2834414839744568,-0.9944885969161987
1788680953323963000,10.181962890625,-0.27611109614372253,0.025045474991202354,-1.0067058801651
1788680953339893200,10.197893310546876,-0.24556782841682434,-0.2382374405860901,-0.749531626701355
1788680953355823400,10.2138232421875,-0.22479841113090515,-0.3066543638706207,-0.4056145250797272
1788680953371661800,10.229661865234375,-0.23090706765651703,-0.23518311977386475,-0.04703662544488907
1788680953387470000,10.245469970703125,-0.22968533635139465,-0.13439035415649414,0.11239920556545258
1788680953403400200,10.261400146484375,-0.17470745742321014,-0.04764748737215996,0.1362229436635971
1788680953419330300,10.277330322265625,-0.11178833991289139,-0.010995574295520782,0.08002334833145142
1788680953435199500,10.293199462890625,-0.05192354694008827,0,0.012828170321881771
1788680953459033900,10.317033935546876,-0.02015855349600315,-0.021991148591041565,-0.028099801391363144
1788680953474964000,10.3329638671875,-0.036651913076639175,-0.10384709388017654,-0.05619960278272629
1788680953490863600,10.348863525390625,-0.05864306539297104,-0.21868975460529327,-0.051312681287527084
1788680953506702300,10.364702392578126,-0.02321287989616394,-0.22846360504627228,0.03848451003432274
1788680953522602000,10.38060205078125,0.0910189226269722,-0.12095131725072861,0.18570303916931152
1788680953538532000,10.396531982421875,0.20830504596233368,-0.015882495790719986,0.2926044464111328
1788680953554370600,10.41237060546875,0.2840523421764374,0.012217304669320583,0.3543018400669098
1788680953570209300,10.428209228515625,0.32131510972976685,-0.04398229718208313,0.3585779070854187
1788680953586048000,10.444048095703126,0.34086281061172485,-0.0959058403968811,0.3292563557624817
1788680953601947600,10.45994775390625,0.3396410644054413,-0.07330382615327835,0.31459560990333557
1788680953617877800,10.475877685546875,0.342695415019989,-0.02382374368607998,0.3842342495918274
1788680953633777400,10.49177734375,0.3982841372489929,0.12034045159816742,0.5870414972305298
1788680953649616100,10.5076162109375,0.4801400899887085,0.2119702398777008,0.8087855577468872
1788680953665485000,10.523485107421875,0.5418374538421631,0.14782938361167908,0.6713408827781677
1788680953681385000,10.539385009765626,0.6065891981124878,-0.10751228034496307,0.07513642311096191
1788680953697345500,10.555345458984375,0.588263213634491,-0.32986724376678467,-0.5925393104553223
1788680953713184300,10.571184326171876,0.4758640229701996,-0.25106561183929443,-0.9639453291893005
1788680953729084000,10.587083984375,0.4440990388393402,0.003054326167330146,-0.7147123217582703
1788680953744952800,10.602952880859375,0.455705463886261,0.26145032048225403,0.006108652334660292
1788680953760822000,10.618822021484375,0.4715879559516907,0.2687807083129883,0.513126790523529
1788680953776752400,10.63475244140625,0.48380526900291443,0.04703662544488907,0.6139195561408997
1788680953792652000,10.650652099609376,0.4196644127368927,-0.19914206862449646,0.25595253705978394
1788680953808490500,10.666490478515625,0.33475416898727417,-0.3396410644054413,-0.14294247329235077
1788680953824359700,10.682359619140625,0.22540926933288574,-0.41172316670417786,-0.42210787534713745
1788680953840228900,10.698228759765625,0.18570303916931152,-0.3139847218990326,-0.49846604466438293
1788680953856189400,10.714189453125,0.2474004179239273,-0.11789698898792267,-0.4996877610683441
1788680953872028200,10.730028076171875,0.29993483424186707,0.019547687843441963,-0.45631635189056396
1788680953887927800,10.745927734375,0.2828305959701538,0.11667526513338089,-0.38667771220207214
1788680953903797000,10.761796875,0.2528982162475586,0.11423180252313614,-0.3090978264808655
1788680953919696600,10.777696533203125,0.23457226157188416,0.02076941914856434,-0.16554448008537292
1788680953935657200,10.7936572265625,0.2541199326515198,-0.04459316283464432,-0.007941247895359993
1788680953951496000,10.809495849609375,0.2638937830924988,-0.15027284622192383,0.11972958594560623
1788680953967365000,10.825365234375,0.23029619455337524,-0.2370157092809677,0.1417207419872284
1788680953983295200,10.841295166015625,0.19364428520202637,-0.23029619455337524,0.1459967941045761
1788680953999134000,10.857134033203126,0.18875735998153687,-0.15027284622192383,0.16004669666290283
1788680954022968000,10.880968017578125,0.1966986060142517,0.05253441259264946,0.21319197118282318
1788680954038837200,10.896837158203125,0.18325957655906677,0.20463985204696655,0.323147714138031
1788680954054767400,10.912767333984375,0.14233160018920898,0.30604347586631775,0.4086688458919525
1788680954070636500,10.928636474609375,0.06475171446800232,0.27977627515792847,0.3732386529445648
1788680954086505700,10.944505615234375,-0.051312681287527084,0.1062905490398407,0.242513507604599
1788680954102344200,10.96034423828125,-0.19792033731937408,-0.15393804013729095,0.0555887371301651
1788680954118274600,10.976274658203126,-0.2583959996700287,-0.21991148591041565,0.0006108652451075613
1788680954134143700,10.992143798828126,-0.2278527319431305,-0.05009094998240471,0.05864306539297104
1788680954149982200,11.007982177734375,-0.17348572611808777,0.1459967941045761,0.2021963894367218
1788680954165881900,11.0238818359375,-0.14538592100143433,0.23029619455337524,0.4043927788734436
1788680954181781500,11.039781494140625,-0.19853121042251587,0.10506882518529892,0.4807509481906891
1788680954197650700,11.055650634765625,-0.30970868468284607,-0.05375614017248154,0.3439171314239502
1788680954213580800,11.071580810546875,-0.4300491213798523,-0.16493362188339233,-0.03298672288656235
1788680954229450000,11.087449951171875,-0.5290092825889587,-0.09224065393209457,-0.6579018831253052
1788680954245319200,11.103319091796875,-0.5064072608947754,0.04153883829712868,-1.0445796251296997
1788680954261218800,11.11921875,-0.3933972120285034,0.02076941914856434,-0.8759807348251343
1788680954277118500,11.135118408203125,-0.32070425152778625,-0.20463985204696655,-0.18997909128665924
1788680954293048600,11.151048583984375,-0.25106561183929443,-0.32986724376678467,0.6407976150512695
1788680954308979000,11.16697900390625,-0.18936823308467865,-0.24190263450145721,0.940121591091156
1788680954324817400,11.1828173828125,-0.1869247704744339,-0.19486601650714874,0.7483099102973938
1788680954340656000,11.19865625,-0.23457226157188416,-0.13072516024112701,0.23029619455337524
1788680954356555800,11.2145556640625,-0.24007004499435425,0.015271631069481373,-0.23090706765651703
1788680954372486000,11.23048583984375,-0.21074850857257843,0.15760323405265808,-0.5357288122177124
1788680954388385500,11.246385498046875,-0.18509216606616974,0.18387043476104736,-0.578489363193512
1788680954404193800,11.26219384765625,-0.14905111491680145,0.18509216606616974,-0.4948008358478546
1788680954420093400,11.278093505859376,-0.1215621829032898,0.22296582162380219,-0.41722095012664795
1788680954435932000,11.293931884765625,-0.11178833991289139,0.21502456068992615,-0.35063666105270386
1788680954451892700,11.309892822265626,-0.11484266817569733,0.13255776464939117,-0.31031954288482666
1788680954467822800,11.32582275390625,-0.10567969083786011,0.025656340643763542,-0.2064724564552307
1788680954483692000,11.341692138671876,-0.06841690838336945,0.01466076634824276,-0.056810468435287476
1788680954499561200,11.357561279296876,-0.0507018156349659,0.04214970022439957,0.11301007121801376
1788680954515460900,11.3734609375,-0.060475658625364304,0.04642575979232788,0.15271630883216858
1788680954531421400,11.38942138671875,-0.1111774742603302,0,0.04398229718208313
1788680954547260200,11.40526025390625,-0.15760323405265808,-0.11972958594560623,-0.14233160018920898
1788680954563129300,11.42112939453125,-0.16004669666290283,-0.18448130786418915,-0.27000242471694946
1788680954578998300,11.436998291015625,-0.10018189996480942,-0.18448130786418915,-0.21013765037059784
1788680954594867500,11.452867431640625,0.00733038317412138,-0.19058994948863983,0.013439035043120384
1788680954610797600,11.468797607421875,0.08918632566928864,-0.18387043476104736,0.2223549485206604
1788680954626728000,11.48472802734375,0.17409659922122955,-0.1466076523065567,0.3335324227809906
1788680954642566400,11.50056640625,0.2321287989616394,-0.19975294172763824,0.22479841113090515
1788680954658405000,11.516405029296875,0.2370157092809677,-0.313373863697052,0.07330382615327835
1788680954682300400,11.540300537109376,0.2730567753314972,-0.30543261766433716,0.09957103431224823
1788680954698139000,11.556138916015625,0.29077184200286865,-0.2076941877603531,0.3078760802745819
1788680954714008000,11.572008056640625,0.3084869384765625,-0.09529497474431992,0.5259549617767334
1788680954729969000,11.587968994140626,0.3017674386501312,-0.1368338167667389,0.49724429845809937
1788680954745899000,11.60389892578125,0.304210901260376,-0.4129449129104614,0.24007004499435425
1788680954761768200,11.619768310546876,0.2932153046131134,-0.7141014933586121,-0.02076941914856434
1788680954777667800,11.635667724609375,0.23884831368923187,-0.7189884185791016,-0.06230825558304787
1788680954793537000,11.651537109375,0.18631389737129211,-0.2816088795661926,0.19914206862449646
1788680954809436700,11.667436767578126,0.15271630883216858,0.014049900695681572,0.423329621553421
1788680954825305900,11.683305908203126,0.12461651116609573,0.11484266817569733,0.5167919993400574
1788680954841174800,11.6991748046875,0.12461651116609573,0.05314527451992035,0.4056145250797272
1788680954857044000,11.7150439453125,0.1411098688840866,-0.09162978827953339,0.1215621829032898
1788680954872913200,11.7309130859375,0.13744467496871948,-0.19792033731937408,-0.14966198801994324
1788680954888812800,11.746812744140625,0.11545353382825851,-0.22052235901355743,-0.3995058834552765
1788680954904682000,11.762681884765625,0.10812314599752426,-0.2015855312347412,-0.5106833577156067
1788680954920581600,11.77858154296875,0.1007927656173706,-0.19547687470912933,-0.5742133259773254
1788680954936450800,11.794450927734376,0.1062905490398407,-0.16798794269561768,-0.5968153476715088
1788680954952350500,11.8103505859375,0.12828169763088226,-0.10995574295520782,-0.5589417219161987
1788680954968280600,11.826280517578125,0.13316862285137177,-0.022602014243602753,-0.4343251883983612
1788680954984149800,11.842149658203125,0.0910189226269722,0.019547687843441963,-0.22052235901355743
1788680955000019000,11.85801904296875,0.029932396486401558,-0.003054326167330146,-0.04703662544488907
1788680955015857400,11.873857421875,-0.009162978269159794,-0.00366519158706069,0.0507018156349659
1788680955031726600,11.8897265625,-0.030543262138962746,0.01160643994808197,0.03726277872920036
1788680955047656700,11.90565673828125,-0.0403171069920063,0.11239920556545258,-0.05192354694008827
1788680955063495400,11.921495361328125,-0.05314527451992035,0.21563543379306793,-0.13805554807186127
1788680955079364600,11.937364501953125,-0.09285151958465576,0.30482175946235657,-0.19547687470912933
1788680955095264300,11.95326416015625,-0.13927727937698364,0.31459560990333557,-0.1362229436635971
1788680955111133400,11.969133544921876,-0.17287486791610718,0.24068090319633484,0.1007927656173706
1788680955127063600,11.9850634765625,-0.16982053220272064,0.16432274878025055,0.36529740691185
1788680955142993700,12.00099365234375,-0.20952677726745605,0.025045474991202354,0.5607742667198181
1788680955158862800,12.01686279296875,-0.2724458873271942,-0.09712757170200348,0.5595525503158569
1788680955174732000,12.03273193359375,-0.28588494658470154,-0.14049901068210602,0.484416127204895
1788680955190601200,12.048601318359376,-0.23029619455337524,-0.06841690838336945,0.4447098970413208
1788680955206500900,12.0645009765625,-0.1563815027475357,0.019547687843441963,0.5876523852348328
1788680955222370000,12.0803701171875,-0.05192354694008827,0.10934487730264664,0.9633345007896423
1788680955238239000,12.096239013671875,-0.06108652427792549,0.10445795953273773,1.2247848510742188
1788680955254138600,12.112138671875,-0.22968533635139465,0.029932396486401558,1.1313223838806152
1788680955270038500,12.12803857421875,-0.43127086758613586,-0.009162978269159794,0.6432411074638367
1788680955285938200,12.143938232421876,-0.5931501388549805,0.02932153269648552,-0.1869247704744339
1788680955301807000,12.15980712890625,-0.6603453159332275,0.06536258012056351,-0.6921103000640869
1788680955317706800,12.175706787109375,-0.684779942035675,-0.0555887371301651,-0.5992587804794312
1788680955333606400,12.1916064453125,-0.6334672570228577,-0.19975294172763824,-0.07635815441608429
1788680955349475600,12.2074755859375,-0.5729916095733643,-0.18997909128665924,0.50335294008255
1788680955365406000,12.223406005859376,-0.5564982295036316,-0.13561208546161652,0.5607742667198181
1788680955381244400,12.239244384765625,-0.44654250144958496,-0.0012217304902151227,0.14355333149433136
1788680955397113600,12.255113525390625,-0.303600013256073,0.17409659922122955,-0.35063666105270386
1788680955412982800,12.270982666015625,-0.14905111491680145,0.2785545587539673,-0.7116580009460449
1788680955428790800,12.286790771484375,-0.018325956538319588,0.26511552929878235,-0.7018841505050659
1788680955444690400,12.3026904296875,0.11667526513338089,0.2687807083129883,-0.45326200127601624
1788680955460529200,12.318529052734375,0.14844025671482086,0.30482175946235657,-0.1966986060142517
1788680955476398300,12.3343984375,0.07452555745840073,0.31459560990333557,-0.03481931984424591
1788680955492298000,12.350298095703126,-0.03726277872920036,0.1875356286764145,-0.09896016865968704
1788680955508197600,12.36619775390625,-0.12767083942890167,-0.07941248267889023,-0.29504790902137756
1788680955524097300,12.38209716796875,-0.14477506279945374,-0.26083946228027344,-0.39095374941825867
1788680955539966500,12.397966552734376,-0.10445795953273773,-0.39645153284072876,-0.35552358627319336
1788680955555835600,12.413835693359376,-0.09773843735456467,-0.3732386529445648,-0.29077184200286865
1788680955571735300,12.4297353515625,-0.11484266817569733,-0.30604347586631775,-0.2871066629886627
1788680955587604200,12.445604248046875,-0.12217304855585098,-0.22968533635139465,-0.36529740691185
1788680955603565000,12.46156494140625,-0.14844025671482086,-0.2675589919090271,-0.44226643443107605
1788680955619403500,12.477403564453125,-0.14355333149433136,-0.4190535545349121,-0.44837507605552673
1788680955635211800,12.493211669921875,-0.09529497474431992,-0.4612032473087311,-0.33169981837272644
1788680955651050500,12.509050537109376,0.024434609338641167,-0.31459560990333557,-0.10873401165008545
1788680955666919400,12.52491943359375,0.16982053220272064,-0.18631389737129211,0.0708603709936142
1788680955682849800,12.540849853515626,0.31642818450927734,-0.11301007121801376,0.21135938167572021
1788680955706684000,12.564683837890625,0.3433062732219696,-0.1362229436635971,0.19303341209888458
1788680955722614000,12.580614013671875,0.2474004179239273,-0.252287358045578,0.10995574295520782
1788680955738483200,12.596483154296875,0.16432274878025055,-0.30115658044815063,0.25534167885780334
1788680955754352400,12.612352294921875,0.2174680233001709,-0.36163222789764404,0.5662720799446106
1788680955770221600,12.6282216796875,0.4434881806373596,-0.646906316280365,0.808174729347229
1788680955786090800,12.6440908203125,0.6878342628479004,-0.93095862865448,0.7452555894851685
1788680955801990400,12.659990478515626,0.7232644557952881,-0.9651671051979065,0.42271876335144043
1788680955817890000,12.67589013671875,0.6310238242149353,-0.5564982295036316,0.20952677726745605
1788680955833759200,12.69175927734375,0.5338962078094482,0.3500257730484009,0.16249015927314758
1788680955849689300,12.707689453125,0.5057964324951172,0.9926560521125793,0.20097467303276062
1788680955865589000,12.723589111328126,0.5400048494338989,1.189354658126831,0.2076941877603531
1788680955881519000,12.73951904296875,0.5064072608947754,0.7568620443344116,0.12034045159816742
1788680955897388300,12.75538818359375,0.3903428912162781,0.16004669666290283,-0.20097467303276062
1788680955913227000,12.77122705078125,0.2583959996700287,-0.3072652220726013,-0.5265658497810364
1788680955929096000,12.787095947265625,0.15577064454555511,-0.6188064813613892,-0.6768386960029602
1788680955944995600,12.80299560546875,0.12217304855585098,-0.6664539575576782,-0.5827654600143433
1788680955960926000,12.818926025390626,0.13744467496871948,-0.5803219676017761,-0.44715335965156555
1788680955976795000,12.834794921875,0.15393804013729095,-0.4453207552433014,-0.4502076804637909
1788680955992603100,12.85060302734375,0.13744467496871948,-0.2822197377681732,-0.4893030524253845
1788680956008472300,12.866472412109376,0.10873401165008545,-0.14416420459747314,-0.4184426963329315
1788680956024310800,12.882310791015625,0.07208210229873657,-0.0507018156349659,-0.2565633952617645
1788680956040210400,12.89821044921875,0.036041051149368286,-0.04581489413976669,-0.13805554807186127
1788680956056110000,12.914110107421875,-0.00855211354792118,-0.08674286305904388,-0.05375614017248154
1788680956071979300,12.929979248046875,-0.001832595793530345,-0.07880161702632904,-0.007941247895359993
1788680956087818000,12.94581787109375,0.04581489413976669,-0.0507018156349659,0.019547687843441963
1788680956103687200,12.961687255859376,0.06719517707824707,0.004886921960860491,0.06780604273080826
1788680956119617300,12.9776171875,0.06230825558304787,0.08002334833145142,0.1472185254096985
1788680956135517000,12.993516845703125,0.04214970022439957,0.13500121235847473,0.16249015927314758
1788680956151355600,13.009355712890626,0.025045474991202354,0.16982053220272064,0.14049901068210602
1788680956167224600,13.025224609375,0.036651913076639175,0.3078760802745819,0.1007927656173706
1788680956183155000,13.041155029296876,0.016493361443281174,0.38728857040405273,0.0354301854968071
1788680956199115500,13.057115478515625,-0.03726277872920036,0.4080579876899719,-0.05742133408784866
1788680956214984700,13.072984619140625,-0.1062905490398407,0.3182607889175415,-0.08124507963657379
1788680956230854000,13.08885400390625,-0.1722639948129654,0.2070833146572113,0.02076941914856434
1788680956246723000,13.10472314453125,-0.18020524084568024,0.16310101747512817,0.2382374405860901
1788680956262653200,13.120653076171875,-0.1270599663257599,0.1270599663257599,0.6065891981124878
1788680956278583300,13.136583251953125,-0.1459967941045761,0.03848451003432274,0.79840087890625
1788680956294483000,13.15248291015625,-0.24190263450145721,-0.01710422709584236,0.6212499737739563
1788680956310321700,13.16832177734375,-0.3597996234893799,0.02321287989616394,0.1508837193250656
1788680956326190800,13.18419091796875,-0.45692721009254456,0.25106561183929443,-0.6206390857696533
1788680956342029300,13.200029296875,-0.4960225820541382,0.42760565876960754,-1.0995573997497559
1788680956357929000,13.215928955078125,-0.46364670991897583,0.3225368559360504,-0.8631525635719299
1788680956373767700,13.231767578125,-0.42577308416366577,0.08429940044879913,-0.15943582355976105
1788680956389636900,13.247636962890626,-0.4239404797554016,-0.04642575979232788,0.6133087277412415
1788680956405536500,13.26353662109375,-0.46792277693748474,-0.10690141469240189,0.8765916228294373
1788680956421436200,13.279436279296876,-0.5002986192703247,-0.2076941877603531,0.6963863968849182
1788680956437366300,13.2953662109375,-0.4349360466003418,-0.252287358045578,0.35613444447517395
1788680956453235500,13.3112353515625,-0.33292156457901,-0.19120082259178162,0.01771509274840355
1788680956469013000,13.327012939453125,-0.2779437005519867,-0.12828169763088226,-0.14782938361167908
1788680956484912600,13.34291259765625,-0.2590068578720093,-0.09834930300712585,-0.2877175211906433
1788680956500812300,13.358812255859375,-0.26939156651496887,-0.024434609338641167,-0.44226643443107605
1788680956516681500,13.374681396484375,-0.29016098380088806,0.03726277872920036,-0.5442809462547302
1788680956532550700,13.390550537109375,-0.28038713335990906,0.02076941914856434,-0.5540547966957092
1788680956548419800,13.406419921875,-0.2125810980796814,0.045204028487205505,-0.46547931432724
1788680956564258300,13.42225830078125,-0.10873401165008545,0.2217440903186798,-0.2718350291252136
1788680956580127500,13.43812744140625,-0.05619960278272629,0.43676865100860596,-0.09834930300712585
1788680956596088300,13.45408837890625,-0.0806342139840126,0.6230825781822205,0.06414084881544113
1788680956611957200,13.469957275390625,-0.11545353382825851,0.5461135506629944,0.1569923609495163
1788680956627887600,13.4858876953125,-0.14844025671482086,0.33108896017074585,0.22357667982578278
1788680956643756500,13.501756591796875,-0.1771509200334549,0.19303341209888458,0.22296582162380219
1788680956659625700,13.517625732421875,-0.2272418737411499,-0.12889257073402405,0.15027284622192383
1788680956675556000,13.53355615234375,-0.2321287989616394,-0.41599923372268677,0.14233160018920898
1788680956691455700,13.549455810546876,-0.13561208546161652,-0.5503895878791809,0.3017674386501312
1788680956707263700,13.565263671875,-0.03298672288656235,-0.598647952079773,0.5326744914054871
1788680956723133000,13.5811328125,0.0757472887635231,-0.6450737118721008,0.6597344875335693
1788680956738941000,13.59694091796875,0.1508837193250656,-0.6426302194595337,0.5668829679489136
1788680956754871300,13.612871337890626,0.2565633952617645,-0.4758640229701996,0.4031710624694824
1788680956770771000,13.62877099609375,0.3549126982688904,-0.17409659922122955,0.3396410644054413
1788680956786548500,13.644548583984376,0.455705463886261,0.12522737681865692,0.3500257730484009
1788680956802417700,13.660417724609376,0.5381723046302795,0.0757472887635231,0.34208452701568604
1788680956818256100,13.676256103515625,0.645684540271759,-0.36163222789764404,0.21807889640331268
1788680956834186200,13.692186279296875,0.607810914516449,-0.7483099102973938,-0.1014036312699318
1788680956850055400,13.708055419921875,0.3677408695220947,-0.7800748944282532,-0.5149593949317932
1788680956865924600,13.723924560546875,0.13561208546161652,-0.3634648323059082,-0.5974262356758118
1788680956881824300,13.73982421875,0.08368854224681854,0.251676470041275,-0.4282165467739105
1788680956897663000,13.7556630859375,0.18081611394882202,0.5076290369033813,-0.18020524084568024
1788680956913593000,13.771593017578125,0.33719760179519653,0.5057964324951172,0.10445795953273773
1788680956929462300,13.787462158203125,0.5503895878791809,0.3066543638706207,0.25106561183929443
1788680956945331500,13.80333154296875,0.5326744914054871,0.22968533635139465,0.2816088795661926
1788680956961200600,13.81920068359375,0.3805690407752991,0.15454891324043274,0.16004669666290283
1788680956977039000,13.8350390625,0.22663100063800812,0.11667526513338089,-0.07941248267889023
1788680956993000000,13.851,0.060475658625364304,-0.09468411654233932,-0.4538728892803192
1788680957008930000,13.866929931640625,-0.04764748737215996,-0.2718350291252136,-0.7006624341011047
1788680957024738000,13.882738037109375,-0.1062905490398407,-0.3854559659957886,-0.7904596328735352
1788680957040607200,13.898607177734375,-0.0708603709936142,-0.39645153284072876,-0.6896668672561646
1788680957056446000,13.914446044921876,0.015882495790719986,-0.3640756905078888,-0.4593706727027893
1788680957072345600,13.930345703125,0.04153883829712868,-0.29565876722335815,-0.24678955972194672
1788680957088214800,13.94621484375,-0.00427605677396059,-0.2376265823841095,-0.010995574295520782
1788680957104053200,13.96205322265625,-0.006719517521560192,-0.19425514340400696,0.15577064454555511
1788680957119892000,13.97789208984375,0.04581489413976669,-0.10567969083786011,0.2528982162475586
1788680957135791600,13.99379150390625,0.06414084881544113,-0.04214970022439957,0.21502456068992615
1788680957151721700,14.0097216796875,0.031154127791523933,0.033597588539123535,0.06475171446800232
1788680957167591000,14.0255908203125,-0.00427605677396059,0.1765400618314743,-0.08429940044879913
1788680957183429600,14.0414296875,-0.056810468435287476,0.2577851414680481,-0.1716531366109848
1788680957199298600,14.057298583984375,-0.13744467496871948,0.16493362188339233,-0.13500121235847473
1788680957215106800,14.07310693359375,-0.23273965716362,0.033597588539123535,-0.03726277872920036
1788680957231006500,14.08900634765625,-0.29016098380088806,-0.04764748737215996,-0.003054326167330146
1788680957246875600,14.104875732421876,-0.2968805134296417,-0.08979719132184982,0.051312681287527084
1788680957262714000,14.120714111328125,-0.23090706765651703,-0.0403171069920063,0.1368338167667389
1788680957278613800,14.13661376953125,-0.11301007121801376,0.13866640627384186,0.37690386176109314
1788680957294544100,14.152544189453126,-0.04214970022439957,0.32009339332580566,0.7513642311096191
1788680957310474200,14.16847412109375,-0.0959058403968811,0.28099802136421204,1.2559388875961304
1788680957326374000,14.184373779296875,-0.26511552929878235,0.03176499158143997,1.492343783378601
1788680957342243000,14.2002431640625,-0.5082398653030396,-0.15760323405265808,1.1948524713516235
1788680957358142700,14.216142822265626,-0.6359107494354248,-0.10262536257505417,0.29993483424186707
1788680957374042400,14.23204248046875,-0.7171558141708374,-0.1508837193250656,-0.4190535545349121
1788680957389972500,14.247972412109375,-0.7324274182319641,-0.21991148591041565,-0.6316346526145935
1788680957405841700,14.263841552734375,-0.6432411074638367,-0.1918116807937622,-0.30970868468284607
1788680957421710800,14.2797109375,-0.4905247986316681,0.060475658625364304,0.20586158335208893
1788680957437580000,14.295580078125,-0.4043927788734436,0.33658674359321594,0.413555771112442
1788680957453540600,14.31154052734375,-0.31581732630729675,0.494189977645874,0.2981022298336029
1788680957469470700,14.327470703125,-0.2675589919090271,0.5558874011039734,0.09712757170200348
1788680957485370400,14.343370361328125,-0.22479841113090515,0.4294382631778717,-0.08429940044879913
1788680957501270000,14.35927001953125,-0.19853121042251587,0.20830504596233368,-0.15393804013729095
1788680957517139200,14.37513916015625,-0.1618792861700058,-0.027488935738801956,-0.19975294172763824
1788680957533008400,14.39100830078125,-0.12095131725072861,-0.07941248267889023,-0.22540926933288574
1788680957548938500,14.4069384765625,-0.11423180252313614,-0.0659734457731247,-0.26022860407829285
1788680957564807700,14.4228076171875,-0.1569923609495163,-0.07208210229873657,-0.3090978264808655
1788680957580737800,14.43873779296875,-0.14782938361167908,-0.09162978827953339,-0.31642818450927734
1788680957596607000,14.45460693359375,-0.08307767659425735,-0.0861319974064827,-0.21441370248794556
1788680957612506600,14.470506591796875,-0.03176499158143997,-0.08674286305904388,-0.05253441259264946
1788680957628406300,14.48640625,-0.030543262138962746,-0.11667526513338089,0.0959058403968811
1788680957644306000,14.502305908203125,-0.05192354694008827,-0.19303341209888458,0.17776179313659668
1788680957660175000,14.518175048828125,-0.09224065393209457,-0.30482175946235657,0.16065755486488342
1788680957676013800,14.534013916015626,-0.10751228034496307,-0.423329621553421,0.08857546001672745
1788680957691913500,14.54991357421875,-0.08735372871160507,-0.49724429845809937,0.010995574295520782
1788680957707813000,14.565813232421876,-0.03481931984424591,-0.3927863538265228,-0.04581489413976669
1788680957723804200,14.58180419921875,0.05497787147760391,-0.13072516024112701,-0.06291911751031876
1788680957739643000,14.597642822265625,0.10995574295520782,0.025656340643763542,-0.015882495790719986
1788680957755512000,14.613511962890625,0.16859880089759827,-0.010995574295520782,0.1264491081237793
1788680957771350800,14.629350830078126,0.22052235901355743,-0.16737708449363708,0.24862214922904968
1788680957787189200,14.645189208984375,0.2828305959701538,-0.2687807083129883,0.3683517575263977
1788680957803058400,14.661058349609375,0.36102136969566345,-0.22113321721553802,0.5143485069274902
1788680957818927600,14.676927734375,0.47280970215797424,-0.2987131178379059,0.6304129362106323
1788680957834796800,14.692796875,0.6047565937042236,-0.5644394755363464,0.5467243790626526
1788680957850665700,14.708665771484375,0.6969972252845764,-0.779464066028595,0.16249015927314758
1788680957866596000,14.72459619140625,0.6114761233329773,-0.6695083379745483,-0.31459560990333557
1788680957882465300,14.74046533203125,0.5320636034011841,0.00427605677396059,-0.7244861721992493
1788680957898273300,14.756273193359375,0.5558874011039734,0.6725626587867737,-0.788627028465271
1788680957914173000,14.7721728515625,0.5742133259773254,0.817337691783905,-0.5198463201522827
1788680957930072600,14.788072509765625,0.5436700582504272,0.5442809462547302,-0.18387043476104736
1788680957946002700,14.804002685546875,0.4190535545349121,0.00855211354792118,-0.03237585723400116
1788680957969775900,14.82777587890625,0.24434609711170197,-0.5778785347938538,-0.34513887763023376
1788680957985706200,14.843706298828126,0.19425514340400696,-0.6933320760726929,-0.485027015209198
1788680958001575200,14.8595751953125,0.24617868661880493,-0.4807509481906891,-0.5051855444908142
1788680958017474800,14.875474853515625,0.34513887763023376,-0.1612684279680252,-0.4092797040939331
1788680958033344000,14.891343994140625,0.3072652220726013,0.04948008432984352,-0.24923302233219147
1788680958049243600,14.90724365234375,0.16798794269561768,0.07941248267889023,-0.22479841113090515
1788680958065174000,14.923174072265626,0.09834930300712585,0.08429940044879913,-0.2779437005519867
1788680958081043000,14.93904296875,0.11056660860776901,0.06658431142568588,-0.28466320037841797
1788680958096942600,14.954942626953125,0.09773843735456467,-0.0006108652451075613,-0.22907446324825287
1788680958112781300,14.97078125,0.09224065393209457,-0.04581489413976669,-0.12217304855585098
1788680958128681000,14.986680908203125,0.1111774742603302,-0.012828170321881771,0.01771509274840355
1788680958144611000,15.002611083984375,0.09896016865968704,0.054367005825042725,0.09407325088977814
1788680958160510700,15.0185107421875,0.0354301854968071,0.10995574295520782,0.10934487730264664
1788680958200183600,15.05818359375,-0.048258353024721146,0.2015855312347412,0.2125810980796814
1788680958215991800,15.07399169921875,-0.04764748737215996,0.2736676335334778,0.3836233615875244
1788680958231830300,15.089830322265625,-0.09468411654233932,0.20586158335208893,0.4648684561252594
1788680958247699500,15.105699462890625,-0.17531833052635193,0.10690141469240189,0.33597588539123535
1788680958263599000,15.12159912109375,-0.22663100063800812,0.08429940044879913,0.07147123664617538
1788680958279468300,15.13746826171875,-0.19792033731937408,0.2028072625398636,-0.03481931984424591
1788680958295337500,15.15333740234375,-0.07024950534105301,0.3634648323059082,0.22479841113090515
1788680958311206700,15.16920654296875,0.051312681287527084,0.2974913716316223,0.7770205736160278
1788680958327106300,15.185106201171875,0.015882495790719986,0.039095375686883926,1.1148290634155273
1788680958343036400,15.201036376953125,-0.182648703455925,-0.31520646810531616,1.0024298429489136
1788680958358905600,15.216905517578125,-0.39217549562454224,-0.3500257730484009,0.4147774875164032
1788680958374805200,15.23280517578125,-0.5412266254425049,-0.11362093687057495,-0.6579018831253052
1788680958390674400,15.24867431640625,-0.6389650702476501,-0.06658431142568588,-1.264491081237793
1788680958406574000,15.264573974609375,-0.5974262356758118,-0.32070425152778625,-1.0787880420684814
1788680958422504200,15.280504150390625,-0.42210787534713745,-0.6035348773002625,-0.1820378452539444
1788680958438373400,15.296373291015625,-0.3341432809829712,-0.5216789245605469,0.6004805564880371
1788680958454242600,15.31224267578125,-0.31459560990333557,-0.18387043476104736,0.9150761365890503
1788680958470111700,15.32811181640625,-0.35246923565864563,0.11301007121801376,0.5717698931694031
1788680958485980700,15.343980712890625,-0.3646865487098694,0.485027015209198,-0.2272418737411499
1788680958501911000,15.3599111328125,-0.3066543638706207,0.6646214127540588,-0.8436049222946167
1788680958517780200,15.3757802734375,-0.2174680233001709,0.5473352670669556,-1.1233811378479004
1788680958533649200,15.391649169921875,-0.11301007121801376,0.3677408695220947,-1.006095051765442
1788680958549579500,15.40757958984375,-0.05497787147760391,0.18875735998153687,-0.6530149579048157
1788680958565509600,15.423509521484375,-0.056810468435287476,0.12034045159816742,-0.3396410644054413
1788680958581439700,15.439439697265625,-0.039095375686883926,0.051312681287527084,-0.13255776464939117
1788680958597309000,15.455308837890625,-0.04214970022439957,-0.04764748737215996,-0.09468411654233932
1788680958613117000,15.471116943359375,-0.06291911751031876,-0.25045475363731384,-0.12400564551353455
1788680958629016600,15.4870166015625,-0.05253441259264946,-0.4349360466003418,-0.1014036312699318
1788680958644885800,15.5028857421875,-0.05925392732024193,-0.5442809462547302,-0.025045474991202354
1788680958660846600,15.5188466796875,-0.07941248267889023,-0.523511528968811,0.012828170321881771
1788680958676746200,15.534746337890626,-0.07696902006864548,-0.38240164518356323,0.02626720629632473
1788680958692584700,15.550584716796875,-0.05619960278272629,-0.2987131178379059,0.0555887371301651
1788680958708484400,15.566484375,-0.04581489413976669,-0.2626720666885376,0.09162978827953339
1788680958724323000,15.582322998046875,-0.00733038317412138,-0.18570303916931152,0.11301007121801376
1788680958740192300,15.598192138671875,0.0555887371301651,-0.06108652427792549,0.0806342139840126
1788680958756061400,15.6140615234375,0.06658431142568588,-0.06780604273080826,-0.01466076634824276
1788680958771869400,15.629869384765625,0.08246681094169617,-0.13805554807186127,-0.06475171446800232
1788680958787769000,15.64576904296875,0.1368338167667389,-0.09957103431224823,0.01710422709584236
1788680958803638300,15.66163818359375,0.22357667982578278,-0.03787364438176155,0.23945917189121246
1788680958819538000,15.677537841796875,0.37690386176109314,0.06902777403593063,0.5839871764183044
1788680958835376600,15.693376708984376,0.4954117238521576,0.16798794269561768,0.7764097452163696
1788680958851245600,15.70924560546875,0.5943718552589417,0.0024434609804302454,0.5894849896430969
1788680958867114800,15.72511474609375,0.6383541822433472,-0.3793473243713379,0.04886921867728233
1788680958883045000,15.741045166015626,0.5510004758834839,-0.6475171446800232,-0.7831292152404785
1788680958898975200,15.756975341796876,0.4098905920982361,-0.5503895878791809,-1.2376129627227783
1788680958914844400,15.772844482421876,0.34513887763023376,-0.2064724564552307,-0.9841039180755615
1788680958930713300,15.78871337890625,0.2993239760398865,0.1014036312699318,-0.2015855312347412
1788680958946582500,15.80458251953125,0.30970868468284607,0.10323622822761536,0.6328563690185547
1788680958962421200,15.820421142578125,0.33719760179519653,0.010995574295520782,0.8313875794410706
1788680958978351400,15.836351318359375,0.3084869384765625,-0.0757472887635231,0.3640756905078888
1788680958994251000,15.8522509765625,0.20830504596233368,-0.17837265133857727,-0.2638937830924988
1788680959010120200,15.8681201171875,0.11972958594560623,-0.1258382350206375,-0.7141014933586121
1788680959026019800,15.884019775390625,0.09712757170200348,0.00427605677396059,-0.7189884185791016
1788680959041858600,15.899858642578126,0.11056660860776901,0.1160643994808197,-0.5351179838180542
1788680959057697000,15.915697021484375,0.12034045159816742,0.12095131725072861,-0.4031710624694824
1788680959073566200,15.931566162109375,0.08918632566928864,0.10751228034496307,-0.3689626157283783
1788680959089435400,15.947435302734375,0.06352998316287994,0.01771509274840355,-0.3701843321323395
1788680959105335000,15.9633349609375,0.07269296050071716,-0.13072516024112701,-0.2528982162475586
1788680959121234700,15.979234619140625,0.07024950534105301,-0.24434609711170197,-0.06352998316287994
1788680959137164800,15.995164794921875,0.03176499158143997,-0.2974913716316223,0.16310101747512817
1788680959153034000,16.011033935546877,0.019547687843441963,-0.20463985204696655,0.3219259977340698
1788680959168872700,16.026872802734374,0.02382374368607998,-0.11178833991289139,0.3604104816913605
1788680959184680700,16.0426806640625,0.012217304669320583,0.03787364438176155,0.20525072515010834
1788680959200610800,16.05861083984375,-0.0507018156349659,0.10812314599752426,-0.02687807008624077
1788680959216541200,16.074541259765624,-0.1264491081237793,0.08124507963657379,-0.19058994948863983
1788680959232471300,16.09047119140625,-0.14233160018920898,0.11911872029304504,-0.10262536257505417
1788680959248310000,16.10631005859375,-0.1319468915462494,0.20525072515010834,0.15821409225463867
1788680959264179000,16.122178955078127,-0.14538592100143433,0.26083946228027344,0.3549126982688904
1788680959280078600,16.13807861328125,-0.2064724564552307,0.3286454975605011,0.41599923372268677
1788680959296070000,16.15406982421875,-0.28038713335990906,0.2968805134296417,0.3341432809829712
1788680959311939000,16.16993896484375,-0.3445279896259308,0.20891591906547546,0.23457226157188416
1788680959327838700,16.185838623046877,-0.3127630054950714,0.16859880089759827,0.304210901260376
1788680959343738400,16.20173828125,-0.26083946228027344,0.0708603709936142,0.5607742667198181
1788680959359577000,16.2175771484375,-0.303600013256073,0.031154127791523933,0.6475171446800232
1788680959375507200,16.233507080078127,-0.3897320330142975,0.152105450630188,0.31459560990333557
1788680959391376400,16.24937646484375,-0.38667771220207214,0.43127086758613586,-0.25045475363731384
1788680959407276000,16.265276123046874,-0.3292563557624817,0.5418374538421631,-0.6786713004112244
1788680959423175700,16.28117578125,-0.27550023794174194,0.32070425152778625,-0.42271876335144043
1788680959439014100,16.29701416015625,-0.2119702398777008,-0.048258353024721146,0.3933972120285034
1788680959454944500,16.312944580078124,-0.22357667982578278,-0.2877175211906433,0.9920451641082764
1788680959470844200,16.32884423828125,-0.26145032048225403,-0.3952298164367676,1.0592403411865234
1788680959486652200,16.344652099609377,-0.23884831368923187,-0.26022860407829285,0.675616979598999
1788680959502551800,16.3605517578125,-0.1569923609495163,0.13988813757896423,0.018936822190880775
1788680959518421000,16.3764208984375,-0.11667526513338089,0.4715879559516907,-0.47830748558044434
1788680959534412300,16.392412353515624,-0.08185594528913498,0.503963828086853,-0.6206390857696533
1788680959550312000,16.40831201171875,-0.039095375686883926,0.3066543638706207,-0.6041457056999207
1788680959566150400,16.424150390625,-0.06352998316287994,0.031154127791523933,-0.5632177591323853
1788680959582019600,16.44001953125,-0.12950342893600464,-0.2620611786842346,-0.4813618063926697
1788680959597919200,16.455919189453127,-0.13500121235847473,-0.37262779474258423,-0.35246923565864563
1788680959613819000,16.47181884765625,-0.0659734457731247,-0.38179078698158264,-0.18081611394882202
1788680959629718500,16.487718505859377,-0.022602014243602753,-0.35674530267715454,-0.006108652334660292
1788680959645618200,16.5036181640625,-0.012217304669320583,-0.32131510972976685,0.16493362188339233
1788680959661517800,16.519517822265627,-0.03481931984424591,-0.29626965522766113,0.2168571650981903
1788680959677448200,16.5354482421875,-0.04337143152952194,-0.2675589919090271,0.1514945775270462
1788680959693378300,16.55137841796875,-0.004886921960860491,-0.22602014243602753,0.04337143152952194
1788680959709247500,16.56724755859375,0.04948008432984352,-0.1722639948129654,-0.05742133408784866
1788680959725147100,16.583147216796874,0.07147123664617538,-0.16004669666290283,-0.1258382350206375
1788680959749042400,16.60704248046875,0.12767083942890167,-0.17776179313659668,-0.07208210229873657
1788680959764911400,16.622911376953127,0.16920967400074005,-0.1869247704744339,0.1368338167667389
1788680959780811000,16.63881103515625,0.19364428520202637,-0.15515977144241333,0.3072652220726013
1788680959796710700,16.654710693359377,0.19914206862449646,-0.15332718193531036,0.32620203495025635
1788680959812702000,16.670701904296877,0.20463985204696655,-0.1368338167667389,0.23518311977386475
1788680959828571100,16.686571044921877,0.2217440903186798,-0.09346238523721695,0.22357667982578278
1788680959844470800,16.702470703125,0.2535090744495392,-0.015882495790719986,0.3805690407752991
1788680959860340000,16.718340087890624,0.3188716471195221,0.14477506279945374,0.6603453159332275
1788680959876209200,16.734209228515624,0.3830125033855438,0.1973094791173935,0.7660250067710876
1788680959892139300,16.75013916015625,0.5094616413116455,0.07941248267889023,0.5198463201522827
1788680959908008400,16.766008544921874,0.5687155723571777,-0.15515977144241333,-0.12095131725072861
1788680959923847000,16.781846923828127,0.46670106053352356,-0.2932153046131134,-0.7800748944282532
1788680959939716000,16.797716064453127,0.2822197377681732,-0.27550023794174194,-1.047023057937622
1788680959955585300,16.813585205078127,0.22663100063800812,-0.05742133408784866,-0.5974262356758118
1788680959971545900,16.8295458984375,0.24373523890972137,0.1508837193250656,0.30543261766433716
1788680959987415000,16.8454150390625,0.23335053026676178,0.20402899384498596,0.827722430229187
1788680960003314700,16.861314697265627,0.19792033731937408,0.07696902006864548,0.9150761365890503
1788680960019183900,16.877183837890627,0.14294247329235077,-0.11362093687057495,0.6670648455619812
1788680960035083500,16.89308349609375,0.11667526513338089,-0.3738495409488678,0.24556782841682434
1788680960051013600,16.909013671875,0.13561208546161652,-0.45142942667007446,-0.0555887371301651
1788680960066882800,16.9248828125,0.1814269721508026,-0.33475416898727417,-0.2718350291252136
1788680960082782500,16.940782470703127,0.19058994948863983,-0.12339477986097336,-0.4153883755207062
1788680960098651600,16.956651611328127,0.15515977144241333,0.08552113175392151,-0.5296201705932617
1788680960130420500,16.98842041015625,0.10262536257505417,-0.06719517707824707,-0.3689626157283783
1788680960146289700,17.00428955078125,0.06536258012056351,-0.14538592100143433,-0.14966198801994324
1788680960162158800,17.020158935546874,0.0354301854968071,-0.18814650177955627,0.06414084881544113
1788680960178058500,17.03605859375,0.07208210229873657,-0.24190263450145721,0.17898350954055786
1788680960193927700,17.051927734375,0.12339477986097336,-0.23457226157188416,0.23640485107898712
1788680960209857800,17.06785791015625,0.10506882518529892,-0.23640485107898712,0.21013765037059784
1788680960225757400,17.08375732421875,0.05497787147760391,-0.18814650177955627,0.16737708449363708
1788680960241626600,17.099626708984374,0,-0.060475658625364304,0.12461651116609573
1788680960257495800,17.115495849609374,-0.09285151958465576,0.024434609338641167,0.06169738993048668
1788680960273395500,17.1313955078125,-0.19303341209888458,0.006108652334660292,0.00855211354792118
1788680960289325600,17.14732568359375,-0.23457226157188416,-0.036041051149368286,-0.09407325088977814
1788680960305194800,17.16319482421875,-0.23090706765651703,-0.04214970022439957,-0.23396138846874237
1788680960321033200,17.179033203125,-0.22663100063800812,0.02076941914856434,-0.2168571650981903
1788680960336902400,17.19490234375,-0.2070833146572113,0.16065755486488342,0.02321287989616394
1788680960352771600,17.210771484375,-0.1875356286764145,0.3090978264808655,0.2932153046131134
1788680960368732200,17.226732177734377,-0.17898350954055786,0.4178318381309509,0.47830748558044434
1788680960384631800,17.2426318359375,-0.20341812074184418,0.32498031854629517,0.5571091175079346
1788680960400440000,17.258440185546874,-0.2987131178379059,0.11545353382825851,0.4434881806373596
1788680960416339700,17.274339599609377,-0.4508185386657715,0.015271631069481373,0.06536258012056351
1788680960432209000,17.290208984375,-0.5913175344467163,0.04398229718208313,-0.5455026626586914
1788680960456043000,17.31404296875,-0.598647952079773,0.08979719132184982,-0.9724974632263184
1788680960471881700,17.3298818359375,-0.5729916095733643,-0.02626720629632473,-0.6206390857696533
1788680960487872800,17.345872802734377,-0.5522221922874451,-0.26022860407829285,0.23335053026676178
1788680960503742000,17.361741943359377,-0.5222898125648499,-0.20525072515010834,0.8619308471679688
1788680960519550200,17.37755029296875,-0.4862487316131592,-0.03726277872920036,1.0775662660598755
1788680960543445500,17.401445556640624,-0.4147774875164032,0.09040805697441101,0.618195652961731
1788680960559314400,17.417314453125,-0.3182607889175415,0.29077184200286865,0.006108652334660292
1788680960575214000,17.433214111328127,-0.26939156651496887,0.4043927788734436,-0.45875978469848633
1788680960591113700,17.44911376953125,-0.18020524084568024,0.23579397797584534,-0.6762278079986572
1788680960607044000,17.465044189453124,-0.08979719132184982,0.03848451003432274,-0.5900958180427551
1788680960622913300,17.480913330078124,-0.0659734457731247,-0.08307767659425735,-0.42149701714515686
1788680960638721300,17.49672119140625,-0.08307767659425735,-0.18387043476104736,-0.23029619455337524
1788680960654621000,17.512620849609377,-0.08002334833145142,-0.21868975460529327,-0.11850785464048386
1788680960670520600,17.5285205078125,-0.04948008432984352,-0.19547687470912933,-0.003054326167330146
1788680960686450700,17.54445068359375,-0.03787364438176155,-0.15454891324043274,0.10018189996480942
1788680960702319900,17.56031982421875,-0.06780604273080826,-0.11301007121801376,0.13011430203914642
1788680960718189000,17.57618896484375,-0.12889257073402405,-0.08246681094169617,0.04764748737215996
1788680960734027800,17.59202783203125,-0.23518311977386475,-0.13316862285137177,-0.152105450630188
1788680960749866200,17.6078662109375,-0.2767219543457031,-0.24617868661880493,-0.2883284091949463
1788680960765796400,17.62379638671875,-0.2125810980796814,-0.22968533635139465,-0.2968805134296417
1788680960781726700,17.639726806640624,-0.08307767659425735,-0.13744467496871948,-0.19547687470912933
1788680960797596000,17.655595947265624,0.014049900695681572,-0.06108652427792549,-0.04642575979232788
1788680960813434400,17.671434326171877,0.022602014243602753,-0.08735372871160507,0.054367005825042725
1788680960829303600,17.687303466796877,0.04703662544488907,-0.16004669666290283,0.1472185254096985
1788680960845233700,17.703233642578127,0.13316862285137177,-0.20830504596233368,0.2278527319431305
1788680960861133300,17.71913330078125,0.242513507604599,-0.1966986060142517,0.2889392673969269
1788680960877002500,17.73500244140625,0.2926044464111328,-0.21930062770843506,0.28038713335990906
1788680960892871700,17.75087158203125,0.2535090744495392,-0.2321287989616394,0.2791654169559479
1788680960908771300,17.766771240234377,0.19058994948863983,-0.15943582355976105,0.37140607833862305
1788680960924701400,17.782701416015627,0.182648703455925,-0.01466076634824276,0.4691445231437683
1788680960940570600,17.798570556640627,0.20830504596233368,0.02932153269648552,0.38606682419776917
1788680960956439800,17.814439697265627,0.2669481039047241,-0.07330382615327835,0.11362093687057495
1788680960972309000,17.83030908203125,0.32498031854629517,-0.11056660860776901,-0.1661553531885147
1788680960988208600,17.846208740234374,0.2669481039047241,0.04214970022439957,-0.3549126982688904
1788680961004138800,17.862138671875,0.15882496535778046,0.3439171314239502,-0.25961771607398987
1788680961020038400,17.878038330078127,0.1160643994808197,0.4550946056842804,-0.1014036312699318
1788680961035907600,17.893907470703127,0.10690141469240189,0.2974913716316223,0.018936822190880775
1788680961051807200,17.90980712890625,0.1362229436635971,0.02076941914856434,0.04642575979232788
1788680961067707000,17.925706787109377,0.16065755486488342,-0.3530801236629486,0.021991148591041565
1788680961083637000,17.941636962890627,0.18081611394882202,-0.5619960427284241,0.030543262138962746
1788680961099506200,17.957506103515627,0.25106561183929443,-0.5870414972305298,0.019547687843441963
1788680961115375400,17.973375244140627,0.3194825351238251,-0.45814892649650574,-0.11484266817569733
1788680961131275000,17.98927490234375,0.3885102868080139,-0.2828305959701538,-0.33597588539123535
1788680961147113700,18.00511376953125,0.40256020426750183,-0.16737708449363708,-0.48258355259895325
1788680961163043800,18.0210439453125,0.35735616087913513,-0.09651670604944229,-0.4349360466003418
1788680961178913000,18.0369130859375,0.2742784917354584,-0.13255776464939117,-0.25534167885780334
1788680961194721000,18.052720947265627,0.17409659922122955,-0.17837265133857727,-0.05864306539297104
1788680961210620700,18.06862060546875,0.13255776464939117,-0.17776179313659668,0.006108652334660292
1788680961226489900,18.08448974609375,0.1111774742603302,-0.06902777403593063,-0.036651913076639175
1788680961242389500,18.100389404296877,0.11728613078594208,0.0507018156349659,-0.06902777403593063
1788680961258258700,18.1162587890625,0.11239920556545258,0.15577064454555511,-0.09712757170200348
1788680961274128000,18.1321279296875,0.08552113175392151,0.192422553896904,-0.11972958594560623
1788680961289996800,18.147996826171877,0.05497787147760391,0.2528982162475586,-0.08979719132184982
1788680961305866000,18.163865966796877,0.05619960278272629,0.2785545587539673,-0.0024434609804302454
1788680961321796000,18.179796142578127,0.06169738993048668,0.23518311977386475,0.13072516024112701
1788680961337634800,18.195634765625,-0.036041051149368286,0.11484266817569733,0.2223549485206604
1788680961353504000,18.21150390625,-0.18020524084568024,0.0012217304902151227,0.22968533635139465
1788680961369403600,18.227403564453127,-0.3023782968521118,-0.04398229718208313,0.21930062770843506
1788680961385333800,18.243333740234377,-0.31093040108680725,0.02076941914856434,0.21013765037059784
1788680961401263900,18.259263916015627,-0.2877175211906433,0.056810468435287476,0.2431243658065796
1788680961417163800,18.275163818359374,-0.21502456068992615,0.17776179313659668,0.36713001132011414
1788680961433032700,18.29103271484375,-0.06841690838336945,0.25595253705978394,0.588263213634491
1788680961448932400,18.306932373046877,-0.05497787147760391,0.14477506279945374,0.7073819637298584
1788680961464801500,18.322801513671877,-0.19547687470912933,0.04214970022439957,0.49724429845809937
1788680961480731600,18.338731689453127,-0.3628539443016052,0.1459967941045761,-0.030543262138962746
1788680961496600800,18.354600830078127,-0.5522221922874451,0.303600013256073,-0.9334021210670471
1788680961512500500,18.37050048828125,-0.6487388610839844,0.32559117674827576,-1.3542882204055786
1788680961528400100,18.386400146484377,-0.578489363193512,0.0861319974064827,-0.9279043078422546
1788680961544269300,18.402269287109377,-0.44593164324760437,-0.23273965716362,0.021991148591041565
1788680961560199400,18.418199462890627,-0.33169981837272644,-0.3170390725135803,1.0702359676361084
1788680961576068600,18.434068603515627,-0.2889392673969269,-0.26083946228027344,1.3738359212875366
1788680961591876900,18.449876953125,-0.3017674386501312,-0.039095375686883926,0.9529497623443604
1788680961607837400,18.46583740234375,-0.29993483424186707,0.2217440903186798,0.28649580478668213
1788680961623767600,18.481767578125,-0.2638937830924988,0.3683517575263977,-0.3793473243713379
1788680961639698000,18.497697998046874,-0.2125810980796814,0.24190263450145721,-0.6224716901779175
1788680961655566800,18.51356689453125,-0.16798794269561768,0.14844025671482086,-0.5595525503158569
1788680961671466800,18.529466796875,-0.17287486791610718,-0.016493361443281174,-0.3585779070854187
1788680961687305200,18.54530517578125,-0.20097467303276062,-0.152105450630188,-0.2480112910270691
1788680961703204900,18.561204833984377,-0.21135938167572021,-0.19486601650714874,-0.15760323405265808
1788680961719135000,18.577135009765627,-0.182648703455925,-0.17043140530586243,-0.06658431142568588
1788680961735004200,18.593004150390627,-0.14049901068210602,-0.14844025671482086,0.03176499158143997
1788680961750812400,18.6088125,-0.10751228034496307,-0.1514945775270462,0.07819075137376785
1788680961766712000,18.624712158203124,-0.03420845419168472,-0.14538592100143433,0.06658431142568588
1788680961782611700,18.64061181640625,0.021991148591041565,-0.13561208546161652,-0.0006108652451075613
1788680961798541800,18.656541748046877,0.0659734457731247,-0.13500121235847473,-0.10384709388017654
1788680961814411000,18.672410888671877,0.09407325088977814,-0.17531833052635193,-0.11239920556545258
1788680961830280200,18.6882802734375,0.11728613078594208,-0.26450464129447937,-0.00366519158706069
1788680961846210300,18.704210205078127,0.11362093687057495,-0.3384193480014801,0.12950342893600464
1788680961862079500,18.72007958984375,0.13072516024112701,-0.38667771220207214,0.2223549485206604
1788680961878009600,18.736009521484377,0.1771509200334549,-0.3982841372489929,0.18509216606616974
1788680961893909200,18.7519091796875,0.2064724564552307,-0.39095374941825867,0.025656340643763542
1788680961909809000,18.767808837890627,0.25045475363731384,-0.31093040108680725,-0.09896016865968704
1788680961925647600,18.783647705078124,0.3549126982688904,-0.09224065393209457,-0.10384709388017654
1788680961941516800,18.799516845703124,0.43676865100860596,0.16249015927314758,0.09040805697441101
1788680961965381400,18.82338134765625,0.5015203952789307,0.3677408695220947,0.6505714654922485
1788680961981311500,18.8393115234375,0.5619960427284241,0.2742784917354584,0.7244861721992493
1788680961997241900,18.855241943359374,0.6633996367454529,0.006719517521560192,0.40683624148368835
1788680962013141500,18.8711416015625,0.7141014933586121,-0.43127086758613586,-0.32131510972976685
1788680962028980000,18.88697998046875,0.6004805564880371,-0.5381723046302795,-0.8955284357070923
1788680962044879600,18.902879638671877,0.3543018400669098,-0.32498031854629517,-0.9138544201850891
1788680962060810000,18.91881005859375,0.26450464129447937,-0.016493361443281174,-0.43737950921058655
1788680962076740000,18.934739990234377,0.24495697021484375,0.2675589919090271,0.2590068578720093
1788680962092609300,18.950609375,0.20586158335208893,0.3127630054950714,0.5754350423812866
1788680962108509000,18.966509033203124,0.152105450630188,0.23273965716362,0.5186246037483215
1788680962124347400,18.982347412109377,0.08796459436416626,0.10445795953273773,0.13866640627384186
1788680962140216600,18.998216552734377,-0.00427605677396059,-0.015271631069481373,-0.17837265133857727
1788680962156116200,19.0141162109375,-0.11301007121801376,-0.09285151958465576,-0.33597588539123535
1788680962172015900,19.030015869140627,-0.1466076523065567,-0.1062905490398407,-0.304210901260376
1788680962187885000,19.045885009765627,-0.14355333149433136,-0.14416420459747314,-0.18020524084568024
1788680962203754200,19.061754150390627,-0.12095131725072861,-0.17348572611808777,-0.04581489413976669
1788680962219593000,19.077593017578124,-0.10018189996480942,-0.14477506279945374,0.08246681094169617
1788680962235553500,19.093553466796877,-0.0959058403968811,-0.15332718193531036,0.18020524084568024
1788680962251422700,19.109422607421877,-0.08185594528913498,-0.2028072625398636,0.2321287989616394
1788680962267230700,19.125230712890627,-0.04642575979232788,-0.2223549485206604,0.17409659922122955
1788680962283100000,19.141099853515627,-0.01710422709584236,-0.19608774781227112,0.03298672288656235
1788680962298999600,19.15699951171875,0.015271631069481373,-0.3597996234893799,0.07147123664617538
1788680962322803200,19.18080322265625,0.015271631069481373,-0.12828169763088226,-0.07635815441608429
1788680962338702800,19.196702880859377,-0.07208210229873657,0.17348572611808777,-0.31154128909111023
1788680962354633200,19.21263330078125,-0.08674286305904388,0.11056660860776901,-0.21074850857257843
1788680962370471700,19.2284716796875,-0.14538592100143433,-0.06780604273080826,-0.11178833991289139
1788680962394637000,19.252636962890627,-0.18570303916931152,-0.03481931984424591,-0.16920967400074005
1788680962410140000,19.268139892578127,-0.1765400618314743,0.27061331272125244,-0.3878994286060333
1788680962426009000,19.284009033203127,-0.2828305959701538,0.3830125033855438,-0.5082398653030396
1788680962441878300,19.299878173828127,-0.37079519033432007,0.32131510972976685,-0.3170390725135803
1788680962457778000,19.31577783203125,-0.30604347586631775,0.19792033731937408,0.17959438264369965
1788680962473708000,19.3317080078125,-0.1508837193250656,0.04459316283464432,0.7996225953102112
1788680962489607700,19.347607666015627,-0.06352998316287994,-0.10018189996480942,1.0250319242477417
1788680962505385200,19.36338525390625,-0.08979719132184982,-0.1765400618314743,0.7971791625022888
1788680962521284900,19.379284912109377,-0.2382374405860901,0.10751228034496307,0.07757988572120667
1788680962553145300,19.411145263671877,-0.38117989897727966,0.8093964457511902,-1.436144232749939
1788680962576949000,19.434948974609377,-0.26939156651496887,0.2993239760398865,-0.484416127204895
1788680962592818200,19.450818115234377,-0.2015855312347412,-0.27977627515792847,0.9162978529930115
1788680962608656600,19.46665673828125,-0.19364428520202637,-0.42088615894317627,1.5741997957229614
1788680962632552000,19.490552001953127,-0.2590068578720093,-0.20463985204696655,1.1612548828125
1788680962648421000,19.506421142578127,-0.30115658044815063,0.0403171069920063,0.42760565876960754
1788680962664290300,19.522290283203127,-0.29626965522766113,0.22907446324825287,-0.17287486791610718
1788680962680159500,19.538159423828127,-0.2968805134296417,0.2632829248905182,-0.6695083379745483
1788680962696028700,19.554028564453127,-0.23029619455337524,0.07391469180583954,-0.8710938692092896
1788680962711958800,19.569958740234377,-0.18875735998153687,-0.1612684279680252,-0.8118399381637573
1788680962727828000,19.585827880859377,-0.16371189057826996,-0.34208452701568604,-0.598647952079773
1788680962743727600,19.6017275390625,-0.13439035415649414,-0.43127086758613586,-0.2822197377681732
1788680962759535600,19.61753564453125,-0.11972958594560623,-0.40744712948799133,-0.004886921960860491
1788680962775435300,19.633435302734377,-0.07147123664617538,-0.3225368559360504,0.2773328125476837
1788680962791365400,19.649365478515627,-0.018936822190880775,-0.252287358045578,0.40072759985923767
1788680962807234600,19.665234619140627,0.01466076634824276,-0.17959438264369965,0.2889392673969269
1788680962823134200,19.68113427734375,0.0012217304902151227,-0.05803219974040985,0.024434609338641167
1788680962838973000,19.696972900390627,-0.04459316283464432,0.010995574295520782,-0.22418753802776337
1788680962854811600,19.712811767578124,-0.056810468435287476,-0.02871066704392433,-0.29504790902137756
1788680962870741800,19.72874169921875,-0.04703662544488907,-0.02687807008624077,-0.17104226350784302
1788680962886641400,19.744641357421877,-0.00733038317412138,0.019547687843441963,0.11056660860776901
1788680962902449400,19.760449462890627,0.08307767659425735,0.09346238523721695,0.31520646810531616
1788680962918257700,19.776257568359377,0.19914206862449646,0.1612684279680252,0.423329621553421
