time,seconds_elapsed,z,y,x
1788680943314444300,0.1724443359375,10.287884712219238,1.4963760375976562,-0.181959331035614
1788680943330283000,0.188282958984375,10.17296314239502,1.455674648284912,-0.0933738648891449
1788680943346152000,0.20415185546875,10.000580787658691,1.4891934394836426,-0.08140286058187485
1788680943361990700,0.21999072265625,8.35336971282959,1.558625340461731,0.3926490843296051
1788680943385825000,0.243824951171875,9.105149269104004,1.647210717201233,-0.3519476354122162
1788680943401663500,0.25966357421875,9.332598686218262,1.400607943534851,-0.2801215946674347
1788680943417532700,0.27553271484375,9.9000244140625,1.3862427473068237,-0.17477671802043915
1788680943433401900,0.29140185546875,10.457873344421387,1.3263877630233765,-0.2801215946674347
1788680943449301500,0.307301513671875,10.6925048828125,1.2330138683319092,-0.47644615173339844
1788680943465170700,0.323170654296875,10.596736907958984,1.137245774269104,-0.49320554733276367
1788680943481040000,0.339039794921875,10.390835762023926,1.1851298809051514,-0.6536170840263367
1788680943496939500,0.354939453125,9.84256362915039,1.4197616577148438,-0.33758243918418884
1788680943512839200,0.370839111328125,9.425971984863281,1.6112977266311646,-0.20111294090747833
1788680943528738800,0.38673876953125,9.306262016296387,1.5418659448623657,-0.2825157940387726
1788680943544577300,0.402577392578125,9.047688484191895,1.5753847360610962,0.08619125932455063
1788680943560446500,0.418446533203125,8.683769226074219,1.6112977266311646,0.08379705995321274
1788680943576315600,0.434315673828125,8.422801971435547,1.4269442558288574,-0.3878606855869293
1788680943592245800,0.450245849609375,8.856152534484863,0.9409212470054626,-1.1228805780410767
1788680943608115000,0.466114990234375,8.987833023071289,0.811634361743927,-0.5650315880775452
1788680943623984000,0.481984130859375,9.294290542602539,1.0821791887283325,-0.090979665517807
1788680943639914200,0.497914306640625,10.311826705932617,1.2521674633026123,0.17477671802043915
1788680943655753000,0.5137529296875,11.549629211425781,1.41257905960083,0.4620809257030487
1788680943671622100,0.5296220703125,12.114660263061523,1.259350061416626,0.6560112833976746
1788680943687491000,0.545490966796875,12.0021333694458,1.292868971824646,0.5770025849342346
1788680943703390700,0.561390625,11.061211585998535,1.1228805780410767,0.2801215946674347
1788680943719260000,0.577260009765625,9.823410034179688,1.2425906658172607,-0.0071826050989329815
1788680943735129000,0.593129150390625,8.96389102935791,1.4293384552001953,-0.12210428714752197
1788680943751028700,0.60902880859375,8.374917984008789,1.4628572463989258,-0.20350714027881622
1788680943766989600,0.624989501953125,8.281543731689453,1.4437036514282227,-0.2849099934101105
1788680943782858500,0.6408583984375,8.688557624816895,1.3048399686813354,-0.43095630407333374
1788680943798758100,0.656758056640625,9.224859237670898,1.1324573755264282,-0.4596867263317108
1788680943814657800,0.67265771484375,9.706093788146973,1.0319008827209473,-0.608127236366272
1788680943830527000,0.68852685546875,10.089165687561035,1.0342950820922852,-0.7230489253997803
1788680943846426600,0.704426513671875,10.38844108581543,0.9959878921508789,-0.6967126727104187
1788680943862326300,0.720326171875,10.441113471984863,0.9696516990661621,-0.5195417404174805
1788680943878226000,0.736225830078125,10.204087257385254,1.0462661981582642,-0.38546648621559143
1788680943894095000,0.75209521484375,9.880870819091797,1.1180921792984009,-0.4596867263317108
1788680943910025500,0.768025390625,9.641449928283691,1.1827356815338135,-0.5291185975074768
1788680943925864000,0.783864013671875,9.579200744628906,1.1899182796478271,-0.5051765441894531
1788680943941763600,0.799763671875,9.624691009521484,1.1779472827911377,-0.33518823981285095
1788680943957602300,0.815602294921875,9.801861763000488,1.2737152576446533,-0.0071826050989329815
1788680943973440800,0.831440673828125,10.065223693847656,1.403002142906189,0.3687070608139038
1788680943989340400,0.84734033203125,10.278307914733887,1.4844050407409668,0.5913678407669067
1788680944005179100,0.86317919921875,10.400412559509277,1.5849615335464478,0.6775590777397156
1788680944021078800,0.879078857421875,10.374075889587402,1.625662922859192,0.7110779285430908
1788680944036917500,0.89491748046875,10.244789123535156,1.625662922859192,0.8044517636299133
1788680944052725500,0.9107255859375,9.955090522766113,1.6974890232086182,0.8212111592292786
1788680944068625200,0.926625244140625,9.66299819946289,1.7262194156646729,0.7158663272857666
1788680944084463900,0.9424638671875,9.311050415039062,1.742978811264038,0.6392518281936646
1788680944100363500,0.958363525390625,7.445967197418213,1.400607943534851,0.5578489899635315
1788680944116263200,0.97426318359375,8.96149730682373,1.8938134908676147,-0.28969839215278625
1788680944132162800,0.990162841796875,10.362105369567871,1.5658079385757446,0.06224924325942993
1788680944148062500,1.0060625,10.034099578857422,0.8188169598579407,0.3711012601852417
1788680944163992600,1.02199267578125,10.228029251098633,1.1180921792984009,0.026336219161748886
1788680944179861800,1.03786181640625,10.1753568649292,1.1180921792984009,-0.2585737705230713
1788680944195700500,1.053700439453125,9.907206535339355,0.9624691009521484,-0.11252748221158981
1788680944211569700,1.069569580078125,9.528923034667969,1.01753568649292,-0.2082955539226532
1788680944227438600,1.0854384765625,9.251194953918457,1.115697979927063,-0.5434837937355042
1788680944243307800,1.101307861328125,9.41639518737793,2.049436569213867,-0.07182604819536209
1788680944259238000,1.11723779296875,10.11789608001709,1.259350061416626,0.4644751250743866
1788680944275137500,1.133137451171875,9.718064308166504,1.0199298858642578,0.06464344263076782
1788680944291006700,1.1490068359375,9.703699111938477,1.173158884048462,-0.35673606395721436
1788680944306906400,1.16490625,9.916783332824707,1.139639973640442,-0.2537853717803955
1788680944322806000,1.180805908203125,10.244789123535156,1.0319008827209473,-0.009576806798577309
1788680944338644700,1.196644775390625,10.376470565795898,0.9983820915222168,-0.026336219161748886
1788680944354514000,1.212513916015625,10.429142951965332,0.9720458984375,-0.035913024097681046
1788680944370383000,1.228383056640625,10.381258964538574,0.9744400978088379,-0.08858546614646912
1788680944386282800,1.24428271484375,10.24239444732666,0.9864110946655273,-0.27054479718208313
1788680944402182400,1.260182373046875,10.005369186401367,0.9959878921508789,-0.26336219906806946
1788680944418112500,1.276112548828125,9.703699111938477,1.0869675874710083,-0.11013327538967133
1788680944433951200,1.291951171875,9.459490776062012,1.1803414821624756,-0.090979665517807
1788680944449881300,1.30788134765625,9.399636268615723,1.2665326595306396,-0.22026655077934265
1788680944465750500,1.32375048828125,9.464279174804688,1.2832920551300049,-0.2968810200691223
1788680944481619700,1.33961962890625,9.466673851013184,1.3096283674240112,-0.29209262132644653
1788680944497519400,1.355519287109375,9.514557838439941,1.3239935636520386,-0.31842881441116333
1788680944513419000,1.3714189453125,9.440337181091309,1.37906014919281,-0.3663128614425659
1788680944529349000,1.38734912109375,9.47146224975586,1.3958195447921753,-0.272938996553421
1788680944545218300,1.40321826171875,9.476250648498535,1.3407529592514038,-0.1364694982767105
1788680944561118000,1.419117919921875,9.366117477416992,1.2713210582733154,-0.21547815203666687
1788680944577017600,1.435017578125,9.334992408752441,1.2066776752471924,-0.49559974670410156
1788680944592886800,1.45088671875,9.473855972290039,1.1204863786697388,-0.5937620401382446
1788680944608786400,1.466786376953125,9.622296333312988,1.0127472877502441,-0.545877993106842
1788680944624655400,1.4826552734375,9.610325813293457,0.8930372595787048,-0.3423708379268646
1788680944640524500,1.498524658203125,9.636661529541016,0.8882488012313843,-0.07900865375995636
1788680944656424200,1.514424072265625,9.797073364257812,0.9217676520347595,0.10773907601833344
1788680944672354600,1.5303544921875,10.120290756225586,0.8858546018600464,0.043095629662275314
1788680944688193000,1.546193115234375,10.517727851867676,0.7613561153411865,-0.2346317619085312
1788680944704123100,1.562123046875,10.742782592773438,0.6536170840263367,-0.5386953949928284
1788680944719961900,1.5779619140625,10.620678901672363,0.6392518281936646,-0.5147533416748047
1788680944735892000,1.59389208984375,10.323798179626465,0.6368576288223267,-0.16998831927776337
1788680944751791600,1.60979150390625,10.014945983886719,0.6177040338516235,0.1173158809542656
1788680944767691300,1.625691162109375,9.8784761428833,0.6607996821403503,0.4644751250743866
1788680944783591000,1.6415908203125,9.708487510681152,0.7757213711738586,0.608127236366272
1788680944799399200,1.657399169921875,9.648633003234863,0.8595184087753296,0.4381389021873474
1788680944815298800,1.673298828125,9.634267807006836,0.9050082564353943,0.24181437492370605
1788680944831168000,1.68916796875,9.569623947143555,0.9672574996948242,0.2298433631658554
1788680944847067600,1.705067626953125,9.63187313079834,1.05105459690094,0.009576806798577309
1788680944862936800,1.720936767578125,9.710882186889648,1.1228805780410767,-0.3663128614425659
1788680944878867000,1.736866943359375,9.763554573059082,1.194706678390503,-0.5219359993934631
1788680944894705400,1.752705322265625,9.658209800720215,1.1563993692398071,-0.304063618183136
1788680944910574600,1.76857470703125,9.361329078674316,1.0869675874710083,-0.05746084079146385
1788680944926413300,1.784413330078125,9.174580574035645,1.0678139925003052,0.1604115068912506
1788680944942343400,1.800343505859375,9.167398452758789,1.0127472877502441,0.17717093229293823
1788680944958212600,1.816212646484375,9.397241592407227,0.8475474119186401,-0.26096799969673157
1788680944974051300,1.83205126953125,9.672574996948242,0.6823474764823914,-0.4381389021873474
1788680944989951000,1.847950927734375,10.091560363769531,0.4908113479614258,-0.10534487664699554
1788680945005820000,1.86381982421875,10.503362655639648,0.31603461503982544,0.07661445438861847
1788680945021689000,1.879689208984375,10.706870079040527,0.31842881441116333,0.07182604819536209
1788680945037588700,1.895588623046875,10.896012306213379,0.17956513166427612,0.1364694982767105
1788680945053488400,1.91148828125,10.84094524383545,-0.011971008032560349,0.2753331959247589
1788680945069327000,1.9273271484375,10.572794914245605,-0.023942016065120697,0.38546648621559143
1788680945085165800,1.943165771484375,10.180145263671875,0.1843535304069519,0.24899697303771973
1788680945101096000,1.959095947265625,9.792284965515137,0.40701428055763245,0.07182604819536209
1788680945116965000,1.974965087890625,9.442731857299805,0.4812345504760742,0.05985504388809204
1788680945132834300,1.990834228515625,9.14585018157959,0.5315127968788147,0.13407529890537262
1788680945148764400,2.006764404296875,9.169792175292969,0.5913678407669067,0.181959331035614
1788680945164603000,2.022602783203125,9.255983352661133,0.6416460275650024,0.4836287498474121
1788680945180502500,2.03850244140625,9.313444137573242,0.7326257228851318,0.7110779285430908
1788680945196402200,2.054402099609375,9.162610054016113,0.8690952062606812,0.6177040338516235
1788680945212241000,2.070240966796875,8.901641845703125,0.9983820915222168,0.4572925269603729
1788680945228140500,2.086140625,8.681375503540039,1.0462661981582642,0.4644751250743866
1788680945244040200,2.102040283203125,8.942343711853027,1.0654197931289673,0.6631938815116882
1788680945259909400,2.117909423828125,9.282320022583008,1.1180921792984009,0.7254431247711182
1788680945275839500,2.133839599609375,9.751583099365234,1.0534487962722778,0.8523358106613159
1788680945291678200,2.14967822265625,10.050858497619629,1.048660397529602,1.01753568649292
1788680945307577900,2.165577880859375,10.055646896362305,1.1683704853057861,1.0582371950149536
1788680945323477500,2.1814775390625,9.964667320251465,1.036689281463623,1.091755986213684
1788680945339377200,2.197377197265625,10.287884712219238,0.8810662031173706,0.8475474119186401
1788680945355276800,2.21327685546875,10.400412559509277,1.039083480834961,0.47644615173339844
1788680945371146000,2.22914599609375,10.139444351196289,1.3048399686813354,0.31603461503982544
1788680945387015200,2.24501513671875,9.907206535339355,1.7190368175506592,0.06703764945268631
1788680945402914800,2.260914794921875,9.473855972290039,1.778891921043396,0.26815059781074524
1788680945418784000,2.276783935546875,9.26795482635498,1.3215993642807007,0.3974374830722809
1788680945434683600,2.29268359375,9.560047149658203,1.98958158493042,-1.3910311460494995
1788680945450583300,2.308583251953125,9.849745750427246,2.051830768585205,-1.1061211824417114
1788680945466421800,2.324421875,10.295066833496094,1.8052281141281128,0.002394201699644327
1788680945482260500,2.340260498046875,9.93593692779541,1.4867992401123047,0.12210428714752197
1788680945498190600,2.356190673828125,9.727641105651855,1.843535304069519,-0.38067805767059326
1788680945514029300,2.372029296875,9.481039047241211,1.9847931861877441,-0.3974374830722809
1788680945529929000,2.387928955078125,10.010157585144043,2.5689783096313477,1.1180921792984009
1788680945545828600,2.40382861328125,9.500192642211914,2.978386878967285,0.35434186458587646
1788680945561667000,2.4196669921875,8.432378768920898,2.6192567348480225,-1.2401964664459229
1788680945577567000,2.43556689453125,8.185775756835938,2.5689783096313477,-1.7262194156646729
1788680945593466600,2.451466552734375,8.058882713317871,2.7940332889556885,-1.2473790645599365
1788680945609335600,2.46733544921875,8.20732307434082,2.5737667083740234,-0.5003881454467773
1788680945625235200,2.483235107421875,8.281543731689453,2.5091233253479004,0.8762778043746948
1788680945641134800,2.499134765625,8.738836288452148,2.87064790725708,1.357512354850769
1788680945657004000,2.515004150390625,9.26795482635498,2.7964274883270264,0.9002198576927185
1788680945672903700,2.530903564453125,11.082759857177734,2.6360161304473877,0.05267243832349777
1788680945688772900,2.54677294921875,11.51850414276123,2.03507137298584,-0.19871874153614044
1788680945704642000,2.56264208984375,11.561599731445312,1.9129672050476074,-0.6775590777397156
1788680945720541700,2.578541748046875,11.386823654174805,2.073378562927246,-1.1468225717544556
1788680945736441300,2.59444140625,11.319786071777344,1.9105730056762695,-0.9193734526634216
1788680945752402200,2.610402099609375,12.09311294555664,1.6663644313812256,0.12210428714752197
1788680945768332300,2.626332275390625,11.8225679397583,1.6974890232086182,0.7374141216278076
1788680945784232000,2.64223193359375,9.981427192687988,2.6360161304473877,0.0071826050989329815
1788680945800101000,2.65810107421875,9.260771751403809,3.203441858291626,0.38067805767059326
1788680945816000800,2.674000732421875,9.162610054016113,2.7772738933563232,1.2665326595306396
1788680945831900400,2.689900390625,9.217676162719727,2.006340980529785,1.2306196689605713
1788680945847830500,2.70583056640625,9.81143856048584,1.9321208000183105,0.7398083209991455
1788680945863730200,2.721730224609375,10.04846477508545,1.6376339197158813,0.16519992053508759
1788680945879599400,2.737599365234375,10.311826705932617,1.3527239561080933,-0.40462008118629456
1788680945895468500,2.753468505859375,11.437101364135742,1.235408067703247,-0.6847416758537292
1788680945911337700,2.769337646484375,12.18409252166748,1.1109095811843872,-0.4381389021873474
1788680945927237400,2.7852373046875,12.057199478149414,0.9768342971801758,0.05746084079146385
1788680945943137000,2.801136962890625,12.303802490234375,0.22266076505184174,0.40940847992897034
1788680945959006000,2.817005859375,12.497733116149902,-0.871489405632019,0.3064578175544739
1788680945974875100,2.832875244140625,12.248735427856445,-1.7046716213226318,0.07422025501728058
1788680945990805500,2.848805419921875,11.549629211425781,-1.7046716213226318,-0.1388636976480484
1788680946006644000,2.86464404296875,10.462661743164062,-1.1803414821624756,-0.3208230137825012
1788680946022543600,2.880543701171875,9.078812599182129,-0.7996633648872375,-0.6488286852836609
1788680946038443300,2.896443359375,8.02536392211914,-0.5530605912208557,-0.8595184087753296
1788680946054373400,2.912373291015625,7.668628215789795,-0.3998316824436188,-0.9768342971801758
1788680946070303700,2.9283037109375,7.544129371643066,-0.2322375625371933,-0.811634361743927
1788680946086173000,2.9441728515625,7.570465564727783,0,-0.7996633648872375
1788680946102041900,2.960041748046875,7.903259754180908,0,-0.7374141216278076
1788680946117880600,2.975880615234375,8.394071578979492,-0.26575639843940735,-0.35673606395721436
1788680946133780200,2.9917802734375,9.17936897277832,-0.3758896589279175,-0.3016694188117981
1788680946149588200,3.007588134765625,10.043676376342773,-0.5267243981361389,-0.17238251864910126
1788680946165487900,3.02348779296875,10.632649421691895,-0.3663128614425659,-0.4189853072166443
1788680946181357000,3.039357177734375,10.292673110961914,-0.11252748221158981,-0.5578489899635315
1788680946197256700,3.055256591796875,9.648633003234863,0.22744916379451752,-0.5267243981361389
1788680946213095400,3.071095458984375,9.100360870361328,0.5027823448181152,-0.2753331959247589
1788680946228934100,3.08693408203125,8.530540466308594,0.6919242739677429,0.038307227194309235
1788680946244833800,3.102833740234375,8.20492935180664,0.7876923680305481,0.08140286058187485
1788680946260672300,3.11867236328125,8.358158111572266,0.7852981686592102,-0.13407529890537262
1788680946276572000,3.134572021484375,8.643068313598633,0.8355764150619507,-0.22744916379451752
1788680946292441000,3.150441162109375,8.959102630615234,0.8786720037460327,-0.038307227194309235
1788680946308279800,3.16627978515625,9.421183586120605,0.8092401623725891,-0.047884032130241394
1788680946324149000,3.18214892578125,9.591172218322754,0.5530605912208557,0.040701430290937424
1788680946340048600,3.198048583984375,9.888052940368652,0.7422025203704834,-0.26096799969673157
1788680946355948300,3.2139482421875,9.830592155456543,0.8020575642585754,-0.42616790533065796
1788680946371817200,3.229817138671875,9.799467086791992,0.9457096457481384,-0.31842881441116333
1788680946387656000,3.245656005859375,9.476250648498535,1.292868971824646,-0.2992752194404602
1788680946403555600,3.2615556640625,9.002198219299316,1.4987702369689941,-0.019153613597154617
1788680946419394300,3.277394287109375,9.006986618041992,1.5610195398330688,-0.1173158809542656
1788680946435294000,3.2932939453125,9.327810287475586,1.7764976024627686,-0.33997663855552673
1788680946451163100,3.3091630859375,9.916783332824707,1.9704279899597168,-0.5913678407669067
1788680946467093200,3.32509326171875,10.3549222946167,1.6376339197158813,-0.4429273009300232
1788680946482962400,3.34096240234375,10.879252433776855,1.173158884048462,0.12449848651885986
1788680946498892500,3.356892578125,11.185709953308105,0.950498104095459,0.3711012601852417
1788680946514792200,3.372792236328125,11.08754825592041,0.7996633648872375,0.2992752194404602
1788680946530631000,3.388630859375,11.21204662322998,0.727837324142456,-0.2106897532939911
1788680946546469400,3.404469482421875,11.60948371887207,0.6009446382522583,-0.24181437492370605
1788680946562399700,3.420399658203125,11.777078628540039,0.7493851184844971,-0.12449848651885986
1788680946578268700,3.4362685546875,11.362881660461426,0.9433154463768005,0.15562310814857483
1788680946594168300,3.452168212890625,10.730812072753906,0.912190854549408,0.3998316824436188
1788680946610007000,3.468007080078125,10.211270332336426,0.6488286852836609,0.6584054827690125
1788680946625845800,3.483845703125,10.706870079040527,-0.13407529890537262,0.4692635238170624
1788680946641714700,3.499714599609375,12.172121047973633,-1.0079588890075684,0.040701430290937424
1788680946657614300,3.5156142578125,13.697227478027344,-1.5610195398330688,-0.24899697303771973
1788680946673544700,3.531544677734375,13.792996406555176,-1.5394717454910278,-0.15322890877723694
1788680946689474800,3.547474853515625,11.93509578704834,-1.1971008777618408,0.12689268589019775
1788680946705313500,3.5633134765625,9.445125579833984,-0.8236053586006165,0.24660277366638184
1788680946721182500,3.579182373046875,7.137115478515625,-0.2992752194404602,0.4213795065879822
1788680946737082000,3.59508203125,6.100425720214844,0.16998831927776337,0.37828385829925537
1788680946752951300,3.610951416015625,6.586448669433594,0.6560112833976746,-0.10055647045373917
1788680946768851000,3.626850830078125,5.288791656494141,0.3878606855869293,0.8595184087753296
1788680946784750600,3.64275048828125,6.7061591148376465,0.002394201699644327,1.3934253454208374
1788680946800650200,3.658650146484375,8.389283180236816,0.1604115068912506,0.5339069962501526
1788680946816519400,3.67451953125,11.192893028259277,0.3471592366695404,-0.2537853717803955
1788680946832419000,3.690419189453125,10.611102104187012,0.13407529890537262,-0.2537853717803955
1788680946848288300,3.706288330078125,8.20732307434082,0.2322375625371933,-0.47405192255973816
1788680946864188000,3.72218798828125,7.7428483963012695,0.8020575642585754,-0.33518823981285095
1788680946880057000,3.73805712890625,7.577648162841797,1.5634137392044067,0.40462008118629456
1788680946895895800,3.753895751953125,7.716512203216553,1.647210717201233,0.6344634294509888
1788680946911764700,3.7697646484375,8.65743350982666,1.3551181554794312,-0.08379705995321274
1788680946927634000,3.785634033203125,9.509769439697266,1.2952631711959839,-0.689530074596405
1788680946943533600,3.801533447265625,9.940725326538086,1.2330138683319092,-0.5315127968788147
1788680946959402800,3.81740283203125,9.730035781860352,1.2186486721038818,-0.20350714027881622
1788680946975302400,3.833302490234375,9.208099365234375,1.1300631761550903,-0.15801730751991272
1788680946991141000,3.84914111328125,9.399636268615723,1.0342950820922852,0.06703764945268631
1788680947007101700,3.865101806640625,9.883264541625977,0.9169792532920837,0.2777273952960968
1788680947022940400,3.8809404296875,10.335768699645996,0.8690952062606812,0.5003881454467773
1788680947038840000,3.896840087890625,10.496180534362793,0.8930372595787048,0.5793967843055725
1788680947054678800,3.9126787109375,10.02452278137207,0.9433154463768005,0.6727706789970398
1788680947070486800,3.92848681640625,10.010157585144043,0.9457096457481384,0.6440402865409851
1788680947086356000,3.94435595703125,10.141838073730469,0.9911994934082031,0.21308395266532898
1788680947102225200,3.96022509765625,10.414777755737305,1.0007762908935547,-0.20350714027881622
1788680947118094000,3.976093994140625,10.086771965026855,0.9696516990661621,0.09576806426048279
1788680947133993700,3.99199365234375,10.077195167541504,0.8331822156906128,0.5889736413955688
1788680947149863000,4.00786279296875,10.08198356628418,0.9457096457481384,0.10055647045373917
1788680947165762600,4.023762451171875,10.402806282043457,1.0414776802062988,-0.4836287498474121
1788680947181601300,4.039601318359375,10.699687004089355,0.24660277366638184,0.5793967843055725
1788680947197470500,4.055470458984375,11.487380027770996,-0.507570743560791,0.272938996553421
1788680947213370000,4.0713701171875,12.739546775817871,-1.6208745241165161,0.5937620401382446
1788680947229269800,4.087269775390625,14.676456451416016,-2.3032219409942627,0.7350199222564697
1788680947245139000,4.103138916015625,15.37077522277832,-2.231395959854126,0.2059013396501541
1788680947261038600,4.11903857421875,13.364434242248535,-1.2234370708465576,0.5770025849342346
1788680947276907800,4.13490771484375,11.18092155456543,-1.1180921792984009,1.3239935636520386
1788680947292807400,4.150807373046875,9.425971984863281,-0.6751648783683777,1.1420341730117798
1788680947308676400,4.16667626953125,7.924807548522949,0.11971008777618408,0.38067805767059326
1788680947324576300,4.182576171875,7.508216381072998,0.7038952708244324,-0.6177040338516235
1788680947340476000,4.198475830078125,8.008605003356934,0.7805097699165344,-1.1851298809051514
1788680947356344800,4.2143447265625,9.004592895507812,0.4812345504760742,-0.9816226959228516
1788680947372275200,4.230275146484375,9.703699111938477,0.26336219906806946,-0.40462008118629456
1788680947388113700,4.24611376953125,9.713275909423828,0.1412578970193863,0.07900865375995636
1788680947404013300,4.262013427734375,9.478644371032715,-0.05027823522686958,0.1843535304069519
1788680947419943700,4.277943603515625,9.215282440185547,-0.05746084079146385,0.3758896589279175
1788680947435843300,4.29384326171875,8.554482460021973,-0.2322375625371933,-0.4213795065879822
1788680947451712300,4.309712158203125,8.276755332946777,0.10534487664699554,-1.0606313943862915
1788680947467581400,4.32558154296875,7.63989782333374,0.6224924325942993,-1.3479355573654175
1788680947483511600,4.341511474609375,7.161057472229004,0.6488286852836609,-1.400607943534851
1788680947499442000,4.35744189453125,6.983886241912842,0.7230489253997803,-1.3120225667953491
1788680947515341600,4.373341552734375,6.983886241912842,0.9672574996948242,-1.235408067703247
1788680947531180000,4.389179931640625,7.814674377441406,1.2952631711959839,-1.5442601442337036
1788680947547049200,4.40504931640625,8.506598472595215,1.115697979927063,-1.7764976024627686
1788680947562888000,4.420887939453125,10.038887977600098,1.2306196689605713,-1.723825216293335
1788680947578726400,4.436726318359375,10.283096313476562,1.1755530834197998,-1.0007762908935547
1788680947594595600,4.452595703125,10.340557098388672,1.113303780555725,-0.5626373887062073
1788680947610495200,4.4684951171875,10.266336441040039,1.2210428714752197,-0.8164227604866028
1788680947626364400,4.484364501953125,10.122684478759766,1.3551181554794312,-0.7469909191131592
1788680947642233600,4.500233642578125,10.424354553222656,1.3024457693099976,-0.4596867263317108
1788680947658163700,4.516163818359375,10.81460952758789,1.0869675874710083,-0.6847416758537292
1788680947674002400,4.53200244140625,11.099518775939941,0.7350199222564697,-1.1228805780410767
1788680947689902000,4.547902099609375,11.45146656036377,0.31364041566848755,-1.1324573755264282
1788680947705801700,4.5638017578125,11.66694450378418,0.1364694982767105,-0.8236053586006165
1788680947721671000,4.5796708984375,11.578359603881836,0.3902548849582672,-1.2617442607879639
1788680947737601000,4.59560107421875,11.99255657196045,0.6775590777397156,-1.3527239561080933
1788680947753531100,4.61153125,11.659762382507324,0.45250412821769714,-0.9481038451194763
1788680947769430800,4.6274306640625,11.15697956085205,0.0694318488240242,-0.23942017555236816
1788680947785300000,4.643300048828125,10.888829231262207,-0.49320554733276367,0.4836287498474121
1788680947801230000,4.65922998046875,10.764330863952637,-1.1827356815338135,0.5793967843055725
1788680947817129700,4.675129638671875,11.094730377197266,-1.4915876388549805,-0.1843535304069519
1788680947833029400,4.691029296875,10.90798282623291,-1.414973258972168,-1.2689268589019775
1788680947848898600,4.706898681640625,10.486603736877441,-1.2234370708465576,-1.6352397203445435
1788680947864737300,4.7227373046875,9.57201862335205,-1.0630255937576294,-1.1444283723831177
1788680947880667400,4.73866748046875,8.908824920654297,-0.6871358752250671,-0.5506663918495178
1788680947896506000,4.754506103515625,8.767566680908203,-0.14365209639072418,-0.2346317619085312
1788680947912344600,4.770344482421875,8.671798706054688,0.09816227108240128,0.023942016065120697
1788680947928213800,4.7862138671875,8.628703117370605,0.1173158809542656,0.31364041566848755
1788680947944113400,4.802113525390625,8.655038833618164,0.1364694982767105,0.3208230137825012
1788680947959982600,4.817982666015625,10.869675636291504,0.33279404044151306,2.2601263523101807
1788680947975851800,4.833851806640625,10.740388870239258,0.4812345504760742,1.3623007535934448
1788680947991751400,4.84975146484375,10.11550235748291,0.6703764796257019,0.2298433631658554
1788680948007620600,4.86562060546875,9.26795482635498,0.9433154463768005,-0.586579442024231
1788680948023428600,4.8814287109375,8.032546997070312,0.9624691009521484,-1.0845733880996704
1788680948039358700,4.897358642578125,7.216124057769775,1.0199298858642578,-1.1563993692398071
1788680948055197400,4.913197509765625,6.543353080749512,1.1180921792984009,-0.8834604024887085
1788680948071066600,4.929066650390625,6.191405773162842,1.2641384601593018,-0.6919242739677429
1788680948086935800,4.944935791015625,6.643909931182861,1.5322890281677246,-1.1109095811843872
1788680948102896400,4.960896484375,7.247248649597168,1.558625340461731,-0.849941611289978
1788680948118796000,4.976796142578125,8.087613105773926,1.0678139925003052,-0.8355764150619507
1788680948134604300,4.992604248046875,9.040505409240723,1.482010841369629,-0.05746084079146385
1788680948150442800,5.00844287109375,9.332598686218262,1.9847931861877441,0.8643068075180054
1788680948166342400,5.02434228515625,9.68933391571045,2.655169725418091,2.1068975925445557
1788680948182242000,5.040241943359375,9.775525093078613,2.719813108444214,1.41257905960083
1788680948198111200,5.056111328125,9.169792175292969,2.248155355453491,1.1228805780410767
1788680948214041300,5.072041259765625,9.761159896850586,1.6136919260025024,-0.1867477297782898
1788680948229910500,5.08791064453125,10.666168212890625,1.4197616577148438,-1.015141487121582
1788680948245810200,5.10381005859375,11.405977249145508,1.1300631761550903,-0.7661445140838623
1788680948261709800,5.119709716796875,11.51611042022705,0.828393816947937,-0.15083470940589905
1788680948277579000,5.1355791015625,11.39161205291748,0.7350199222564697,-0.2849099934101105
1788680948293509000,5.151509033203125,11.537657737731934,0.9385270476341248,-0.49559974670410156
1788680948309408800,5.16740869140625,11.841721534729004,0.8619126081466675,-0.0694318488240242
1788680948325339100,5.183339111328125,12.112266540527344,0.33279404044151306,0.5195417404174805
1788680948341269200,5.199269287109375,12.883199691772461,-0.5410895943641663,0.8738836050033569
1788680948357138400,5.215138427734375,14.286201477050781,-1.53707754611969,0.2777273952960968
1788680948373038000,5.2310380859375,15.210363388061523,-1.922544002532959,-0.16759411990642548
1788680948388907300,5.2469072265625,14.022839546203613,-1.8483237028121948,-0.24420857429504395
1788680948404807000,5.262806884765625,11.286267280578613,-1.6927006244659424,-0.019153613597154617
1788680948420706600,5.27870654296875,8.588001251220703,-1.2545616626739502,-0.22266076505184174
1788680948436606200,5.294606201171875,6.7492547035217285,-0.40222588181495667,-0.8044517636299133
1788680948452505900,5.310505859375,5.880159378051758,0.2849099934101105,-1.3024457693099976
1788680948476309500,5.3343095703125,6.9024834632873535,0.49559974670410156,-1.0630255937576294
1788680948492239600,5.350239501953125,7.975085735321045,0.2968810200691223,-0.3519476354122162
1788680948508108800,5.36610888671875,9.167398452758789,0.047884032130241394,0.028730420395731926
1788680948523978000,5.38197802734375,9.84256362915039,0.0694318488240242,-0.16759411990642548
1788680948539877600,5.397877685546875,9.971850395202637,0.09576806426048279,-0.4429273009300232
1788680948555746800,5.413746826171875,9.873687744140625,0.05267243832349777,-0.5913678407669067
1788680948571677000,5.429677001953125,9.682151794433594,0.14365209639072418,-0.42856210470199585
1788680948587546000,5.445546142578125,9.119514465332031,0.5482721924781799,-0.24899697303771973
1788680948603476200,5.461476318359375,8.336610794067383,1.2186486721038818,-0.07661445438861847
1788680948619345400,5.477345458984375,7.951143741607666,1.6352397203445435,-0.14365209639072418
1788680948635214600,5.493214599609375,7.965508937835693,1.7956513166427612,-0.4141969084739685
1788680948651144700,5.509144775390625,8.003816604614258,1.8555063009262085,-0.5291185975074768
1788680948667014000,5.525013916015625,8.13789176940918,1.968033790588379,-0.2059013396501541
1788680948682913500,5.54091357421875,8.35097599029541,2.1092917919158936,-0.05267243832349777
1788680948698782700,5.55678271484375,8.291120529174805,1.8842366933822632,0.33279404044151306
1788680948714652000,5.57265185546875,9.160215377807617,1.723825216293335,-0.24420857429504395
1788680948730582000,5.58858203125,10.766724586486816,1.414973258972168,-1.3646949529647827
1788680948746481700,5.604481689453125,12.294225692749023,1.3503297567367554,-1.7764976024627686
1788680948762350800,5.620350830078125,12.801796913146973,1.1827356815338135,-0.586579442024231
1788680948778220000,5.636219970703125,12.725181579589844,0.8331822156906128,0.6919242739677429
1788680948794119700,5.65211962890625,12.770671844482422,0.33997663855552673,1.6615760326385498
1788680948810019300,5.668019287109375,12.899958610534668,-0.12210428714752197,0.9385270476341248
1788680948825919000,5.6839189453125,13.187262535095215,-0.19871874153614044,-0.3423708379268646
1788680948841757400,5.69975732421875,13.165715217590332,0.2106897532939911,-0.4381389021873474
1788680948857626600,5.715626708984375,12.210428237915039,0.7374141216278076,0.33039984107017517
1788680948873465300,5.73146533203125,10.615890502929688,0.8643068075180054,0.9840168952941895
1788680948889395500,5.7473955078125,8.846575736999512,0.4405331015586853,0.6775590777397156
1788680948905295000,5.763295166015625,9.047688484191895,-0.790086567401886,0.304063618183136
1788680948921225200,5.77922509765625,11.21204662322998,-1.8794482946395874,-0.13168109953403473
1788680948937094400,5.795094482421875,13.211204528808594,-2.2385785579681396,-0.31842881441116333
1788680948952963600,5.810963623046875,13.297396659851074,-1.7956513166427612,-0.13407529890537262
1788680948968832800,5.826832763671875,11.094730377197266,-1.2713210582733154,0.26815059781074524
1788680948984671200,5.842671142578125,8.520963668823242,-0.9145850539207458,0.1149216815829277
1788680949000540400,5.85854052734375,6.495469093322754,-0.6105214357376099,-0.23702596127986908
1788680949016409600,5.87440966796875,5.638344764709473,-0.2777273952960968,-0.40701428055763245
1788680949032278800,5.89027880859375,6.074089527130127,0.033518824726343155,-0.40701428055763245
1788680949048209000,5.906208984375,7.328651428222656,0.2849099934101105,-0.3471592366695404
1788680949064078000,5.922078125,8.456320762634277,0.33518823981285095,-0.3734954595565796
1788680949080008200,5.93800830078125,9.220070838928223,0.3687070608139038,-0.3064578175544739
1788680949095877400,5.95387744140625,9.418789863586426,0.4213795065879822,-0.3064578175544739
1788680949111777000,5.969777099609375,9.184157371520996,0.5147533416748047,-0.22266076505184174
1788680949127585300,5.985585205078125,8.798690795898438,0.7709329724311829,-0.4429273009300232
1788680949143485000,6.00148486328125,8.580819129943848,1.170764684677124,-0.49320554733276367
1788680949159323400,6.017323486328125,8.202534675598145,1.6711528301239014,-0.5147533416748047
1788680949175162000,6.033162109375,7.479485988616943,1.7908629179000854,0.023942016065120697
1788680949191031300,6.04903125,7.7428483963012695,2.3750481605529785,-0.44771572947502136
1788680949206931000,6.064930908203125,8.257601737976074,2.5546131134033203,-0.4644751250743866
1788680949222800100,6.080800048828125,8.283937454223633,2.0853497982025146,-0.19632454216480255
1788680949238699800,6.09669970703125,8.83939266204834,1.558625340461731,0.1364694982767105
1788680949254599400,6.112599365234375,9.746794700622559,1.314416766166687,0.3232172429561615
1788680949270438000,6.12843798828125,10.44350814819336,1.1755530834197998,0.090979665517807
1788680949286276600,6.144276611328125,11.037269592285156,1.1803414821624756,-0.0071826050989329815
1788680949302115000,6.160114990234375,11.350910186767578,1.0414776802062988,-0.12928688526153564
1788680949318015000,6.176014892578125,11.784260749816895,0.6655880808830261,-0.24660277366638184
1788680949341879600,6.199879638671875,12.634202003479004,0.16519992053508759,-0.33758243918418884
1788680949357809700,6.2158095703125,13.146561622619629,0.06464344263076782,-0.17238251864910126
1788680949373648400,6.2316484375,13.055582046508789,0.5434837937355042,-0.20111294090747833
1788680949389548000,6.247548095703125,11.980585098266602,0.7805097699165344,-0.6416460275650024
1788680949405386800,6.26338671875,10.527304649353027,0.6655880808830261,-1.2114660739898682
1788680949421286400,6.279286376953125,9.718064308166504,0.7493851184844971,-1.5849615335464478
1788680949437124900,6.295124755859375,10.285490036010742,0.20350714027881622,-1.070208191871643
1788680949452994000,6.310994140625,11.57357120513916,-0.7398083209991455,-0.5841852426528931
1788680949468863200,6.32686328125,12.380416870117188,-1.3120225667953491,-0.5602431893348694
1788680949484763000,6.342762939453125,12.11705493927002,-1.3982137441635132,-1.0103530883789062
1788680949500632000,6.358632080078125,11.034875869750977,-1.1037269830703735,-1.2737152576446533
1788680949516531700,6.37453173828125,9.404424667358398,-0.7110779285430908,-1.1013327836990356
1788680949532401000,6.39040087890625,8.015787124633789,-0.21547815203666687,-0.9624691009521484
1788680949548331000,6.4063310546875,7.524975776672363,0.1604115068912506,-0.7110779285430908
1788680949564200200,6.4222001953125,7.5848307609558105,0.30885201692581177,-0.4141969084739685
1788680949580069400,6.4380693359375,7.714118003845215,0.3016694188117981,-0.24899697303771973
1788680949595969000,6.453968994140625,7.955932140350342,0.304063618183136,-0.10773907601833344
1788680949611868700,6.46986865234375,8.10437297821045,0.42856210470199585,-0.07661445438861847
1788680949627707100,6.48570703125,8.362946510314941,0.524330198764801,-0.17717093229293823
1788680949643545900,6.5015458984375,8.592789649963379,0.629675030708313,-0.304063618183136
1788680949659415000,6.5174150390625,8.62391471862793,0.8906430602073669,-0.4692635238170624
1788680949675314700,6.533314697265625,8.276755332946777,1.280897855758667,-0.33279404044151306
1788680949691183900,6.549183837890625,7.682993412017822,1.6400281190872192,-0.06703764945268631
1788680949707083500,6.56508349609375,7.271190643310547,2.0183119773864746,0.12210428714752197
1788680949723013600,6.581013671875,7.158663272857666,2.209848165512085,0.1604115068912506
1788680949738882800,6.5968828125,7.661445617675781,2.2026655673980713,0.035913024097681046
1788680949754782500,6.612782470703125,8.528146743774414,2.0638017654418945,-0.17238251864910126
1788680949770651600,6.628651611328125,9.361329078674316,1.8962076902389526,-0.2753331959247589
1788680949786551300,6.64455126953125,10.065223693847656,1.8148049116134644,-0.35913026332855225
1788680949802420500,6.66042041015625,10.735600471496582,1.6376339197158813,-0.35673606395721436
1788680949818259000,6.676259033203125,11.286267280578613,1.2641384601593018,-0.2825157940387726
1788680949834158600,6.69215869140625,11.676521301269531,1.0055646896362305,-0.19393034279346466
1788680949850058200,6.708058349609375,12.021286964416504,0.9289502501487732,-0.11013327538967133
1788680949865988600,6.723988525390625,12.466608047485352,0.6751648783683777,-0.22744916379451752
1788680949881827000,6.7398271484375,13.168108940124512,0.790086567401886,-0.5027823448181152
1788680949897696300,6.7556962890625,13.189657211303711,1.5634137392044067,-0.19153612852096558
1788680949913565400,6.7715654296875,11.571176528930664,1.8100165128707886,0.4644751250743866
1788680949929434600,6.7874345703125,9.461885452270508,1.357512354850769,0.4429273009300232
1788680949945303600,6.803303466796875,8.219294548034668,0.5195417404174805,0.5099649429321289
1788680949961142300,6.819142333984375,9.265560150146484,-0.9457096457481384,0.629675030708313
1788680949976981000,6.83498095703125,12.428300857543945,-2.1523873805999756,0.17717093229293823
1788680949992850200,6.85085009765625,15.064316749572754,-2.451662540435791,-0.06224924325942993
1788680950008719000,6.866718994140625,14.90869426727295,-1.9776105880737305,0.7326257228851318
1788680950024649500,6.8826494140625,11.614272117614746,-1.5825673341751099,0.9720458984375
1788680950040488000,6.898488037109375,8.31985092163086,-1.1779472827911377,0.6153098344802856
1788680950056357000,6.914357177734375,6.27280855178833,-0.49559974670410156,0.13168109953403473
1788680950072226300,6.930226318359375,6.1052141189575195,0.08619125932455063,-0.2106897532939911
1788680950088095500,6.946095458984375,7.314286231994629,0.38067805767059326,-0.507570743560791
1788680950103964700,6.961964599609375,8.549694061279297,0.4141969084739685,-0.45250412821769714
1788680950119864300,6.9778642578125,9.423578262329102,0.3687070608139038,-0.17238251864910126
1788680950135764000,6.993763916015625,9.749189376831055,0.22026655077934265,-0.19393034279346466
1788680950151633000,7.0096328125,9.526528358459473,0.31603461503982544,-0.5650315880775452
1788680950167532800,7.02553271484375,8.918401718139648,0.5841852426528931,-0.7230489253997803
1788680950183371300,7.041371337890625,8.224082946777344,0.8523358106613159,-0.6177040338516235
1788680950199210000,7.0572099609375,7.752425193786621,1.235408067703247,-0.45250412821769714
1788680950215048400,7.07304833984375,7.412448406219482,1.6974890232086182,-0.2322375625371933
1788680950230917600,7.088917724609375,7.405265808105469,2.0470423698425293,-0.12689268589019775
1788680950246817300,7.1048173828125,7.6111674308776855,2.1475989818573,-0.2825157940387726
1788680950262686500,7.1206865234375,7.888894557952881,2.0590133666992188,-0.31842881441116333
1788680950278586000,7.136586181640625,8.374917984008789,1.8938134908676147,-0.4405331015586853
1788680950294516200,7.15251611328125,9.373299598693848,1.6687586307525635,-0.47165772318840027
1788680950310385400,7.168385498046875,10.376470565795898,1.6112977266311646,-0.26815059781074524
1788680950326254600,7.184254638671875,11.082759857177734,1.5945383310317993,-0.16998831927776337
1788680950342093300,7.20009326171875,11.60948371887207,1.53707754611969,-0.4836287498474121
1788680950357993000,7.215992919921875,11.504138946533203,1.482010841369629,-0.6584054827690125
1788680950373831400,7.23183154296875,11.262324333190918,1.2186486721038818,-0.5889736413955688
1788680950397665800,7.255665771484375,11.887211799621582,0.3423708379268646,-0.6057330369949341
1788680950413535000,7.271534912109375,12.99812126159668,0.0454898327589035,-0.36152446269989014
1788680950429434600,7.2874345703125,13.508086204528809,0.5602431893348694,-0.3016694188117981
1788680950445273000,7.303273193359375,12.646173477172852,1.036689281463623,-0.6967126727104187
1788680950461172700,7.3191728515625,11.070788383483887,1.0821791887283325,-1.0103530883789062
1788680950477072400,7.335072265625,10.156203269958496,1.1037269830703735,-0.8044517636299133
1788680950492972000,7.350971923828125,10.845733642578125,0.4165911078453064,0.035913024097681046
1788680950508810800,7.366810791015625,12.174515724182129,-0.8044517636299133,0.17477671802043915
1788680950524649500,7.3826494140625,12.883199691772461,-1.7166426181793213,0.1388636976480484
1788680950540549000,7.398549072265625,12.349292755126953,-1.6927006244659424,-0.1628057211637497
1788680950556479200,7.414479248046875,10.78587818145752,-1.2330138683319092,-0.49799394607543945
1788680950572348400,7.430348388671875,8.880094528198242,-0.9792284965515137,-0.6057330369949341
1788680950588187000,7.446186767578125,7.390900611877441,-0.47405192255973816,-0.6799532771110535
1788680950604025600,7.462025634765625,6.742072105407715,0.12449848651885986,-0.4692635238170624
1788680950619925200,7.47792529296875,7.141903877258301,0.31124621629714966,-0.17238251864910126
1788680950635825000,7.493824951171875,7.673416614532471,0.31364041566848755,-0.028730420395731926
1788680950651694000,7.509694091796875,7.850587368011475,0.42377370595932007,-0.181959331035614
1788680950667593700,7.52559375,7.838616371154785,0.5746083855628967,-0.06703764945268631
1788680950683463000,7.541462890625,7.589619159698486,0.569819986820221,-0.009576806798577309
1788680950699332000,7.55733203125,7.802703380584717,0.6871358752250671,0.0454898327589035
1788680950715231700,7.573231689453125,8.20732307434082,0.9241618514060974,-0.08379705995321274
1788680950731070200,7.5890703125,8.31985092163086,1.2425906658172607,0.07422025501728058
1788680950746969900,7.604969970703125,8.233659744262695,1.53707754611969,0.2777273952960968
1788680950762869500,7.620869384765625,7.987056732177734,1.8291701078414917,0.3256114423274994
1788680950778708200,7.636708251953125,7.738059997558594,2.0254945755004883,0.2753331959247589
1788680950794547000,7.652546875,7.747636795043945,2.073378562927246,0.363918662071228
1788680950810477000,7.66847705078125,7.824251174926758,2.1332337856292725,0.16998831927776337
1788680950826346200,7.68434619140625,8.195352554321289,2.0015525817871094,0.07900865375995636
1788680950842215200,7.700215087890625,9.026140213012695,1.599326729774475,0.07182604819536209
1788680950858054000,7.716053955078125,10.402806282043457,1.2330138683319092,-0.24660277366638184
1788680950873953500,7.73195361328125,12.023680686950684,1.0031704902648926,-0.2944868206977844
1788680950889792300,7.747792236328125,13.227964401245117,0.9457096457481384,-0.05506663769483566
1788680950905722400,7.763722412109375,13.5870943069458,0.9696516990661621,0.011971008032560349
1788680950929526000,7.787526123046875,12.617443084716797,0.9193734526634216,-0.08858546614646912
1788680950945425700,7.80342578125,12.090718269348145,0.7086837291717529,0.08140286058187485
1788680950961264400,7.819264404296875,12.375628471374512,0.5985504388809204,-0.05985504388809204
1788680950977164000,7.8351640625,13.12501335144043,1.139639973640442,-0.090979665517807
1788680950993002800,7.851002685546875,12.861651420593262,1.4508862495422363,0.3974374830722809
1788680951008871700,7.86687158203125,11.537657737731934,1.137245774269104,0.507570743560791
1788680951024710400,7.88271044921875,10.503362655639648,0.6799532771110535,0.20111294090747833
1788680951040579600,7.89857958984375,10.682928085327148,0,0.13407529890537262
1788680951056448800,7.91444873046875,11.848904609680176,-0.849941611289978,0.043095629662275314
1788680951072318000,7.93031787109375,13.251906394958496,-1.3120225667953491,-0.13407529890537262
1788680951088156400,7.946156494140625,13.108254432678223,-1.335964560508728,-0.031124621629714966
1788680951104025600,7.962025634765625,11.27190113067627,-1.2521674633026123,0.26336219906806946
1788680951119925200,7.97792529296875,8.87291145324707,-0.9816226959228516,0.40222588181495667
1788680951135825000,7.993824951171875,6.897695064544678,-0.35913026332855225,0.5315127968788147
1788680951151694000,8.009694091796876,5.75326681137085,0.3256114423274994,0.5530605912208557
1788680951167593700,8.02559375,5.585672378540039,0.5937620401382446,0.2944868206977844
1788680951183463000,8.041462890625,6.390124320983887,0.5674257874488831,0.07900865375995636
1788680951199332000,8.05733203125,7.232883453369141,0.5027823448181152,0.08379705995321274
1788680951215170600,8.073170654296876,8.190564155578613,0.3280056416988373,0.19393034279346466
1788680951231131400,8.08913134765625,8.966285705566406,0.24899697303771973,0.09576806426048279
1788680951247000300,8.105000244140625,9.346963882446289,0.4668693244457245,-0.38067805767059326
1788680951262900200,8.120900146484376,9.260771751403809,0.6967126727104187,-0.5889736413955688
1788680951278769200,8.13676904296875,8.429984092712402,0.9624691009521484,-0.3878606855869293
1788680951294668800,8.152668701171875,7.467514991760254,1.194706678390503,-0.0694318488240242
1788680951310568400,8.168568359375,6.947973251342773,1.4413094520568848,0.3711012601852417
1788680951326437600,8.184437744140626,7.558494567871094,1.7190368175506592,0.2298433631658554
1788680951342337300,8.200337158203125,8.856152534484863,1.7836803197860718,-0.40940847992897034
1788680951358237000,8.21623681640625,9.763554573059082,1.7956513166427612,-0.5889736413955688
1788680951374136600,8.232136474609375,10.24239444732666,1.8100165128707886,-0.5123591423034668
1788680951390067000,8.24806689453125,10.314221382141113,1.8722656965255737,-0.2968810200691223
1788680951413870600,8.27187060546875,9.950302124023438,1.7573440074920654,-0.0694318488240242
1788680951429770200,8.287770263671876,10.266336441040039,1.3694833517074585,-0.4884171485900879
1788680951445700400,8.303700439453126,11.003750801086426,1.0079588890075684,-0.6775590777397156
1788680951461569500,8.319569580078126,11.748347282409668,0.8643068075180054,-0.6033388376235962
1788680951477438700,8.335438720703126,12.42111873626709,0.7613561153411865,-0.40462008118629456
1788680951493308000,8.351307861328126,13.048398971557617,0.8619126081466675,-0.2513911724090576
1788680951509207600,8.36720751953125,13.017274856567383,1.2641384601593018,-0.12928688526153564
1788680951525076700,8.38307666015625,11.856086730957031,1.4389152526855469,-0.38307225704193115
1788680951540976400,8.398976318359376,9.715670585632324,1.3335703611373901,-0.6703764796257019
1788680951556845300,8.41484521484375,8.470685958862305,0.8690952062606812,-0.47644615173339844
1788680951572714500,8.430714599609376,9.576807022094727,-0.3663128614425659,-0.16998831927776337
1788680951588675300,8.44667529296875,12.344504356384277,-1.6089035272598267,-0.47405192255973816
1788680951604575000,8.462574951171876,14.88714599609375,-2.1787235736846924,-0.9217676520347595
1788680951620413400,8.478413330078125,14.788984298706055,-1.8938134908676147,-1.091755986213684
1788680951636313000,8.49431298828125,12.164938926696777,-1.3934253454208374,-1.1899182796478271
1788680951652212700,8.510212646484375,8.827422142028809,-0.9289502501487732,-1.0055646896362305
1788680951668051500,8.526051513671876,6.651092529296875,-0.2968810200691223,-0.8331822156906128
1788680951683920600,8.541920654296876,6.112396717071533,0.20111294090747833,-0.629675030708313
1788680951699820300,8.5578203125,6.562506675720215,0.5123591423034668,-0.49799394607543945
1788680951715689500,8.573689453125,6.967126846313477,0.6536170840263367,-0.45010992884635925
1788680951731589000,8.589589111328126,7.314286231994629,0.5051765441894531,-0.26096799969673157
1788680951747427600,8.605427490234375,7.754819393157959,0.2082955539226532,0.16759411990642548
1788680951763327200,8.6213271484375,8.80587387084961,-0.021547814831137657,0.090979665517807
1788680951779227100,8.63722705078125,9.928754806518555,0.08140286058187485,-0.33279404044151306
1788680951795157200,8.6531572265625,10.18493366241455,0.4189853072166443,-0.4908113479614258
1788680951811026400,8.6690263671875,9.478644371032715,0.7996633648872375,-0.3878606855869293
1788680951826865000,8.684864990234376,8.389283180236816,1.1683704853057861,-0.26575639843940735
1788680951842734000,8.700734130859376,7.515398979187012,1.4748282432556152,-0.17956513166427612
1788680951858603300,8.716603271484376,7.108384609222412,1.680729627609253,-0.22266076505184174
1788680951874441700,8.732441650390625,7.376535415649414,1.8195933103561401,-0.2849099934101105
1788680951890341600,8.748341552734376,7.996633529663086,1.7549498081207275,-0.38307225704193115
1788680951906210600,8.76421044921875,8.769960403442383,1.5514427423477173,-0.4644751250743866
1788680951922079700,8.780079833984376,9.66539192199707,1.5873557329177856,-0.43335050344467163
1788680951937979400,8.7959794921875,10.26394271850586,1.6041151285171509,-0.20111294090747833
1788680951953879000,8.811879150390626,10.793061256408691,1.3455413579940796,-0.1628057211637497
1788680951969748200,8.827748291015626,11.592724800109863,0.8307880163192749,-0.31364041566848755
1788680951985587000,8.8435869140625,12.576741218566895,0.40462008118629456,-0.45010992884635925
1788680952001517000,8.85951708984375,13.06755256652832,0.24899697303771973,-0.2561795711517334
1788680952017416700,8.875416748046876,13.354857444763184,0.5913678407669067,-0.5410895943641663
1788680952041250800,8.899250732421875,12.351686477661133,1.7477672100067139,-0.2849099934101105
1788680952057120000,8.9151201171875,10.38844108581543,1.2761094570159912,0.33758243918418884
1788680952072989200,8.9309892578125,9.39245319366455,0.6488286852836609,0.13407529890537262
1788680952088888800,8.946888916015626,10.235212326049805,0.12449848651885986,0.3208230137825012
1788680952104788500,8.96278857421875,12.686874389648438,-1.2521674633026123,0.47884035110473633
1788680952120657700,8.97865771484375,14.935029983520508,-2.0901381969451904,-0.12928688526153564
1788680952136526800,8.99452685546875,15.210363388061523,-1.9847931861877441,-0.19632454216480255
1788680952152426500,9.010426513671876,12.540828704833984,-1.4413094520568848,0.20111294090747833
1788680952168295700,9.026295654296876,8.83939266204834,-0.9145850539207458,0.15083470940589905
1788680952184195300,9.0421953125,5.980715751647949,-0.21787235140800476,0.09816227108240128
1788680952200095000,9.058094970703126,4.730942726135254,0.5650315880775452,-0.0933738648891449
1788680952215964200,9.073964111328126,5.073313236236572,0.8475474119186401,-0.22266076505184174
1788680952231833000,9.0898330078125,6.718130111694336,0.6799532771110535,-0.5099649429321289
1788680952247763500,9.105763427734376,8.451532363891602,0.3878606855869293,-0.24181437492370605
1788680952263602000,9.121601806640625,9.785101890563965,0.12928688526153564,-0.16519992053508759
1788680952279471000,9.13747119140625,10.36449909210205,0.13407529890537262,-0.2944868206977844
1788680952295370800,9.153370849609376,9.883264541625977,0.3878606855869293,-0.2944868206977844
1788680952311240000,9.169239990234376,8.916007041931152,0.6799532771110535,-0.1867477297782898
1788680952327109000,9.185109130859376,8.094796180725098,0.6607996821403503,-0.1388636976480484
1788680952343008800,9.2010087890625,7.038952827453613,1.0558429956436157,-0.7565677165985107
1788680952358908400,9.216908447265626,6.48828649520874,1.742978811264038,-0.7757213711738586
1788680952374808000,9.23280810546875,6.636727333068848,2.1164743900299072,-0.30885201692581177
1788680952390646800,9.248646728515626,7.304709434509277,2.006340980529785,-0.3519476354122162
1788680952406515700,9.264515625,7.920019149780273,2.3343467712402344,-0.667982280254364
1788680952430350000,9.28835009765625,8.89685344696045,1.2306196689605713,-0.028730420395731926
1788680952446219300,9.30421923828125,9.39245319366455,1.4652514457702637,-0.23942017555236816
1788680952462024400,9.3200244140625,10.278307914733887,1.359906554222107,-0.4141969084739685
1788680952477893600,9.3358935546875,11.24795913696289,0.9816226959228516,-0.20111294090747833
1788680952493762800,9.3517626953125,12.174515724182129,0.8331822156906128,-0.1412578970193863
1788680952517566500,9.37556640625,13.022063255310059,0.5746083855628967,0.06224924325942993
1788680952533435600,9.391435546875,12.799402236938477,0.1388636976480484,0.3280056416988373
1788680952549335300,9.407335205078125,12.737153053283691,0.2825157940387726,-0.0071826050989329815
1788680952565265400,9.423265380859375,12.334927558898926,0.6105214357376099,-0.608127236366272
1788680952581104000,9.439104248046876,11.671732902526855,0.6177040338516235,-1.0558429956436157
1788680952597064700,9.455064697265625,11.322179794311523,0.5530605912208557,-0.7709329724311829
1788680952612903400,9.4709033203125,11.932701110839844,-0.19871874153614044,-0.07422025501728058
1788680952628803000,9.486802978515625,14.267047882080078,-2.341529369354248,-0.1628057211637497
1788680952644733200,9.502733154296875,15.313314437866211,-2.7030537128448486,0.19871874153614044
1788680952660663300,9.518663330078125,13.7666597366333,-1.742978811264038,-0.038307227194309235
1788680952676532500,9.534532470703125,10.565611839294434,-1.194706678390503,-0.23942017555236816
1788680952692401700,9.550401611328125,7.33583402633667,-0.9169792532920837,-0.4213795065879822
1788680952708301300,9.56630126953125,5.403713226318359,-0.3471592366695404,-0.3974374830722809
1788680952724201000,9.582200927734375,5.161899089813232,0.17717093229293823,-0.6392518281936646
1788680952740100600,9.5981005859375,6.145915985107422,0.44771572947502136,-0.6991068720817566
1788680952756000300,9.614000244140625,7.3454108238220215,0.33279404044151306,-0.40940847992897034
1788680952771930400,9.629930419921875,8.401253700256348,-0.05746084079146385,-0.2944868206977844
1788680952787799600,9.645799560546875,9.378087997436523,-0.3064578175544739,-0.31364041566848755
1788680952803699200,9.66169921875,9.909601211547852,-0.4141969084739685,-0.06224924325942993
1788680952819598800,9.677598876953125,10.137049674987793,-0.3471592366695404,-0.08140286058187485
1788680952835529200,9.693529296875,10.000580787658691,-0.014365210197865963,-0.08140286058187485
1788680952851428900,9.709428955078126,9.32541561126709,0.4429273009300232,-0.040701430290937424
1788680952867298000,9.725298095703126,8.26478385925293,0.8451532125473022,0.004788403399288654
1788680952883197700,9.74119775390625,7.419631004333496,1.2617442607879639,0.040701430290937424
1788680952899127800,9.7571279296875,6.892906665802002,1.6280571222305298,-0.011971008032560349
1788680952914966300,9.77296630859375,6.871358871459961,1.7334020137786865,-0.009576806798577309
1788680952930866000,9.788865966796875,7.69735860824585,1.6855180263519287,-0.05506663769483566
1788680952946704600,9.80470458984375,8.738836288452148,1.6208745241165161,-0.08858546614646912
1788680952962604300,9.820604248046875,9.653421401977539,1.4676456451416016,0.011971008032560349
1788680952978504000,9.83650390625,10.517727851867676,1.2258312702178955,-0.17238251864910126
1788680952994434000,9.85243408203125,11.401188850402832,1.1252747774124146,-0.4213795065879822
1788680953010303200,9.86830322265625,12.136208534240723,0.9361328482627869,-0.4381389021873474
1788680953026203000,9.884202880859375,12.72757625579834,0.42377370595932007,-0.019153613597154617
1788680953042133200,9.90013330078125,13.21599292755127,0.11252748221158981,0.3280056416988373
1788680953057941200,9.915941162109375,13.283031463623047,-0.09576806426048279,0.6105214357376099
1788680953073810400,9.931810546875,13.2710599899292,-0.395043283700943,0.06224924325942993
1788680953089710000,9.9477099609375,13.548787117004395,-0.08379705995321274,-0.6727706789970398
1788680953105579300,9.963579345703126,13.06755256652832,0.608127236366272,-0.5722141861915588
1788680953121448200,9.9794482421875,11.058817863464355,0.9816226959228516,0.4836287498474121
1788680953137348000,9.99534814453125,9.162610054016113,0.8978256583213806,0.9864110946655273
1788680953153247700,10.011247802734376,8.813055992126465,0.23702596127986908,0.6727706789970398
1788680953169147400,10.0271474609375,11.140220642089844,-1.3000515699386597,0.2298433631658554
1788680953184985900,10.04298583984375,14.161703109741211,-2.2816741466522217,-0.17477671802043915
1788680953200885500,10.058885498046875,14.906299591064453,-2.3247697353363037,-0.2322375625371933
1788680953216693800,10.07469384765625,12.459425926208496,-1.8052281141281128,0.19871874153614044
1788680953232563000,10.09056298828125,8.83699893951416,-1.1994950771331787,0.2322375625371933
1788680953248462600,10.106462646484376,5.861005783081055,-0.507570743560791,0.3471592366695404
1788680953264331500,10.12233154296875,4.220977783203125,0.14844051003456116,0.3447650372982025
1788680953280262000,10.138261962890626,4.273650169372559,0.4908113479614258,0.17956513166427612
1788680953296100400,10.154100341796875,5.829881191253662,0.4189853072166443,-0.11252748221158981
1788680953311969500,10.169969482421875,7.910442352294922,0.20350714027881622,-0.4668693244457245
1788680953327869200,10.185869140625,9.718064308166504,-0.17717093229293823,-0.5650315880775452
1788680953343768800,10.201768798828125,10.486603736877441,-0.16998831927776337,-0.23942017555236816
1788680953359699000,10.217698974609375,10.11550235748291,0.11013327538967133,0.004788403399288654
1788680953375537700,10.23353759765625,8.987833023071289,0.4884171485900879,-0.06703764945268631
1788680953391376400,10.24937646484375,7.850587368011475,0.8882488012313843,-0.43095630407333374
1788680953407306500,10.265306396484375,7.115567684173584,1.3000515699386597,-0.6943184733390808
1788680953423175700,10.28117578125,7.074865818023682,1.6160861253738403,-0.7565677165985107
1788680953439075300,10.297075439453126,7.716512203216553,1.8794482946395874,-0.5626373887062073
1788680953454975000,10.31297509765625,8.396465301513672,1.9321208000183105,-0.3423708379268646
1788680953470905000,10.328905029296875,9.002198219299316,1.647210717201233,-0.35434186458587646
1788680953486804700,10.3448046875,9.880870819091797,1.1468225717544556,-0.3711012601852417
1788680953502674000,10.360673828125,10.611102104187012,1.0031704902648926,-0.689530074596405
1788680953518573600,10.376573486328125,11.006145477294922,1.1228805780410767,-0.9744400978088379
1788680953534473200,10.39247314453125,11.188104629516602,1.1492167711257935,-0.8834604024887085
1788680953550312000,10.40831201171875,11.312602996826172,1.0845733880996704,-0.646434485912323
1788680953566150400,10.424150390625,11.434707641601562,0.9002198576927185,-0.4908113479614258
1788680953581989000,10.439989013671875,11.772290229797363,0.5339069962501526,-0.31603461503982544
1788680953597888800,10.455888671875,12.15296745300293,0.028730420395731926,-0.1364694982767105
1788680953613788400,10.471788330078125,12.88559341430664,-0.10773907601833344,-0.15801730751991272
1788680953629657600,10.48765771484375,13.352462768554688,0.44771572947502136,-0.19871874153614044
1788680953645587700,10.503587646484375,12.246341705322266,1.05105459690094,-0.31124621629714966
1788680953661457000,10.519456787109375,10.055646896362305,1.580173134803772,-0.6607996821403503
1788680953677356500,10.5353564453125,8.552088737487793,1.7693150043487549,-0.7637503147125244
1788680953693256200,10.551256103515625,9.08838939666748,0.6488286852836609,-0.4429273009300232
1788680953709125400,10.56712548828125,11.3269681930542,-1.173158884048462,-0.43095630407333374
1788680953725025000,10.58302490234375,13.4290771484375,-2.188300371170044,-0.6751648783683777
1788680953740894200,10.598894287109376,13.61103630065918,-2.008735179901123,-0.8307880163192749
1788680953756763100,10.61476318359375,11.753135681152344,-1.4221558570861816,-1.2761094570159912
1788680953772693500,10.630693603515626,9.205705642700195,-0.8475474119186401,-1.3335703611373901
1788680953788562700,10.646562744140626,7.283161640167236,-0.19871874153614044,-0.912190854549408
1788680953804431600,10.662431640625,6.782773494720459,0.2082955539226532,-0.4644751250743866
1788680953820300800,10.67830078125,7.481880187988281,0.36152446269989014,-0.1843535304069519
1788680953836170000,10.694169921875,7.960720539093018,0.5985504388809204,-0.3734954595565796
1788680953852069600,10.710069580078125,8.236053466796875,0.7086837291717529,-0.7326257228851318
1788680953867969300,10.72596923828125,8.463502883911133,0.5267243981361389,-0.26815059781074524
1788680953883869000,10.741868896484375,8.506598472595215,0.31842881441116333,-0.026336219161748886
1788680953899768600,10.7577685546875,8.573636054992676,0.22266076505184174,-0.11971008777618408
1788680953915668200,10.773668212890625,8.820239067077637,0.24660277366638184,-0.5027823448181152
1788680953931567900,10.78956787109375,8.722076416015625,0.6703764796257019,-0.5746083855628967
1788680953947437000,10.80543701171875,8.370129585266113,1.1875240802764893,-0.40701428055763245
1788680953963306200,10.82130615234375,8.020575523376465,1.50355863571167,-0.20111294090747833
1788680953979236400,10.837236328125,8.030152320861816,1.5179238319396973,-0.26096799969673157
1788680953995105500,10.85310546875,8.389283180236816,1.2952631711959839,-0.4213795065879822
1788680954010974700,10.868974609375,8.935160636901855,1.0869675874710083,-0.5147533416748047
1788680954026874400,10.884874267578125,9.775525093078613,1.0103530883789062,-0.38067805767059326
1788680954042743600,10.90074365234375,10.278307914733887,1.2210428714752197,-0.17477671802043915
1788680954058582000,10.91658203125,10.225635528564453,1.4963760375976562,-0.09576806426048279
1788680954074512400,10.932512451171876,9.99100399017334,1.5658079385757446,-0.033518824726343155
1788680954090412000,10.948412109375,10.153809547424316,1.280897855758667,0.08140286058187485
1788680954106250500,10.96425048828125,10.991780281066895,0.790086567401886,0.07422025501728058
1788680954122150100,10.980150146484375,11.705251693725586,0.4836287498474121,0.038307227194309235
1788680954138019300,10.996019287109375,12.435483932495117,0.4357447028160095,0.090979665517807
1788680954153888500,11.011888427734375,12.78503704071045,0.8619126081466675,0.17238251864910126
1788680954169788200,11.0277880859375,12.394782066345215,1.381454348564148,0.4405331015586853
1788680954185718300,11.04371826171875,11.322179794311523,1.6112977266311646,0.6775590777397156
1788680954201587500,11.05958740234375,9.84495735168457,1.3096283674240112,0.7326257228851318
1788680954217456600,11.07545654296875,8.913613319396973,0.5506663918495178,0.8379706144332886
1788680954233325800,11.091325927734376,9.976638793945312,-0.7996633648872375,0.2753331959247589
1788680954249225500,11.1072255859375,12.792220115661621,-1.8818424940109253,-0.42856210470199585
1788680954265155600,11.123155517578125,15.485696792602539,-1.8291701078414917,-0.090979665517807
1788680954281024800,11.139024658203125,14.966155052185059,-1.2090718746185303,0.38307225704193115
1788680954296924400,11.15492431640625,11.597513198852539,-0.9289502501487732,0.363918662071228
1788680954312854500,11.1708544921875,8.20492935180664,-0.6751648783683777,0.22744916379451752
1788680954328693200,11.186693359375,5.947196960449219,-0.3519476354122162,0.31364041566848755
1788680954344562400,11.2025625,5.135562419891357,0.06703764945268631,0.15801730751991272
1788680954360462000,11.218462158203126,5.851428985595703,0.4572925269603729,-0.1604115068912506
1788680954376331000,11.2343310546875,7.161057472229004,0.6991068720817566,-0.3016694188117981
1788680954392231000,11.25023095703125,7.922413349151611,0.6631938815116882,-0.4118026793003082
1788680954408069400,11.2660693359375,7.850587368011475,0.4884171485900879,-0.5363011956214905
1788680954423969000,11.281968994140625,7.7213006019592285,0.35434186458587646,-0.44532153010368347
1788680954439838200,11.297838134765625,7.663839817047119,0.33039984107017517,-0.3926490843296051
1788680954455768300,11.313768310546875,7.90086555480957,0.3663128614425659,-0.5482721924781799
1788680954471698700,11.32969873046875,8.252813339233398,0.6177040338516235,-0.545877993106842
1788680954487598300,11.345598388671876,8.401253700256348,1.0223240852355957,-0.272938996553421
1788680954503467300,11.36146728515625,8.214506149291992,1.3958195447921753,-0.09816227108240128
1788680954519367000,11.377366943359375,7.987056732177734,1.5873557329177856,0.10534487664699554
1788680954535266600,11.3932666015625,8.128314971923828,1.4915876388549805,0.08379705995321274
1788680954551135700,11.4091357421875,8.801085472106934,1.1420341730117798,0.009576806798577309
1788680954567035400,11.425035400390625,10.08198356628418,0.8643068075180054,-0.26815059781074524
1788680954582904600,11.440904541015625,11.262324333190918,0.9840168952941895,-0.31124621629714966
1788680954598773800,11.456773681640625,11.81299114227295,1.2737152576446533,-0.05506663769483566
1788680954614643000,11.472642822265625,11.580753326416016,1.3407529592514038,0.13168109953403473
1788680954630573000,11.488572998046875,10.927136421203613,1.1540051698684692,0.016759412363171577
1788680954646472700,11.50447265625,11.21444034576416,0.8379706144332886,-0.07900865375995636
1788680954662311400,11.5203115234375,12.222399711608887,0.3926490843296051,-0.09816227108240128
1788680954678241500,11.536241455078125,13.352462768554688,0.13168109953403473,-0.14844051003456116
1788680954694110700,11.55211083984375,13.812150001525879,0.524330198764801,-0.05267243832349777
1788680954709980000,11.56797998046875,12.78503704071045,0.8547300100326538,-0.10534487664699554
1788680954725910000,11.583909912109375,11.5065336227417,0.7709329724311829,-0.10534487664699554
1788680954741809700,11.5998095703125,11.099518775939941,1.015141487121582,-0.181959331035614
1788680954757709300,11.615709228515625,11.839327812194824,0.5315127968788147,-0.38067805767059326
1788680954773609000,11.63160888671875,12.770671844482422,-0.7565677165985107,-0.33279404044151306
1788680954789539000,11.6475390625,12.641385078430176,-1.2832920551300049,-0.26575639843940735
1788680954805377800,11.663377685546875,11.384428977966309,-0.9672574996948242,-0.4596867263317108
1788680954821247000,11.6792470703125,9.57201862335205,-0.6177040338516235,-0.7637503147125244
1788680954837116200,11.6951162109375,7.807491779327393,-0.48602294921875,-1.0845733880996704
1788680954852985000,11.710985107421875,6.703764915466309,-0.13407529890537262,-1.1827356815338135
1788680954868915500,11.72691552734375,6.320692539215088,0.2777273952960968,-0.6344634294509888
1788680954884754000,11.74275390625,6.514622688293457,0.4381389021873474,-0.3208230137825012
1788680954900623000,11.758623046875,6.943184852600098,0.363918662071228,-0.17956513166427612
1788680954916522800,11.774522705078125,7.374141216278076,0.17956513166427612,-0.13407529890537262
1788680954932392000,11.790391845703125,7.8960771560668945,0.08858546614646912,-0.272938996553421
1788680954948322000,11.806322021484375,8.530540466308594,0.21547815203666687,-0.33279404044151306
1788680954964221700,11.8222216796875,9.124302864074707,0.5339069962501526,-0.08140286058187485
1788680954980091000,11.8380908203125,9.277531623840332,0.8906430602073669,0.33997663855552673
1788680954995960000,11.8539599609375,8.992621421813965,1.237802267074585,0.4692635238170624
1788680955011798800,11.869798828125,8.355764389038086,1.580173134803772,0.2106897532939911
1788680955027698400,11.885698486328126,8.125920295715332,1.8602946996688843,0.05985504388809204
1788680955043567400,11.9015673828125,8.310274124145508,2.1284453868865967,0.011971008032560349
1788680955059436500,11.9174365234375,9.136273384094238,2.2146365642547607,0.07661445438861847
1788680955075336200,11.933336181640625,10.292673110961914,2.0925323963165283,0.047884032130241394
1788680955091235800,11.94923583984375,11.688492774963379,1.8579005002975464,-0.15322890877723694
1788680955107105000,11.96510498046875,12.945448875427246,1.659181833267212,-0.3758896589279175
1788680955123004700,11.981004638671875,13.263877868652344,1.3958195447921753,-0.4405331015586853
1788680955138904300,11.996904296875,12.820950508117676,1.0342950820922852,-0.1412578970193863
1788680955154804000,12.012803955078125,12.20803451538086,0.849941611289978,-0.1149216815829277
1788680955170673200,12.028673095703125,11.870451927185059,0.6655880808830261,-0.27054479718208313
1788680955186603300,12.044603271484375,12.035652160644531,0.3758896589279175,-0.3926490843296051
1788680955202442000,12.06044189453125,12.828132629394531,0.4429273009300232,-0.42856210470199585
1788680955218311200,12.076311279296876,13.261483192443848,1.0821791887283325,-0.26575639843940735
1788680955234210800,12.0922109375,12.105083465576172,1.7310078144073486,0.7206547260284424
1788680955250110500,12.1081103515625,9.794678688049316,1.9704279899597168,1.213860273361206
1788680955266010000,12.124010009765625,7.886500358581543,1.6089035272598267,1.0965443849563599
1788680955281879300,12.13987939453125,7.47230339050293,0.7110779285430908,0.6607996821403503
1788680955297748500,12.15574853515625,9.5624418258667,-0.31842881441116333,0.42616790533065796
1788680955313648000,12.171648193359376,12.172121047973633,-0.8427590131759644,0.33279404044151306
1788680955329547800,12.1875478515625,12.902353286743164,-0.6871358752250671,0.1628057211637497
1788680955345447400,12.203447509765626,11.08994197845459,-0.47644615173339844,0.569819986820221
1788680955361286000,12.219285888671875,8.339004516601562,-0.2753331959247589,0.2801215946674347
1788680955377185500,12.235185546875,6.246472358703613,-0.090979665517807,-0.40222588181495667
1788680955393085200,12.251085205078125,5.762843608856201,0.0454898327589035,-0.6775590777397156
1788680955408924000,12.266923828125,6.818686485290527,0.17477671802043915,-0.8667010068893433
1788680955424793000,12.28279296875,8.101978302001953,0.3711012601852417,-0.993593692779541
1788680955440631600,12.298631591796875,8.437167167663574,0.3447650372982025,-0.8523358106613159
1788680955456470300,12.31447021484375,7.869740962982178,0.3232172429561615,-0.2801215946674347
1788680955472370000,12.330369873046875,6.9240312576293945,0.395043283700943,0.26336219906806946
1788680955488269600,12.34626953125,6.208165168762207,0.5195417404174805,0.08140286058187485
1788680955504169200,12.362169189453125,6.110002517700195,0.7230489253997803,-0.4405331015586853
1788680955520038400,12.378038330078125,6.629544734954834,0.9457096457481384,-0.9074024558067322
1788680955535907600,12.393907470703125,7.132327079772949,1.3623007535934448,-0.524330198764801
1788680955551807200,12.40980712890625,7.60637903213501,1.656787633895874,-0.05746084079146385
1788680955567707000,12.425706787109375,8.238448143005371,1.7573440074920654,-0.021547814831137657
1788680955583576000,12.441576171875,8.78193187713623,1.7884687185287476,-0.028730420395731926
1788680955599475700,12.457475830078126,9.832986831665039,1.6831238269805908,-0.009576806798577309
1788680955615345000,12.473344970703126,11.058817863464355,1.3958195447921753,0.05027823522686958
1788680955631183400,12.489183349609375,12.500126838684082,1.0462661981582642,0.1412578970193863
1788680955647022000,12.50502197265625,13.48414421081543,1.0319008827209473,-0.2106897532939911
1788680955662860500,12.520860595703125,14.00607967376709,1.359906554222107,-0.42377370595932007
1788680955678791000,12.536791015625,13.888764381408691,1.460463047027588,-0.20350714027881622
1788680955694721000,12.552720947265625,13.529633522033691,0.8403648138046265,0.2777273952960968
1788680955710590200,12.568590087890625,13.769054412841797,0.0071826050989329815,0.38307225704193115
1788680955726459400,12.58445947265625,14.5806884765625,-0.3711012601852417,0.016759412363171577
1788680955742359000,12.600359130859376,14.891934394836426,0.17477671802043915,-0.5650315880775452
1788680955758258700,12.6162587890625,13.88158130645752,1.2306196689605713,-1.0749965906143188
1788680955774127900,12.6321279296875,12.45463752746582,2.3319525718688965,-1.6136919260025024
1788680955789996800,12.647996826171875,11.159374237060547,2.2026655673980713,-0.4118026793003082
1788680955805866000,12.663865966796875,10.673351287841797,0.05985504388809204,0.16519992053508759
1788680955821765600,12.679765625,9.976638793945312,-1.3527239561080933,0.26336219906806946
1788680955837696000,12.695696044921876,9.255983352661133,-1.5298948287963867,-0.028730420395731926
1788680955853595600,12.711595703125,8.628703117370605,-1.1851298809051514,-1.161187767982483
1788680955869464600,12.727464599609375,8.20732307434082,-0.7948749661445618,-1.0606313943862915
1788680955885364200,12.7433642578125,7.053318023681641,-0.3016694188117981,-1.0797849893569946
1788680955901264000,12.759263916015625,6.701370716094971,0.016759412363171577,-0.9097966551780701
1788680955917133000,12.775133056640625,7.407660007476807,-0.05506663769483566,-0.7445967197418213
1788680955933002200,12.791002197265625,8.341399192810059,0.035913024097681046,-0.26815059781074524
1788680955948902000,12.80690185546875,8.597578048706055,0.33518823981285095,0.05506663769483566
1788680955964801500,12.822801513671875,8.212111473083496,0.2944868206977844,0.3974374830722809
1788680955980670700,12.838670654296875,8.034940719604492,0.15083470940589905,0.5147533416748047
1788680955996509400,12.854509521484376,8.391676902770996,0.27054479718208313,0.7158663272857666
1788680956012378400,12.87037841796875,8.729259490966797,0.47405192255973816,0.8882488012313843
1788680956028217000,12.886217041015625,8.71728801727295,0.5506663918495178,0.9361328482627869
1788680956044055800,12.902055908203126,8.578424453735352,0.6799532771110535,0.9600749015808105
1788680956059955500,12.91795556640625,8.501810073852539,0.9672574996948242,0.49799394607543945
1788680956075855000,12.933855224609376,8.614337921142578,1.1659762859344482,0.08379705995321274
1788680956091754800,12.949754638671875,9.074024200439453,1.2880805730819702,0.21547815203666687
1788680956107593200,12.96559326171875,9.428366661071777,1.4532804489135742,0.33039984107017517
1788680956123462400,12.98146240234375,9.32302188873291,1.41257905960083,0.31842881441116333
1788680956139362000,12.997362060546875,9.44991397857666,1.2258312702178955,0.06703764945268631
1788680956155231200,13.013231201171875,9.794678688049316,1.1300631761550903,-0.12689268589019775
1788680956171131000,13.029130859375,10.160991668701172,1.0845733880996704,0.2106897532939911
1788680956187061000,13.04506103515625,10.548852920532227,0.9433154463768005,0.42616790533065796
1788680956202961000,13.0609609375,11.264719009399414,0.6823474764823914,0.646434485912323
1788680956218860500,13.076860595703126,12.236764907836914,0.2298433631658554,0.7134721279144287
1788680956234760200,13.09276025390625,13.0914945602417,0.05506663769483566,0.38067805767059326
1788680956250659800,13.108659912109376,13.646949768066406,0.586579442024231,-0.016759412363171577
1788680956266559500,13.1245595703125,13.03403377532959,1.4077905416488647,0.4596867263317108
1788680956282428400,13.140428466796875,11.051634788513184,1.7908629179000854,1.094150185585022
1788680956298358800,13.15635888671875,9.272743225097656,1.721431016921997,1.3096283674240112
1788680956314197200,13.172197265625,8.307879447937012,1.0103530883789062,1.2545616626739502
1788680956330097000,13.188096923828125,9.466673851013184,-0.3998316824436188,0.9265560507774353
1788680956345935600,13.203935546875,12.923900604248047,-1.5466543436050415,0.22744916379451752
1788680956361774300,13.2197744140625,15.42823600769043,-1.721431016921997,0.1388636976480484
1788680956377643300,13.235643310546875,14.374787330627441,-1.6400281190872192,0.7469909191131592
1788680956393543200,13.251543212890626,11.068394660949707,-1.414973258972168,1.259350061416626
1788680956409442800,13.26744287109375,8.08043098449707,-1.0342950820922852,1.0534487962722778
1788680956425342500,13.283342529296876,6.313509941101074,-0.4405331015586853,0.3423708379268646
1788680956441211400,13.29921142578125,5.738901615142822,0.08379705995321274,0.033518824726343155
1788680956457080600,13.31508056640625,5.9304375648498535,0.48602294921875,-0.11013327538967133
1788680956472919300,13.330919189453125,6.110002517700195,0.6847416758537292,-0.10773907601833344
1788680956488819000,13.34681884765625,6.196194171905518,0.6224924325942993,-0.08619125932455063
1788680956504688000,13.362688232421876,6.404489517211914,0.42616790533065796,-0.12449848651885986
1788680956520557300,13.378557373046876,7.175422668457031,0.23702596127986908,-0.3687070608139038
1788680956536426200,13.39442626953125,7.94635534286499,0.2106897532939911,-0.7661445140838623
1788680956552326000,13.410325927734375,8.35097599029541,0.29209262132644653,-0.7948749661445618
1788680956568164600,13.42616455078125,8.504204750061035,0.5147533416748047,-0.6033388376235962
1788680956584033800,13.44203369140625,8.640673637390137,0.7158663272857666,-0.07422025501728058
1788680956599933400,13.457933349609375,9.059659004211426,1.3623007535934448,-0.08619125932455063
1788680956615863600,13.473863525390625,9.557653427124023,1.8770540952682495,-0.15083470940589905
1788680956631793700,13.489793701171875,9.607931137084961,2.008735179901123,0
1788680956647662800,13.505662841796875,9.825803756713867,1.7046716213226318,-0.023942016065120697
1788680956663562500,13.5215625,10.527304649353027,1.4197616577148438,-0.2322375625371933
1788680956679431700,13.537431640625,11.365275382995605,1.4484920501708984,-0.5841852426528931
1788680956695300900,13.55330078125,12.251130104064941,1.6735470294952393,-0.4644751250743866
1788680956711139600,13.5691396484375,12.145785331726074,1.678335428237915,-0.28730419278144836
1788680956727008500,13.585008544921875,11.441889762878418,1.3886369466781616,-0.35673606395721436
1788680956742847200,13.60084716796875,11.350910186767578,1.0342950820922852,-0.4620809257030487
1788680956758716400,13.61671630859375,11.66455078125,0.9074024558067322,-0.395043283700943
1788680956774616000,13.632615966796875,11.985373497009277,1.3503297567367554,-0.23942017555236816
1788680956790424000,13.648424072265625,11.798625946044922,2.051830768585205,-0.2059013396501541
1788680956806293200,13.664293212890625,11.587936401367188,2.5689783096313477,-0.43095630407333374
1788680956822162400,13.680162353515625,10.951078414916992,2.3032219409942627,0.16759411990642548
1788680956838031600,13.696031494140625,10.977415084838867,0.7948749661445618,0.7948749661445618
1788680956853900800,13.71190087890625,11.556811332702637,-1.0342950820922852,0.8451532125473022
1788680956869831000,13.727830810546875,11.54244613647461,-2.1763293743133545,-0.17717093229293823
1788680956885700000,13.7437001953125,11.104307174682617,-2.0231003761291504,-1.3455413579940796
1788680956901599700,13.759599853515626,10.357316970825195,-1.580173134803772,-1.7956513166427612
1788680956917438200,13.775438232421875,9.313444137573242,-1.194706678390503,-1.9512743949890137
1788680956933307400,13.791307373046875,8.738836288452148,-0.36152446269989014,-1.6304513216018677
1788680956949207000,13.80720703125,7.762001991271973,-0.16759411990642548,-0.20111294090747833
1788680956965076200,13.823076171875,6.6846113204956055,0.19632454216480255,0.08379705995321274
1788680956980945400,13.8389453125,6.382941722869873,0.33279404044151306,-0.1388636976480484
1788680956996875500,13.85487548828125,6.811503887176514,0.22744916379451752,-0.17238251864910126
1788680957012775200,13.870775146484375,7.773972988128662,0.20111294090747833,-0.33039984107017517
1788680957028614000,13.88661376953125,8.810662269592285,0.42616790533065796,-0.6560112833976746
1788680957044483000,13.902483154296876,9.524134635925293,0.751779317855835,-0.7613561153411865
1788680957060352000,13.91835205078125,9.794678688049316,0.9433154463768005,-0.14604631066322327
1788680957076190700,13.934190673828125,9.679757118225098,1.0654197931289673,0.6177040338516235
1788680957092060000,13.950059814453125,9.339780807495117,1.2521674633026123,0.4572925269603729
1788680957107959600,13.96595947265625,8.856152534484863,1.644816517829895,-0.1364694982767105
1788680957123798300,13.98179833984375,8.40843677520752,1.922544002532959,-0.19153612852096558
1788680957139698000,13.997697998046876,8.446743965148926,1.9991583824157715,0.08858546614646912
1788680957155566800,14.01356689453125,8.918401718139648,2.0254945755004883,0.15562310814857483
1788680957171466800,14.029466796875,9.909601211547852,1.944091796875,0.13168109953403473
1788680957187305200,14.04530517578125,11.231200218200684,1.802833914756775,0.2825157940387726
1788680957203174400,14.06117431640625,12.306197166442871,1.5059528350830078,0.17238251864910126
1788680957218982400,14.076982421875,12.574347496032715,1.1348515748977661,0.26336219906806946
1788680957234851600,14.0928515625,12.96460247039795,0.7972691655158997,0.08140286058187485
1788680957250751200,14.108751220703125,13.15853214263916,0.2753331959247589,-0.08379705995321274
1788680957266620400,14.124620361328125,13.570335388183594,-0.10295066982507706,-0.29209262132644653
1788680957282520000,14.14052001953125,14.245500564575195,0.304063618183136,-0.3016694188117981
1788680957298450200,14.1564501953125,14.346056938171387,1.1851298809051514,0.14604631066322327
1788680957314349800,14.172349853515625,12.966996192932129,1.45806884765625,0.8762778043746948
1788680957330249500,14.18824951171875,10.340557098388672,1.4891934394836426,1.3910311460494995
1788680957346149000,14.204149169921875,7.654263019561768,1.3742717504501343,1.3934253454208374
1788680957362049000,14.220049072265626,7.60637903213501,-0.043095629662275314,1.2617442607879639
1788680957377948700,14.23594873046875,9.974244117736816,-1.414973258972168,0.768538773059845
1788680957393817600,14.251817626953125,11.920730590820312,-1.6543933153152466,0.22266076505184174
1788680957409717200,14.26771728515625,11.856086730957031,-1.4317326545715332,0.38546648621559143
1788680957425617000,14.283616943359375,10.204087257385254,-0.9648633003234863,0.7134721279144287
1788680957441486000,14.299486083984375,8.396465301513672,-0.5003881454467773,0.4141969084739685
1788680957457447000,14.315447021484376,7.529764175415039,-0.0933738648891449,0.12449848651885986
1788680957473346600,14.3313466796875,7.5417351722717285,0.38067805767059326,-0.21787235140800476
1788680957489246200,14.34724609375,7.807491779327393,0.8236053586006165,-0.47884035110473633
1788680957505176300,14.36317626953125,7.69735860824585,1.1827356815338135,-0.586579442024231
1788680957521045500,14.37904541015625,7.38132381439209,1.292868971824646,-0.5267243981361389
1788680957536914700,14.394914794921876,7.134721279144287,1.094150185585022,-0.17238251864910126
1788680957552814300,14.410814453125,7.086836814880371,1.015141487121582,-0.05027823522686958
1788680957568714000,14.4267138671875,7.240066051483154,1.1300631761550903,-0.5386953949928284
1788680957584613600,14.442613525390625,7.687781810760498,1.4053963422775269,-1.0223240852355957
1788680957600513300,14.45851318359375,7.8529815673828125,1.7693150043487549,-0.7134721279144287
1788680957616382500,14.474382568359376,8.061277389526367,1.987187385559082,-0.363918662071228
1788680957632282000,14.4902822265625,8.288725852966309,2.049436569213867,-0.2585737705230713
1788680957648151300,14.5061513671875,8.2312650680542,2.097320795059204,-0.33518823981285095
1788680957664081400,14.522081298828125,8.506598472595215,2.073378562927246,-0.5434837937355042
1788680957679919900,14.537919921875,9.038111686706543,1.9105730056762695,-0.4596867263317108
1788680957695819800,14.55381982421875,9.57441234588623,1.7405846118927002,-0.181959331035614
1788680957711750000,14.56975,10.287884712219238,1.3862427473068237,-0.06464344263076782
1788680957727649500,14.5856494140625,11.444284439086914,1.1492167711257935,-0.0694318488240242
1788680957743518700,14.601518798828126,12.773066520690918,1.048660397529602,-0.2082955539226532
1788680957759387600,14.6173876953125,13.625401496887207,0.727837324142456,-0.2561795711517334
1788680957775226400,14.633226318359375,13.900734901428223,0.3734954595565796,-0.22026655077934265
1788680957791065000,14.649065185546876,13.907917976379395,0.6392518281936646,-0.38067805767059326
1788680957806934300,14.664934326171876,13.333309173583984,1.2976573705673218,-0.47405192255973816
1788680957822834000,14.680833984375,12.229581832885742,1.8722656965255737,-0.8379706144332886
1788680957838702800,14.696702880859375,11.077971458435059,2.499546527862549,-0.912190854549408
1788680957854602500,14.7126025390625,10.050858497619629,1.5658079385757446,-0.19632454216480255
1788680957870471700,14.7284716796875,9.701305389404297,-0.4644751250743866,-0.1628057211637497
1788680957886340900,14.7443408203125,9.873687744140625,-1.7597382068634033,-0.790086567401886
1788680957902179600,14.7601796875,10.852916717529297,-1.5969325304031372,-1.0534487962722778
1788680957918079200,14.776079345703126,11.111490249633789,-0.8164227604866028,-0.8427590131759644
1788680957933979000,14.791978759765625,9.955090522766113,-0.5171475410461426,-0.6943184733390808
1788680957949848000,14.80784814453125,8.398859977722168,-0.3064578175544739,-0.8858546018600464
1788680957965747700,14.823747802734376,7.618350028991699,-0.07661445438861847,-0.4812345504760742
1788680957981647400,14.8396474609375,7.659051418304443,0.12928688526153564,-0.24181437492370605
1788680957997516500,14.8555166015625,7.692570209503174,0.21787235140800476,-0.35913026332855225
1788680958013416200,14.871416259765626,7.999027729034424,0.3256114423274994,-0.2944868206977844
1788680958029315800,14.88731591796875,8.1139497756958,0.5003881454467773,0.9600749015808105
1788680958045215500,14.903215576171876,7.706935405731201,0.5937620401382446,1.039083480834961
1788680958061115100,14.919115234375,7.51779317855835,0.6799532771110535,0.26096799969673157
1788680958076984300,14.934984375,7.881711959838867,0.7852981686592102,-0.10055647045373917
1788680958092884000,14.950884033203126,8.307879447937012,0.8858546018600464,0.1628057211637497
1788680958108753000,14.9667529296875,8.609549522399902,1.2856862545013428,0.28730419278144836
1788680958124652500,14.982652587890625,8.71728801727295,1.6950948238372803,0.27054479718208313
1788680958140552400,14.998552490234376,8.825027465820312,1.7693150043487549,0.47405192255973816
1788680958156391000,15.014390869140625,9.114726066589355,1.6519991159439087,0.524330198764801
1788680958172290600,15.03029052734375,9.75637149810791,1.5610195398330688,0.08858546614646912
1788680958204059400,15.062059326171875,11.635820388793945,1.3263877630233765,-0.12928688526153564
1788680958219867400,15.077867431640625,11.872846603393555,1.1013327836990356,0.2322375625371933
1788680958235736600,15.093736572265625,11.461043357849121,0.9433154463768005,0.44771572947502136
1788680958251575300,15.1095751953125,11.197681427001953,0.48602294921875,0.4596867263317108
1788680958267475000,15.125474853515625,12.212822914123535,-0.15322890877723694,0.24660277366638184
1788680958283344100,15.14134423828125,13.87918758392334,-0.49559974670410156,-0.2944868206977844
1788680958299243800,15.157243896484376,14.827291488647461,0,-0.5051765441894531
1788680958315113000,15.173113037109376,13.548787117004395,0.9624691009521484,0.016759412363171577
1788680958331012600,15.1890126953125,10.505757331848145,1.3742717504501343,0.5315127968788147
1788680958346912300,15.204912353515626,7.879317760467529,1.7190368175506592,0.45010992884635925
1788680958362781400,15.220781494140626,6.485892295837402,2.2577321529388428,0.6416460275650024
1788680958378711600,15.236711669921876,8.62630844116211,0.871489405632019,1.1683704853057861
1788680958394580700,15.252580810546876,12.449849128723145,-1.173158884048462,0.4596867263317108
1788680958410480400,15.26848046875,14.9182710647583,-1.6735470294952393,-0.31603461503982544
1788680958426349600,15.284349609375,14.283807754516602,-1.3215993642807007,0.2513911724090576
1788680958442249200,15.300249267578126,10.737994194030762,-0.9720458984375,1.0414776802062988
1788680958458118100,15.3161181640625,6.766014099121094,-0.3711012601852417,0.9313444495201111
1788680958473987300,15.3319873046875,4.252102375030518,0.26336219906806946,0.6033388376235962
1788680958489887000,15.347886962890625,4.02465295791626,0.5602431893348694,-0.023942016065120697
1788680958505786600,15.36378662109375,6.165069580078125,0.667982280254364,-0.3974374830722809
1788680958521655800,15.37965576171875,8.473079681396484,0.6129156351089478,-0.6440402865409851
1788680958537586000,15.3955859375,9.749189376831055,0.49799394607543945,-0.3256114423274994
1788680958553516300,15.411516357421876,9.821015357971191,0.47644615173339844,0.06224924325942993
1788680958569416000,15.427416015625,8.98543930053711,0.569819986820221,-0.07900865375995636
1788680958585284900,15.443284912109375,8.092401504516602,0.629675030708313,-0.17717093229293823
1788680958601184800,15.459184814453126,7.568071365356445,0.7326257228851318,-0.08619125932455063
1788680958617023200,15.475023193359375,7.793126583099365,0.9145850539207458,-0.23702596127986908
1788680958632892400,15.490892333984375,8.226476669311523,1.1444283723831177,0.11971008777618408
1788680958648792000,15.5067919921875,8.62630844116211,1.2713210582733154,0.6248866319656372
1788680958664691700,15.522691650390625,8.990227699279785,1.213860273361206,0.6440402865409851
1788680958680591400,15.53859130859375,9.567230224609375,1.0103530883789062,0.38307225704193115
1788680958696491000,15.554490966796875,10.129867553710938,0.9720458984375,0.304063618183136
1788680958712390700,15.570390625,10.24000072479248,1.1899182796478271,0.23702596127986908
1788680958728229400,15.5862294921875,10.098742485046387,1.292868971824646,0.26575639843940735
1788680958744037400,15.602037353515625,10.192116737365723,1.0869675874710083,0.47405192255973816
1788680958759937000,15.61793701171875,11.140220642089844,0.6871358752250671,0.15801730751991272
1788680958775775700,15.633775634765625,12.29662036895752,0.36152446269989014,-0.05506663769483566
1788680958791675400,15.64967529296875,13.474567413330078,0.22505496442317963,-0.395043283700943
1788680958807544600,15.665544677734376,13.955801963806152,0.3280056416988373,-0.7996633648872375
1788680958823413800,15.681413818359376,13.160926818847656,0.7852981686592102,-0.7493851184844971
1788680958839252200,15.697252197265625,11.288661003112793,1.3551181554794312,-0.8786720037460327
1788680958855151900,15.71315185546875,9.428366661071777,1.6496049165725708,-0.8810662031173706
1788680958871021000,15.72902099609375,8.549694061279297,1.0821791887283325,-0.3447650372982025
1788680958886951200,15.744951171875,9.840168952941895,-0.6200982332229614,0.11971008777618408
1788680958902820400,15.7608203125,12.617443084716797,-2.293645143508911,-0.2322375625371933
1788680958918720000,15.776719970703125,15.023615837097168,-3.181894063949585,-0.23942017555236816
1788680958934589200,15.792589111328125,14.353239059448242,-2.2433669567108154,-0.608127236366272
1788680958950458400,15.808458251953125,11.343728065490723,-1.4389152526855469,-1.1779472827911377
1788680958966327600,15.82432763671875,7.405265808105469,-1.070208191871643,-1.0630255937576294
1788680958982227200,15.840227294921876,5.262455463409424,-0.6272808313369751,-0.5506663918495178
1788680958998126800,15.856126953125,5.489904403686523,-0.15801730751991272,-0.13168109953403473
1788680959021961000,15.8799609375,7.908048152923584,0.19871874153614044,-0.09576806426048279
1788680959037830100,15.895830078125,8.609549522399902,0.30885201692581177,-0.2992752194404602
1788680959053638100,15.91163818359375,8.525752067565918,0.15562310814857483,-0.15801730751991272
1788680959069476900,15.927476806640625,8.286332130432129,-0.10295066982507706,-0.17477671802043915
1788680959085376500,15.94337646484375,8.53293514251709,-0.15083470940589905,-0.4213795065879822
1788680959101276200,15.959276123046875,9.150638580322266,0.014365210197865963,-0.4189853072166443
1788680959117237000,15.975237060546876,9.409213066101074,0.31364041566848755,0.12928688526153564
1788680959133106000,15.99110595703125,9.074024200439453,0.7493851184844971,0.3998316824436188
1788680959148975000,16.00697509765625,8.56884765625,1.3551181554794312,0.26096799969673157
1788680959164813800,16.022813720703127,8.039729118347168,1.8195933103561401,0.23702596127986908
1788680959180652500,16.038652587890624,7.436390399932861,1.9345149993896484,0.45250412821769714
1788680959196552200,16.05455224609375,7.884106159210205,1.6927006244659424,0.6703764796257019
1788680959212482300,16.070482421875,9.715670585632324,1.314416766166687,0.35913026332855225
1788680959228382000,16.0863818359375,11.657367706298828,1.0965443849563599,0.004788403399288654
1788680959244281600,16.102281494140627,12.787431716918945,1.0630255937576294,0.011971008032560349
1788680959268085200,16.126085205078127,12.442666053771973,0.5937620401382446,0.31842881441116333
1788680959284015400,16.142015380859377,11.875240325927734,0.28730419278144836,0.45489832758903503
1788680959299945700,16.15794580078125,11.959037780761719,-0.05506663769483566,0.2777273952960968
1788680959315845400,16.173845458984374,12.773066520690918,-0.1412578970193863,-0.4644751250743866
1788680959331745000,16.1897451171875,13.491326332092285,0.6033388376235962,-0.7948749661445618
1788680959347614200,16.2056142578125,12.725181579589844,1.2689268589019775,-0.11013327538967133
1788680959363483100,16.221483154296877,10.613495826721191,0.8858546018600464,0.4620809257030487
1788680959379352300,16.237352294921877,8.987833023071289,-0.035913024097681046,0.12689268589019775
1788680959395282400,16.253282470703127,10.158597946166992,-1.192312479019165,-0.5913678407669067
1788680959411182000,16.26918212890625,13.455413818359375,-1.98958158493042,-0.8547300100326538
1788680959427051300,16.28505126953125,15.236700057983398,-1.8339585065841675,-0.7374141216278076
1788680959442951000,16.300950927734377,13.599065780639648,-1.5131354331970215,0.0694318488240242
1788680959458820000,16.316820068359377,9.828198432922363,-1.3862427473068237,0.31124621629714966
1788680959474719700,16.3327197265625,6.4164605140686035,-1.0869675874710083,-0.043095629662275314
1788680959490558500,16.348558349609377,4.6734819412231445,-0.40701428055763245,-0.09576806426048279
1788680959506458000,16.3644580078125,4.955997467041016,0.31124621629714966,0.272938996553421
1788680959522327300,16.380327392578124,6.701370716094971,0.5674257874488831,0.0933738648891449
1788680959538257400,16.39625732421875,7.9415669441223145,0.40940847992897034,-0.49799394607543945
1788680959554126600,16.412126708984374,8.487444877624512,0.33518823981285095,-0.5171475410461426
1788680959570056700,16.428056640625,8.793902397155762,0.28730419278144836,-0.15083470940589905
1788680959585926000,16.44392578125,9.011775016784668,0.28730419278144836,-0.3447650372982025
1788680959601825500,16.459825439453127,8.927978515625,0.4620809257030487,-0.8164227604866028
1788680959617694700,16.47569482421875,8.80587387084961,0.5961562395095825,-0.7015010714530945
1788680959633594400,16.491594482421874,8.453926086425781,0.586579442024231,-0.28969839215278625
1788680959649524500,16.5075244140625,8.02536392211914,0.8164227604866028,0.10295066982507706
1788680959665454600,16.52345458984375,7.647080421447754,1.2018892765045166,0.10773907601833344
1788680959681354200,16.539354248046877,7.565677165985107,1.4077905416488647,-0.1867477297782898
1788680959697223400,16.555223388671877,8.054094314575195,1.316810965538025,-0.11013327538967133
1788680959713123000,16.571123046875,8.87291145324707,1.1180921792984009,0.19871874153614044
1788680959729053200,16.58705322265625,9.895236015319824,0.8738836050033569,0.19153612852096558
1788680959744983600,16.602983642578124,11.116278648376465,0.6536170840263367,0.13407529890537262
1788680959760852700,16.618852783203124,11.939884185791016,0.6033388376235962,0.2777273952960968
1788680959776782800,16.634782958984374,11.767500877380371,0.6536170840263367,0.4908113479614258
1788680959792682500,16.6506826171875,11.461043357849121,0.35913026332855225,0.3878606855869293
1788680959808612600,16.666612548828127,11.70046329498291,0.10055647045373917,0.11971008777618408
1788680959824512300,16.68251220703125,12.739546775817871,0.1604115068912506,0.1412578970193863
1788680959840412000,16.698411865234377,13.488932609558105,0.42377370595932007,0.1628057211637497
1788680959856281000,16.714281005859377,13.184868812561035,1.1252747774124146,0.07661445438861847
1788680959872180700,16.7301806640625,11.750741958618164,1.6424223184585571,-0.395043283700943
1788680959888080400,16.746080322265627,10.053253173828125,1.9512743949890137,-0.8690952062606812
1788680959903949600,16.761949462890627,8.973467826843262,1.7405846118927002,-0.2992752194404602
1788680959919788300,16.777788330078124,9.643844604492188,0.035913024097681046,0.08619125932455063
1788680959935688000,16.79368798828125,12.600683212280273,-1.6160861253738403,-0.07900865375995636
1788680959951587600,16.809587646484374,15.057134628295898,-2.434903144836426,-0.49320554733276367
1788680959967426000,16.825426025390627,15.078681945800781,-2.0877439975738525,-0.6727706789970398
1788680959983325700,16.84132568359375,12.246341705322266,-1.3766659498214722,-0.727837324142456
1788680959999255800,16.857255859375,8.774748802185059,-0.828393816947937,-0.9026140570640564
1788680960015155700,16.87315576171875,6.490680694580078,-0.05506663769483566,-0.9457096457481384
1788680960031024600,16.889024658203127,5.439626216888428,0.6823474764823914,-0.9648633003234863
1788680960046955000,16.904955078125,5.434837818145752,1.1563993692398071,-0.8906430602073669
1788680960062824000,16.920823974609377,5.796362400054932,1.2497732639312744,-0.6440402865409851
1788680960078723600,16.9367236328125,6.1985883712768555,0.9720458984375,-0.3232172429561615
1788680960094592800,16.9525927734375,6.9695210456848145,0.7781155705451965,-0.304063618183136
1788680960126361600,16.984361572265627,9.148244857788086,0.7230489253997803,-0.4118026793003082
1788680960142230800,17.000230712890627,9.552865028381348,0.7733271718025208,0.019153613597154617
1788680960158130400,17.01613037109375,9.181763648986816,0.9457096457481384,-0.1173158809542656
1788680960174030000,17.032030029296877,8.544905662536621,1.280897855758667,-0.3280056416988373
1788680960189899300,17.047899169921877,8.169015884399414,1.623268723487854,-0.19153612852096558
1788680960205799000,17.063798828125,8.2312650680542,2.006340980529785,0.22744916379451752
1788680960221637600,17.0796376953125,8.310274124145508,2.185906171798706,0.36152446269989014
1788680960237567700,17.095567626953127,8.40843677520752,2.0374655723571777,0.5434837937355042
1788680960253437000,17.11143701171875,8.877699851989746,1.8770540952682495,0.629675030708313
1788680960269336600,17.127336669921874,9.332598686218262,1.8339585065841675,0.6033388376235962
1788680960285266700,17.1432666015625,9.830592155456543,1.5490485429763794,0.05267243832349777
1788680960301105400,17.15910546875,10.852916717529297,1.0007762908935547,-0.14844051003456116
1788680960317005000,17.175005126953124,12.509703636169434,0.6536170840263367,-0.028730420395731926
1788680960332874000,17.1908740234375,13.675680160522461,0.6847416758537292,0.18914192914962769
1788680960348773600,17.206773681640627,13.48414421081543,0.5937620401382446,0.47165772318840027
1788680960364612400,17.2226123046875,12.806585311889648,0.5123591423034668,0.14365209639072418
1788680960380512000,17.238511962890627,12.217611312866211,1.0462661981582642,0.15322890877723694
1788680960396411600,17.25441162109375,10.730812072753906,1.3646949529647827,1.0247182846069336
1788680960412280800,17.27028076171875,9.334992408752441,0.9313444495201111,1.3934253454208374
1788680960428180500,17.286180419921877,9.684545516967773,0.524330198764801,0.6775590777397156
1788680960444080000,17.302080078125,12.090718269348145,-0.5746083855628967,0.06224924325942993
1788680960459949300,17.31794921875,15.014039039611816,-1.922544002532959,-0.047884032130241394
1788680960475788000,17.3337880859375,16.790536880493164,-2.5091233253479004,0.13168109953403473
1788680960491718100,17.34971826171875,15.083470344543457,-2.099714994430542,0.4357447028160095
1788680960507617800,17.36561767578125,11.26950740814209,-1.4389152526855469,0.5291185975074768
1788680960523456300,17.381456298828127,7.783549785614014,-0.8212111592292786,0.304063618183136
1788680960539325400,17.397325439453127,5.351040840148926,-0.19871874153614044,0.1412578970193863
1788680960555286300,17.413286376953124,4.2975921630859375,0.2298433631658554,0.21547815203666687
1788680960571155500,17.429155517578124,5.30076265335083,0.3423708379268646,0.10055647045373917
1788680960587085600,17.44508544921875,7.38132381439209,0.4189853072166443,-0.6560112833976746
1788680960602985200,17.460985107421877,8.647856712341309,0.3902548849582672,-0.4692635238170624
1788680960618854400,17.4768544921875,9.016563415527344,0.33039984107017517,-0.07182604819536209
1788680960634692900,17.49269287109375,8.7484130859375,0.3519476354122162,0.023942016065120697
1788680960650592500,17.508592529296877,8.22887134552002,0.3663128614425659,-0.2322375625371933
1788680960666492200,17.5244921875,7.90086555480957,0.524330198764801,-0.4165911078453064
1788680960682391800,17.540391845703127,7.448361396789551,0.8164227604866028,-0.19393034279346466
1788680960698261000,17.556260986328127,6.799532890319824,1.290474772453308,0.15083470940589905
1788680960714130200,17.572130126953127,6.469132900238037,1.7525556087493896,0.47165772318840027
1788680960729999400,17.587999267578127,6.8809356689453125,1.7908629179000854,0.4189853072166443
1788680960745807400,17.603807373046877,8.094796180725098,1.6615760326385498,-0.22744916379451752
1788680960761737700,17.61973779296875,9.394847869873047,1.5490485429763794,-0.7110779285430908
1788680960777667800,17.635667724609377,10.42195987701416,1.45806884765625,-0.5913678407669067
1788680960793537000,17.651537109375,11.085153579711914,1.3024457693099976,0.07422025501728058
1788680960809406200,17.66740625,11.587936401367188,1.05105459690094,0.38307225704193115
1788680960825275100,17.683275146484377,12.205639839172363,0.790086567401886,-0.20350714027881622
1788680960841174800,17.6991748046875,12.689269065856934,0.7445967197418213,-0.7374141216278076
1788680960857074400,17.715074462890627,12.866439819335938,0.790086567401886,-0.47884035110473633
1788680960872943600,17.730943603515627,13.069947242736816,0.3711012601852417,0.0933738648891449
1788680960888843300,17.74684326171875,13.498509407043457,-0.19153612852096558,0.4572925269603729
1788680960904712400,17.76271240234375,13.512874603271484,0.0454898327589035,0.42616790533065796
1788680960920612000,17.778612060546877,12.550405502319336,0.5913678407669067,0.11013327538967133
1788680960936481300,17.794481201171877,11.312602996826172,0.9217676520347595,-0.26336219906806946
1788680960952381000,17.810380859375,10.60152530670166,1.4460978507995605,-0.5985504388809204
1788680960968280600,17.826280517578127,10.60391902923584,1.1180921792984009,-0.6919242739677429
1788680960984149800,17.842149658203127,11.099518775939941,-0.1364694982767105,-0.45010992884635925
1788680961000080000,17.858079833984377,10.915165901184082,-0.9792284965515137,-0.7493851184844971
1788680961015979500,17.8739794921875,10.338163375854492,-1.1899182796478271,-1.1037269830703735
1788680961031848700,17.8898486328125,9.59596061706543,-1.2018892765045166,-1.3431471586227417
1788680961047778800,17.90577880859375,8.798690795898438,-0.9361328482627869,-1.3335703611373901
1788680961063678500,17.921678466796877,8.396465301513672,-0.31124621629714966,-0.7972691655158997
1788680961079578000,17.937578125,8.362946510314941,0.40940847992897034,-0.6224924325942993
1788680961095447300,17.953447265625,7.661445617675781,0.8188169598579407,-0.569819986820221
1788680961111316500,17.96931640625,6.782773494720459,0.8786720037460327,-0.6560112833976746
1788680961127216000,17.985216064453127,6.615179061889648,0.7924807667732239,-0.545877993106842
1788680961143085300,18.001085205078127,7.331045627593994,0.49320554733276367,-0.26815059781074524
1788680961158985000,18.01698486328125,8.607154846191406,0.3711012601852417,0.1149216815829277
1788680961174854100,18.032854248046874,9.2033109664917,0.4836287498474121,0.28969839215278625
1788680961190692600,18.048692626953127,8.925583839416504,0.6991068720817566,0.15562310814857483
1788680961206592300,18.06459228515625,8.094796180725098,0.9624691009521484,-0.011971008032560349
1788680961222461400,18.08046142578125,7.55131196975708,1.1516109704971313,-0.17717093229293823
1788680961238330600,18.09633056640625,7.65186882019043,1.414973258972168,-0.1628057211637497
1788680961254199800,18.11219970703125,7.915230751037598,1.647210717201233,0.06703764945268631
1788680961270069000,18.128069091796874,8.640673637390137,1.558625340461731,-0.009576806798577309
1788680961285968600,18.14396875,9.47146224975586,1.4269442558288574,-0.19153612852096558
1788680961301807000,18.15980712890625,10.398017883300781,1.3096283674240112,-0.5099649429321289
1788680961317737500,18.175737548828124,11.224017143249512,1.3479355573654175,-0.5985504388809204
1788680961333576000,18.191575927734377,11.45146656036377,1.4389152526855469,-0.17956513166427612
1788680961349475600,18.2074755859375,11.537657737731934,1.280897855758667,0.2298433631658554
1788680961365375200,18.223375244140627,11.815385818481445,0.9409212470054626,0.2849099934101105
1788680961381275000,18.23927490234375,11.994950294494629,0.7326257228851318,0.035913024097681046
1788680961397205200,18.255205322265624,12.361263275146484,0.24899697303771973,0.090979665517807
1788680961413105000,18.27110498046875,12.502521514892578,0.06224924325942993,-0.3902548849582672
1788680961428974000,18.28697412109375,12.370840072631836,0.912190854549408,-0.5985504388809204
1788680961444873700,18.302873779296874,11.197681427001953,1.7190368175506592,0.4908113479614258
1788680961460742700,18.31874267578125,9.495404243469238,1.6927006244659424,1.2066776752471924
1788680961476673000,18.334673095703124,8.346187591552734,1.3766659498214722,1.3886369466781616
1788680961492542000,18.3505419921875,9.157821655273438,0.16759411990642548,1.3431471586227417
1788680961508441600,18.366441650390627,12.933477401733398,-2.1308395862579346,0.4908113479614258
1788680961524341500,18.382341552734374,16.749835968017578,-3.622427225112915,-0.6224924325942993
1788680961540241200,18.3982412109375,17.310077667236328,-3.3231520652770996,-0.5434837937355042
1788680961556110000,18.414110107421877,13.814543724060059,-2.2385785579681396,0.2753331959247589
1788680961571979300,18.429979248046877,9.071630477905273,-1.400607943534851,0.524330198764801
1788680961587848400,18.445848388671877,5.157110691070557,-0.5291185975074768,0.3974374830722809
1788680961603778600,18.461778564453127,3.665522813796997,0.33279404044151306,-0.002394201699644327
1788680961619709000,18.477708984375,4.757278919219971,0.9289502501487732,-0.27054479718208313
1788680961635639000,18.49363916015625,6.950367450714111,1.2258312702178955,-0.5937620401382446
1788680961651508200,18.50950830078125,8.346187591552734,1.1803414821624756,-0.5793967843055725
1788680961667408000,18.525407958984374,8.925583839416504,0.9169792532920837,-0.2585737705230713
1788680961683277000,18.541277099609374,8.62391471862793,0.6488286852836609,-0.23942017555236816
1788680961699207200,18.557207275390624,8.35336971282959,0.5482721924781799,-0.3974374830722809
1788680961715045600,18.573045654296877,8.018181800842285,0.6200982332229614,-0.6871358752250671
1788680961730945300,18.5889453125,7.568071365356445,0.9193734526634216,-0.5961562395095825
1788680961746784000,18.604783935546877,7.194576263427734,1.335964560508728,-0.6392518281936646
1788680961762683600,18.62068359375,7.117961883544922,1.6927006244659424,-0.8619126081466675
1788680961778583300,18.636583251953127,7.479485988616943,1.824381709098816,-0.7709329724311829
1788680961794422000,18.652422119140624,8.219294548034668,1.6519991159439087,-0.6488286852836609
1788680961810321700,18.66832177734375,9.339780807495117,1.522712230682373,-0.5650315880775452
1788680961826221300,18.68422119140625,10.077195167541504,1.577778935432434,-0.2825157940387726
1788680961842151400,18.7001513671875,10.436325073242188,1.5298948287963867,-0.22505496442317963
1788680961858020600,18.7160205078125,10.381258964538574,1.5322890281677246,-0.33039984107017517
1788680961873950700,18.73195068359375,10.299856185913086,1.5394717454910278,-0.24181437492370605
1788680961889850400,18.747850341796877,10.742782592773438,1.3670891523361206,-0.11013327538967133
1788680961905750000,18.76375,11.796232223510742,0.933738648891449,0
1788680961921619200,18.779619140625,13.163320541381836,0.3998316824436188,0.20111294090747833
1788680961937518800,18.795518798828127,14.499285697937012,-0.014365210197865963,0.35434186458587646
1788680961953388000,18.811387939453127,14.676456451416016,0.4908113479614258,0.2346317619085312
1788680961969318100,18.827318115234377,12.90714168548584,1.213860273361206,-0.10534487664699554
1788680961985217800,18.8432177734375,10.690110206604004,1.5873557329177856,-0.7876923680305481
1788680962001117400,18.859117431640627,9.404424667358398,2.0470423698425293,-0.9816226959228516
1788680962017017000,18.87501708984375,9.775525093078613,1.556231141090393,0.023942016065120697
1788680962032886300,18.89088623046875,12.382811546325684,-0.849941611289978,0.3663128614425659
1788680962048786000,18.906785888671877,13.979743957519531,-2.233790159225464,0.08858546614646912
1788680962064716000,18.922716064453127,13.637372970581055,-2.145204782485962,-0.31364041566848755
1788680962080615700,18.93861572265625,11.432312965393066,-1.5705963373184204,-0.3280056416988373
1788680962096484900,18.95448486328125,8.892065048217773,-1.213860273361206,-0.47644615173339844
1788680962112384500,18.970384521484377,6.9695210456848145,-0.5003881454467773,-0.45489832758903503
1788680962128253700,18.986253662109377,6.5696892738342285,0.14604631066322327,-0.1388636976480484
1788680962144123000,19.002122802734377,7.292738437652588,0.2346317619085312,0.23702596127986908
1788680962159961600,19.017961669921874,8.185775756835938,0.011971008032560349,0.17238251864910126
1788680962175861200,19.033861328125,8.710105895996094,-0.06224924325942993,-0.09816227108240128
1788680962191761000,19.049760986328124,8.904036521911621,0.07422025501728058,-0.2585737705230713
1788680962207660500,19.06566064453125,8.554482460021973,0.2801215946674347,-0.2561795711517334
1788680962223499000,19.0814990234375,8.066065788269043,0.5937620401382446,-0.17956513166427612
1788680962239398700,19.097398681640627,7.501033782958984,0.9289502501487732,-0.17717093229293823
1788680962255298300,19.11329833984375,6.734889507293701,1.3287819623947144,-0.31603461503982544
1788680962271137000,19.129136962890627,6.066906929016113,1.764526605606079,-0.3016694188117981
1788680962287006200,19.145006103515627,6.347028732299805,1.867477297782898,-0.3687070608139038
1788680962302875400,19.16087548828125,7.127538681030273,1.9488801956176758,-0.6033388376235962
1788680962318744600,19.17674462890625,6.375759124755859,1.6160861253738403,-0.1412578970193863
1788680962334674700,19.1926748046875,7.63989782333374,1.9297266006469727,0.12449848651885986
1788680962350574300,19.20857421875,9.433155059814453,1.7884687185287476,-0.5913678407669067
1788680962366412800,19.224412841796877,9.560047149658203,1.2761094570159912,-0.5171475410461426
1788680962382251500,19.24025146484375,10.074800491333008,1.1492167711257935,-0.790086567401886
1788680962406050600,19.264050537109377,11.149797439575195,0.8044517636299133,-0.706289529800415
1788680962421950200,19.2799501953125,13.002909660339355,0.5817909836769104,-0.2106897532939911
1788680962437819400,19.2958193359375,14.7387056350708,0.5985504388809204,-0.4884171485900879
1788680962453719000,19.311718994140627,16.09861183166504,0.23702596127986908,-1.0462661981582642
1788680962469649200,19.327649169921877,15.670049667358398,0.5410895943641663,-1.3694833517074585
1788680962485518300,19.343518310546877,13.062764167785645,1.4724340438842773,-0.727837324142456
1788680962501357000,19.359357177734374,10.333374977111816,1.678335428237915,0.26575639843940735
1788680962517256700,19.375256591796877,8.394071578979492,1.601720929145813,0.9911994934082031
1788680962533156400,19.39115625,8.681375503540039,1.2497732639312744,0.9193734526634216
1788680962549056000,19.407055908203127,13.321338653564453,-0.790086567401886,0.2322375625371933
1788680962572920600,19.430920654296877,19.108123779296875,-2.999934673309326,-0.9193734526634216
1788680962588759300,19.44675927734375,17.231069564819336,-2.7964274883270264,-0.07182604819536209
1788680962604598000,19.462597900390627,11.51850414276123,-2.094926595687866,0.545877993106842
1788680962628462600,19.486462646484377,4.8602294921875,-0.7613561153411865,0.5578489899635315
1788680962644393000,19.50239306640625,3.4739866256713867,0.3711012601852417,0.5291185975074768
1788680962660231400,19.5182314453125,3.9839515686035156,1.1516109704971313,0.38546648621559143
1788680962676100600,19.5341005859375,5.638344764709473,1.414973258972168,0.05506663769483566
1788680962692000300,19.550000244140627,7.668628215789795,1.237802267074585,-0.44532153010368347
1788680962707900000,19.56589990234375,9.35654067993164,0.7589619159698486,-0.24899697303771973
1788680962723769000,19.58176904296875,10.223240852355957,0.33997663855552673,-0.22505496442317963
1788680962739668700,19.597668701171877,10.271124839782715,0.12689268589019775,-0.2944868206977844
1788680962755507500,19.613507568359374,9.742006301879883,0.363918662071228,-0.33518823981285095
1788680962771407000,19.629406982421877,8.798690795898438,0.9744400978088379,-0.42616790533065796
1788680962787306800,19.645306640625,7.321468830108643,1.6304513216018677,-0.28730419278144836
1788680962803175700,19.66117578125,5.990292549133301,1.9632453918457031,-0.031124621629714966
1788680962819075300,19.677075439453127,5.719748020172119,2.054224967956543,0.18914192914962769
1788680962834944500,19.692944580078127,7.046135425567627,1.965639591217041,0.1628057211637497
1788680962850783200,19.708783203125,8.62630844116211,1.8267759084701538,0.011971008032560349
1788680962866683000,19.724682861328127,10.273519515991211,1.5634137392044067,0.021547814831137657
1788680962882582500,19.74058251953125,11.195286750793457,1.3862427473068237,-0.06224924325942993
1788680962898421200,19.756421142578127,11.049241065979004,1.314416766166687,-0.33039984107017517
1788680962914229200,19.772229248046877,10.757147789001465,1.3096283674240112,-0.3495534360408783
1788680962930129000,19.78812890625,10.951078414916992,1.3694833517074585,-0.2777273952960968
1788680962946028500,19.804028564453127,11.221623420715332,1.5394717454910278,-0.42856210470199585
1788680962961928200,19.81992822265625,11.27190113067627,1.3431471586227417,-0.1628057211637497
1788680962977827800,19.835827880859377,11.853693008422852,0.768538773059845,-0.2513911724090576
1788680962993758000,19.851758056640627,12.806585311889648,0.26096799969673157,-0.6655880808830261
1788680963009657600,19.86765771484375,13.795390129089355,0.507570743560791,-0.8954314589500427
1788680963025526800,19.88352685546875,13.060370445251465,1.2114660739898682,-0.8427590131759644
1788680963041426400,19.899426513671877,10.613495826721191,1.659181833267212,-0.8571242094039917
1788680963057295600,19.915295654296877,8.437167167663574,2.1068975925445557,-0.689530074596405
1788680963073195300,19.9311953125,7.975085735321045,1.1994950771331787,-0.14604631066322327
1788680963089064400,19.947064453125,10.606313705444336,-0.9576807022094727,-0.1173158809542656
1788680963104964000,19.962964111328127,13.905523300170898,-2.1356279850006104,-0.43335050344467163
1788680963120833300,19.978833251953127,14.585476875305176,-1.9512743949890137,-0.6967126727104187
1788680963136641300,19.994641357421877,12.023680686950684,-1.1420341730117798,-0.6943184733390808
1788680963152480000,20.01047998046875,8.494627952575684,-0.5363011956214905,-0.6033388376235962
1788680963168349200,20.02634912109375,5.858611583709717,0.06703764945268631,-0.727837324142456
1788680963184248800,20.042248779296877,4.970362663269043,0.768538773059845,-0.7350199222564697
1788680963200118000,20.058117919921877,5.552153587341309,1.1276689767837524,-0.35913026332855225
1788680963216017700,20.074017578125,6.799532890319824,0.8020575642585754,-0.05027823522686958
1788680963231917300,20.089917236328127,7.903259754180908,0.33518823981285095,0.002394201699644327
1788680963247817000,20.10581689453125,9.02135181427002,0.06703764945268631,-0.12449848651885986
1788680963263716600,20.121716552734377,9.648633003234863,0.12210428714752197,-0.2346317619085312
1788680963279555000,20.13755517578125,9.624691009521484,0.272938996553421,-0.33997663855552673
1788680963295485400,20.1534853515625,8.89685344696045,0.4692635238170624,-0.1604115068912506
1788680963311324000,20.169323974609377,7.747636795043945,0.8140285611152649,0.13407529890537262
1788680963327254300,20.185254150390627,7.134721279144287,1.235408067703247,0.07900865375995636
1788680963343154000,20.20115380859375,7.55131196975708,1.5897499322891235,-0.16759411990642548
1788680963359022800,20.21702294921875,8.070854187011719,1.8626888990402222,0.08619125932455063
1788680963374892000,20.23289208984375,8.449137687683105,2.142810583114624,0.20111294090747833
1788680963390791700,20.248791748046877,8.652645111083984,2.2912509441375732,0.05985504388809204
1788680963406691300,20.26469140625,8.844181060791016,2.1332337856292725,0.1388636976480484
1788680963422591000,20.280591064453127,9.813833236694336,1.7573440074920654,0.16759411990642548
1788680963438490600,20.29649072265625,11.106701850891113,1.6519991159439087,-0.08858546614646912
1788680963454329300,20.312329345703127,12.083536148071289,1.6280571222305298,-0.09576806426048279
1788680963470198500,20.328198486328127,12.60547161102295,1.4532804489135742,-0.23702596127986908
1788680963486037000,20.344037109375,12.816162109375,1.113303780555725,-0.3208230137825012
1788680963501845200,20.35984521484375,12.734758377075195,0.790086567401886,-0.29209262132644653
1788680963517714400,20.37571435546875,12.49055004119873,0.4213795065879822,-0.026336219161748886
