time,seconds_elapsed,z,y,x
1787816914598961200,0.131961181640625,-0.005593299865722656,-0.02141094207763672,-0.0005080997943878174
1787816914614996200,0.147996337890625,-0.024164438247680664,-0.0017690658569335938,-0.023180097341537476
1787816914631113500,0.164113525390625,-0.06801605224609375,-0.016695022583007812,-0.01192481815814972
1787816914647147000,0.18014697265625,0.05079793930053711,0.01810169219970703,-0.04364274442195892
1787816914663176400,0.196176513671875,0.12640118598937988,0.032883644104003906,-0.059635549783706665
1787816914679270400,0.2122705078125,0.17308712005615234,0.05126380920410156,-0.00484977662563324
1787816914695257300,0.22825732421875,0.16434192657470703,0.057353973388671875,0.05577772855758667
1787816914711383600,0.244383544921875,0.025292158126831055,0.096099853515625,0.07907705008983612
1787816914727419100,0.260419189453125,-0.04906272888183594,0.10404586791992188,0.023559734225273132
1787816914743455500,0.27645556640625,-0.04883217811584473,0.08560657501220703,-0.016261398792266846
1787816914759558000,0.292557861328125,0.10374331474304199,0.09485912322998047,-0.10853314399719238
1787816914775556000,0.30855615234375,0.16717314720153809,0.11533832550048828,-0.12319763004779816
1787816914791694600,0.324694580078125,0.15872693061828613,0.12266063690185547,-0.04572568088769913
1787816914807751400,0.34075146484375,0.05509495735168457,0.08056068420410156,0.006426826119422913
1787816914823806200,0.35680615234375,-0.019287586212158203,0.08475112915039062,0.03432808816432953
1787816914839926500,0.372926513671875,-0.08988690376281738,0.07205390930175781,0.031489938497543335
1787816914855885600,0.388885498046875,-0.08607816696166992,0.06472110748291016,0.019827857613563538
1787816914871981800,0.40498193359375,-0.041020870208740234,0.025821685791015625,-0.01144815981388092
1787816914887991600,0.420991455078125,0.06286096572875977,0.07885265350341797,-0.019354969263076782
1787816914904003300,0.43700341796875,0.07314538955688477,0.045757293701171875,0.008420035243034363
1787816914920086000,0.4530859375,0.06939578056335449,0.06285285949707031,0.007484808564186096
1787816914936050700,0.46905078125,0.04750418663024902,0.07488155364990234,0.002240777015686035
1787816914952163000,0.4851630859375,0.02404952049255371,0.06514930725097656,0.030049100518226624
1787816914968187600,0.501187744140625,0.02713918685913086,0.03860187530517578,0.005298107862472534
1787816914984213800,0.5172138671875,0.018497943878173828,0.045495033264160156,-0.032936349511146545
1787816915000297500,0.53329736328125,-0.07395195960998535,0.038041114807128906,-0.012107491493225098
1787816915016272100,0.549272216796875,-0.061675071716308594,0.0499114990234375,-0.05166647583246231
1787816915032391700,0.5653916015625,0.021087646484375,0.047779083251953125,-0.04845979064702988
1787816915048425700,0.58142578125,0.043897390365600586,0.05525970458984375,-0.0626244992017746
1787816915064461800,0.5974619140625,0.014339923858642578,0.02915191650390625,-0.019963756203651428
1787816915080547600,0.613547607421875,-0.0004961490631103516,0.048450469970703125,0.012209489941596985
1787816915096540400,0.62954052734375,-0.05069327354431152,0.048453330993652344,0.032360002398490906
1787816915112671500,0.64567138671875,-0.06833314895629883,0.055878639221191406,0.043662622570991516
1787816915128720100,0.66172021484375,0.02484416961669922,0.0972585678100586,-0.01301613450050354
1787816915144758500,0.677758544921875,0.022292613983154297,0.07397651672363281,-0.04523877799510956
1787816915160842200,0.69384228515625,0.048899173736572266,0.08410167694091797,-0.10877513885498047
1787816915176846800,0.709846923828125,0.06828451156616211,0.08945655822753906,-0.009881928563117981
1787816915192989700,0.72598974609375,0.12972784042358398,0.04482078552246094,-0.079203300178051
1787816915208996600,0.74199658203125,0.11429715156555176,0.05291938781738281,-0.07380466163158417
1787816915225051400,0.758051513671875,0.07564163208007812,0.010573387145996094,-0.060300156474113464
1787816915241175300,0.77417529296875,-0.019284725189208984,0.01343536376953125,0.0322837233543396
1787816915257137200,0.79013720703125,-0.0869598388671875,-0.03660106658935547,0.08548691868782043
1787816915273237800,0.80623779296875,-0.12357425689697266,-0.014840126037597656,0.028961598873138428
1787816915289251800,0.822251953125,-0.08272767066955566,0.014486312866210938,-0.04715747386217117
1787816915305263900,0.838263916015625,-0.04869985580444336,0.018029212951660156,-0.04213380068540573
1787816915321394200,0.854394287109375,0.014514684677124023,-0.00421142578125,-0.041192129254341125
1787816915337365000,0.870364990234375,0.020618915557861328,-0.00258636474609375,0.030791744589805603
1787816915353480200,0.886480224609375,-0.062018632888793945,0.06306648254394531,-0.01862490177154541
1787816915369506000,0.902506103515625,-0.08918309211730957,0.0974578857421875,-0.06163198500871658
1787816915385532200,0.9185322265625,-0.07198429107666016,0.11060905456542969,-0.06627834588289261
1787816915401622500,0.93462255859375,0.09804558753967285,0.1478099822998047,-0.12347234785556793
1787816915417599200,0.95059912109375,0.134566068649292,0.13220691680908203,-0.04772738367319107
1787816915433711600,0.966711669921875,0.09658026695251465,0.17830657958984375,0.01674187183380127
1787816915449738800,0.98273876953125,-0.039556264877319336,0.12795162200927734,0.02319645881652832
1787816915465768400,0.9987685546875,-0.13944745063781738,0.12774944305419922,-0.06424305588006973
1787816915481865500,1.014865478515625,-0.07600164413452148,0.09454345703125,-0.07780483365058899
1787816915497848000,1.03084814453125,0.033945322036743164,0.07372570037841797,-0.06723960489034653
1787816915513977300,1.046977294921875,0.07014656066894531,0.0121002197265625,-0.024430081248283386
1787816915530017500,1.063017578125,-0.008329629898071289,0.00005340576171875,0.08674657344818115
1787816915546055400,1.079055419921875,-0.17577552795410156,0.004199028015136719,0.10778816044330597
1787816915562164000,1.0951640625,-0.2643003463745117,-0.015599250793457031,0.06813538074493408
1787816915578161200,1.1111611328125,-0.22997426986694336,0.0009489059448242188,0.022102519869804382
1787816915594297900,1.1272978515625,-0.12705397605895996,0.006402015686035156,-0.013894379138946533
1787816915610348300,1.143348388671875,0.028362274169921875,-0.008974075317382812,0.0570826530456543
1787816915626395000,1.159394775390625,-0.029117584228515625,-0.010030746459960938,0.05847908556461334
1787816915642516700,1.175516845703125,-0.13102936744689941,0.010162353515625,0.02920009195804596
1787816915658521300,1.191521240234375,-0.17847466468811035,0.016160964965820312,0.026179566979408264
1787816915674607600,1.207607666015625,-0.11508369445800781,0.045886993408203125,-0.03320230543613434
1787816915690662700,1.22366259765625,-0.06760668754577637,0.056214332580566406,-0.07026070356369019
1787816915706721000,1.239720947265625,-0.04497885704040527,0.09793376922607422,-0.0747206062078476
1787816915722848800,1.255848876953125,0.043221235275268555,0.14008712768554688,-0.02551497519016266
1787816915738811400,1.271811279296875,-0.0316319465637207,0.14403438568115234,0.03193330764770508
1787816915754958300,1.287958251953125,-0.14851117134094238,0.13503646850585938,-0.03212474286556244
1787816915770973700,1.3039736328125,-0.2232520580291748,0.14888858795166016,-0.10679011046886444
1787816915786980000,1.31997998046875,-0.11062121391296387,0.1649799346923828,-0.04104863107204437
1787816915803112400,1.336112548828125,0.1114814281463623,0.21371936798095703,0.01464928686618805
1787816915819084500,1.35208447265625,0.13359975814819336,0.21559906005859375,0.03418166935443878
1787816915835197000,1.368197021484375,0.03407645225524902,0.2190418243408203,-0.03289748728275299
1787816915851222300,1.38422216796875,-0.09785819053649902,0.199920654296875,-0.13153086602687836
1787816915867239200,1.4002392578125,-0.045069217681884766,0.18311500549316406,-0.006403729319572449
1787816915883324200,1.41632421875,-0.03515911102294922,0.15188884735107422,-0.0872805193066597
1787816915899300600,1.432300537109375,-0.11443519592285156,0.12014007568359375,-0.09530395269393921
1787816915915414500,1.44841455078125,-0.2620859146118164,0.09217357635498047,-0.1009986624121666
1787816915931451100,1.464451171875,-0.2012038230895996,-0.05148029327392578,-0.1379077136516571
1787816915947479000,1.48047900390625,-0.39319849014282227,0.11037921905517578,-0.30648088455200195
1787816915963567600,1.496567626953125,-0.38364434242248535,-0.030139923095703125,-0.13047756254673004
1787816915979553000,1.512552978515625,-0.3157975673675537,-0.019315719604492188,-0.0704924613237381
1787816915995677400,1.528677490234375,-0.2105574607849121,-0.04105854034423828,-0.014776423573493958
1787816916011719700,1.5447197265625,-0.16184592247009277,0.04056835174560547,0.006576463580131531
1787816916027757600,1.560757568359375,-0.3468499183654785,0.0422821044921875,-0.035437509417533875
1787816916043840800,1.5768408203125,-0.5256822109222412,0.05910301208496094,-0.02898263931274414
1787816916059829500,1.59282958984375,-0.4600064754486084,0.1015939712524414,0.007897183299064636
1787816916075960800,1.6089609375,-0.41385817527770996,0.11313438415527344,-0.00495089590549469
1787816916092008200,1.62500830078125,-0.5181515216827393,0.04248619079589844,-0.128832146525383
1787816916108050400,1.641050537109375,-0.4144892692565918,0.0498809814453125,-0.071057990193367
1787816916124163800,1.657163818359375,-0.1712040901184082,0.04223155975341797,0.02309650182723999
1787816916140169500,1.67316943359375,-0.19602131843566895,0.0220794677734375,0.14954321086406708
1787816916156316400,1.68931640625,-0.386242151260376,-0.008233070373535156,0.14099718630313873
1787816916172327700,1.70532763671875,-0.34851956367492676,0.040305137634277344,0.08935937285423279
1787816916188384800,1.721384765625,-0.3323225975036621,0.01878070831298828,-0.035014621913433075
1787816916204519700,1.737519775390625,-0.38962578773498535,-0.14717864990234375,-0.0392424613237381
1787816916220489000,1.753489013671875,-0.6125402450561523,-0.0035295486450195312,0.15208791196346283
1787816916236600600,1.7696005859375,-0.9321861267089844,-0.047453880310058594,0.30269086360931396
1787816916252619000,1.785618896484375,-0.9970062971115112,-0.16634368896484375,0.03612753748893738
1787816916268632300,1.80163232421875,-1.0046491622924805,-0.2485828399658203,-0.016475044190883636
1787816916284768300,1.817768310546875,-0.8358554840087891,-0.30187129974365234,0.1282227784395218
1787816916300739800,1.83373974609375,-0.38035547733306885,-0.3222799301147461,0.09312544763088226
1787816916316854000,1.84985400390625,-0.12874531745910645,-0.2493896484375,0.18304945528507233
1787816916332874500,1.86587451171875,-0.1213541030883789,-0.11191082000732422,0.16238835453987122
1787816916348894500,1.88189453125,-0.39202797412872314,0.0065631866455078125,0.05998978018760681
1787816916364984600,1.897984619140625,-0.7796545028686523,0.17059040069580078,0.16815321147441864
1787816916380964000,1.913964111328125,-0.6897817850112915,0.29796600341796875,0.17031683027744293
1787816916397086200,1.930086181640625,-0.4102734327316284,0.3569602966308594,0.1612926721572876
1787816916413116400,1.946116455078125,-0.014550447463989258,0.3658113479614258,0.19610825181007385
1787816916429154300,1.962154296875,0.10884594917297363,0.2623863220214844,0.13902705907821655
1787816916445214200,1.978214111328125,0.11039590835571289,0.27073192596435547,0.16441985964775085
1787816916461200000,1.994199951171875,-0.545560359954834,0.2819938659667969,0.1462652087211609
1787816916477325300,2.0103251953125,-0.9927873611450195,0.4004373550415039,0.043974749743938446
1787816916493363700,2.02636376953125,-1.1790188550949097,0.46927928924560547,-0.006428278982639313
1787816916509399600,2.042399658203125,-1.2410054206848145,0.5400581359863281,0.07034750282764435
1787816916525507800,2.0585078125,-1.2254741191864014,0.6490039825439453,0.10420768707990646
1787816916541502000,2.074501953125,-1.135719656944275,0.758544921875,0.027230829000473022
1787816916557631200,2.09063134765625,-1.4123117923736572,0.831730842590332,0.16051700711250305
1787816916573675300,2.10667529296875,-1.8373754024505615,0.8996877670288086,0.5092208385467529
1787816916589719300,2.12271923828125,-1.39774489402771,0.8500452041625977,1.2052160501480103
1787816916605830400,2.138830322265625,-0.5909632444381714,1.1467866897583008,0.8341186046600342
1787816916621838000,2.154838134765625,0.3285868167877197,0.8404922485351562,0.9316481947898865
1787816916637970700,2.170970703125,0.17340636253356934,1.0620756149291992,-0.041230715811252594
1787816916654025700,2.187025634765625,-0.5461825132369995,0.8024978637695312,0.26383623480796814
1787816916670077200,2.2030771484375,-1.630533218383789,0.7707557678222656,0.47977644205093384
1787816916686194200,2.219194091796875,-2.277752637863159,0.5839118957519531,0.9688196778297424
1787816916702212600,2.235212646484375,-1.9857072830200195,0.5610876083374023,1.0601754188537598
1787816916718312200,2.251312255859375,-1.2147855758666992,0.39963245391845703,0.8734262585639954
1787816916734334200,2.267334228515625,-0.693130612373352,0.20235157012939453,0.4790858030319214
1787816916750355000,2.28335498046875,-0.4053565263748169,0.2046031951904297,0.3949693441390991
1787816916766484700,2.299484619140625,-0.06366610527038574,0.1832256317138672,0.5274071097373962
1787816916782459100,2.315459228515625,0.3722991943359375,0.028223037719726562,0.43730977177619934
1787816916798565000,2.331565185546875,0.5795788764953613,-0.09618282318115234,-0.16238456964492798
1787816916814590700,2.3475908203125,0.7739424705505371,-0.43703174591064453,-0.8742822408676147
1787816916830617000,2.3636171875,1.6368112564086914,-0.7918720245361328,-1.3395957946777344
1787816916846753300,2.379753173828125,2.363560676574707,-0.8649778366088867,-1.0620745420455933
1787816916862739700,2.39573974609375,1.830399751663208,-1.2456340789794922,-0.8511927127838135
1787816916878854400,2.4118544921875,0.2842625379562378,-1.0742321014404297,-1.2995595932006836
1787816916894898000,2.42789794921875,-0.5805529356002808,-0.6505270004272461,-1.5571043491363525
1787816916910937900,2.443937744140625,0.05793452262878418,0.07728290557861328,-1.6429550647735596
1787816916927033000,2.460033203125,0.8016027212142944,0.9490203857421875,-1.398941993713379
1787816916943022800,2.47602294921875,0.22642481327056885,1.7147817611694336,-1.4768445491790771
1787816916959131400,2.49213134765625,-0.9790309071540833,2.321080207824707,-1.83620285987854
1787816916975220500,2.508220458984375,-1.6909692287445068,3.722158432006836,-2.3701672554016113
1787816916991256800,2.5242568359375,-0.06464195251464844,4.395624160766602,-1.7292753458023071
1787816917007347000,2.540346923828125,2.4770638942718506,5.123456954956055,-1.6692858934402466
1787816917023387400,2.556387451171875,3.0022616386413574,5.408146858215332,-1.9847687482833862
1787816917039496200,2.57249609375,1.5526655912399292,5.056241035461426,-2.3125126361846924
1787816917055549400,2.588549560546875,-0.8409984111785889,4.404139518737793,-1.8620877265930176
1787816917071603700,2.604603759765625,-2.036496162414551,3.65999698638916,-1.3674116134643555
1787816917087707100,2.62070703125,-0.22853195667266846,2.231511116027832,-0.694675624370575
1787816917103766000,2.63676611328125,2.616549015045166,0.37353515625,0.2507704198360443
1787816917119908600,2.65290869140625,3.566901683807373,-1.5012578964233398,0.9330357909202576
1787816917135974000,2.668973876953125,2.108128547668457,-3.300842761993408,1.6980284452438354
1787816917152034800,2.685034912109375,-0.657839298248291,-4.392394065856934,1.2864642143249512
1787816917168142800,2.701142822265625,-2.637469530105591,-4.698044776916504,0.5362570285797119
1787816917184164600,2.71716455078125,-3.1404595375061035,-5.4653754234313965,0.2238166481256485
1787816917200252200,2.733252197265625,-1.5751488208770752,-5.568039894104004,1.1855241060256958
1787816917216321800,2.74932177734375,0.31296563148498535,-5.570317268371582,1.6767876148223877
1787816917232339500,2.76533935546875,1.8131606578826904,-5.905719757080078,2.725534200668335
1787816917248456400,2.78145654296875,1.9402797222137451,-6.280421257019043,2.6855359077453613
1787816917264479500,2.7974794921875,0.7854194641113281,-6.0611348152160645,1.8828165531158447
1787816917280576800,2.81357666015625,-0.4043405055999756,-5.719333648681641,1.5429937839508057
1787816917296655600,2.829655517578125,-0.4115399122238159,-4.174563407897949,1.662559986114502
1787816917312682500,2.8456826171875,-1.8292738199234009,-2.052297592163086,2.4832942485809326
1787816917328808000,2.861807861328125,-5.808481216430664,0.4265289306640625,1.7924282550811768
1787816917344845000,2.877844970703125,-7.413208961486816,2.361567497253418,2.1199703216552734
1787816917360947500,2.893947509765625,-2.5921432971954346,4.371707916259766,2.7133307456970215
1787816917377034200,2.9100341796875,4.413834095001221,5.409889221191406,4.020847797393799
1787816917393068500,2.926068603515625,8.703489303588867,5.921977996826172,4.158614158630371
1787816917409194500,2.942194580078125,7.688139915466309,6.202601432800293,3.419541120529175
1787816917425231400,2.9582314453125,4.407711029052734,6.713233947753906,2.594419240951538
1787816917441340000,2.97433984375,1.3767173290252686,6.857431411743164,0.9134473204612732
1787816917457430300,2.99043017578125,0.8012285232543945,6.552244186401367,-0.5389537215232849
1787816917473468200,3.00646826171875,2.081083297729492,5.276409149169922,-1.040333867073059
1787816917489603600,3.022603515625,3.2940638065338135,3.3097105026245117,-1.7550663948059082
1787816917505646000,3.03864599609375,3.1996829509735107,1.4102411270141602,-2.4319798946380615
1787816917521760000,3.054760009765625,2.7685546875,-0.883213996887207,-2.1907448768615723
1787816917537812500,3.0708125,2.0781540870666504,-2.4877548217773438,-1.862890601158142
1787816917553865700,3.08686572265625,0.5619907379150391,-3.940505027770996,-1.4391674995422363
1787816917569918500,3.10291845703125,-0.7938830852508545,-4.939781188964844,-1.748233675956726
1787816917585977300,3.118977294921875,-0.6933028697967529,-5.56260871887207,-2.0544636249542236
1787816917602100700,3.135100830078125,0.47827672958374023,-5.998293399810791,-2.5590925216674805
1787816917618210300,3.151210205078125,0.8356919288635254,-6.289669036865234,-3.140449285507202
1787816917634268700,3.1672685546875,-0.6150516271591187,-6.558804988861084,-2.901963710784912
1787816917650376700,3.183376708984375,-2.3636085987091064,-5.843096733093262,-2.5097944736480713
1787816917666441700,3.199441650390625,-2.6689248085021973,-4.786026477813721,-1.9879395961761475
1787816917682577400,3.215577392578125,-1.356977105140686,-2.5523996353149414,-1.1637287139892578
1787816917698646000,3.23164599609375,-0.8707659244537354,-0.7360162734985352,-0.5028773546218872
1787816917714662700,3.24766259765625,-2.7035319805145264,0.924342155456543,-4.329085826873779
1787816917730773000,3.26377294921875,-2.8394229412078857,3.29586124420166,-5.449299335479736
1787816917746792700,3.279792724609375,0.690928041934967,4.741868019104004,-3.6882057189941406
1787816917762892300,3.295892333984375,5.847482681274414,4.538549423217773,-2.8165524005889893
1787816917778975700,3.311975830078125,7.118559837341309,4.825757026672363,-2.613992214202881
1787816917795009300,3.32800927734375,2.9920425415039062,5.454291343688965,-2.4115006923675537
1787816917811140600,3.344140625,-0.9545032382011414,5.695404052734375,-2.435443639755249
1787816917827176000,3.360176025390625,-2.011716842651367,5.838986396789551,-1.5020298957824707
1787816917843274000,3.37627392578125,0.468092143535614,5.007760047912598,-0.21230448782444
1787816917859356000,3.39235595703125,2.6853673458099365,3.5522003173828125,0.5675666928291321
1787816917875385900,3.4083857421875,3.206592082977295,1.6664056777954102,0.9185994863510132
1787816917891526100,3.424526123046875,2.889627695083618,-0.22387218475341797,1.4774320125579834
1787816917907566600,3.440566650390625,2.2358016967773438,-2.005558967590332,1.5463230609893799
1787816917923675400,3.45667529296875,1.602820634841919,-3.4293646812438965,1.3094018697738647
1787816917939763700,3.472763671875,0.6952111721038818,-4.35801887512207,1.1136986017227173
1787816917955804700,3.4888046875,0.5426381826400757,-5.3349761962890625,1.3894752264022827
1787816917971944000,3.50494384765625,1.0550475120544434,-6.22454309463501,1.7120882272720337
1787816917987990500,3.520990478515625,0.5071661472320557,-6.888753890991211,1.6805462837219238
1787816918004109600,3.537109619140625,-0.9990396499633789,-6.924571990966797,1.000483751296997
1787816918020214500,3.553214599609375,-2.054140090942383,-6.485053062438965,0.17492222785949707
1787816918036266200,3.569266357421875,-1.3093150854110718,-5.877407550811768,-0.2476823925971985
1787816918052366000,3.585365966796875,1.296459674835205,-5.183070659637451,-0.022212982177734375
1787816918068426200,3.60142626953125,3.385573387145996,-3.607468605041504,0.7768860459327698
1787816918084551700,3.6175517578125,0.6377885341644287,-0.1985177993774414,1.5707292556762695
1787816918100614700,3.63361474609375,-5.532927989959717,1.5162773132324219,1.6599781513214111
1787816918116674600,3.649674560546875,-7.7009406089782715,3.445124626159668,1.061316728591919
1787816918132728600,3.665728515625,-0.14887863397598267,5.847846984863281,0.9813587665557861
1787816918148789200,3.681789306640625,8.962516784667969,5.566904067993164,1.4337291717529297
1787816918164922000,3.697922119140625,13.602551460266113,5.120706558227539,2.2017807960510254
1787816918180990500,3.713990478515625,9.858762741088867,5.345117568969727,3.0753095149993896
1787816918197011000,3.730010986328125,3.505666732788086,4.9635419845581055,2.698969841003418
1787816918213127700,3.746127685546875,-0.6975694298744202,4.311541557312012,1.9932053089141846
1787816918229157600,3.76215771484375,-0.7259068489074707,3.2681570053100586,1.6722297668457031
1787816918245254400,3.77825439453125,-0.0014601945877075195,2.303704261779785,-0.1589566469192505
1787816918261334800,3.794334716796875,-0.7618653774261475,2.1884193420410156,-2.5126583576202393
1787816918277368600,3.81036865234375,-0.5890331268310547,-0.7173700332641602,-0.7923715114593506
1787816918293437200,3.826437255859375,-1.1974973678588867,-1.4714584350585938,-1.8246099948883057
1787816918309468400,3.842468505859375,-0.6787034273147583,-2.9257407188415527,-2.311007499694824
1787816918325572400,3.858572265625,1.3710780143737793,-3.75990629196167,-2.7046377658843994
1787816918341607000,3.87460693359375,3.491187810897827,-4.336391448974609,-4.315945625305176
1787816918357637400,3.890637451171875,4.334038734436035,-5.17232608795166,-5.421541690826416
1787816918373780700,3.90678076171875,3.1220409870147705,-6.104837417602539,-5.542552471160889
1787816918389822700,3.92282275390625,-0.3253934383392334,-6.087342262268066,-3.9061226844787598
1787816918405932000,3.93893212890625,-4.076920509338379,-5.4570417404174805,-2.0767385959625244
1787816918422030000,3.955030029296875,-4.866361618041992,-4.681504726409912,-2.197425603866577
1787816918438078000,3.971077880859375,-2.4544923305511475,-3.168275833129883,-2.451845407485962
1787816918454177000,3.987177001953125,0.47787225246429443,0.6156187057495117,-2.0573689937591553
1787816918470227000,4.00322705078125,0.6995716094970703,2.7243738174438477,-3.7446975708007812
1787816918486346500,4.019346435546875,-0.18375849723815918,4.802133560180664,-5.6690826416015625
1787816918502450700,4.03545068359375,2.9813716411590576,6.701169967651367,-4.228781223297119
1787816918518506000,4.051506103515625,8.463691711425781,7.052170753479004,-3.4218027591705322
1787816918534610200,4.067610107421875,8.604597091674805,7.280596733093262,-4.158328533172607
1787816918550624300,4.083624267578125,4.646731376647949,6.699652671813965,-3.484780788421631
1787816918566758700,4.099758544921875,0.17353081703186035,6.031153678894043,-2.819826602935791
1787816918582872300,4.115872314453125,-0.72502601146698,4.97385311126709,-1.2912050485610962
1787816918598934500,4.1319345703125,1.6768288612365723,2.5384979248046875,1.060295820236206
1787816918615044400,4.14804443359375,3.863628387451172,0.4681587219238281,2.336705207824707
1787816918631064800,4.16406494140625,3.645264148712158,-1.0953197479248047,2.5393450260162354
1787816918647205400,4.180205322265625,2.0067172050476074,-2.5184683799743652,1.8843048810958862
1787816918663277300,4.19627734375,1.6026259660720825,-4.003437519073486,1.8170974254608154
1787816918679298000,4.212298095703125,1.5119034051895142,-4.973063945770264,1.838742733001709
1787816918695368700,4.22836865234375,0.9209198951721191,-6.05118465423584,1.5106885433197021
1787816918711401700,4.244401611328125,-0.25028467178344727,-7.0662431716918945,1.4094407558441162
1787816918727501300,4.260501220703125,-1.3909884691238403,-7.582021236419678,1.6182825565338135
1787816918743583000,4.2765830078125,-1.514015555381775,-7.742214679718018,1.549940586090088
1787816918759608800,4.29260888671875,-1.0427823066711426,-7.724393844604492,0.43905335664749146
1787816918775776000,4.30877587890625,-0.608020007610321,-7.129501819610596,0.7453638911247253
1787816918791812400,4.324812255859375,-0.48372864723205566,-6.233622074127197,1.8768949508666992
1787816918807921000,4.3409208984375,-1.0596535205841064,-3.2356534004211426,1.7696349620819092
1787816918824003800,4.35700390625,-4.034422874450684,0.2058391571044922,2.724152088165283
1787816918840044500,4.37304443359375,-6.375076770782471,2.552276611328125,1.756810188293457
1787816918856172300,4.38917236328125,-3.6681509017944336,6.552166938781738,-0.021411597728729248
1787816918872206000,4.4052060546875,7.6983160972595215,7.247903823852539,3.53122878074646
1787816918888334300,4.421334228515625,17.761281967163086,6.269584655761719,4.255061626434326
1787816918904425200,4.43742529296875,17.158899307250977,5.871233940124512,4.088671684265137
1787816918920470500,4.453470458984375,7.945130348205566,5.670405387878418,3.0366623401641846
1787816918936615200,4.469615234375,-0.594191312789917,5.584739685058594,1.0613462924957275
1787816918952664300,4.485664306640625,-3.2499051094055176,4.961770057678223,-0.33342447876930237
1787816918968787700,4.50178759765625,0.18046116828918457,3.11086368560791,-2.3739352226257324
1787816918984897300,4.517897216796875,3.1637468338012695,1.4981365203857422,-1.9408423900604248
1787816919000955100,4.533955078125,3.3072433471679688,-0.29238319396972656,-0.30540186166763306
1787816919017062100,4.550062255859375,1.2236125469207764,-1.6085901260375977,-0.1367550492286682
1787816919033125000,4.566125,0.01146841049194336,-3.0136685371398926,-1.3917542695999146
1787816919049259000,4.582259033203125,1.0346083641052246,-4.414097785949707,-2.0083885192871094
1787816919065329700,4.59832958984375,3.1364521980285645,-5.324461936950684,-3.1747193336486816
1787816919081349600,4.614349609375,4.056055068969727,-6.01922607421875,-3.1693124771118164
1787816919097466000,4.630466064453125,2.490821361541748,-6.118978977203369,-3.5502676963806152
1787816919113493200,4.6464931640625,0.021912574768066406,-6.235401630401611,-2.8762612342834473
1787816919129586200,4.662586181640625,-2.6068968772888184,-6.152865409851074,-2.33320951461792
1787816919145665500,4.67866552734375,-2.1621129512786865,-5.751479625701904,-1.9169507026672363
1787816919161688800,4.694688720703125,0.4104452133178711,-4.88151741027832,-1.8050217628479004
1787816919177961200,4.710961181640625,2.8622512817382812,-2.2915592193603516,-1.790137529373169
1787816919192835000,4.7258349609375,3.0546839237213135,0.6021032333374023,-0.5907912254333496
1787816919208929000,4.741928955078125,-0.24134236574172974,1.982640266418457,-1.560194492340088
1787816919225006300,4.75800634765625,-3.609116554260254,4.812527656555176,-4.080060005187988
1787816919241034200,4.7740341796875,0.24798575043678284,6.013408660888672,-0.9076578617095947
1787816919257105000,4.79010498046875,7.763355731964111,5.506891250610352,-0.7237409949302673
1787816919273134000,4.806134033203125,9.217544555664062,5.4202880859375,-2.1220803260803223
1787816919289229300,4.822229248046875,5.625026226043701,5.225028991699219,-3.2405381202697754
1787816919305313000,4.83831298828125,2.457613945007324,4.819632530212402,-3.4487593173980713
1787816919321349400,4.854349365234375,0.9143351912498474,4.69636344909668,-2.023361921310425
1787816919337430300,4.87043017578125,1.7480506896972656,3.9320430755615234,-0.12210804224014282
1787816919353471000,4.886470947265625,3.3437914848327637,2.648458480834961,1.0512144565582275
1787816919369581300,4.902581298828125,3.5622081756591797,1.0294513702392578,1.4142706394195557
1787816919385680000,4.918679931640625,2.9299659729003906,-0.5234851837158203,1.295428991317749
1787816919401720000,4.934719970703125,2.218292474746704,-2.163282871246338,0.6307859420776367
1787816919417805300,4.950805419921875,2.1027488708496094,-3.3112144470214844,0.32685935497283936
1787816919433850400,4.966850341796875,2.834872007369995,-4.239396095275879,0.48472732305526733
1787816919449970000,4.982969970703125,3.1763644218444824,-5.4554667472839355,0.7539812326431274
1787816919466071600,4.999071533203125,2.43833589553833,-6.168056488037109,1.0612024068832397
1787816919482123500,5.01512353515625,0.7905629277229309,-6.6340179443359375,1.4264581203460693
1787816919498174500,5.031174560546875,-0.6993147134780884,-6.759308338165283,1.1783244609832764
1787816919514236000,5.04723583984375,-1.1878323554992676,-6.643298149108887,0.6938575506210327
1787816919530369800,5.063369873046875,0.12074559926986694,-6.330896854400635,-0.1241217851638794
1787816919546383600,5.079383544921875,2.224425792694092,-5.694663047790527,-0.8845005631446838
1787816919562444000,5.095444091796875,1.507317304611206,-1.7914543151855469,-2.6822314262390137
1787816919578501600,5.111501708984375,-0.41466888785362244,0.27576446533203125,-0.5605149865150452
1787816919594522600,5.127522705078125,-3.323349714279175,3.167189598083496,0.8320797681808472
1787816919610613200,5.14361328125,-3.4798550605773926,5.701493263244629,2.6636111736297607
1787816919626684700,5.1596845703125,2.400570869445801,5.674008369445801,4.287153244018555
1787816919642708500,5.17570849609375,10.501131057739258,4.290087699890137,5.273797988891602
1787816919658780700,5.19178076171875,12.286826133728027,3.559602737426758,3.7987711429595947
1787816919674810600,5.207810546875,8.588134765625,2.728154182434082,1.3244497776031494
1787816919690909000,5.223908935546875,3.507737159729004,2.2626781463623047,-0.6086716651916504
1787816919706993400,5.239993408203125,1.0292044878005981,2.22206974029541,-2.536263942718506
1787816919723024100,5.256024169921875,1.3818384408950806,1.3719911575317383,-2.5433170795440674
1787816919739108900,5.27210888671875,1.8745330572128296,0.9081954956054688,-2.449925661087036
1787816919755098600,5.2880986328125,2.3198115825653076,0.09138298034667969,-2.3546314239501953
1787816919771213300,5.30421337890625,2.0006842613220215,-0.6128530502319336,-2.044419050216675
1787816919787240700,5.32024072265625,1.8300163745880127,-1.4536027908325195,-1.1339441537857056
1787816919803272200,5.336272216796875,1.5499871969223022,-2.0786709785461426,-0.6369240283966064
1787816919819313000,5.35231298828125,2.0281448364257812,-2.6882271766662598,-0.3423386812210083
1787816919835353300,5.368353271484375,2.395840644836426,-3.4134020805358887,-0.390881210565567
1787816919851457800,5.384457763671875,2.4201807975769043,-3.7066922187805176,-1.0454589128494263
1787816919867548000,5.4005478515625,2.0810470581054688,-3.538557529449463,-1.391237497329712
1787816919883586000,5.4165859375,1.4525827169418335,-3.4259719848632812,-1.5212513208389282
1787816919899672000,5.432672119140625,0.7272607088088989,-3.2793874740600586,-1.4691946506500244
1787816919915719000,5.448718994140625,0.30679982900619507,-2.8309073448181152,-1.4594463109970093
1787816919931841000,5.464841064453125,0.39802002906799316,-2.3750038146972656,-1.1876996755599976
1787816919947893000,5.48089306640625,1.5964453220367432,-1.7356510162353516,-0.6977853178977966
1787816919963946200,5.4969462890625,2.4635865688323975,-0.0020818710327148438,-0.6587161421775818
1787816919980000500,5.51300048828125,2.14755916595459,2.063858985900879,-0.43308162689208984
1787816919996056600,5.529056640625,1.6325571537017822,3.1600685119628906,-0.10845949500799179
1787816920020171300,5.553171142578125,2.1074540615081787,4.237335205078125,0.8361074328422546
1787816920036191200,5.569191162109375,4.892811298370361,3.7980546951293945,0.4400538206100464
1787816920052255200,5.585255126953125,6.80354118347168,2.7059383392333984,-0.9057376980781555
1787816920068366000,5.601365966796875,6.860667705535889,1.9294824600219727,-2.311182975769043
1787816920084389600,5.6173896484375,5.873194217681885,1.3688983917236328,-3.0925443172454834
1787816920100483000,5.633483154296875,4.705665111541748,0.7656898498535156,-3.546327829360962
1787816920116503000,5.6495029296875,3.82517671585083,0.25263500213623047,-3.4101064205169678
1787816920132585000,5.6655849609375,3.0857601165771484,-0.5230560302734375,-2.4863011837005615
1787816920148608500,5.6816083984375,2.6205499172210693,-1.4053125381469727,-1.1630723476409912
1787816920164631800,5.6976318359375,2.0236072540283203,-1.991943359375,0.2507341802120209
1787816920180736300,5.713736328125,1.3024101257324219,-2.453573703765869,1.4652512073516846
1787816920196768000,5.72976806640625,1.0496572256088257,-2.6281495094299316,2.036770820617676
1787816920212846000,5.74584619140625,0.9082136154174805,-2.7263846397399902,1.8590357303619385
1787816920228924000,5.761923828125,0.839524507522583,-2.7466368675231934,1.1967260837554932
1787816920244954600,5.77795458984375,0.9342042207717896,-2.5651378631591797,0.4907359480857849
1787816920261065500,5.7940654296875,1.2899019718170166,-2.323249340057373,-0.18406301736831665
1787816920277058800,5.810058837890625,1.6756517887115479,-2.070010185241699,-0.7713199257850647
1787816920293116000,5.826115966796875,2.057439088821411,-1.911299228668213,-0.8726304173469543
1787816920309151500,5.8421513671875,2.337766170501709,-1.6534852981567383,-0.800798237323761
1787816920325190000,5.85818994140625,2.588644027709961,-1.4211483001708984,-0.832673966884613
1787816920341287700,5.87428759765625,2.6663546562194824,-1.1663827896118164,-1.1574170589447021
1787816920357293000,5.89029296875,2.5579164028167725,-0.7210550308227539,-1.297135591506958
1787816920373366800,5.90636669921875,2.378117084503174,-0.16208362579345703,-1.155576229095459
1787816920389422800,5.9224228515625,2.5045084953308105,0.20614337921142578,-0.5146791338920593
1787816920405478400,5.938478515625,2.997903823852539,0.4853200912475586,-0.05540508031845093
1787816920421582300,5.954582275390625,3.8299078941345215,0.4546356201171875,-0.21811580657958984
1787816920437595400,5.970595458984375,3.928640127182007,0.09360694885253906,-0.40877750515937805
1787816920453673200,5.986673095703125,3.13746976852417,0.0648202896118164,-0.6563833355903625
1787816920469735700,6.002735595703125,1.6205132007598877,0.12469959259033203,-0.45885348320007324
1787816920485796900,6.018796875,0.17048907279968262,0.23810482025146484,-0.03302694857120514
1787816920501896200,6.034896240234375,-0.513281524181366,0.41749095916748047,0.7261250019073486
1787816920517914400,6.050914306640625,-0.6684542298316956,0.6377782821655273,1.2867811918258667
1787816920533984000,6.06698388671875,-0.36821043491363525,0.904292106628418,1.7063117027282715
1787816920550050000,6.083050048828125,0.20942461490631104,0.7809104919433594,2.0156631469726562
1787816920566066700,6.099066650390625,0.9657895565032959,0.5138130187988281,2.2884128093719482
1787816920582172200,6.115172119140625,1.833491325378418,0.033069610595703125,2.516974925994873
1787816920598145000,6.13114501953125,2.441704034805298,-0.37699317932128906,2.293215751647949
1787816920614225200,6.14722509765625,2.576878547668457,-0.6575393676757812,1.7307056188583374
1787816920630244600,6.16324462890625,2.5626087188720703,-0.8952999114990234,1.3048021793365479
1787816920646269200,6.179269287109375,2.1117477416992188,-1.0520048141479492,1.3337042331695557
1787816920662391600,6.1953916015625,1.963396430015564,-1.0482902526855469,1.0935862064361572
1787816920678368500,6.211368408203125,1.7752604484558105,-0.9997024536132812,1.1737345457077026
1787816920694412000,6.227412109375,1.3693445920944214,-0.8309297561645508,1.0792351961135864
1787816920710443300,6.243443359375,1.2595545053482056,-0.72344970703125,0.8298693895339966
1787816920726475500,6.2594755859375,1.1496689319610596,-0.44433021545410156,0.5850187540054321
1787816920742605800,6.275605712890625,0.939262866973877,0.04795646667480469,0.3050885796546936
1787816920758592500,6.291592529296875,1.0125148296356201,0.19236469268798828,0.525654137134552
1787816920774634000,6.307634033203125,1.3122639656066895,0.3973855972290039,0.3464183807373047
1787816920790668500,6.32366845703125,1.7111966609954834,0.4335947036743164,0.5679419636726379
1787816920806703000,6.339703125,2.2014994621276855,0.3758058547973633,0.7393965125083923
1787816920822839300,6.35583935546875,2.3713066577911377,0.2565345764160156,0.8429296612739563
1787816920838833000,6.3718330078125,2.2092223167419434,0.057641029357910156,0.8945268392562866
1787816920854903800,6.38790380859375,2.032369375228882,0.006211280822753906,0.79261314868927
1787816920870954000,6.4039541015625,1.844766616821289,-0.1807260513305664,0.9590850472450256
1787816920887002600,6.420002685546875,1.7794280052185059,-0.1759490966796875,0.8221884965896606
1787816920903155500,6.436155517578125,1.7582964897155762,-0.2591390609741211,0.8824253082275391
1787816920919165400,6.45216552734375,1.5459532737731934,-0.3133277893066406,0.7733216285705566
1787816920935242200,6.4682421875,1.1829946041107178,-0.49761962890625,0.6887331008911133
1787816920951299000,6.484299072265625,0.8226518630981445,-0.4169473648071289,0.748244047164917
1787816920967363600,6.500363525390625,0.4856557846069336,-0.3454608917236328,0.552517294883728
1787816920983423500,6.516423583984375,0.28978562355041504,-0.23394203186035156,0.27474427223205566
1787816920999440000,6.53243994140625,0.3145785331726074,-0.15954208374023438,-0.0029556453227996826
1787816921015522000,6.54852197265625,0.536963939666748,-0.20117473602294922,-0.2902630567550659
1787816921031539700,6.564539794921875,0.6141190528869629,-0.01834583282470703,-0.8667807579040527
1787816921047560000,6.580559814453125,0.7979836463928223,-0.03541851043701172,-0.7537391185760498
1787816921063681000,6.596680908203125,0.8886091709136963,-0.14512348175048828,-0.9615470170974731
1787816921079662600,6.61266259765625,0.8931653499603271,-0.20191097259521484,-0.8393493294715881
1787816921095706400,6.628706298828125,0.7556262016296387,-0.2690277099609375,-0.46517932415008545
1787816921111729000,6.64472900390625,0.48272037506103516,-0.38556385040283203,-0.2771696150302887
1787816921127757000,6.660757080078125,0.16744065284729004,-0.3862895965576172,-0.26553836464881897
1787816921143881000,6.676880859375,-0.08778262138366699,-0.4963693618774414,-0.13357393443584442
1787816921159866400,6.692866455078125,-0.1488943099975586,-0.47222328186035156,-0.09311273694038391
1787816921175920000,6.708920166015625,-0.20365500450134277,-0.48131752014160156,-0.02469050884246826
1787816921191953200,6.724953125,-0.05129098892211914,-0.5181159973144531,-0.05580650269985199
1787816921207993900,6.740993896484375,0.1124563217163086,-0.5318393707275391,-0.1440850794315338
1787816921224133600,6.757133544921875,0.14819693565368652,-0.5510120391845703,-0.21341697871685028
1787816921240128300,6.773128173828125,0.17485356330871582,-0.5480728149414062,-0.23243585228919983
1787816921256185900,6.789185791015625,-0.05290555953979492,-0.37018871307373047,-0.4491835832595825
1787816921272228000,6.80522802734375,-0.18020081520080566,-0.2617530822753906,-0.5058094263076782
1787816921288270600,6.8212705078125,-0.129591703414917,-0.02440166473388672,-0.5704574584960938
1787816921304405000,6.837405029296875,-0.06536030769348145,0.07427978515625,-0.6095774173736572
1787816921320407800,6.85340771484375,0.09049844741821289,0.23337268829345703,-0.7015464305877686
1787816921336481300,6.869481201171875,0.33010220527648926,0.30710601806640625,-0.8794711232185364
1787816921352534000,6.885533935546875,0.562760591506958,0.42963218688964844,-1.1882661581039429
1787816921368588000,6.901588134765625,0.6994047164916992,0.4914894104003906,-1.6177817583084106
1787816921384743700,6.91774365234375,0.8705892562866211,0.5452156066894531,-1.9021612405776978
1787816921400757000,6.933757080078125,1.0523300170898438,0.47591114044189453,-1.9148727655410767
1787816921416836000,6.949836181640625,1.0913920402526855,0.27238941192626953,-1.8276069164276123
1787816921432895500,6.9658955078125,0.735581636428833,0.11997222900390625,-1.8134294748306274
1787816921448908500,6.981908447265625,0.26893067359924316,0.07872390747070312,-1.8613507747650146
1787816921465015300,6.998015380859375,-0.1353461742401123,0.09566879272460938,-1.804074764251709
1787816921480987000,7.01398681640625,-0.3651607036590576,0.1783161163330078,-1.6115964651107788
1787816921497079300,7.030079345703125,-0.27463722229003906,0.2535400390625,-1.2785698175430298
1787816921513096000,7.046095947265625,-0.05880856513977051,0.3017005920410156,-1.0451855659484863
1787816921529119200,7.062119140625,0.28215479850769043,0.37865543365478516,-0.8405919075012207
1787816921545237800,7.07823779296875,0.46247100830078125,0.43193626403808594,-0.8089447021484375
1787816921561218600,7.094218505859375,0.5590391159057617,0.3903799057006836,-0.8201758861541748
1787816921577268200,7.110268310546875,0.54931640625,0.3293180465698242,-0.8804929256439209
1787816921593300000,7.126300048828125,0.4584312438964844,0.24674415588378906,-0.9324004054069519
1787816921609332500,7.14233251953125,0.40779638290405273,0.19072723388671875,-0.751145601272583
1787816921625462800,7.158462890625,0.3086860179901123,0.10545539855957031,-0.6109636425971985
1787816921641452300,7.174452392578125,-0.050736188888549805,0.022436141967773438,-0.5988658666610718
1787816921657494800,7.190494873046875,-0.3912169933319092,-0.0811614990234375,-0.521220326423645
1787816921673528800,7.20652880859375,-0.7538242340087891,-0.1245880126953125,-0.46537792682647705
1787816921689562000,7.22256201171875,-1.0857415199279785,-0.12464427947998047,-0.4927673041820526
1787816921705695200,7.2386953125,-1.1432788372039795,-0.09547615051269531,-0.5803152918815613
1787816921721685000,7.25468505859375,-0.9113233089447021,-0.11557960510253906,-0.5090819597244263
1787816921737727500,7.2707275390625,-0.5763463973999023,-0.10219383239746094,-0.4380601644515991
1787816921753767000,7.286766845703125,-0.36807870864868164,-0.18235111236572266,-0.28783342242240906
1787816921769811700,7.302811767578125,-0.34654903411865234,-0.18516254425048828,-0.2100701630115509
1787816921785957400,7.318957275390625,-0.36107730865478516,-0.21404457092285156,-0.28774744272232056
1787816921801960200,7.334960205078125,-0.5997071266174316,-0.1950826644897461,-0.3312116861343384
1787816921818030300,7.3510302734375,-0.9859447479248047,-0.08421516418457031,-0.32120710611343384
1787816921834089700,7.36708984375,-1.3139539957046509,0.03645038604736328,-0.38797950744628906
1787816921850148400,7.3831484375,-1.448148250579834,0.18471431732177734,-0.38424670696258545
1787816921866310400,7.399310302734375,-1.3064038753509521,0.32117652893066406,-0.47280699014663696
1787816921882284500,7.415284423828125,-0.851921558380127,0.33640575408935547,-0.5066996216773987
1787816921898369500,7.43136962890625,-0.4804365634918213,0.3011350631713867,-0.4714207053184509
1787816921914429400,7.447429443359375,-0.1430191993713379,0.28275489807128906,-0.45511162281036377
1787816921930450200,7.4634501953125,-0.1103515625,0.1567516326904297,-0.613334596157074
1787816921946565400,7.4795654296875,-0.19209742546081543,0.13065814971923828,-0.6823588609695435
1787816921962538000,7.4955380859375,-0.4231300354003906,0.06420516967773438,-0.8859432935714722
1787816921978579200,7.5115791015625,-0.6711761951446533,0.07189750671386719,-0.8075434565544128
1787816921994598400,7.527598388671875,-1.013808250427246,0.08065986633300781,-0.651447057723999
1787816922010617600,7.54361767578125,-1.1493253707885742,0.08341407775878906,-0.4078071117401123
1787816922026735600,7.559735595703125,-1.245383858680725,0.09907341003417969,0.001709282398223877
1787816922042710300,7.575710205078125,-1.338167428970337,0.2763376235961914,0.17989128828048706
1787816922058753000,7.5917529296875,-1.3374356031417847,0.35602569580078125,0.17944198846817017
1787816922074773500,7.6077734375,-1.2523951530456543,0.4060173034667969,0.16296225786209106
1787816922090803500,7.623803466796875,-1.3052335977554321,0.47063541412353516,0.18379074335098267
1787816922106931000,7.639930908203125,-1.244650959968567,0.3953819274902344,0.17109906673431396
1787816922122916000,7.655916015625,-1.0098304748535156,0.3511505126953125,0.1656239628791809
1787816922138966000,7.671966064453125,-0.412699818611145,0.24320030212402344,0.2510071396827698
1787816922154999800,7.687999755859375,0.13515448570251465,0.09618949890136719,0.39715951681137085
1787816922171034000,7.7040341796875,0.5852179527282715,-0.10491275787353516,0.6558005809783936
1787816922187154200,7.720154296875,1.0123460292816162,-0.1765308380126953,0.9653552770614624
1787816922203148300,7.736148193359375,1.1461188793182373,-0.18938827514648438,1.4552878141403198
1787816922219210200,7.752210205078125,0.5499029159545898,-0.042862892150878906,1.9607679843902588
1787816922235249200,7.768249267578125,-0.49240612983703613,-0.02667522430419922,2.474973201751709
1787816922251288000,7.7842880859375,-1.2099089622497559,0.026488304138183594,2.696345090866089
1787816922267414800,7.800414794921875,-1.3741192817687988,0.04449176788330078,2.4406912326812744
1787816922283414800,7.816414794921875,-1.4256527423858643,0.23544692993164062,1.84650456905365
1787816922299481600,7.832481689453125,-0.9285202026367188,0.09786605834960938,1.6282098293304443
1787816922315528000,7.84852783203125,-0.581632137298584,0.08847427368164062,1.17075777053833
1787816922331576300,7.864576416015625,-0.4492543935775757,0.03507232666015625,0.9109534025192261
1787816922347667000,7.8806669921875,-0.4798389673233032,-0.12148284912109375,0.4543740153312683
1787816922363620900,7.896620849609375,-0.6695921421051025,-0.2798004150390625,0.1723535805940628
1787816922379688000,7.91268798828125,-0.9459671974182129,-0.5066890716552734,0.21717281639575958
1787816922395692300,7.9286923828125,-1.1774816513061523,-0.7284650802612305,0.4710618257522583
1787816922411698000,7.944697998046875,-1.4234189987182617,-0.9801445007324219,0.9062505960464478
1787816922427804700,7.9608046875,-1.721777081489563,-1.083486557006836,1.4093672037124634
1787816922443774200,7.976774169921875,-1.867905616760254,-1.1310653686523438,1.661081314086914
1787816922459860000,7.99285986328125,-1.6107218265533447,-1.0535831451416016,1.7203227281570435
1787816922475872000,8.0088720703125,-1.2263078689575195,-0.8096466064453125,1.8070753812789917
1787816922491888000,8.02488818359375,-1.1537117958068848,-0.5636625289916992,2.045961856842041
1787816922508002300,8.041002197265625,-1.5752843618392944,-0.16716766357421875,1.9712783098220825
1787816922523973400,8.056973388671874,-1.8299998044967651,0.23673248291015625,1.7607191801071167
1787816922540010500,8.073010498046875,-1.743804931640625,0.6746664047241211,1.568520426750183
1787816922556031000,8.089031005859376,-1.4430580139160156,1.0837268829345703,1.3313617706298828
1787816922572049700,8.105049560546876,-0.6932584047317505,1.4085693359375,1.2390061616897583
1787816922588168000,8.12116796875,0.13535213470458984,1.6149215698242188,0.7908803224563599
1787816922604146400,8.137146484375,0.44442105293273926,1.5790157318115234,-0.007576435804367065
1787816922620178200,8.15317822265625,0.5602147579193115,1.4348344802856445,-0.8219529390335083
1787816922636204500,8.16920458984375,0.6426088809967041,1.2171831130981445,-1.2065492868423462
1787816922652233700,8.185233642578124,1.169011116027832,0.9389448165893555,-1.2076611518859863
1787816922668361200,8.201361328125,1.629370927810669,0.6062173843383789,-1.3393170833587646
1787816922684345000,8.217344970703126,2.274925470352173,0.25315093994140625,-1.5571516752243042
1787816922700382000,8.2333818359375,2.7154541015625,0.11503028869628906,-1.7933452129364014
1787816922716422700,8.249422607421875,2.267585277557373,0.4378089904785156,-2.0797345638275146
1787816922732460800,8.265460693359374,1.7398080825805664,1.2054548263549805,-1.9494683742523193
1787816922748595700,8.281595703125,1.5509216785430908,2.444204330444336,-1.341360330581665
1787816922764637700,8.2976376953125,1.626352310180664,3.89827823638916,-0.7920525670051575
1787816922780682800,8.313682861328125,1.5790464878082275,4.828319549560547,-1.1783850193023682
1787816922796778800,8.32977880859375,1.7343440055847168,4.9839019775390625,-0.6603001356124878
1787816922812828200,8.345828125,1.9075088500976562,5.352673530578613,-0.144633948802948
1787816922828906500,8.361906494140625,1.735288381576538,5.51121711730957,-0.09511259198188782
1787816922844917000,8.3779169921875,1.411390781402588,5.333792686462402,-0.5738994479179382
1787816922860979000,8.39397900390625,1.0053107738494873,5.081523895263672,-1.0164984464645386
1787816922877082400,8.410082275390625,0.3875265121459961,4.554986953735352,-0.6476007699966431
1787816922893093000,8.426093017578125,-0.18811941146850586,2.9234180450439453,0.8762143850326538
1787816922909183000,8.442182861328124,-0.45768892765045166,2.398421287536621,-0.35148030519485474
1787816922925154000,8.458154052734375,1.3323898315429688,0.6559085845947266,-0.7539784908294678
1787816922941227800,8.474227783203125,3.4047865867614746,-1.104238510131836,-0.12981273233890533
1787816922957301000,8.490301025390625,3.1758391857147217,-3.5031423568725586,0.9654925465583801
1787816922973323300,8.5063232421875,0.48294949531555176,-5.5168681144714355,2.507624864578247
1787816922989427000,8.522427001953124,-3.2451908588409424,-6.63765811920166,4.373819828033447
1787816923005460000,8.5384599609375,-6.413047790527344,-6.80759334564209,5.683498382568359
1787816923021539600,8.55453955078125,-6.101606369018555,-7.185964584350586,4.777778625488281
1787816923037623000,8.570623046875,-3.0659778118133545,-7.483301639556885,2.8835716247558594
1787816923053660400,8.586660400390626,0.33104634284973145,-7.578828811645508,1.7825441360473633
1787816923069765600,8.602765625,2.6037557125091553,-7.2876787185668945,0.45598870515823364
1787816923085795600,8.618795654296875,3.0877439975738525,-6.477470397949219,-0.35996443033218384
1787816923101872400,8.634872314453125,2.5924346446990967,-5.665684700012207,0.05836084485054016
1787816923117955000,8.650955078125,2.266953468322754,-4.252791881561279,0.6999239921569824
1787816923133994200,8.666994140625,-0.06963586807250977,-0.8002614974975586,-0.17955711483955383
1787816923150111700,8.68311181640625,-2.0324547290802,1.6141796112060547,2.572093963623047
1787816923166154800,8.69915478515625,-4.185945510864258,3.522104263305664,6.7903733253479
1787816923182243600,8.71524365234375,-4.0946197509765625,6.12514591217041,7.328178882598877
1787816923198338800,8.7313388671875,1.027754306793213,7.311038970947266,8.46333122253418
1787816923214385000,8.747385009765624,7.0618391036987305,5.799220085144043,7.571644306182861
1787816923230505500,8.76350537109375,11.104963302612305,4.561450958251953,6.578089714050293
1787816923246558000,8.779557861328126,10.70514965057373,5.160574913024902,3.764517307281494
1787816923262605300,8.795605224609375,8.15284252166748,5.480124473571777,-0.5616575479507446
1787816923278701600,8.81170166015625,5.455235481262207,4.786456108093262,-4.202191352844238
1787816923294753800,8.82775390625,3.618102788925171,4.308568000793457,-5.548649787902832
1787816923310834200,8.843834228515625,2.1518845558166504,2.294881820678711,-5.617602348327637
1787816923326892800,8.859892822265625,1.086010456085205,0.3901796340942383,-4.267149925231934
1787816923342951700,8.87595166015625,0.3358876705169678,-1.4244394302368164,-2.2130045890808105
1787816923359060000,8.89206005859375,-0.3544139862060547,-3.2453012466430664,-0.8106919527053833
1787816923375075300,8.908075439453125,-0.6134874820709229,-4.806737899780273,-0.8115291595458984
1787816923391173400,8.92417333984375,-0.15394330024719238,-6.099332332611084,-1.6538621187210083
1787816923407203800,8.940203857421874,0.7122025489807129,-7.02750825881958,-2.264808177947998
1787816923423283200,8.956283203125,1.1091704368591309,-7.37892484664917,-2.6510090827941895
1787816923439351800,8.972351806640624,0.015569925308227539,-7.374606132507324,-2.4885144233703613
1787816923455381500,8.988381591796875,-0.8798211812973022,-7.624181747436523,-2.0375828742980957
1787816923471480300,9.004480224609376,-1.9260691404342651,-7.743349075317383,-1.7140817642211914
1787816923487512300,9.02051220703125,-2.088693857192993,-7.509316921234131,-1.5872442722320557
1787816923503592400,9.036592529296875,-1.9116946458816528,-7.045140266418457,-1.9655282497406006
1787816923519671300,9.05267138671875,-1.6168913841247559,-5.872250556945801,-2.620356559753418
1787816923535703600,9.06870361328125,-1.1961655616760254,-4.252859115600586,-2.2368335723876953
1787816923551808000,9.08480810546875,-1.1055965423583984,-1.0887451171875,-1.860750436782837
1787816923567801300,9.10080126953125,-1.336258888244629,2.8099117279052734,-1.8058838844299316
1787816923583890000,9.116889892578126,-1.455775260925293,5.9083147048950195,0.09496670961380005
1787816923599980300,9.132980224609375,-1.4669913053512573,7.30814266204834,0.556925892829895
1787816923616019700,9.149019775390625,3.213217258453369,7.90439510345459,0.8808123469352722
1787816923632131800,9.1651318359375,9.779458045959473,8.515735626220703,-0.44688087701797485
1787816923648179700,9.1811796875,12.092455863952637,7.88038444519043,-2.212733030319214
1787816923664273400,9.1972734375,9.565816879272461,7.043479919433594,-2.703836679458618
1787816923680365800,9.21336572265625,6.409621715545654,5.579048156738281,-0.7446311116218567
1787816923696417300,9.229417236328125,5.094474792480469,3.562079429626465,0.9022123217582703
1787816923712548400,9.24554833984375,4.134180545806885,1.313394546508789,1.5897254943847656
1787816923728608300,9.261608154296875,2.9323058128356934,-0.22873306274414062,1.3346672058105469
1787816923744665900,9.277665771484376,1.4535138607025146,-1.8295950889587402,1.1255524158477783
1787816923760776200,9.293776123046875,0.16535735130310059,-2.935115337371826,0.7712333798408508
1787816923776840700,9.3098408203125,-0.5535080432891846,-4.220879077911377,0.7604999542236328
1787816923792934700,9.3259345703125,-0.6690211296081543,-5.231631278991699,0.8033815026283264
1787816923808999400,9.34199951171875,-0.06567835807800293,-5.995208740234375,0.7818845510482788
1787816923825068500,9.358068603515624,0.03357100486755371,-6.1715216636657715,0.8916013836860657
1787816923841139000,9.374138916015625,-0.05807614326477051,-6.485429763793945,1.883219838142395
1787816923857159400,9.390159423828125,-0.4408832788467407,-6.825382232666016,2.4415388107299805
1787816923873252000,9.406252197265625,-1.0129733085632324,-6.927054405212402,1.799314260482788
1787816923889277000,9.42227685546875,-1.1389267444610596,-6.420366287231445,1.1191787719726562
1787816923905346300,9.43834619140625,-0.5098212957382202,-4.933328628540039,1.266326665878296
1787816923921416200,9.454416259765624,-0.3449065685272217,-1.2406997680664062,1.6206786632537842
1787816923937444000,9.470444091796875,0.2990849018096924,1.911971092224121,2.1979751586914062
1787816923953546200,9.486546142578124,1.377625823020935,3.640167236328125,2.646157741546631
1787816923969577200,9.5025771484375,4.150252819061279,6.802285194396973,4.913289546966553
1787816923985659600,9.51865966796875,11.236190795898438,6.6750640869140625,6.241832256317139
1787816924001742000,9.5347421875,16.218965530395508,3.841830253601074,4.3839850425720215
1787816924017772800,9.550772705078124,14.709031105041504,3.1889238357543945,2.555845022201538
1787816924033884400,9.566884521484376,9.309022903442383,2.2049427032470703,1.2295987606048584
1787816924049929000,9.582928955078126,2.664699077606201,1.7903633117675781,-0.4443677067756653
1787816924066018000,9.59901806640625,-1.8508000373840332,1.6571264266967773,-1.1140928268432617
1787816924082064100,9.615064208984375,-3.035409927368164,1.2491111755371094,-1.9998818635940552
1787816924098113500,9.631113525390624,-1.8335920572280884,0.36652565002441406,-1.6018458604812622
1787816924114247400,9.647247314453125,-0.38739657402038574,-0.36397266387939453,-1.0278733968734741
1787816924130249700,9.663249755859376,0.7822835445404053,-1.2882204055786133,-0.8193365931510925
1787816924146307600,9.6793076171875,1.7921737432479858,-2.145435333251953,-0.8029754161834717
1787816924162360000,9.695360107421875,1.7783281803131104,-2.781712532043457,-0.9353830218315125
1787816924178418700,9.711418701171874,1.479276418685913,-3.3571596145629883,-0.8036889433860779
1787816924194542800,9.72754296875,1.4849395751953125,-3.872847080230713,-0.8253076076507568
1787816924210606600,9.743606689453125,1.6252963542938232,-4.348221778869629,-0.8163140416145325
1787816924226665500,9.75966552734375,1.6765484809875488,-4.374817371368408,-1.0733420848846436
1787816924242773000,9.77577294921875,1.4742112159729004,-4.2891411781311035,-1.2371641397476196
1787816924258835500,9.79183544921875,1.2052927017211914,-4.115735054016113,-1.277033805847168
1787816924274967300,9.80796728515625,1.0101803541183472,-3.8690686225891113,-1.6743788719177246
1787816924291034400,9.824034423828126,0.875140905380249,-3.398573398590088,-1.9846354722976685
1787816924307095800,9.840095703125,1.2598310708999634,-2.6537599563598633,-2.0444271564483643
1787816924331147300,9.864147216796875,2.871617317199707,-0.985382080078125,-2.1338677406311035
1787816924347283000,9.880282958984376,4.112998962402344,0.4761362075805664,-2.1202306747436523
1787816924363349000,9.896348876953125,5.223462104797363,2.39621639251709,-0.9599385857582092
1787816924379368000,9.912367919921875,5.545910835266113,3.858243942260742,1.1907131671905518
1787816924395436800,9.928436767578125,4.844278335571289,4.476190567016602,1.870360016822815
1787816924411460900,9.9444609375,3.891631841659546,4.352726936340332,0.8729327917098999
1787816924427555300,9.960555419921874,4.332785129547119,4.08587646484375,-0.18790915608406067
1787816924443634700,9.976634765625,6.775539875030518,3.220884323120117,-1.0784778594970703
1787816924459662300,9.992662353515625,8.00811767578125,2.0515623092651367,-1.308064341545105
1787816924475711200,10.008711181640624,7.293499946594238,0.7941322326660156,-1.2555747032165527
1787816924491746800,10.024746826171874,5.182253837585449,-0.3702411651611328,-0.8705937266349792
1787816924507849500,10.040849365234376,2.8271212577819824,-1.5436086654663086,-0.30578547716140747
1787816924523941400,10.05694140625,1.000288724899292,-2.310792922973633,0.41953468322753906
1787816924539984400,10.072984375,-0.14859223365783691,-2.781764507293701,0.8074877262115479
1787816924556077600,10.08907763671875,-0.4682508111000061,-3.102694034576416,0.7322911024093628
1787816924572079000,10.1050791015625,-0.33314239978790283,-3.399986743927002,0.39579492807388306
1787816924588194000,10.121194091796875,0.02965843677520752,-3.6117019653320312,0.11087536811828613
1787816924604294700,10.137294677734374,0.37737834453582764,-3.596726894378662,-0.26910674571990967
1787816924620312000,10.15331201171875,0.7086575031280518,-3.3857855796813965,-0.7017913460731506
1787816924636359400,10.169359375,0.9823135137557983,-2.838963031768799,-1.6706552505493164
1787816924652417800,10.185417724609374,1.129347562789917,-2.3358936309814453,-1.962764024734497
1787816924668567000,10.201567138671875,1.2337841987609863,-1.4582128524780273,-2.537569999694824
1787816924684631800,10.2176318359375,0.9914507865905762,-0.8035221099853516,-2.001404285430908
1787816924700686600,10.2336865234375,1.0465319156646729,-0.032085418701171875,-1.6104795932769775
1787816924716750800,10.249750732421875,1.5477207899093628,0.5422706604003906,-1.1278536319732666
1787816924732759800,10.265759765625,2.169538974761963,0.7924890518188477,-0.6303496360778809
1787816924748908800,10.28190869140625,3.170485019683838,0.8439540863037109,-0.2752843201160431
1787816924764975600,10.2979755859375,4.299017906188965,0.6735477447509766,-0.44029518961906433
1787816924781039600,10.31403955078125,5.06136417388916,0.5308084487915039,-1.169971227645874
1787816924797097500,10.330097412109374,5.0263752937316895,0.42760753631591797,-1.9560054540634155
1787816924813117200,10.3461171875,4.378299713134766,0.36130714416503906,-2.312502384185791
1787816924829218000,10.362218017578124,3.4622902870178223,0.060690879821777344,-2.419308662414551
1787816924845242400,10.378242431640626,2.5145561695098877,-0.22870731353759766,-2.1038050651550293
1787816924861263000,10.39426318359375,1.5978455543518066,-0.45433902740478516,-1.5494368076324463
1787816924877341200,10.410341064453124,0.8679249286651611,-0.7280607223510742,-0.942436695098877
1787816924893311700,10.426311767578126,0.43891167640686035,-0.8634872436523438,-0.6333720088005066
1787816924909416400,10.44241650390625,0.3596069812774658,-0.8510503768920898,-0.6384522318840027
1787816924925445600,10.458445556640624,0.29338622093200684,-0.8382272720336914,-0.6837899684906006
1787816924941478700,10.474478759765624,0.23447656631469727,-0.7630043029785156,-0.7499899864196777
1787816924957532400,10.490532470703124,0.5473136901855469,-0.6886873245239258,-0.9847949743270874
1787816924973530600,10.506530517578126,1.029937982559204,-0.6062707901000977,-1.340667486190796
1787816924989661700,10.52266162109375,1.8359267711639404,-0.5886516571044922,-1.6657816171646118
1787816925005709300,10.538709228515625,2.6424450874328613,-0.6068696975708008,-1.8595848083496094
1787816925021757000,10.5547568359375,3.1991491317749023,-0.5882301330566406,-1.7681883573532104
1787816925037807400,10.570807373046875,3.377593994140625,-0.5294532775878906,-1.4215995073318481
1787816925053806300,10.586806396484375,3.1179909706115723,-0.43703746795654297,-1.2260339260101318
1787816925069940000,10.60293994140625,2.4250237941741943,-0.3208017349243164,-1.3174870014190674
1787816925085993500,10.618993408203124,1.899939775466919,-0.13098716735839844,-1.541893720626831
1787816925102039600,10.63503955078125,1.8948829174041748,-0.08669662475585938,-1.7124037742614746
1787816925118101500,10.6511015625,2.109649419784546,-0.06957626342773438,-1.7741849422454834
1787816925134107100,10.667107177734374,2.205314874649048,-0.10093307495117188,-1.7203137874603271
1787816925150253000,10.683253173828126,2.1951723098754883,-0.19219684600830078,-1.6396067142486572
1787816925166316300,10.69931640625,1.9914052486419678,-0.23177337646484375,-1.4304900169372559
1787816925182376200,10.715376220703124,1.8303186893463135,-0.247406005859375,-1.2216405868530273
1787816925198458400,10.731458251953125,1.6331417560577393,-0.25634288787841797,-1.266178846359253
1787816925214476000,10.74747607421875,1.4939773082733154,-0.21373939514160156,-1.2757313251495361
1787816925230633200,10.76363330078125,1.3649883270263672,-0.23333358764648438,-1.198026180267334
1787816925246649600,10.779649658203125,1.37113356590271,-0.2813882827758789,-1.0896724462509155
1787816925262712800,10.795712890625,1.3820009231567383,-0.31113433837890625,-0.92923903465271
1787816925278796000,10.811796142578125,1.2374248504638672,-0.3220100402832031,-0.8920511603355408
1787816925294765600,10.827765625,1.0291554927825928,-0.39596080780029297,-0.7714730501174927
1787816925310873300,10.843873291015624,0.9215235710144043,-0.40770530700683594,-0.7688429951667786
1787816925326894800,10.859894775390625,0.8353240489959717,-0.33422374725341797,-0.870257556438446
1787816925342913500,10.87591357421875,0.6014056205749512,-0.25812625885009766,-0.8693828582763672
1787816925359003400,10.89200341796875,0.3285672664642334,-0.20623397827148438,-0.8117881417274475
1787816925374982000,10.90798193359375,-0.0720987319946289,0.008173942565917969,-0.7470473051071167
1787816925391102200,10.924102294921875,-0.17267704010009766,-0.17560768127441406,-0.3114680349826813
1787816925407135700,10.9401357421875,-0.15863585472106934,-0.013278007507324219,-0.2354813665151596
1787816925423165000,10.9561650390625,0.20648527145385742,-0.1606903076171875,0.04349632188677788
1787816925439211300,10.972211181640626,0.7286791801452637,-0.3235588073730469,0.34959113597869873
1787816925455199700,10.98819970703125,1.5389606952667236,-0.43146800994873047,0.6075727939605713
1787816925471312400,11.0043125,2.134864091873169,-0.6222896575927734,0.8089374303817749
1787816925487352000,11.02035205078125,2.1624739170074463,-0.9040536880493164,1.0265666246414185
1787816925503393000,11.03639306640625,1.6739883422851562,-1.138533115386963,1.3043553829193115
1787816925519438000,11.05243798828125,0.8450920581817627,-1.1145358085632324,1.3630249500274658
1787816925535434200,11.068434326171875,-0.06038784980773926,-0.8034219741821289,1.6983921527862549
1787816925551557000,11.08455712890625,-0.8528995513916016,-0.34866809844970703,1.7234841585159302
1787816925567610400,11.1006103515625,-1.4395852088928223,0.26740169525146484,1.3827601671218872
1787816925583660000,11.116659912109375,-1.4809842109680176,0.6508016586303711,1.0178227424621582
1787816925599723000,11.132722900390625,-1.281679630279541,0.9410190582275391,0.6090422868728638
1787816925615738400,11.14873828125,-0.3921244144439697,1.0030946731567383,0.759863018989563
1787816925631877000,11.164877197265625,0.8010411262512207,0.7943716049194336,0.9924079775810242
1787816925647942000,11.18094189453125,1.9786779880523682,0.5221872329711914,1.3754034042358398
1787816925664004600,11.197004638671874,2.9043796062469482,0.20290756225585938,1.7870646715164185
1787816925680070400,11.2130703125,2.9608089923858643,-0.07921409606933594,2.03987455368042
1787816925696085800,11.229085693359375,2.1477599143981934,-0.33283424377441406,2.230943441390991
1787816925712209000,11.245208984375,0.9855875968933105,-0.48261260986328125,2.2226529121398926
1787816925728225500,11.2612255859375,0.053836822509765625,-0.6053466796875,2.151900053024292
1787816925744290300,11.277290283203126,-0.6438124179840088,-0.6511049270629883,1.9602605104446411
1787816925760365600,11.293365478515625,-1.060487985610962,-0.6410417556762695,1.8094302415847778
1787816925776338000,11.309337890625,-1.1102499961853027,-0.6062107086181641,1.8740549087524414
1787816925792452400,11.325452392578125,-0.8547244071960449,-0.5668621063232422,1.8221020698547363
1787816925808486700,11.341486572265625,-0.3509838581085205,-0.49054718017578125,1.695750117301941
1787816925824518100,11.35751806640625,-0.10976505279541016,-0.4068880081176758,1.4080018997192383
1787816925840618000,11.373617919921875,0.029259681701660156,-0.3409423828125,1.0324232578277588
1787816925856603600,11.389603759765626,0.32031917572021484,-0.26569366455078125,0.6826613545417786
1787816925872729300,11.405729248046875,0.5344846248626709,-0.22978878021240234,0.5344628691673279
1787816925888770300,11.421770263671876,0.7628898620605469,-0.1604471206665039,0.3748272955417633
1787816925904809700,11.437809814453125,0.9242353439331055,-0.07574176788330078,0.22543373703956604
1787816925920864000,11.453864013671875,0.8344497680664062,0.10287666320800781,-0.03482435643672943
1787816925936857900,11.46985791015625,0.6104428768157959,0.2510414123535156,-0.2798375189304352
1787816925952992000,11.485991943359375,0.34734106063842773,0.40169715881347656,-0.419813871383667
1787816925969041700,11.502041748046874,0.28951358795166016,0.4744100570678711,-0.4788806736469269
1787816925985086500,11.51808642578125,0.29317617416381836,0.4452629089355469,-0.613713264465332
1787816926001152500,11.534152587890626,0.3696281909942627,0.5022726058959961,-0.7917553186416626
1787816926017154000,11.550154052734374,0.26842498779296875,0.5347757339477539,-0.9671610593795776
1787816926033292500,11.56629248046875,0.268690824508667,0.5636072158813477,-1.1315277814865112
1787816926049354000,11.58235400390625,0.23625874519348145,0.5339813232421875,-1.1809171438217163
1787816926065412000,11.598412109375,0.22819995880126953,0.40268611907958984,-1.2804843187332153
1787816926081493500,11.614493408203124,0.4362211227416992,0.1706552505493164,-0.9486018419265747
1787816926097505800,11.630505859375,0.31217193603515625,0.044709205627441406,-0.8973019123077393
1787816926113656300,11.64665625,0.13207197189331055,-0.21222400665283203,-0.5924971103668213
1787816926129717200,11.66271728515625,-0.21619606018066406,-0.2624826431274414,-0.40027153491973877
1787816926145781500,11.678781494140624,-0.30342841148376465,-0.3205251693725586,-0.3118000328540802
1787816926161866200,11.6948662109375,-0.2800405025482178,-0.38540077209472656,-0.47455230355262756
1787816926177891000,11.71089111328125,-0.3437840938568115,-0.3712806701660156,-0.7293699979782104
1787816926194053000,11.72705322265625,-0.42835116386413574,-0.2613563537597656,-0.887266218662262
1787816926210073600,11.743073486328125,-0.38274502754211426,-0.13385772705078125,-1.017000675201416
1787816926226090500,11.759090576171875,-0.2015833854675293,0.11067676544189453,-1.1264944076538086
1787816926242178300,11.77517822265625,0.10366964340209961,0.28715038299560547,-1.2093276977539062
1787816926258152200,11.791152099609375,0.49330663681030273,0.3558797836303711,-1.1215053796768188
1787816926274261000,11.807260986328124,0.6692981719970703,0.42751216888427734,-0.9467743635177612
1787816926290291500,11.82329150390625,0.5795221328735352,0.36968326568603516,-0.7691716551780701
1787816926306314000,11.83931396484375,0.35307884216308594,0.33229637145996094,-0.5828069448471069
1787816926322361600,11.855361572265625,0.0384521484375,0.25658512115478516,-0.35983651876449585
1787816926338342700,11.8713427734375,-0.21630859375,0.16350746154785156,-0.1684163212776184
1787816926354467300,11.88746728515625,-0.5961542129516602,0.07143878936767578,0.02228105068206787
1787816926370507500,11.903507568359375,-1.1335177421569824,0.08999156951904297,0.22599881887435913
1787816926386541000,11.919541015625,-1.5387592315673828,0.11740684509277344,0.4286820888519287
1787816926402631400,11.93563134765625,-1.6935114860534668,0.19957637786865234,0.6832729578018188
1787816926418614500,11.951614501953125,-1.6193623542785645,0.3042726516723633,0.9175463914871216
1787816926434744000,11.967744140625,-1.4848878383636475,0.44074535369873047,0.9811873435974121
1787816926450784000,11.983783935546874,-1.3511924743652344,0.5141935348510742,0.9212357401847839
1787816926466825000,11.999824951171876,-1.1524686813354492,0.5804338455200195,0.751227080821991
1787816926482863900,12.01586376953125,-0.9340560436248779,0.5919113159179688,0.5767461061477661
1787816926498859500,12.031859619140626,-0.6634364128112793,0.5765781402587891,0.4038574695587158
1787816926514996500,12.04799658203125,-0.446408748626709,0.4948434829711914,0.2621254622936249
1787816926531042000,12.0640419921875,-0.23157763481140137,0.39385414123535156,0.18435820937156677
1787816926547096300,12.080096435546874,-0.11716318130493164,0.2594871520996094,0.10214373469352722
1787816926563171600,12.096171630859375,-0.06590056419372559,0.1571788787841797,0.13932357728481293
1787816926579177200,12.11217724609375,-0.23903965950012207,-0.010379791259765625,0.034000471234321594
1787816926595322000,12.128322021484376,-0.531184196472168,-0.14786052703857422,-0.004897996783256531
1787816926611331600,12.14433154296875,-0.7933371067047119,-0.14599323272705078,0.05971592664718628
1787816926627340500,12.160340576171874,-0.9705314636230469,-0.027029991149902344,0.08712168037891388
1787816926643418400,12.17641845703125,-1.040010690689087,0.0014944076538085938,0.19956527650356293
1787816926659432000,12.192431884765625,-1.0782687664031982,0.09279441833496094,0.30821093916893005
1787816926675538000,12.208537841796876,-0.8068816661834717,0.11123180389404297,0.643780529499054
1787816926691555800,12.224555908203126,-0.26306939125061035,-0.022905349731445312,0.9065021276473999
1787816926707577600,12.24057763671875,0.45253610610961914,-0.21947860717773438,1.0058993101119995
1787816926723664600,12.25666455078125,0.8850080966949463,-0.3706226348876953,0.9063354134559631
1787816926739648000,12.27264794921875,0.8645148277282715,-0.3328437805175781,0.6224563717842102
1787816926755761200,12.28876123046875,0.38512444496154785,-0.28678131103515625,0.45773908495903015
1787816926771801000,12.304801025390624,-0.35849785804748535,-0.14082622528076172,0.2655225396156311
1787816926787832800,12.320832763671875,-0.990424394607544,-0.018952369689941406,0.23831161856651306
1787816926803879000,12.33687890625,-1.323711633682251,0.07547283172607422,0.08041661977767944
1787816926819872300,12.352872314453125,-1.358539342880249,0.16359329223632812,0.02543473243713379
1787816926836001000,12.3690009765625,-1.224794864654541,0.19058609008789062,-0.13804900646209717
1787816926852048400,12.38504833984375,-1.003345251083374,0.2869234085083008,-0.4175092279911041
1787816926868092000,12.401091796875,-0.9285135269165039,0.2338724136352539,-0.44808661937713623
1787816926884161800,12.417161865234375,-0.7630105018615723,0.22546863555908203,-0.32561346888542175
1787816926900162800,12.433162841796875,-0.3777484893798828,0.16899681091308594,-0.10316111147403717
1787816926916302300,12.44930224609375,-0.10137128829956055,-0.0237579345703125,0.19732216000556946
1787816926932356900,12.46535693359375,0.0703132152557373,-0.192657470703125,0.5690938830375671
1787816926948383000,12.481383056640626,0.12466859817504883,-0.28659534454345703,1.0460832118988037
1787816926964457000,12.49745703125,-0.08008408546447754,-0.31974220275878906,1.2765376567840576
1787816926980464400,12.51346435546875,-0.4262988567352295,-0.24263286590576172,1.2024482488632202
1787816926996613400,12.52961328125,-0.9393396377563477,-0.1362161636352539,1.1017372608184814
1787816927012674000,12.545674072265625,-1.404301643371582,-0.03748035430908203,0.9347764253616333
1787816927028732400,12.561732421875,-1.6779935359954834,0.054889678955078125,0.794178307056427
1787816927044800500,12.577800537109376,-1.6584830284118652,0.12239265441894531,0.7963488101959229
1787816927060813800,12.593813720703125,-1.3480429649353027,0.15225505828857422,0.7974324822425842
1787816927076966700,12.609966552734376,-0.8198263645172119,0.19010257720947266,0.7088552713394165
1787816927092985600,12.625985595703124,-0.2753479480743408,0.2221088409423828,0.6414031982421875
1787816927109048300,12.64204833984375,0.1974177360534668,0.265106201171875,0.5303578972816467
1787816927125121300,12.658121337890625,0.3181767463684082,0.2873868942260742,0.4014085829257965
1787816927141094100,12.67409423828125,0.09664487838745117,0.44620800018310547,0.37099093198776245
1787816927157164300,12.690164306640625,-0.3411893844604492,0.4900360107421875,0.5223785638809204
1787816927173193700,12.70619384765625,-0.7443270683288574,0.4937725067138672,0.7019004821777344
1787816927189220600,12.722220703125,-0.8966364860534668,0.4614601135253906,0.5271157026290894
1787816927205269200,12.738269287109375,-0.9706394672393799,0.6934633255004883,0.3405614495277405
1787816927221246200,12.75424609375,-1.1743240356445312,1.1587696075439453,0.38167375326156616
1787816927237362400,12.770362548828125,-1.2727537155151367,1.616908073425293,0.22391444444656372
1787816927253403000,12.78640283203125,-1.1753811836242676,2.231201171875,0.3596203923225403
1787816927269435100,12.80243505859375,-0.5462360382080078,2.8786630630493164,0.8503134250640869
1787816927285520600,12.818520751953125,0.24157428741455078,3.1974544525146484,1.586446762084961
1787816927301563100,12.834563232421875,0.8520731925964355,3.2204694747924805,1.9411849975585938
1787816927317668900,12.8506689453125,0.8533620834350586,2.949374198913574,1.759379506111145
1787816927333762800,12.8667626953125,0.1555933952331543,2.3028087615966797,0.9177125096321106
1787816927349806600,12.882806640625,-0.17725467681884766,1.4849824905395508,0.2948758602142334
1787816927365852400,12.898852294921875,-0.2830345630645752,0.7955293655395508,-0.18653175234794617
1787816927381844500,12.914844482421875,-0.1408696174621582,0.2659435272216797,-1.0744891166687012
1787816927397967000,12.930967041015625,-0.10978364944458008,-0.2625770568847656,-1.594951868057251
1787816927414019000,12.94701904296875,-0.19386959075927734,-0.7315502166748047,-1.4583263397216797
1787816927430061300,12.963061279296875,-0.4549119472503662,-1.2142901420593262,-1.3540066480636597
1787816927446110200,12.979110107421874,-0.8339879512786865,-1.785980224609375,-1.4005600214004517
1787816927462164000,12.9951640625,-1.0425457954406738,-2.2876529693603516,-1.2976479530334473
1787816927478284300,13.0112841796875,-0.6088345050811768,-2.7278432846069336,-1.0518218278884888
1787816927494398200,13.027398193359375,-0.23896121978759766,-2.3973774909973145,-0.45758056640625
1787816927510461700,13.043461669921875,0.07578611373901367,-1.6172499656677246,-0.14850962162017822
1787816927526541800,13.059541748046875,-0.039949893951416016,-0.5657720565795898,-0.4251101016998291
1787816927542558000,13.075557861328125,-0.1273515224456787,0.7731380462646484,-1.4980461597442627
1787816927558643700,13.091643798828125,0.17368006706237793,2.016864776611328,-1.6641860008239746
1787816927574662100,13.107662109375,0.5563373565673828,3.4749269485473633,-1.884129285812378
1787816927590724000,13.12372412109375,1.2516765594482422,3.7427520751953125,-1.8129603862762451
1787816927606781700,13.13978173828125,1.9471995830535889,3.4697494506835938,-1.9328683614730835
1787816927622802200,13.15580224609375,2.6031744480133057,3.423394203186035,-1.796182632446289
1787816927638895400,13.171895263671875,2.89719557762146,3.3648767471313477,-1.4181023836135864
1787816927654967000,13.187967041015625,2.9758071899414062,3.114750862121582,-0.6775567531585693
1787816927670991000,13.2039912109375,2.490647554397583,2.6440963745117188,-0.5331111550331116
1787816927687066400,13.22006640625,2.2485592365264893,1.7087593078613281,0.16339650750160217
1787816927703095800,13.236095703125,1.6835739612579346,0.7908334732055664,0.3576033115386963
1787816927719207200,13.252207275390624,1.2194950580596924,-0.4714927673339844,0.712103009223938
1787816927735289600,13.26828955078125,0.3926384449005127,-1.4928584098815918,0.9110016822814941
1787816927751317000,13.28431689453125,-0.45702075958251953,-2.351440906524658,1.2198307514190674
1787816927767399400,13.3003994140625,-1.0774977207183838,-3.0315871238708496,1.4262601137161255
1787816927783436800,13.316436767578125,-1.5072102546691895,-3.5382041931152344,1.453141450881958
1787816927799543600,13.33254345703125,-1.3837082386016846,-4.128708362579346,1.7468981742858887
1787816927815639600,13.3486396484375,-0.7847716808319092,-4.6370158195495605,1.9596383571624756
1787816927831680800,13.3646806640625,-0.23025012016296387,-5.056031703948975,1.8621628284454346
1787816927847771000,13.38077099609375,-0.2602241039276123,-5.216460227966309,1.825451135635376
1787816927863820000,13.396820068359375,-0.8819167613983154,-5.086430549621582,2.167095422744751
1787816927879934500,13.4129345703125,-1.8777679204940796,-4.820332050323486,2.682676315307617
1787816927896034000,13.429033935546874,-2.3353381156921387,-4.643738746643066,3.0501456260681152
1787816927912087600,13.445087646484374,-1.3921680450439453,-4.3248724937438965,2.6665849685668945
1787816927928136200,13.46113623046875,-0.582733154296875,-2.5627970695495605,1.9018577337265015
1787816927944193000,13.477193115234375,-0.8132388591766357,-0.01270294189453125,1.8489327430725098
1787816927960308700,13.493308837890625,-0.5028049945831299,1.8960628509521484,2.364570379257202
1787816927976409300,13.509409423828124,1.3800249099731445,3.424581527709961,2.098998785018921
1787816927992465200,13.525465087890625,4.2548065185546875,4.568894386291504,2.288193702697754
1787816928008525300,13.541525390625,7.678752899169922,4.629708290100098,3.460681915283203
1787816928024586800,13.557586669921875,8.990001678466797,4.111362457275391,5.030510902404785
1787816928040715300,13.57371533203125,7.616872787475586,3.946743965148926,5.840283393859863
1787816928056828700,13.58982861328125,4.661777496337891,4.371342658996582,3.9470341205596924
1787816928072889300,13.605889404296875,2.3454928398132324,4.710779190063477,2.5550572872161865
1787816928088957000,13.62195703125,1.8741140365600586,4.824758529663086,1.6344108581542969
1787816928105026300,13.6380263671875,2.6411900520324707,4.128045082092285,0.8112056255340576
1787816928121167000,13.6541669921875,2.9033429622650146,2.762845039367676,0.9943039417266846
1787816928137243400,13.670243408203126,2.699469566345215,1.2498703002929688,0.9639949798583984
1787816928153265700,13.686265625,1.986138105392456,-0.16054821014404297,1.1209800243377686
1787816928169329400,13.702329345703125,1.5140020847320557,-1.6378154754638672,1.7877047061920166
1787816928185376500,13.71837646484375,0.7335288524627686,-2.944654941558838,1.3275480270385742
1787816928201470700,13.734470703125,-0.5181705951690674,-4.048155784606934,0.5790054798126221
1787816928217544700,13.750544677734375,-1.5114293098449707,-4.829097270965576,-0.3449249267578125
1787816928233576200,13.766576171875,-2.0036754608154297,-5.537179946899414,-1.3100041151046753
1787816928249655000,13.782655029296874,-1.3447463512420654,-6.285946846008301,-2.192826747894287
1787816928265689600,13.798689697265624,-0.5387630462646484,-6.38889217376709,-2.6317262649536133
1787816928281790000,13.8147900390625,0.4986095428466797,-6.577048301696777,-2.5930917263031006
1787816928297874200,13.830874267578125,1.00620698928833,-6.660239219665527,-2.5856077671051025
1787816928313911600,13.84691162109375,0.6671147346496582,-6.565876007080078,-2.7147185802459717
1787816928329998800,13.862998779296875,0.5679383277893066,-5.960183143615723,-2.5880675315856934
1787816928346040000,13.8790400390625,0.6577906608581543,-4.664794445037842,-1.7984658479690552
1787816928362151000,13.89515087890625,0.8461136817932129,-2.490452289581299,-1.3640847206115723
1787816928378240500,13.911240478515625,0.8825957775115967,0.5682687759399414,-2.38796329498291
1787816928394284500,13.927284423828125,0.3138730525970459,4.98975944519043,-3.3916754722595215
1787816928410334700,13.943334716796874,-0.3382831811904907,6.383190155029297,-1.7645323276519775
1787816928426390500,13.959390625,0.428220272064209,5.62496280670166,-2.0180296897888184
1787816928442515500,13.975515380859376,4.722031116485596,4.61712646484375,-0.8657429218292236
1787816928458622200,13.991622314453124,9.239503860473633,4.1699419021606445,-0.1769087314605713
1787816928474679800,14.0076796875,11.398706436157227,3.3795042037963867,0.20620977878570557
1787816928490742800,14.02374267578125,9.679558753967285,2.193511962890625,1.2101079225540161
1787816928506809000,14.03980908203125,5.11726188659668,2.0356130599975586,1.988572359085083
1787816928522943200,14.055943115234374,1.3791851997375488,1.7954931259155273,2.189443349838257
1787816928539010600,14.072010498046875,0.17371582984924316,1.1952524185180664,1.7660493850708008
1787816928555036000,14.088035888671875,0.6294429302215576,0.45657920837402344,1.1732923984527588
1787816928571116300,14.1041162109375,1.6266911029815674,-0.3504304885864258,0.7319631576538086
1787816928587095000,14.120094970703125,2.182326316833496,-1.2590579986572266,0.3087500333786011
1787816928603206400,14.136206298828125,1.8904337882995605,-2.0573811531066895,-0.01149749755859375
1787816928619238400,14.15223828125,1.4711601734161377,-2.763467788696289,0.14458847045898438
1787816928635268900,14.168268798828125,1.1197199821472168,-3.3195323944091797,0.35486268997192383
1787816928651345400,14.184345458984374,0.9194056987762451,-3.900815010070801,0.40936726331710815
1787816928667378200,14.200378173828126,0.6578600406646729,-4.106813430786133,0.530217170715332
1787816928683478300,14.216478271484375,0.7071270942687988,-4.11076545715332,0.8173238039016724
1787816928699556400,14.232556396484375,0.6027281284332275,-3.98006534576416,1.1421029567718506
1787816928715585000,14.2485849609375,0.22285127639770508,-3.915041446685791,1.562077283859253
1787816928731663600,14.26466357421875,-0.5122640132904053,-3.465062141418457,1.978222370147705
1787816928747708700,14.280708740234376,-1.3770183324813843,-3.122756004333496,2.445385694503784
1787816928763819500,14.296819580078125,-1.6594367027282715,-2.590752601623535,2.6249585151672363
1787816928779917000,14.3129169921875,-1.0375494956970215,-1.8644847869873047,2.593287944793701
1787816928795959300,14.328959228515625,0.00576019287109375,-1.071120262145996,2.5858500003814697
1787816928812011000,14.345010986328125,0.8459477424621582,0.027238845825195312,2.5091826915740967
1787816928828059100,14.36105908203125,2.6192786693573,1.080453872680664,1.9769319295883179
1787816928844177200,14.37717724609375,3.3998138904571533,1.620863914489746,2.221987247467041
1787816928860275200,14.393275146484376,4.285311698913574,2.325286865234375,1.5687278509140015
1787816928876323300,14.4093232421875,5.194104194641113,2.4503965377807617,1.614033579826355
1787816928892374500,14.42537451171875,5.823797702789307,2.019224166870117,1.5475714206695557
1787816928908427300,14.44142724609375,5.800500869750977,1.319798469543457,0.6024120450019836
1787816928924549400,14.45754931640625,4.616748809814453,0.8284130096435547,-0.04616260528564453
1787816928940657400,14.473657470703126,3.1167280673980713,0.6543893814086914,-0.428841233253479
1787816928956715300,14.48971533203125,1.5152499675750732,0.29784202575683594,-0.47766685485839844
1787816928972784000,14.5057841796875,0.372694730758667,-0.141021728515625,-0.35573500394821167
1787816928988802300,14.52180224609375,-0.4040710926055908,-0.5217227935791016,0.027468740940093994
1787816929004942600,14.537942626953125,-0.8193933963775635,-0.9421310424804688,0.4170701503753662
1787816929021017900,14.554017822265624,-1.0933990478515625,-1.3329591751098633,0.5949515700340271
1787816929037085200,14.570085205078126,-1.4182934761047363,-1.564854621887207,0.6118149757385254
1787816929053153000,14.586153076171875,-1.6033058166503906,-1.6313080787658691,0.5704384446144104
1787816929069222400,14.602222412109375,-1.387453317642212,-1.5092201232910156,0.40777796506881714
1787816929085384700,14.618384765625,-0.7558825016021729,-1.347663402557373,0.16050007939338684
1787816929101408300,14.634408203125,-0.1557166576385498,-1.035323143005371,0.070148766040802
1787816929117429200,14.65042919921875,0.07318687438964844,-0.6843357086181641,0.09909868240356445
1787816929133523700,14.666523681640625,0.16770076751708984,-0.49433326721191406,0.12855419516563416
1787816929149508400,14.68250830078125,-0.006752967834472656,-0.3107728958129883,0.3273661732673645
1787816929173684000,14.70668408203125,-0.1259322166442871,0.07275390625,0.821965217590332
1787816929189680000,14.72268017578125,-0.08534383773803711,0.33364009857177734,1.2841190099716187
1787816929205736000,14.73873583984375,-0.10502815246582031,0.5866250991821289,1.4331474304199219
1787816929221774300,14.7547744140625,-0.15622711181640625,0.7949438095092773,1.3043849468231201
1787816929237818400,14.770818359375,-0.11849260330200195,0.9833602905273438,1.0801146030426025
1787816929253919000,14.7869189453125,0.3277463912963867,1.1315326690673828,0.8536588549613953
1787816929269916000,14.802916015625,0.8648185729980469,1.1891708374023438,0.7740479111671448
1787816929285967600,14.818967529296875,1.0113019943237305,1.3193702697753906,0.6061544418334961
1787816929302008300,14.83500830078125,0.9497036933898926,1.2572402954101562,0.4644187092781067
1787816929318059500,14.8510595703125,0.7697019577026367,1.1756439208984375,0.31326398253440857
1787816929334198800,14.86719873046875,0.33298158645629883,1.0550413131713867,-0.008903741836547852
1787816929350206500,14.88320654296875,0.014603137969970703,0.8299484252929688,-0.2895420491695404
1787816929366257000,14.8992568359375,-0.3156132698059082,0.6778659820556641,-0.2562231123447418
1787816929382318800,14.91531884765625,-0.32079505920410156,0.5330867767333984,0.004146307706832886
1787816929398379800,14.9313798828125,-0.3174915313720703,0.5011539459228516,0.27727586030960083
1787816929414516500,14.9475166015625,-0.10537385940551758,0.07732200622558594,0.6206166744232178
1787816929430539500,14.96353955078125,-0.2075662612915039,0.13229084014892578,0.6902715563774109
1787816929446630400,14.97963037109375,-0.402677059173584,-0.3180103302001953,1.1304419040679932
1787816929462701300,14.995701416015624,-0.9109940528869629,-0.18768787384033203,1.040663480758667
1787816929478770200,15.011770263671876,-1.310445785522461,-0.13968181610107422,1.2026398181915283
1787816929494886700,15.02788671875,-1.594416618347168,-0.1035928726196289,1.0302374362945557
1787816929510865200,15.043865234375,-1.3799636363983154,-0.11291694641113281,0.5387815833091736
1787816929526915300,15.059915283203125,-1.0037198066711426,-0.04039573669433594,0.21485063433647156
1787816929542939100,15.075939208984375,-0.7256102561950684,0.09498882293701172,0.018401026725769043
1787816929558966800,15.091966796875,-0.6489129066467285,0.22696304321289062,-0.20364421606063843
1787816929575093000,15.108093017578126,-0.4628922939300537,0.3364439010620117,-0.5549781918525696
1787816929591078400,15.124078369140625,-0.07573604583740234,0.42258262634277344,-0.9350289702415466
1787816929607169300,15.140169189453125,0.3149220943450928,0.7369146347045898,-1.23097562789917
1787816929623197000,15.156197021484376,0.5913467407226562,0.749903678894043,-1.358319640159607
1787816929639231500,15.1722314453125,0.7429580688476562,0.6094799041748047,-1.3814009428024292
1787816929655367400,15.188367431640625,0.9213805198669434,0.4302940368652344,-1.129644751548767
1787816929671359200,15.204359130859375,1.0472943782806396,0.12620067596435547,-0.5816773176193237
1787816929687420700,15.220420654296875,0.5559885501861572,-0.17671489715576172,-0.2715761661529541
1787816929703456800,15.236456787109375,-0.39255499839782715,-0.4858551025390625,-0.21587878465652466
1787816929719496400,15.252496337890625,-1.5022714138031006,-0.5083551406860352,-0.3054530620574951
1787816929735584300,15.268584228515625,-2.285968780517578,-0.37981414794921875,-0.39362549781799316
1787816929751584500,15.28458447265625,-2.3973920345306396,-0.25429821014404297,-0.20881611108779907
1787816929767638800,15.300638671875,-1.986760139465332,-0.07462596893310547,-0.13317453861236572
1787816929783683000,15.31668310546875,-1.5251303911209106,0.07335758209228516,-0.2410840392112732
1787816929799733000,15.33273291015625,-1.2353589534759521,0.15270137786865234,-0.2442060112953186
1787816929815880700,15.348880615234375,-0.860182523727417,0.2591409683227539,-0.17446285486221313
1787816929831885600,15.364885498046876,-0.6221466064453125,0.22149181365966797,-0.0832929015159607
1787816929847963000,15.380962890625,-0.45642566680908203,0.14742088317871094,-0.06735092401504517
1787816929864016400,15.397016357421874,-0.14674830436706543,0.09924697875976562,0.014558672904968262
1787816929880076300,15.413076171875,0.068511962890625,0.11922454833984375,-0.17476272583007812
1787816929896237300,15.4292373046875,0.2594780921936035,-0.00611114501953125,-0.18734073638916016
1787816929912253000,15.4452529296875,0.14130043983459473,0.054831504821777344,-0.3802683353424072
1787816929928341000,15.461341064453125,-0.3057708740234375,0.1006011962890625,-0.5490960478782654
1787816929944358100,15.477358154296875,-0.7471253871917725,0.022806167602539062,-0.7125512361526489
1787816929960375300,15.493375244140625,-1.121546745300293,-0.05215263366699219,-0.642136812210083
1787816929976495600,15.50949560546875,-1.330108880996704,-0.24050140380859375,-0.3943427801132202
1787816930000498700,15.533498779296876,-1.475109338760376,-0.48952770233154297,-0.2643728256225586
1787816930016585200,15.549585205078126,-1.5601117610931396,-0.7506675720214844,-0.29075050354003906
1787816930032566000,15.56556591796875,-1.6111299991607666,-0.9435949325561523,-0.26973551511764526
1787816930048686600,15.5816865234375,-1.6697847843170166,-1.2061104774475098,-0.13646423816680908
1787816930064722200,15.59772216796875,-1.8822728395462036,-1.2680187225341797,0.042698442935943604
1787816930080761000,15.613760986328124,-2.2866134643554688,-1.2237067222595215,0.022630363702774048
1787816930096815000,15.629815185546875,-2.5498626232147217,-1.0799522399902344,-0.08083412051200867
1787816930112803000,15.645802978515626,-2.598890781402588,-0.879817008972168,-0.0613064169883728
1787816930128940800,15.66194091796875,-2.5699267387390137,-0.6556768417358398,0.2942836880683899
1787816930144988200,15.67798828125,-2.3862218856811523,-0.22384071350097656,0.5997741222381592
1787816930161033200,15.694033203125,-1.8290627002716064,0.06965160369873047,0.6863725185394287
1787816930177083100,15.710083251953124,-1.2192764282226562,0.5989265441894531,0.625129222869873
1787816930193085400,15.72608544921875,-0.6988351345062256,1.1098508834838867,0.8623182773590088
1787816930209218300,15.74221826171875,-0.42498207092285156,1.5287742614746094,0.9109218120574951
1787816930225264400,15.758264404296876,-0.41073131561279297,1.8009119033813477,1.1612026691436768
1787816930241310700,15.774310791015624,-0.3528761863708496,2.1149826049804688,1.1650904417037964
1787816930257358600,15.790358642578125,-0.11079788208007812,2.238515853881836,1.2711083889007568
1787816930273414400,15.806414306640624,0.9404597282409668,2.2368345260620117,1.5427192449569702
1787816930289527300,15.82252734375,1.8575401306152344,2.0448741912841797,1.5695602893829346
1787816930305620200,15.8386201171875,2.2799487113952637,1.9129562377929688,1.2612336874008179
1787816930321669400,15.85466943359375,2.352886199951172,1.5879831314086914,0.8624737858772278
1787816930337725200,15.87072509765625,2.4479684829711914,1.3785200119018555,0.43992143869400024
1787816930353792800,15.886792724609375,2.5534958839416504,1.3628921508789062,0.20417846739292145
1787816930369921000,15.902921142578125,2.5012874603271484,0.9449291229248047,0.97197425365448
1787816930386032000,15.9190322265625,2.3888401985168457,1.1086549758911133,1.9147745370864868
1787816930402099500,15.935099365234375,2.341646194458008,1.6465892791748047,2.154344081878662
1787816930418164000,15.9511640625,2.0164527893066406,2.3225154876708984,2.542220115661621
1787816930434234000,15.967234130859374,1.3414263725280762,2.7047481536865234,2.863731622695923
1787816930450322000,15.983322021484375,0.4976930618286133,2.6295318603515625,3.110114574432373
1787816930466393300,15.999393310546875,-0.3043699264526367,2.9785680770874023,1.758190393447876
1787816930482462000,16.0154619140625,-0.15508508682250977,2.9693546295166016,0.695056140422821
1787816930498531000,16.031531005859375,-0.13372039794921875,3.256819725036621,0.05190613120794296
1787816930514556700,16.047556640625,0.2531275749206543,3.116849899291992,-0.057446226477622986
1787816930530652000,16.06365185546875,-0.043650150299072266,2.732219696044922,0.04651829972863197
1787816930546728400,16.079728515625,0.14020347595214844,2.285813331604004,-0.7799875140190125
1787816930562759400,16.095759521484375,-0.3276815414428711,1.7428760528564453,-0.6177186965942383
1787816930578851600,16.1118515625,0.13184738159179688,0.6588106155395508,-0.28599753975868225
1787816930594834200,16.127834228515624,0.22224187850952148,-0.791903018951416,-1.0419117212295532
1787816930610948400,16.1439482421875,-0.37531232833862305,-2.0224575996398926,-1.589118480682373
1787816930627029200,16.160029296875,-1.1050331592559814,-3.134953498840332,-2.269427537918091
1787816930643062500,16.1760625,-1.0314457416534424,-4.02144193649292,-3.220733404159546
1787816930659117000,16.192116943359373,-0.7030792236328125,-4.682295799255371,-3.643543243408203
1787816930675162000,16.208162109375,-0.09909582138061523,-5.24770450592041,-3.7375965118408203
1787816930691276500,16.224276611328126,0.3364887237548828,-5.622978687286377,-3.065988302230835
1787816930707371500,16.24037158203125,0.10999298095703125,-5.929068565368652,-2.1721208095550537
1787816930723411200,16.2564111328125,-0.7637851238250732,-6.193920135498047,-1.6448912620544434
1787816930739459600,16.27245947265625,-1.8358612060546875,-6.335838794708252,-1.3140385150909424
1787816930755507200,16.288507080078126,-2.7248806953430176,-6.083709716796875,-0.8558204770088196
1787816930771631000,16.304631103515625,-3.1144943237304688,-4.32621955871582,-0.06883770227432251
1787816930787732000,16.32073193359375,-3.6013906002044678,-1.6568574905395508,0.27239155769348145
1787816930803780400,16.3367802734375,-4.431568622589111,-0.1887054443359375,-1.01004159450531
1787816930819825200,16.3528251953125,-5.588270664215088,2.0280303955078125,-2.272922992706299
1787816930835875000,16.368875,-4.262956142425537,4.245561599731445,-2.0913984775543213
1787816930851995400,16.384995361328127,2.0013811588287354,4.520276069641113,-4.110114097595215
1787816930868101600,16.4011015625,9.859991073608398,4.286458969116211,-6.74714994430542
1787816930884155100,16.417155029296875,12.26779842376709,4.783149719238281,-7.6107964515686035
1787816930900212000,16.4332119140625,8.858428955078125,5.137443542480469,-6.6097283363342285
1787816930916274200,16.449274169921875,3.9764835834503174,5.365399360656738,-4.603376865386963
1787816930932406500,16.465406494140623,2.268744707107544,4.942852973937988,-1.8325481414794922
1787816930948467200,16.48146728515625,3.4201481342315674,3.665228843688965,0.0875759869813919
1787816930964478700,16.497478759765624,4.5586256980896,2.4256591796875,1.5473694801330566
1787816930980539000,16.513538818359375,4.3016486167907715,1.0637149810791016,2.4666225910186768
1787816930996559400,16.529559326171874,3.059770107269287,0.04801368713378906,2.1401753425598145
1787816931012647000,16.54564697265625,1.653731346130371,-0.9349403381347656,1.5674548149108887
1787816931028716800,16.561716796875,0.6828517913818359,-1.9323148727416992,0.7321840524673462
1787816931044739600,16.577739501953126,0.2016615867614746,-3.0190649032592773,0.40342095494270325
1787816931060812500,16.5938125,-0.4600367546081543,-4.010681629180908,0.17095980048179626
1787816931076839400,16.60983935546875,-0.9437820911407471,-5.036289215087891,0.1849205195903778
1787816931092938800,16.625938720703125,-1.3086638450622559,-5.839459419250488,0.1575125753879547
1787816931109026800,16.64202685546875,-1.566157341003418,-6.341726303100586,0.18269935250282288
1787816931125058600,16.65805859375,-2.213188648223877,-6.411587238311768,0.11444473266601562
1787816931141137000,16.674136962890625,-2.735705852508545,-6.225765228271484,0.32343995571136475
1787816931157172200,16.690172119140627,-2.5800042152404785,-5.933324813842773,0.14255088567733765
1787816931173280500,16.706280517578126,-1.6239640712738037,-4.32357120513916,-0.3955196738243103
1787816931189368800,16.722368896484376,-1.2880938053131104,-0.6377439498901367,0.06858408451080322
1787816931205412000,16.738412109375,-1.4299037456512451,1.3471908569335938,3.099095344543457
1787816931221505500,16.754505615234375,-1.5982933044433594,2.566512107849121,5.326874732971191
1787816931237557500,16.7705576171875,-0.540891170501709,5.036876678466797,7.781836986541748
1787816931253698800,16.78669873046875,3.6702988147735596,5.513392448425293,8.07331657409668
1787816931269799000,16.802798828125,8.902670860290527,4.60418701171875,4.197145462036133
1787816931285852000,16.818851806640627,10.802544593811035,4.249004364013672,0.7295207977294922
1787816931301910000,16.834909912109374,10.178946495056152,4.102784156799316,-2.6032190322875977
1787816931317977000,16.85097705078125,7.335592746734619,3.4772777557373047,-4.474658012390137
1787816931334108400,16.8671083984375,3.959886312484741,3.090137481689453,-5.048276901245117
1787816931350175000,16.883175048828125,1.4318552017211914,2.3151016235351562,-4.623377799987793
1787816931366239500,16.899239501953126,-0.38577795028686523,0.8764495849609375,-3.3187851905822754
1787816931382306800,16.915306884765624,-1.2147135734558105,0.042160987854003906,-2.3888421058654785
1787816931398282000,16.931281982421876,-1.3928818702697754,-0.7500553131103516,-1.815385103225708
1787816931414376200,16.947376220703124,-1.1464931964874268,-1.362161636352539,-1.5900068283081055
1787816931430461000,16.9634609375,-0.5610263347625732,-2.218911647796631,-1.228774070739746
1787816931446489300,16.9794892578125,0.21139812469482422,-2.868828773498535,-1.58726167678833
1787816931462559000,16.99555908203125,0.10721826553344727,-3.4598608016967773,-2.1585659980773926
1787816931478591200,17.01159130859375,0.04950380325317383,-4.023260593414307,-2.4416587352752686
1787816931494692600,17.027692626953126,-0.26077842712402344,-4.673391342163086,-2.6766104698181152
1787816931510780700,17.04378076171875,-0.7465031147003174,-5.29014253616333,-3.0386710166931152
1787816931526806300,17.05980615234375,-1.9190231561660767,-5.6500959396362305,-3.0948853492736816
1787816931542881000,17.075881103515623,-2.79233980178833,-5.888827800750732,-3.215461492538452
1787816931558908200,17.091908203125,-2.6028354167938232,-6.125235557556152,-3.4560129642486572
1787816931575009800,17.108009765625,-1.177819013595581,-5.154651641845703,-4.107115268707275
1787816931591044400,17.12404443359375,-0.4599578380584717,-1.681478500366211,-5.3137946128845215
1787816931607075000,17.140074951171876,-0.41382503509521484,0.11577510833740234,-5.464975357055664
1787816931623150000,17.156150146484375,-0.7947412729263306,0.6145639419555664,-5.759591579437256
1787816931639182000,17.17218212890625,-1.3342950344085693,2.2097225189208984,-3.5251145362854004
1787816931655273700,17.188273681640624,0.16396522521972656,3.876528739929199,1.0972262620925903
1787816931671374300,17.204374267578125,2.9409916400909424,4.00825309753418,1.1815074682235718
1787816931687418600,17.220418701171877,5.0888352394104,3.9265260696411133,0.8340312242507935
1787816931703507000,17.2365068359375,5.299229621887207,3.6950607299804688,2.246490955352783
1787816931719556600,17.252556640625,3.5838143825531006,3.466475486755371,2.899628162384033
1787816931735671300,17.26867138671875,1.7843830585479736,2.727773666381836,3.3602828979492188
1787816931751772000,17.28477197265625,1.442152500152588,1.489755630493164,3.4212470054626465
1787816931767815400,17.3008154296875,1.7260284423828125,0.3031158447265625,3.452528953552246
1787816931783908600,17.31690869140625,1.6205761432647705,-0.6273164749145508,3.372011661529541
1787816931799916800,17.332916748046873,1.4276173114776611,-1.5755558013916016,3.177246570587158
1787816931816054300,17.34905419921875,0.6845207214355469,-2.3936800956726074,2.9929308891296387
1787816931832066800,17.36506689453125,0.3103201389312744,-3.0210399627685547,2.717411756515503
1787816931848130300,17.38113037109375,0.5523474216461182,-3.5156936645507812,2.415635108947754
1787816931864200200,17.3972001953125,0.9619758129119873,-3.9509663581848145,1.9163570404052734
1787816931880265200,17.41326513671875,1.3761959075927734,-4.46394157409668,1.5359209775924683
1787816931896405000,17.429405029296873,1.1923017501831055,-4.761903285980225,1.5514031648635864
1787816931912473900,17.445473876953123,0.6032285690307617,-5.0801286697387695,1.0454963445663452
1787816931928543500,17.46154345703125,0.007916688919067383,-5.380217552185059,0.956100583076477
1787816931944603100,17.47760302734375,-0.4687974452972412,-5.603826999664307,1.2001910209655762
1787816931960668200,17.493668212890626,-1.7112690210342407,-3.6339097023010254,0.7671902179718018
1787816931976753400,17.50975341796875,-3.522012710571289,0.03947734832763672,0.7820029258728027
1787816931992826000,17.525826171875,-4.34743070602417,2.3206262588500977,3.4021928310394287
1787816932008847400,17.541847412109377,-3.457231044769287,2.7036523818969727,4.3462934494018555
1787816932024917200,17.557917236328127,0.6478416919708252,4.758493423461914,5.065252304077148
1787816932040948000,17.573947998046876,7.351608753204346,4.924250602722168,6.286492347717285
1787816932057069000,17.590069091796874,12.804744720458984,3.3949222564697266,5.6621785163879395
1787816932073146400,17.606146484375,13.040145874023438,2.8775739669799805,4.301290512084961
1787816932089176300,17.62217626953125,9.11823558807373,2.6370019912719727,1.8669917583465576
1787816932105260500,17.638260498046876,4.4642109870910645,2.5136165618896484,0.5477084517478943
1787816932121303300,17.65430322265625,1.543449878692627,2.8904895782470703,-0.7521113753318787
1787816932137415400,17.67041552734375,0.8454160690307617,2.996005058288574,-1.0301098823547363
1787816932153514200,17.68651416015625,1.0363192558288574,1.9519062042236328,-0.5552569627761841
1787816932169553400,17.702553466796875,0.6217696666717529,1.0495986938476562,0.16312047839164734
1787816932185595000,17.718594970703126,-0.0687706470489502,0.04764842987060547,0.9871846437454224
1787816932201599500,17.734599609375,-0.40994739532470703,-1.163562297821045,1.2062760591506958
1787816932217736200,17.750736083984375,-0.1569352149963379,-2.146265983581543,0.870546281337738
1787816932233847800,17.766847900390626,0.6149077415466309,-3.0584278106689453,0.19896043837070465
1787816932249903000,17.782903076171873,0.9966092109680176,-3.9358744621276855,-0.5149909257888794
1787816932265950700,17.79895068359375,1.0387122631072998,-4.588107585906982,-1.1270617246627808
1787816932282012700,17.8150126953125,0.42679905891418457,-4.999029159545898,-1.461466908454895
1787816932298139600,17.8311396484375,-0.34825634956359863,-5.335112571716309,-1.3603917360305786
1787816932314205000,17.847204833984375,-0.9734203815460205,-5.3359479904174805,-1.881623387336731
1787816932330267100,17.86326708984375,-1.3140485286712646,-5.235070705413818,-1.8621070384979248
1787816932346335200,17.879335205078124,-1.015836477279663,-5.013617515563965,-1.9336063861846924
1787816932362365200,17.895365234375,-0.09743046760559082,-4.651371955871582,-2.553971290588379
1787816932378464300,17.91146435546875,1.1871371269226074,-4.214420795440674,-2.757427453994751
1787816932394497300,17.927497314453124,1.7864315509796143,-2.645587921142578,-3.070858955383301
1787816932410528800,17.94352880859375,1.9870367050170898,1.2371864318847656,-3.1236588954925537
1787816932426609000,17.95960888671875,1.871330976486206,3.5746889114379883,-0.7955585718154907
1787816932442638000,17.97563818359375,1.211069107055664,3.2533912658691406,-0.5320394039154053
1787816932458760400,17.991760498046876,0.5482916831970215,6.267900466918945,-0.6668804287910461
1787816932474846000,18.007845947265626,5.316202163696289,6.041895866394043,1.528843879699707
1787816932490883000,18.023883056640624,10.292903900146484,4.451700210571289,0.028603583574295044
1787816932506967300,18.03996728515625,12.075051307678223,3.472201347351074,-1.1041735410690308
1787816932523012000,18.05601220703125,10.268189430236816,2.181882858276367,-0.6471683382987976
1787816932539127300,18.072127197265626,7.015554428100586,1.3967247009277344,-0.6726046800613403
1787816932555221000,18.088220947265626,3.551955461502075,0.9490976333618164,-0.5781956315040588
1787816932571265000,18.10426513671875,1.4591877460479736,0.006061553955078125,-0.09330079704523087
1787816932587353600,18.120353515625,0.606144905090332,-0.9513750076293945,0.015336103737354279
1787816932603347000,18.136346923828125,0.42708373069763184,-1.822225570678711,0.5570794939994812
1787816932619474000,18.152473876953124,0.3897261619567871,-2.4424376487731934,0.7404521703720093
1787816932635575300,18.1685751953125,0.2773444652557373,-3.109534740447998,0.6435624361038208
1787816932651621000,18.18462109375,0.19464325904846191,-3.504948139190674,0.6083765029907227
1787816932667666000,18.200666015625,0.6239969730377197,-3.7514615058898926,0.6580398082733154
1787816932683719000,18.216718994140624,1.1200048923492432,-3.809464931488037,0.6137564182281494
1787816932699845000,18.23284521484375,1.4939424991607666,-3.8367137908935547,0.35227644443511963
1787816932715956200,18.248956298828126,1.7866086959838867,-3.547262191772461,0.21392157673835754
1787816932732015000,18.26501513671875,2.1006317138671875,-3.461214065551758,0.3945750892162323
1787816932748075000,18.281074951171874,1.938523769378662,-2.9383344650268555,0.1653679609298706
1787816932764087000,18.297087158203126,1.3472347259521484,-2.395203113555908,0.1935664713382721
1787816932780226000,18.31322607421875,0.9885506629943848,-2.0364913940429688,0.571143388748169
1787816932796247300,18.329247314453124,0.9404006004333496,-1.561596393585205,1.0239791870117188
1787816932812269600,18.34526953125,1.1025118827819824,-0.9732589721679688,1.4887138605117798
1787816932828345000,18.361344970703126,1.9902851581573486,-0.46576595306396484,1.5561472177505493
1787816932844325000,18.3773251953125,2.5572421550750732,0.015456199645996094,1.0981272459030151
1787816932860397800,18.393397705078126,2.397141456604004,0.6207494735717773,0.71986323595047
1787816932876424700,18.4094248046875,1.90175199508667,1.1941471099853516,0.9882570505142212
1787816932892447700,18.42544775390625,1.2694497108459473,1.482346534729004,1.1834473609924316
1787816932908494800,18.441494873046874,1.0083303451538086,1.6393041610717773,1.8841623067855835
1787816932924519000,18.457518798828126,1.3406827449798584,1.6608390808105469,2.0033535957336426
1787816932940620000,18.4736201171875,2.1694376468658447,1.3517112731933594,1.74632728099823
1787816932956702700,18.48970263671875,2.8289432525634766,0.8209972381591797,0.983190655708313
1787816932972732200,18.505732177734377,3.026073455810547,0.34036731719970703,0.11046353727579117
1787816932988827400,18.521827392578125,2.652609348297119,-0.145721435546875,-0.4050157964229584
1787816933004818000,18.53781787109375,2.138800621032715,-0.6390829086303711,-0.5558823943138123
1787816933020939800,18.553939697265626,1.5563116073608398,-0.9005861282348633,-0.6964294910430908
1787816933036984300,18.569984375,0.7267186641693115,-1.1879472732543945,-0.1962941288948059
1787816933053030700,18.58603076171875,-0.3446507453918457,-0.9646339416503906,-0.6015028357505798
1787816933069079800,18.602079833984376,-0.7434184551239014,-1.2412633895874023,0.1253787726163864
1787816933085080300,18.618080322265627,-1.0862005949020386,-0.9144973754882812,-0.09827712178230286
1787816933101203000,18.634202880859377,-0.8029210567474365,-0.80224609375,0.1339879035949707
1787816933117253400,18.65025341796875,-0.29906272888183594,-0.6832990646362305,0.11834435164928436
1787816933133297700,18.666297607421875,0.11647987365722656,-0.5728940963745117,0.16800183057785034
1787816933149345500,18.682345458984376,0.4943718910217285,-0.5615243911743164,0.3987818658351898
1787816933165354800,18.698354736328124,1.218817949295044,-0.6087322235107422,0.6055693626403809
1787816933181498400,18.714498291015627,1.7062087059020996,-0.669651985168457,0.6223606467247009
1787816933197514200,18.73051416015625,1.9087767601013184,-0.5568161010742188,0.4353063106536865
1787816933213574100,18.74657421875,1.946174144744873,-0.4790029525756836,0.2539844214916229
1787816933229650000,18.76264990234375,1.6480586528778076,-0.4301166534423828,0.15425270795822144
1787816933245674500,18.778674560546875,1.0835657119750977,-0.3523111343383789,0.06915508210659027
1787816933261790500,18.79479052734375,0.581618070602417,-0.3174552917480469,0.041225746273994446
1787816933277819000,18.81081884765625,0.004425764083862305,-0.14301395416259766,-0.10020895302295685
1787816933293842000,18.826842041015624,-0.2560906410217285,-0.02257061004638672,-0.022971123456954956
1787816933309922300,18.84292236328125,-0.2874643802642822,0.11557769775390625,-0.2545928955078125
1787816933325895700,18.858895751953124,-0.16944169998168945,0.22911548614501953,-0.19826367497444153
1787816933342017000,18.87501708984375,0.04269552230834961,0.28489017486572266,-0.2645435333251953
1787816933358042600,18.891042724609374,0.3191826343536377,0.31262779235839844,-0.22429244220256805
1787816933374066200,18.907066162109373,0.68184494972229,0.33931636810302734,-0.11575403809547424
1787816933390112000,18.923112060546874,0.9486494064331055,0.2963132858276367,0.08713029325008392
1787816933406097000,18.939096923828124,0.988149881362915,0.1942138671875,0.15132248401641846
1787816933422219800,18.9552197265625,0.8958821296691895,0.18012714385986328,0.21865969896316528
1787816933438257700,18.971257568359373,0.7841291427612305,0.1009054183959961,0.28451162576675415
1787816933454290000,18.9872900390625,0.49429750442504883,0.0756540298461914,0.255187064409256
1787816933470347800,19.00334765625,0.15471863746643066,0.07201194763183594,0.16245821118354797
1787816933486339800,19.01933984375,-0.14055371284484863,0.04258155822753906,0.10736118257045746
1787816933502471400,19.035471435546874,-0.08161091804504395,-0.028990745544433594,0.08078034222126007
1787816933518518800,19.051518798828123,0.05171370506286621,-0.01921558380126953,0.04122486710548401
1787816933534561300,19.067561279296875,0.11501812934875488,-0.047577857971191406,0.11244243383407593
1787816933550626600,19.08362646484375,0.00981283187866211,-0.01012420654296875,0.2618187665939331
1787816933566627600,19.099627685546874,-0.0031142234802246094,0.02215576171875,0.330209881067276
1787816933582772700,19.115772705078125,-0.0030279159545898438,0.035752296447753906,0.27526363730430603
1787816933606847200,19.13984716796875,-0.14814019203186035,0.03241157531738281,0.2716495394706726
1787816933622920000,19.155919921875,-0.05163764953613281,0.04424476623535156,0.18115298449993134
1787816933638973400,19.171973388671876,0.21452999114990234,0.009800910949707031,0.09065145999193192
1787816933655033900,19.188033935546876,0.37409210205078125,0.0068988800048828125,0.07216477394104004
1787816933671190300,19.204190185546874,0.2301642894744873,0.007890701293945312,0.09773790836334229
1787816933687211300,19.220211181640625,0.01104593276977539,0.047652244567871094,0.12159634381532669
1787816933703302100,19.23630224609375,-0.15369367599487305,0.09168148040771484,0.1532847285270691
1787816933719373300,19.252373291015626,-0.31178808212280273,0.11671066284179688,0.15875878930091858
1787816933735395800,19.268395751953125,-0.28531980514526367,0.14004230499267578,0.1905219852924347
1787816933751515100,19.28451513671875,-0.06435489654541016,0.14628124237060547,0.14452099800109863
1787816933767491600,19.30049169921875,0.1679859161376953,0.20040225982666016,0.005780935287475586
1787816933783584000,19.316583984375,0.2456207275390625,0.1903390884399414,-0.018760234117507935
