time,seconds_elapsed,z,y,x
1787816914598961200,0.131961181640625,2.4213428497314453,9.500055313110352,0.2375340610742569
1787816914614996200,0.147996337890625,2.423154592514038,9.499567031860352,0.23865824937820435
1787816914631113500,0.164113525390625,2.4119396209716797,9.502522468566895,0.23458558320999146
1787816914647147000,0.18014697265625,2.398470401763916,9.506032943725586,0.23039047420024872
1787816914663176400,0.196176513671875,2.4306061267852783,9.498433113098145,0.20568186044692993
1787816914679270400,0.2122705078125,2.474900007247925,9.487236022949219,0.19399170577526093
1787816914695257300,0.22825732421875,2.5243465900421143,9.473962783813477,0.2051902711391449
1787816914711383600,0.244383544921875,2.534109354019165,9.47113037109375,0.2154097706079483
1787816914727419100,0.260419189453125,2.517484664916992,9.475154876708984,0.23261983692646027
1787816914743455500,0.27645556640625,2.493312120437622,9.481623649597168,0.22934535145759583
1787816914759558000,0.292557861328125,2.503542423248291,9.47955322265625,0.20190700888633728
1787816914775556000,0.30855615234375,2.5382747650146484,9.47104549407959,0.16389906406402588
1787816914791694600,0.324694580078125,2.575451374053955,9.461328506469727,0.1438879519701004
1787816914807751400,0.34075146484375,2.588103771209717,9.457939147949219,0.13961948454380035
1787816914823806200,0.35680615234375,2.585871696472168,9.458537101745605,0.14044862985610962
1787816914839926500,0.372926513671875,2.5559146404266357,9.466445922851562,0.15525779128074646
1787816914855885600,0.388885498046875,2.5281639099121094,9.47377872467041,0.16213147342205048
1787816914871981800,0.40498193359375,2.51662540435791,9.476764678955078,0.16707126796245575
1787816914887991600,0.420991455078125,2.5180885791778564,9.47640609741211,0.16540127992630005
1787816914904003300,0.43700341796875,2.519775152206421,9.475982666015625,0.1639624834060669
1787816914920086000,0.4530859375,2.5211305618286133,9.47564697265625,0.16250351071357727
1787816914936050700,0.46905078125,2.5214741230010986,9.47558879852295,0.16056494414806366
1787816914952163000,0.4851630859375,2.520986795425415,9.475744247436523,0.15909282863140106
1787816914968187600,0.501187744140625,2.520291328430176,9.475955963134766,0.15750761330127716
1787816914984213800,0.5172138671875,2.5193557739257812,9.476244926452637,0.15504063665866852
1787816915000297500,0.53329736328125,2.5184319019317627,9.476516723632812,0.1533653885126114
1787816915016272100,0.549272216796875,2.5181260108947754,9.476616859436035,0.15222294628620148
1787816915032391700,0.5653916015625,2.519160270690918,9.47635555267334,0.15141046047210693
1787816915048425700,0.58142578125,2.5202925205230713,9.476057052612305,0.1512099653482437
1787816915064461800,0.5974619140625,2.5211195945739746,9.475829124450684,0.15164485573768616
1787816915080547600,0.613547607421875,2.5215904712677,9.47568416595459,0.1529904305934906
1787816915096540400,0.62954052734375,2.5215094089508057,9.47568130493164,0.1543877273797989
1787816915112671500,0.64567138671875,2.5223898887634277,9.475438117980957,0.15505611896514893
1787816915128720100,0.66172021484375,2.5249805450439453,9.474760055541992,0.15427403151988983
1787816915144758500,0.677758544921875,2.5275321006774902,9.474100112915039,0.152977854013443
1787816915160842200,0.69384228515625,2.529656171798706,9.473551750183105,0.15187077224254608
1787816915176846800,0.709846923828125,2.5318186283111572,9.47298526763916,0.15113982558250427
1787816915192989700,0.72598974609375,2.5350186824798584,9.47213077545166,0.15102934837341309
1787816915208996600,0.74199658203125,2.538478374481201,9.47121524810791,0.15041911602020264
1787816915225051400,0.758051513671875,2.5412209033966064,9.470465660095215,0.15127982199192047
1787816915241175300,0.77417529296875,2.5427732467651367,9.46999740600586,0.1544640064239502
1787816915257137200,0.79013720703125,2.5434107780456543,9.469756126403809,0.1587216556072235
1787816915273237800,0.80623779296875,2.544112205505371,9.469542503356934,0.16018033027648926
1787816915289251800,0.822251953125,2.546361207962036,9.46894645690918,0.159684956073761
1787816915305263900,0.838263916015625,2.55064058303833,9.467798233032227,0.15944968163967133
1787816915321394200,0.854394287109375,2.5568578243255615,9.466096878051758,0.1609022170305252
1787816915337365000,0.870364990234375,2.5627248287200928,9.464471817016602,0.16313859820365906
1787816915353480200,0.886480224609375,2.5663535594940186,9.463461875915527,0.16467121243476868
1787816915369506000,0.902506103515625,2.5695760250091553,9.462589263916016,0.16458265483379364
1787816915385532200,0.9185322265625,2.573925018310547,9.461409568786621,0.16444061696529388
1787816915401622500,0.93462255859375,2.578671932220459,9.460121154785156,0.16417378187179565
1787816915417599200,0.95059912109375,2.582852840423584,9.458965301513672,0.16504326462745667
1787816915433711600,0.966711669921875,2.584925651550293,9.458354949951172,0.16761165857315063
1787816915449738800,0.98273876953125,2.584592580795288,9.4584321975708,0.16833966970443726
1787816915465768400,0.9987685546875,2.5839273929595947,9.458634376525879,0.1671937257051468
1787816915481865500,1.014865478515625,2.585124969482422,9.458321571350098,0.1663902997970581
1787816915497848000,1.03084814453125,2.587705612182617,9.45759105682373,0.1677960753440857
1787816915513977300,1.046977294921875,2.5898115634918213,9.4569673538208,0.17047639191150665
1787816915530017500,1.063017578125,2.5892791748046875,9.457043647766113,0.17422142624855042
1787816915546055400,1.079055419921875,2.5867366790771484,9.457686424255371,0.1771218329668045
1787816915562164000,1.0951640625,2.5842816829681396,9.458331108093262,0.17846739292144775
1787816915578161200,1.1111611328125,2.583474636077881,9.458541870117188,0.17901042103767395
1787816915594297900,1.1272978515625,2.5858991146087646,9.457877159118652,0.17909429967403412
1787816915610348300,1.143348388671875,2.5908944606781006,9.456494331359863,0.17994330823421478
1787816915626395000,1.159394775390625,2.5957016944885254,9.455156326293945,0.18094108998775482
1787816915642516700,1.175516845703125,2.5994513034820557,9.454116821289062,0.18148966133594513
1787816915658521300,1.191521240234375,2.6038010120391846,9.452906608581543,0.18211598694324493
1787816915674607600,1.207607666015625,2.607447624206543,9.451910972595215,0.1816428154706955
1787816915690662700,1.22366259765625,2.6102488040924072,9.451160430908203,0.1803939789533615
1787816915706721000,1.239720947265625,2.613957166671753,9.450142860412598,0.18006548285484314
1787816915722848800,1.255848876953125,2.619131088256836,9.448690414428711,0.1811380833387375
1787816915738811400,1.271811279296875,2.6245524883270264,9.447137832641602,0.1835448443889618
1787816915754958300,1.287958251953125,2.62650990486145,9.446558952331543,0.18535365164279938
1787816915770973700,1.3039736328125,2.62463641166687,9.44707202911377,0.1857987642288208
1787816915786980000,1.31997998046875,2.622138738632202,9.447739601135254,0.18709494173526764
1787816915803112400,1.336112548828125,2.625091075897217,9.446884155273438,0.18885785341262817
1787816915819084500,1.35208447265625,2.6317031383514404,9.4450044631958,0.19087329506874084
1787816915835197000,1.368197021484375,2.635458469390869,9.44395637512207,0.1909147948026657
1787816915851222300,1.38422216796875,2.635711908340454,9.443923950195312,0.1889917105436325
1787816915867239200,1.4002392578125,2.6355955600738525,9.4439697265625,0.18836306035518646
1787816915883324200,1.41632421875,2.6352622509002686,9.444071769714355,0.18783698976039886
1787816915899300600,1.432300537109375,2.6331353187561035,9.444695472717285,0.18628361821174622
1787816915915414500,1.44841455078125,2.6275572776794434,9.44632625579834,0.18240152299404144
1787816915931451100,1.464451171875,2.61934757232666,9.448721885681152,0.17621493339538574
1787816915947479000,1.48047900390625,2.607835054397583,9.452062606811523,0.16761720180511475
1787816915963567600,1.496567626953125,2.5934925079345703,9.456111907958984,0.161602184176445
1787816915979553000,1.512552978515625,2.58071231842041,9.4596529006958,0.15907792747020721
1787816915995677400,1.528677490234375,2.5712404251098633,9.462242126464844,0.15842851996421814
1787816916011719700,1.5447197265625,2.563230276107788,9.464412689208984,0.15862345695495605
1787816916027757600,1.560757568359375,2.5519096851348877,9.467487335205078,0.15754179656505585
1787816916043840800,1.5768408203125,2.5344173908233643,9.472213745117188,0.1558753252029419
1787816916059829500,1.59282958984375,2.5142314434051514,9.477606773376465,0.15490853786468506
1787816916075960800,1.6089609375,2.4944193363189697,9.482826232910156,0.15578560531139374
1787816916092008200,1.62500830078125,2.471820116043091,9.48883056640625,0.1503799557685852
1787816916108050400,1.641050537109375,2.4543490409851074,9.493407249450684,0.14767244458198547
1787816916124163800,1.657163818359375,2.4433014392852783,9.496268272399902,0.14689181745052338
1787816916140169500,1.67316943359375,2.4393882751464844,9.49726676940918,0.14733780920505524
1787816916156316400,1.68931640625,2.4332845211029053,9.498848915100098,0.14630700647830963
1787816916172327700,1.70532763671875,2.4266865253448486,9.500588417053223,0.1428781896829605
1787816916188384800,1.721384765625,2.4176723957061768,9.502959251403809,0.13796529173851013
1787816916204519700,1.737519775390625,2.405543565750122,9.506113052368164,0.132616326212883
1787816916220489000,1.753489013671875,2.386643648147583,9.510904312133789,0.13042788207530975
1787816916236600600,1.7696005859375,2.354341983795166,9.518916130065918,0.13305383920669556
1787816916252619000,1.785618896484375,2.318605661392212,9.52767276763916,0.133860781788826
1787816916268632300,1.80163232421875,2.2855470180511475,9.535691261291504,0.13139672577381134
1787816916284768300,1.817768310546875,2.2627997398376465,9.541095733642578,0.13274522125720978
1787816916300739800,1.83373974609375,2.2574095726013184,9.542350769042969,0.13432371616363525
1787816916316854000,1.84985400390625,2.261979103088379,9.54128646850586,0.1329851597547531
1787816916332874500,1.86587451171875,2.266558885574341,9.540277481079102,0.12731003761291504
1787816916348894500,1.88189453125,2.261899471282959,9.541513442993164,0.11718115210533142
1787816916364984600,1.897984619140625,2.247300148010254,9.545080184936523,0.10717998445034027
1787816916380964000,1.913964111328125,2.2292535305023193,9.549386024475098,0.1002279669046402
1787816916397086200,1.930086181640625,2.215501546859741,9.552640914916992,0.0948868989944458
1787816916413116400,1.946116455078125,2.2124276161193848,9.553366661071777,0.0935901403427124
1787816916429154300,1.962154296875,2.220712423324585,9.551446914672852,0.09321049600839615
1787816916445214200,1.978214111328125,2.235921859741211,9.547889709472656,0.09415391087532043
1787816916461200000,1.994199951171875,2.243049383163452,9.546204566955566,0.09554916620254517
1787816916477325300,2.0103251953125,2.237772226333618,9.547471046447754,0.09249474853277206
1787816916493363700,2.02636376953125,2.225285053253174,9.550455093383789,0.08543693274259567
1787816916509399600,2.042399658203125,2.2106571197509766,9.553895950317383,0.0804872065782547
1787816916525507800,2.0585078125,2.1951258182525635,9.557477951049805,0.08014584332704544
1787816916541502000,2.074501953125,2.181985855102539,9.560464859008789,0.0829024463891983
1787816916557631200,2.09063134765625,2.16648530960083,9.56389331817627,0.09326835721731186
1787816916573675300,2.10667529296875,2.1486215591430664,9.56776237487793,0.10848317295312881
1787816916589719300,2.12271923828125,2.1399474143981934,9.569520950317383,0.12356588244438171
1787816916605830400,2.138830322265625,2.1495885848999023,9.567265510559082,0.13074469566345215
1787816916621838000,2.154838134765625,2.1829307079315186,9.559920310974121,0.11461802572011948
1787816916637970700,2.170970703125,2.1896708011627197,9.558603286743164,0.09390315413475037
1787816916654025700,2.187025634765625,2.1646628379821777,9.564395904541016,0.08332300931215286
1787816916670077200,2.2030771484375,2.118950366973877,9.574589729309082,0.08764935284852982
1787816916686194200,2.219194091796875,2.0742454528808594,9.58426284790039,0.09899433702230453
1787816916702212600,2.235212646484375,2.045562267303467,9.590327262878418,0.10819500684738159
1787816916718312200,2.251312255859375,2.040785074234009,9.591371536254883,0.1058022603392601
1787816916734334200,2.267334228515625,2.048248767852783,9.589933395385742,0.09073416888713837
1787816916750355000,2.28335498046875,2.0597498416900635,9.587681770324707,0.06471738964319229
1787816916766484700,2.299484619140625,2.072401285171509,9.58511734008789,0.032836101949214935
1787816916782459100,2.315459228515625,2.086545944213867,9.58210277557373,-0.006353460717946291
1787816916798565000,2.331565185546875,2.0971386432647705,9.579615592956543,-0.05788198858499527
1787816916814590700,2.3475908203125,2.1014938354492188,9.578093528747559,-0.11931144446134567
1787816916830617000,2.3636171875,2.105325937271118,9.576197624206543,-0.18551059067249298
1787816916846753300,2.379753173828125,2.1040196418762207,9.57508373260498,-0.24755379557609558
1787816916862739700,2.39573974609375,2.0745432376861572,9.579850196838379,-0.30520665645599365
1787816916878854400,2.4118544921875,1.995017409324646,9.595195770263672,-0.3500453233718872
1787816916894898000,2.42789794921875,1.8949697017669678,9.614418029785156,-0.3774105906486511
1787816916910937900,2.443937744140625,1.8071485757827759,9.631204605102539,-0.38014528155326843
1787816916927033000,2.460033203125,1.7338567972183228,9.6453218460083,-0.36319035291671753
1787816916943022800,2.47602294921875,1.643446683883667,9.66246509552002,-0.32598933577537537
1787816916959131400,2.49213134765625,1.5249089002609253,9.683446884155273,-0.2754831314086914
1787816916975220500,2.508220458984375,1.4108476638793945,9.702130317687988,-0.220359206199646
1787816916991256800,2.5242568359375,1.3551167249679565,9.71101188659668,-0.17411504685878754
1787816917007347000,2.540346923828125,1.3584473133087158,9.711016654968262,-0.14551906287670135
1787816917023387400,2.556387451171875,1.374338984489441,9.708842277526855,-0.14128245413303375
1787816917039496200,2.57249609375,1.3562895059585571,9.71119499206543,-0.15351502597332
1787816917055549400,2.588549560546875,1.3126561641693115,9.716861724853516,-0.17298370599746704
1787816917071603700,2.604603759765625,1.2966878414154053,9.718802452087402,-0.1840311735868454
1787816917087707100,2.62070703125,1.356200933456421,9.710766792297363,-0.17920798063278198
1787816917103766000,2.63676611328125,1.5038719177246094,9.689294815063477,-0.1621849536895752
1787816917119908600,2.65290869140625,1.6644293069839478,9.663091659545898,-0.15731441974639893
1787816917135974000,2.668973876953125,1.7872376441955566,9.6406888961792,-0.18249884247779846
1787816917152034800,2.685034912109375,1.8693053722381592,9.623724937438965,-0.24498657882213593
1787816917168142800,2.701142822265625,1.9216032028198242,9.610946655273438,-0.3279615044593811
1787816917184164600,2.71716455078125,1.9864543676376343,9.595373153686523,-0.391410768032074
1787816917200252200,2.733252197265625,2.0755369663238525,9.575933456420898,-0.4050143361091614
1787816917216321800,2.74932177734375,2.17939829826355,9.554268836975098,-0.36955344676971436
1787816917232339500,2.76533935546875,2.259376287460327,9.537723541259766,-0.3121788203716278
1787816917248456400,2.78145654296875,2.28069806098938,9.534141540527344,-0.262603759765625
1787816917264479500,2.7974794921875,2.2288804054260254,9.54709243774414,-0.2356058657169342
1787816917280576800,2.81357666015625,2.135348320007324,9.569210052490234,-0.20224077999591827
1787816917296655600,2.829655517578125,2.032414436340332,9.592641830444336,-0.1446361392736435
1787816917312682500,2.8456826171875,1.925041913986206,9.615580558776855,-0.07233312726020813
1787816917328808000,2.861807861328125,1.7814339399337769,9.64348316192627,-0.011142156086862087
1787816917344845000,2.877844970703125,1.676701307296753,9.662113189697266,0.05157061293721199
1787816917360947500,2.893947509765625,1.6919234991073608,9.658313751220703,0.15731705725193024
1787816917377034200,2.9100341796875,1.825455665588379,9.630485534667969,0.3030804395675659
1787816917393068500,2.926068603515625,1.98183274269104,9.594842910766602,0.4262821674346924
1787816917409194500,2.942194580078125,2.065837860107422,9.572793960571289,0.5141323208808899
1787816917425231400,2.9582314453125,2.070998430252075,9.569732666015625,0.5491676926612854
1787816917441340000,2.97433984375,2.0661447048187256,9.57158088684082,0.5350447297096252
1787816917457430300,2.99043017578125,2.105332374572754,9.565521240234375,0.4886755049228668
1787816917473468200,3.00646826171875,2.202143669128418,9.546093940734863,0.4393891990184784
1787816917489603600,3.022603515625,2.325127363204956,9.51842212677002,0.4047366976737976
1787816917505646000,3.03864599609375,2.4290850162506104,9.492953300476074,0.3921200931072235
1787816917521760000,3.054760009765625,2.5010833740234375,9.473609924316406,0.4070645570755005
1787816917537812500,3.0708125,2.530683994293213,9.464458465576172,0.43594637513160706
1787816917553865700,3.08686572265625,2.512164354324341,9.468716621398926,0.4503621459007263
1787816917569918500,3.10291845703125,2.4698243141174316,9.481581687927246,0.41226914525032043
1787816917585977300,3.118977294921875,2.395580291748047,9.503464698791504,0.34021511673927307
1787816917602100700,3.135100830078125,2.3109681606292725,9.52734661102295,0.2438996583223343
1787816917618210300,3.151210205078125,2.1905789375305176,9.557754516601562,0.14530308544635773
1787816917634268700,3.1672685546875,2.0156595706939697,9.597046852111816,0.0648345872759819
1787816917650376700,3.183376708984375,1.798577070236206,9.640300750732422,0.010247837752103806
1787816917666441700,3.199441650390625,1.5867456197738647,9.677380561828613,-0.030372342094779015
1787816917682577400,3.215577392578125,1.4144378900527954,9.703880310058594,-0.06689093261957169
1787816917698646000,3.23164599609375,1.265809178352356,9.723849296569824,-0.12200929969549179
1787816917714662700,3.24766259765625,1.0850516557693481,9.744220733642578,-0.2079264223575592
1787816917730773000,3.26377294921875,0.9240615963935852,9.759720802307129,-0.2536892294883728
1787816917746792700,3.279792724609375,0.8461495041847229,9.76699447631836,-0.2454676330089569
1787816917762892300,3.295892333984375,0.8658590316772461,9.766805648803711,-0.17380553483963013
1787816917778975700,3.311975830078125,0.8756795525550842,9.766901969909668,-0.10582096874713898
1787816917795009300,3.32800927734375,0.8123440146446228,9.772831916809082,-0.047344520688056946
1787816917811140600,3.344140625,0.7126888632774353,9.780715942382812,0.007722995709627867
1787816917827176000,3.360176025390625,0.673358142375946,9.78317928314209,0.07987403869628906
1787816917843274000,3.37627392578125,0.7481623291969299,9.776435852050781,0.17878566682338715
1787816917859356000,3.39235595703125,0.8915700912475586,9.761955261230469,0.28237491846084595
1787816917875385900,3.4083857421875,1.0407218933105469,9.744359970092773,0.3670867681503296
1787816917891526100,3.424526123046875,1.1733324527740479,9.726458549499512,0.43553516268730164
1787816917907566600,3.440566650390625,1.283674716949463,9.710100173950195,0.4863540828227997
1787816917923675400,3.45667529296875,1.3659894466400146,9.69738483428955,0.5149798393249512
1787816917939763700,3.472763671875,1.4428110122680664,9.685117721557617,0.5359063148498535
1787816917955804700,3.4888046875,1.49722158908844,9.675663948059082,0.5570107698440552
1787816917971944000,3.50494384765625,1.5378730297088623,9.667405128479004,0.5887395143508911
1787816917987990500,3.520990478515625,1.5350878238677979,9.666028022766113,0.6178872585296631
1787816918004109600,3.537109619140625,1.482668399810791,9.673115730285645,0.6347560286521912
1787816918020214500,3.553214599609375,1.407705545425415,9.683706283569336,0.6438947319984436
1787816918036266200,3.569266357421875,1.3452280759811401,9.691370964050293,0.661879301071167
1787816918052366000,3.585365966796875,1.30843186378479,9.693746566772461,0.69977205991745
1787816918068426200,3.60142626953125,1.2759376764297485,9.69352912902832,0.7601915001869202
1787816918084551700,3.6175517578125,1.191381573677063,9.698710441589355,0.8282608389854431
1787816918100614700,3.63361474609375,1.0222519636154175,9.714922904968262,0.8635104298591614
1787816918116674600,3.649674560546875,0.8798597455024719,9.72777271270752,0.8755924701690674
1787816918132728600,3.665728515625,0.8982637524604797,9.724040985107422,0.8980895280838013
1787816918148789200,3.681789306640625,1.1266485452651978,9.696131706237793,0.9413190484046936
1787816918164922000,3.697922119140625,1.3564205169677734,9.661094665527344,0.99687260389328
1787816918180990500,3.713990478515625,1.4538404941558838,9.642584800720215,1.037928819656372
1787816918197011000,3.730010986328125,1.423994541168213,9.648270606994629,1.0264078378677368
1787816918213127700,3.746127685546875,1.3990705013275146,9.658625602722168,0.9612395167350769
1787816918229157600,3.76215771484375,1.4776861667633057,9.655743598937988,0.8680182099342346
1787816918245254400,3.77825439453125,1.6510651111602783,9.63617992401123,0.7670838832855225
1787816918261334800,3.794334716796875,1.8536213636398315,9.60541820526123,0.6858823895454407
1787816918277368600,3.81036865234375,2.0279483795166016,9.573522567749023,0.6367483735084534
1787816918293437200,3.826437255859375,2.181514263153076,9.542312622070312,0.5963844656944275
1787816918309468400,3.842468505859375,2.333096742630005,9.509795188903809,0.5392982959747314
1787816918325572400,3.858572265625,2.490769386291504,9.474865913391113,0.4397229552268982
1787816918341607000,3.87460693359375,2.6355741024017334,9.440829277038574,0.30805209279060364
1787816918357637400,3.890637451171875,2.6977317333221436,9.426822662353516,0.1662687212228775
1787816918373780700,3.90678076171875,2.6216490268707275,9.44953727722168,0.05983049422502518
1787816918389822700,3.92282275390625,2.4179258346557617,9.503868103027344,0.022727379575371742
1787816918405932000,3.93893212890625,2.1400113105773926,9.570280075073242,0.02251373790204525
1787816918422030000,3.955030029296875,1.8760037422180176,9.625531196594238,0.01151946559548378
1787816918438078000,3.971077880859375,1.6955304145812988,9.658956527709961,-0.011788053438067436
1787816918454177000,3.987177001953125,1.588323712348938,9.677054405212402,-0.047134384512901306
1787816918470227000,4.00322705078125,1.4767577648162842,9.694350242614746,-0.09560206532478333
1787816918486346500,4.019346435546875,1.3377636671066284,9.713911056518555,-0.1440393477678299
1787816918502450700,4.03545068359375,1.2539713382720947,9.725448608398438,-0.11669512093067169
1787816918518506000,4.051506103515625,1.2495839595794678,9.726395606994629,-0.07851999253034592
1787816918534610200,4.067610107421875,1.2212071418762207,9.730206489562988,-0.04588993638753891
1787816918550624300,4.083624267578125,1.1089295148849487,9.74372386932373,0.022765081375837326
1787816918566758700,4.099758544921875,0.9589265584945679,9.758606910705566,0.14310908317565918
1787816918582872300,4.115872314453125,0.8734665513038635,9.762458801269531,0.3191591799259186
1787816918598934500,4.1319345703125,0.9065148234367371,9.75093936920166,0.5174830555915833
1787816918615044400,4.14804443359375,1.0277256965637207,9.72874641418457,0.682383120059967
1787816918631064800,4.16406494140625,1.1670812368392944,9.707262992858887,0.7598647475242615
1787816918647205400,4.180205322265625,1.3044637441635132,9.691496849060059,0.7373460531234741
1787816918663277300,4.19627734375,1.4523752927780151,9.675301551818848,0.6704781651496887
1787816918679298000,4.212298095703125,1.6125298738479614,9.653728485107422,0.6129197478294373
1787816918695368700,4.22836865234375,1.7079136371612549,9.640092849731445,0.5674784183502197
1787816918711401700,4.244401611328125,1.7418723106384277,9.635221481323242,0.546622097492218
1787816918727501300,4.260501220703125,1.7237825393676758,9.638640403747559,0.5436816215515137
1787816918743583000,4.2765830078125,1.6816096305847168,9.645605087280273,0.552168607711792
1787816918759608800,4.29260888671875,1.6245733499526978,9.654120445251465,0.5736939311027527
1787816918775776000,4.30877587890625,1.5513354539871216,9.662567138671875,0.6313020586967468
1787816918791812400,4.324812255859375,1.4581687450408936,9.671695709228516,0.7088429927825928
1787816918807921000,4.3409208984375,1.3589286804199219,9.6808443069458,0.7777955532073975
1787816918824003800,4.35700390625,1.2523603439331055,9.691790580749512,0.8192662000656128
1787816918840044500,4.37304443359375,1.1485344171524048,9.706035614013672,0.8025912642478943
1787816918856172300,4.38917236328125,1.1542390584945679,9.709250450134277,0.7540373206138611
1787816918872206000,4.4052060546875,1.3661314249038696,9.681495666503906,0.7567866444587708
1787816918888334300,4.421334228515625,1.6940006017684937,9.625520706176758,0.8062807321548462
1787816918904425200,4.43742529296875,1.886974811553955,9.585732460021973,0.8505664467811584
1787816918920470500,4.453470458984375,1.832789421081543,9.597418785095215,0.8371560573577881
1787816918936615200,4.469615234375,1.6691879034042358,9.632806777954102,0.7702180743217468
1787816918952664300,4.485664306640625,1.5763580799102783,9.654830932617188,0.6853721141815186
1787816918968787700,4.50178759765625,1.6487089395523071,9.64783763885498,0.6094084978103638
1787816918984897300,4.517897216796875,1.7970390319824219,9.622930526733398,0.5833300352096558
1787816919000955100,4.533955078125,1.9240875244140625,9.596250534057617,0.6166480779647827
1787816919017062100,4.550062255859375,1.9846177101135254,9.581281661987305,0.6562967896461487
1787816919033125000,4.566125,2.016420364379883,9.57378101348877,0.6687053442001343
1787816919049259000,4.582259033203125,2.0826423168182373,9.561631202697754,0.6389052271842957
1787816919065329700,4.59832958984375,2.1499452590942383,9.550228118896484,0.5841931104660034
1787816919081349600,4.614349609375,2.164081335067749,9.550673484802246,0.521325409412384
1787816919097466000,4.630466064453125,2.0844979286193848,9.571417808532715,0.4617474675178528
1787816919113493200,4.6464931640625,1.9006314277648926,9.611226081848145,0.4269929528236389
1787816919129586200,4.662586181640625,1.6635814905166626,9.655582427978516,0.4154539108276367
1787816919145665500,4.67866552734375,1.4486408233642578,9.68994140625,0.4205746054649353
1787816919161688800,4.694688720703125,1.2822554111480713,9.713016510009766,0.42835575342178345
1787816919177961200,4.710961181640625,1.140853762626648,9.73034381866455,0.435019314289093
1787816919192835000,4.7258349609375,0.9771516919136047,9.748030662536621,0.4375622868537903
1787816919208929000,4.741928955078125,0.7201827168464661,9.770495414733887,0.43491965532302856
1787816919225006300,4.75800634765625,0.43679919838905334,9.787314414978027,0.4336906969547272
1787816919241034200,4.7740341796875,0.2954980432987213,9.790717124938965,0.4743073582649231
1787816919257105000,4.79010498046875,0.3146805763244629,9.787269592285156,0.5298106670379639
1787816919273134000,4.806134033203125,0.34968554973602295,9.785286903381348,0.5443015098571777
1787816919289229300,4.822229248046875,0.30541151762008667,9.786615371704102,0.5470613241195679
1787816919305313000,4.83831298828125,0.2143152505159378,9.787391662597656,0.5757172703742981
1787816919321349400,4.854349365234375,0.143901988863945,9.783768653869629,0.6538786292076111
1787816919337430300,4.87043017578125,0.1505512148141861,9.774761199951172,0.7757251262664795
1787816919353471000,4.886470947265625,0.2259633094072342,9.763083457946777,0.8952715396881104
1787816919369581300,4.902581298828125,0.32597529888153076,9.751638412475586,0.9847195148468018
1787816919385680000,4.918679931640625,0.41712796688079834,9.743556022644043,1.0293407440185547
1787816919401720000,4.934719970703125,0.5039148926734924,9.738536834716797,1.0379726886749268
1787816919417805300,4.950805419921875,0.6003048419952393,9.734857559204102,1.0210762023925781
1787816919433850400,4.966850341796875,0.7253060340881348,9.729300498962402,0.9924951195716858
1787816919449970000,4.982969970703125,0.8051929473876953,9.726722717285156,0.9554787874221802
1787816919466071600,4.999071533203125,0.83453768491745,9.72823429107666,0.9140139818191528
1787816919482123500,5.01512353515625,0.81355220079422,9.734509468078613,0.8647928237915039
1787816919498174500,5.031174560546875,0.7567755579948425,9.744877815246582,0.7968918681144714
1787816919514236000,5.04723583984375,0.6970210075378418,9.755760192871094,0.713932991027832
1787816919530369800,5.063369873046875,0.6573699712753296,9.764182090759277,0.6316925287246704
1787816919546383600,5.079383544921875,0.6342509984970093,9.769594192504883,0.5684659481048584
1787816919562444000,5.095444091796875,0.5947919487953186,9.773722648620605,0.5394207835197449
1787816919578501600,5.111501708984375,0.4960717558860779,9.777488708496094,0.5700917840003967
1787816919594522600,5.127522705078125,0.34256869554519653,9.78065299987793,0.6259890794754028
1787816919610613200,5.14361328125,0.27641311287879944,9.777020454406738,0.7098191380500793
1787816919626684700,5.1596845703125,0.39825084805488586,9.76619815826416,0.79573655128479
1787816919642708500,5.17570849609375,0.6558482050895691,9.749510765075684,0.8290218710899353
1787816919658780700,5.19178076171875,0.8884660005569458,9.73539924621582,0.7765481472015381
1787816919674810600,5.207810546875,0.993461012840271,9.733665466308594,0.6627376675605774
1787816919690909000,5.223908935546875,0.9981503486633301,9.741848945617676,0.5200862288475037
1787816919706993400,5.239993408203125,0.9915016889572144,9.74893856048584,0.3814823627471924
1787816919723024100,5.256024169921875,1.0219401121139526,9.749075889587402,0.28558483719825745
1787816919739108900,5.27210888671875,1.0823060274124146,9.743607521057129,0.24726006388664246
1787816919755098600,5.2880986328125,1.1422040462493896,9.736815452575684,0.24533961713314056
1787816919771213300,5.30421337890625,1.1740270853042603,9.732367515563965,0.27031564712524414
1787816919787240700,5.32024072265625,1.179495096206665,9.730358123779297,0.3151271641254425
1787816919803272200,5.336272216796875,1.1865853071212769,9.728145599365234,0.3544082045555115
1787816919819313000,5.35231298828125,1.2088158130645752,9.724785804748535,0.3710691034793854
1787816919835353300,5.368353271484375,1.2122212648391724,9.724517822265625,0.3669391870498657
1787816919851457800,5.384457763671875,1.1926696300506592,9.728109359741211,0.33438101410865784
1787816919867548000,5.4005478515625,1.1511253118515015,9.73475170135498,0.282722145318985
1787816919883586000,5.4165859375,1.0804826021194458,9.744270324707031,0.22838234901428223
1787816919899672000,5.432672119140625,0.9821993112564087,9.75570297241211,0.1787199079990387
1787816919915719000,5.448718994140625,0.8711474537849426,9.7669095993042,0.1378469169139862
1787816919931841000,5.464841064453125,0.7727446556091309,9.775481224060059,0.11509732902050018
1787816919947893000,5.48089306640625,0.7115650773048401,9.780168533325195,0.11120587587356567
1787816919963946200,5.4969462890625,0.680000364780426,9.782395362854004,0.11283815652132034
1787816919980000500,5.51300048828125,0.6416857838630676,9.785045623779297,0.10747019946575165
1787816919996056600,5.529056640625,0.6012330651283264,9.787774085998535,0.09170008450746536
1787816920012137200,5.54513720703125,0.555292010307312,9.790483474731445,0.09211801737546921
1787816920028204500,5.56120458984375,0.5784472823143005,9.788983345031738,0.107722707092762
1787816920044220700,5.577220703125,0.6664736270904541,9.783421516418457,0.10437456518411636
1787816920060284000,5.593283935546875,0.7658361792564392,9.77642822265625,0.07317103445529938
1787816920076351700,5.609351806640625,0.8373630046844482,9.770795822143555,0.027746669948101044
1787816920092443100,5.625443115234375,0.875680148601532,9.767467498779297,-0.013017010875046253
1787816920108513000,5.641512939453125,0.8960358500480652,9.76558780670166,-0.028302842751145363
1787816920124532200,5.6575322265625,0.9171683192253113,9.763662338256836,-0.00985211692750454
1787816920140613000,5.673613037109375,0.9482917785644531,9.760605812072754,0.04114917293190956
1787816920156590800,5.6895908203125,0.9843330979347229,9.756512641906738,0.1093318983912468
1787816920172692700,5.705692626953125,1.0330281257629395,9.750514030456543,0.17523790895938873
1787816920188767200,5.721767333984375,1.099733829498291,9.742337226867676,0.21877485513687134
1787816920204796000,5.7377958984375,1.1489195823669434,9.736268043518066,0.2355138063430786
1787816920220874000,5.7538740234375,1.1859794855117798,9.732386589050293,0.21098142862319946
1787816920236908300,5.769908203125,1.2256263494491577,9.728461265563965,0.15898030996322632
1787816920253010700,5.7860107421875,1.2682952880859375,9.723771095275879,0.10046148300170898
1787816920269048600,5.802048583984375,1.3065400123596191,9.71908950805664,0.05132920667529106
1787816920285088000,5.818087890625,1.334981918334961,9.71533489227295,0.021646015346050262
1787816920301142500,5.834142578125,1.3518342971801758,9.713020324707031,0.01370586920529604
1787816920317133600,5.850133544921875,1.358031153678894,9.712141990661621,0.02105623297393322
1787816920333225500,5.8662255859375,1.3535186052322388,9.712724685668945,0.03669511526823044
1787816920349271600,5.882271484375,1.336795449256897,9.714937210083008,0.058045655488967896
1787816920365322800,5.89832275390625,1.3205691576004028,9.716933250427246,0.08790916949510574
1787816920381397000,5.91439697265625,1.3177117109298706,9.716879844665527,0.12761107087135315
1787816920397407700,5.93040771484375,1.3427982330322266,9.712831497192383,0.16787849366664886
1787816920413508400,5.94650830078125,1.3916741609573364,9.705333709716797,0.20037147402763367
1787816920429567700,5.962567626953125,1.4356015920639038,9.698421478271484,0.22379064559936523
1787816920445623600,5.97862353515625,1.4537354707717896,9.69542121887207,0.23633798956871033
1787816920461702700,5.99470263671875,1.4338810443878174,9.698360443115234,0.2370058000087738
1787816920477720000,6.010719970703125,1.3932628631591797,9.704312324523926,0.23572774231433868
1787816920493863400,6.026863525390625,1.3506371974945068,9.71025276184082,0.23909984529018402
1787816920509880600,6.042880615234375,1.3223285675048828,9.713898658752441,0.24905309081077576
1787816920525944800,6.05894482421875,1.314286708831787,9.714691162109375,0.2604062557220459
1787816920542014500,6.075014404296875,1.329147219657898,9.712564468383789,0.26431816816329956
1787816920558037000,6.091037109375,1.3638765811920166,9.707845687866211,0.2607271671295166
1787816920574131700,6.107131591796875,1.4148730039596558,9.700963020324707,0.24465572834014893
1787816920590157000,6.123156982421875,1.476176142692566,9.69257926940918,0.21265052258968353
1787816920606174700,6.1391748046875,1.541245698928833,9.68341064453125,0.16283932328224182
1787816920622255000,6.155255126953125,1.6015558242797852,9.67446517944336,0.10078472644090652
1787816920638230800,6.171230712890625,1.6556535959243774,9.66579818725586,0.0394786074757576
1787816920654347300,6.18734716796875,1.704861044883728,9.657310485839844,-0.0140691502019763
1787816920670373600,6.20337353515625,1.750717043876648,9.648934364318848,-0.058786243200302124
1787816920686396000,6.21939599609375,1.7871237993240356,9.641926765441895,-0.09916531294584274
1787816920702442500,6.2354423828125,1.811789631843567,9.636845588684082,-0.1379401534795761
1787816920718428400,6.251428466796875,1.870790719985962,9.625490188598633,-0.1431087851524353
1787816920734553300,6.26755322265625,1.9627056121826172,9.607502937316895,-0.11863719671964645
1787816920750588700,6.283588623046875,2.0538530349731445,9.588728904724121,-0.09140636771917343
1787816920766620200,6.2996201171875,2.1494717597961426,9.568022727966309,-0.055692076683044434
1787816920782661400,6.315661376953125,2.238826036453247,9.547642707824707,-0.02392740361392498
1787816920798651100,6.331651123046875,2.2783217430114746,9.53831672668457,-0.01175590418279171
1787816920814780200,6.3477802734375,2.314577341079712,9.529587745666504,0.009146306663751602
1787816920830820900,6.36382080078125,2.339426279067993,9.523462295532227,0.03411971405148506
1787816920846863600,6.379863525390625,2.3504879474639893,9.520623207092285,0.057919692248106
1787816920862933800,6.395933837890625,2.3511252403259277,9.520299911499023,0.08059066534042358
1787816920878937600,6.4119375,2.3677802085876465,9.515859603881836,0.11156594008207321
1787816920895080000,6.428079833984375,2.4052882194519043,9.505928039550781,0.14942367374897003
1787816920911140600,6.444140625,2.4428658485412598,9.495647430419922,0.1883428990840912
1787816920927194400,6.4601943359375,2.482070207595825,9.484585762023926,0.2287970632314682
1787816920943271000,6.47627099609375,2.527022123336792,9.47160816192627,0.27055999636650085
1787816920959284700,6.49228466796875,2.5743467807769775,9.457656860351562,0.3096063435077667
1787816920975394000,6.50839404296875,2.6206634044647217,9.443880081176758,0.3400745391845703
1787816920991407400,6.524407470703125,2.6643729209899902,9.431035041809082,0.35651394724845886
1787816921007468300,6.54046826171875,2.660637378692627,9.43299674987793,0.33162879943847656
1787816921023551000,6.556551025390625,2.6642510890960693,9.433012962341309,0.3007104992866516
1787816921039524400,6.5725244140625,2.673356533050537,9.43135929107666,0.27027007937431335
1787816921055637000,6.588636962890625,2.682868242263794,9.429253578186035,0.24854660034179688
1787816921071664600,6.60466455078125,2.730677366256714,9.416300773620605,0.21696196496486664
1787816921087690500,6.6206904296875,2.753460168838501,9.409823417663574,0.20995588600635529
1787816921103734800,6.63673486328125,2.749040365219116,9.410687446594238,0.2283671498298645
1787816921119712800,6.652712646484375,2.7387688159942627,9.413139343261719,0.2497388869524002
1787816921135832800,6.668832763671875,2.7246451377868652,9.416627883911133,0.2716613709926605
1787816921151867000,6.684866943359375,2.7355306148529053,9.413385391235352,0.27464959025382996
1787816921167896600,6.700896484375,2.7440574169158936,9.410737037658691,0.2802858352661133
1787816921183949600,6.716949462890625,2.754342794418335,9.407550811767578,0.2862904965877533
1787816921199936500,6.7329365234375,2.7698724269866943,9.402898788452148,0.28928691148757935
1787816921216071200,6.7490712890625,2.7916462421417236,9.396430015563965,0.29024538397789
1787816921232115700,6.76511572265625,2.8166661262512207,9.388982772827148,0.28947657346725464
1787816921248154400,6.781154296875,2.8427670001983643,9.381256103515625,0.28480595350265503
1787816921264214800,6.79721484375,2.8701484203338623,9.373147964477539,0.276997834444046
1787816921280213200,6.813213134765625,2.896268129348755,9.365525245666504,0.26261356472969055
1787816921296339200,6.829339111328125,2.9224467277526855,9.357994079589844,0.24009741842746735
1787816921312390000,6.845389892578125,2.9500577449798584,9.350019454956055,0.2113696187734604
1787816921328437000,6.86143701171875,2.979537010192871,9.341435432434082,0.1742236167192459
1787816921344511000,6.877510986328125,3.0118961334228516,9.331816673278809,0.12678328156471252
1787816921360518000,6.893517822265625,3.043260097503662,9.322023391723633,0.09411277621984482
1787816921376665000,6.9096650390625,3.0700254440307617,9.313340187072754,0.08399714529514313
1787816921392728300,6.925728271484375,3.0939083099365234,9.305429458618164,0.08440975099802017
1787816921408788000,6.9417880859375,3.1124396324157715,9.299099922180176,0.0993533805012703
1787816921424864800,6.95786474609375,3.119749069213867,9.296365737915039,0.12306613475084305
1787816921440879900,6.9738798828125,3.1150078773498535,9.297616004943848,0.14650078117847443
1787816921456984800,6.98998486328125,3.1022584438323975,9.301555633544922,0.16565872728824615
1787816921473000000,7.006,3.087071657180786,9.306321144104004,0.18104463815689087
1787816921489016800,7.022016845703125,3.083684206008911,9.308357238769531,0.12554778158664703
1787816921505107500,7.038107421875,3.083310127258301,9.309051513671875,0.07180723547935486
1787816921521081000,7.0540810546875,3.0882890224456787,9.307646751403809,0.023820674046874046
1787816921537195500,7.070195556640625,3.101106882095337,9.303399085998535,-0.016515830531716347
1787816921553221600,7.0862216796875,3.1189544200897217,9.297311782836914,-0.05006285756826401
1787816921569250300,7.102250244140625,3.136768341064453,9.291097640991211,-0.08113165944814682
1787816921585298400,7.11829833984375,3.153172492980957,9.28523063659668,-0.11125300079584122
1787816921601286700,7.13428662109375,3.1699953079223633,9.279132843017578,-0.1387636363506317
1787816921617411000,7.1504111328125,3.1869711875915527,9.272904396057129,-0.16383254528045654
1787816921633447400,7.166447509765625,3.1989989280700684,9.2682523727417,-0.1905267834663391
1787816921649481200,7.182481201171875,3.2009644508361816,9.266868591308594,-0.22224202752113342
1787816921665523200,7.198523193359375,3.190140962600708,9.269639015197754,-0.25921815633773804
1787816921681510100,7.21451025390625,3.164487600326538,9.277207374572754,-0.29975268244743347
1787816921697637600,7.2306376953125,3.1283087730407715,9.288164138793945,-0.3377639353275299
1787816921713677800,7.246677734375,3.0902137756347656,9.299561500549316,-0.37299948930740356
1787816921729713700,7.262713623046875,3.0579745769500732,9.308953285217285,-0.40323784947395325
1787816921745756000,7.278755859375,3.0333621501922607,9.315851211547852,-0.42897579073905945
1787816921761750500,7.29475048828125,3.0138344764709473,9.32119083404541,-0.4501116871833801
1787816921777888800,7.310888671875,2.99444580078125,9.326393127441406,-0.4712548553943634
1787816921793939000,7.32693896484375,2.975534200668335,9.331171989440918,-0.49583137035369873
1787816921809988000,7.342988037109375,2.9533464908599854,9.336709022521973,-0.5234522819519043
1787816921826062800,7.359062744140625,2.923748731613159,9.344279289245605,-0.5536419749259949
1787816921842077400,7.375077392578125,2.8875205516815186,9.353577613830566,-0.5858331322669983
1787816921858230000,7.39122998046875,2.8488550186157227,9.363335609436035,-0.6183475255966187
1787816921874297000,7.407297119140625,2.8094747066497803,9.372767448425293,-0.6545843482017517
1787816921890315300,7.423315185546875,2.7742786407470703,9.380524635314941,-0.6924753785133362
1787816921906397200,7.439397216796875,2.746889591217041,9.385736465454102,-0.7300370335578918
1787816921922414800,7.455414794921875,2.7276008129119873,9.388354301452637,-0.767740786075592
1787816921938526200,7.471526123046875,2.7272965908050537,9.386075973510742,-0.7961412072181702
1787816921954546400,7.48754638671875,2.7360050678253174,9.38218879699707,-0.8119093775749207
1787816921970566000,7.50356591796875,2.7386412620544434,9.380367279052734,-0.823989987373352
1787816921986604300,7.519604248046875,2.734363317489624,9.381092071533203,-0.8299206495285034
1787816922002579000,7.535578857421875,2.686234474182129,9.391579627990723,-0.8676295876502991
1787816922018691300,7.55169140625,2.6338562965393066,9.404024124145508,-0.8930556178092957
1787816922034712800,7.567712890625,2.5813968181610107,9.417638778686523,-0.9026932716369629
1787816922050734000,7.583734130859375,2.5258755683898926,9.432805061340332,-0.901405930519104
1787816922066776600,7.599776611328125,2.4657602310180664,9.449529647827148,-0.8926534056663513
1787816922082754300,7.61575439453125,2.404446840286255,9.466697692871094,-0.8778759241104126
1787816922098876700,7.631876708984375,2.3472025394439697,9.482754707336426,-0.8593019843101501
1787816922114909700,7.64790966796875,2.2936720848083496,9.497123718261719,-0.8450684547424316
1787816922130940400,7.6639404296875,2.2473316192626953,9.5088529586792,-0.8376163840293884
1787816922146990600,7.679990478515625,2.216860055923462,9.51651382446289,-0.8318076729774475
1787816922162978000,7.69597802734375,2.205366611480713,9.520501136779785,-0.8165954947471619
1787816922179096600,7.7120966796875,2.211291551589966,9.521489143371582,-0.7885609865188599
1787816922195134000,7.728134033203125,2.2318954467773438,9.520184516906738,-0.7450550198554993
1787816922211173400,7.74417333984375,2.2550530433654785,9.519571304321289,-0.6803690195083618
1787816922227233300,7.7602333984375,2.2416272163391113,9.524921417236328,-0.6491572856903076
1787816922243228700,7.776228759765625,2.2128474712371826,9.534004211425781,-0.6135739684104919
1787816922259349200,7.792349365234375,2.187476396560669,9.541921615600586,-0.5805667042732239
1787816922275393500,7.8083935546875,2.180695056915283,9.545073509216309,-0.5536626577377319
1787816922291438000,7.82443798828125,2.1926474571228027,9.543722152709961,-0.5292081832885742
1787816922307503600,7.840503662109375,2.224792718887329,9.537869453430176,-0.49973437190055847
1787816922323505700,7.856505615234375,2.2678608894348145,9.529455184936523,-0.4654989242553711
1787816922339646700,7.872646728515625,2.31261944770813,9.520477294921875,-0.4274488687515259
1787816922355642400,7.888642333984375,2.351398468017578,9.51256275177002,-0.39049234986305237
1787816922371643600,7.9046435546875,2.3639023303985596,9.511699676513672,-0.3315759003162384
1787816922387712300,7.920712158203125,2.35687518119812,9.515735626220703,-0.25747355818748474
1787816922403672300,7.93667236328125,2.34975004196167,9.51912784576416,-0.1877995729446411
1787816922419771400,7.952771484375,2.3473048210144043,9.520777702331543,-0.12383286654949188
1787816922435785000,7.968784912109375,2.353454113006592,9.519750595092773,-0.07753448933362961
1787816922451801000,7.984801025390625,2.3716678619384766,9.515373229980469,-0.056965019553899765
1787816922467883800,8.0008837890625,2.3974058628082275,9.508942604064941,-0.053484924137592316
1787816922483853600,8.016853515625,2.425201892852783,9.50186824798584,-0.05738748237490654
1787816922499962000,8.032962158203125,2.4463186264038086,9.496392250061035,-0.06672828644514084
1787816922515983000,8.048983154296875,2.454925298690796,9.494024276733398,-0.08517959713935852
1787816922531999700,8.064999755859375,2.4603776931762695,9.492358207702637,-0.10991276800632477
1787816922548035600,8.08103564453125,2.4709763526916504,9.489209175109863,-0.13991130888462067
1787816922564008200,8.09700830078125,2.491729736328125,9.483235359191895,-0.17300723493099213
1787816922580119300,8.113119384765625,2.534149169921875,9.470952033996582,-0.22255846858024597
1787816922596147000,8.12914697265625,2.58709454536438,9.454729080200195,-0.2922816872596741
1787816922612168000,8.14516796875,2.6371355056762695,9.43804931640625,-0.37298649549484253
1787816922628201500,8.161201416015626,2.680635929107666,9.422804832458496,-0.44198286533355713
1787816922644181200,8.17718115234375,2.7236902713775635,9.408454895019531,-0.4825812876224518
1787816922660305700,8.1933056640625,2.766793727874756,9.39511489868164,-0.497069388628006
1787816922676340200,8.20934033203125,2.8019893169403076,9.384832382202148,-0.4941662847995758
1787816922692370200,8.2253701171875,2.8216686248779297,9.379463195800781,-0.48399466276168823
1787816922708407600,8.241407470703125,2.808173179626465,9.384367942810059,-0.467109352350235
1787816922724405500,8.257405517578125,2.745750665664673,9.40402603149414,-0.44219914078712463
1787816922740533000,8.273532958984376,2.6510496139526367,9.432829856872559,-0.40499594807624817
1787816922756624000,8.289623779296875,2.5516817569732666,9.462048530578613,-0.3591197431087494
1787816922772663300,8.305663330078126,2.457338809967041,9.488633155822754,-0.31264564394950867
1787816922788709000,8.321709228515624,2.3701870441436768,9.512216567993164,-0.2651953101158142
1787816922804759300,8.33775927734375,2.2962076663970947,9.531562805175781,-0.21708938479423523
1787816922820877300,8.353877197265625,2.2386832237243652,9.545804023742676,-0.1905078887939453
1787816922836934700,8.3699345703125,2.1991689205169678,9.554720878601074,-0.20336583256721497
1787816922852944000,8.38594384765625,2.1661531925201416,9.561102867126465,-0.25198131799697876
1787816922869004000,8.402004150390624,2.135270595550537,9.566218376159668,-0.3137938678264618
1787816922885064000,8.41806396484375,2.1101226806640625,9.570296287536621,-0.3566557466983795
1787816922901143600,8.4341435546875,2.0996315479278564,9.572163581848145,-0.3682921230792999
1787816922917164800,8.450164794921875,2.1397910118103027,9.56430721282959,-0.3401443362236023
1787816922933181000,8.466180908203125,2.239755392074585,9.544096946716309,-0.2531430125236511
1787816922949255700,8.482255615234376,2.34830904006958,9.520856857299805,-0.09554149210453033
1787816922965284400,8.498284423828125,2.393296480178833,9.509408950805664,0.11700228601694107
1787816922981377500,8.51437744140625,2.3558404445648193,9.512696266174316,0.35920143127441406
1787816922997459000,8.530458984375,2.2505528926849365,9.527263641357422,0.5802072286605835
1787816923013489000,8.546489013671875,2.1804590225219727,9.53289794921875,0.7347466349601746
1787816923029568300,8.562568359375,2.203639268875122,9.523174285888672,0.7896391749382019
1787816923045608200,8.578608154296875,2.3311705589294434,9.496247291564941,0.7465324401855469
1787816923061713400,8.59471337890625,2.488020896911621,9.463850021362305,0.6447330117225647
1787816923077794800,8.610794921875,2.605889320373535,9.439002990722656,0.5338040590286255
1787816923093823500,8.626823486328124,2.6544559001922607,9.428970336914062,0.4677508771419525
1787816923109899800,8.642899658203126,2.6218748092651367,9.438365936279297,0.4620061218738556
1787816923125937000,8.65893701171875,2.5304524898529053,9.461373329162598,0.49962344765663147
1787816923142049300,8.67504931640625,2.386019468307495,9.495904922485352,0.5523642301559448
1787816923158142200,8.69114208984375,2.174069881439209,9.543553352355957,0.6036593914031982
1787816923174181400,8.707181396484375,1.96999192237854,9.584630966186523,0.6514454483985901
1787816923190271700,8.723271728515625,1.8943489789962769,9.596266746520996,0.7024993300437927
1787816923206321400,8.7393212890625,2.0249123573303223,9.565546035766602,0.7552832365036011
1787816923222436400,8.755436279296875,2.257145404815674,9.513118743896484,0.7591330409049988
1787816923238536000,8.771535888671876,2.4605655670166016,9.469231605529785,0.6705538630485535
1787816923254584800,8.787584716796875,2.5635182857513428,9.454765319824219,0.45410072803497314
1787816923270632000,8.8036318359375,2.576288938522339,9.4607572555542,0.16494053602218628
1787816923286683400,8.819683349609376,2.559626579284668,9.466283798217773,-0.09043269604444504
1787816923302805200,8.83580517578125,2.538891077041626,9.46875,-0.25921162962913513
1787816923318865200,8.851865234375,2.5197081565856934,9.471989631652832,-0.32074105739593506
1787816923334921000,8.8679208984375,2.5095386505126953,9.47546672821045,-0.2969369888305664
1787816923350980900,8.88398095703125,2.5179648399353027,9.47524356842041,-0.22362346947193146
1787816923367042800,8.900042724609374,2.549351930618286,9.468113899230957,-0.1613844484090805
1787816923383129300,8.91612939453125,2.622281551361084,9.4476900100708,-0.18758243322372437
1787816923399208000,8.9322080078125,2.6963393688201904,9.424458503723145,-0.2823958396911621
1787816923415235000,8.948235107421874,2.7574498653411865,9.400961875915527,-0.4344806671142578
1787816923431313000,8.96431298828125,2.7736921310424805,9.38714599609375,-0.5987856984138489
1787816923447336700,8.980336669921876,2.730884552001953,9.390110969543457,-0.7338203191757202
1787816923463435300,8.996435302734374,2.6325623989105225,9.409734725952148,-0.834801435470581
1787816923479511600,9.012511474609376,2.4966683387756348,9.439691543579102,-0.9106300473213196
1787816923495543300,9.028543212890625,2.3414053916931152,9.4725341796875,-0.9794417023658752
1787816923511623700,9.044623779296876,2.169555902481079,9.506606101989746,-1.0430214405059814
1787816923527657000,9.060656982421875,1.9940330982208252,9.539834976196289,-1.0889413356781006
1787816923543756800,9.0767568359375,1.8246768712997437,9.57239055633545,-1.1001428365707397
1787816923559792600,9.092792724609374,1.66231369972229,9.603575706481934,-1.085554838180542
1787816923575831000,9.1088310546875,1.5105911493301392,9.632832527160645,-1.047397494316101
1787816923591919400,9.12491943359375,1.3730971813201904,9.65845012664795,-0.999670684337616
1787816923607966200,9.14096630859375,1.3408844470977783,9.668365478515625,-0.9461056590080261
1787816923624074000,9.157073974609375,1.47098708152771,9.654300689697266,-0.8950326442718506
1787816923640164900,9.173164794921876,1.6728638410568237,9.62374496459961,-0.8691799640655518
1787816923656210400,9.18921044921875,1.7955533266067505,9.60407829284668,-0.8414743542671204
1787816923672301000,9.205301025390625,1.8401902914047241,9.6024751663208,-0.759312093257904
1787816923688349400,9.221349365234374,1.8700312376022339,9.606671333312988,-0.6207026243209839
1787816923704470800,9.237470703125,1.9291784763336182,9.60342788696289,-0.47207289934158325
1787816923720580400,9.253580322265625,1.997308611869812,9.594578742980957,-0.3538431227207184
1787816923736637400,9.269637451171874,2.0483357906341553,9.586427688598633,-0.2740386128425598
1787816923752695000,9.285695068359376,2.0671579837799072,9.583663940429688,-0.22500790655612946
1787816923768762600,9.3017626953125,2.065953016281128,9.584711074829102,-0.18855273723602295
1787816923784896800,9.317896728515626,2.0818259716033936,9.582015991210938,-0.14619608223438263
1787816923800968400,9.333968505859374,2.089412212371826,9.581033706665039,-0.09256254881620407
1787816923817030700,9.35003076171875,2.107512950897217,9.577474594116211,-0.028134938329458237
1787816923833098000,9.366097900390624,2.111656427383423,9.576506614685059,0.04285319894552231
1787816923849123300,9.382123291015626,2.0780365467071533,9.583158493041992,0.12338818609714508
1787816923865211100,9.398211181640624,1.9911189079284668,9.600259780883789,0.20210209488868713
1787816923881283300,9.414283447265625,1.8721909523010254,9.622410774230957,0.27294161915779114
1787816923897303800,9.4303037109375,1.751284122467041,9.642799377441406,0.3461199700832367
1787816923913373000,9.446373046875,1.6614611148834229,9.654976844787598,0.43746116757392883
1787816923929399000,9.46239892578125,1.5861231088638306,9.663020133972168,0.5297868251800537
1787816923945497000,9.4784970703125,1.4751849174499512,9.676549911499023,0.5988472104072571
1787816923961577500,9.494577392578124,1.3789429664611816,9.686643600463867,0.6617106199264526
1787816923977607700,9.510607666015625,1.4189836978912354,9.677704811096191,0.7063365578651428
1787816923993687800,9.526687744140625,1.5655086040496826,9.65675163269043,0.6831789612770081
1787816924009725200,9.54272509765625,1.6999566555023193,9.640835762023926,0.5786463022232056
1787816924025827600,9.55882763671875,1.7084375619888306,9.64782428741455,0.4136977195739746
1787816924041917700,9.574917724609374,1.5987035036087036,9.672760963439941,0.2285981923341751
1787816924057960000,9.5909599609375,1.4369436502456665,9.700613021850586,0.06090689077973366
1787816924074048300,9.60704833984375,1.3224703073501587,9.716902732849121,-0.05703223869204521
1787816924090051800,9.6230517578125,1.3151602745056152,9.717328071594238,-0.11958178132772446
1787816924106179300,9.639179443359374,1.398115873336792,9.705596923828125,-0.130545511841774
1787816924122231800,9.655231689453124,1.5280340909957886,9.686202049255371,-0.11396350711584091
1787816924138277400,9.67127734375,1.6676385402679443,9.663384437561035,-0.09159545600414276
1787816924154335500,9.68733544921875,1.800614595413208,9.639612197875977,-0.07777619361877441
1787816924170345700,9.703345703125,1.9022066593170166,9.620163917541504,-0.06673311442136765
1787816924186471200,9.71947119140625,1.9664431810379028,9.60731029510498,-0.055537763983011246
1787816924202575000,9.7355751953125,2.0124807357788086,9.597772598266602,-0.05526318401098251
1787816924218635800,9.7516357421875,2.0434327125549316,9.591143608093262,-0.0690443143248558
1787816924234697500,9.767697509765625,2.05330491065979,9.588829040527344,-0.0932641252875328
1787816924250759400,9.783759521484376,2.0357003211975098,9.592312812805176,-0.11770853400230408
1787816924266889000,9.799888916015625,1.990332841873169,9.601560592651367,-0.13786591589450836
1787816924282998300,9.815998291015624,1.921844244003296,9.615328788757324,-0.1494426727294922
1787816924299065300,9.8320654296875,1.8378331661224365,9.631839752197266,-0.14289821684360504
1787816924315127800,9.8481279296875,1.7550216913223267,9.647665023803711,-0.11321955174207687
1787816924331147300,9.864147216796875,1.6773656606674194,9.661969184875488,-0.05682678148150444
1787816924347283000,9.880282958984376,1.5995663404464722,9.675278663635254,0.027698300778865814
1787816924363349000,9.896348876953125,1.5497344732284546,9.682531356811523,0.13154475390911102
1787816924379368000,9.912367919921875,1.4810712337493896,9.690543174743652,0.26496145129203796
1787816924395436800,9.928436767578125,1.3902227878570557,9.699877738952637,0.3873721659183502
1787816924411460900,9.9444609375,1.301391839981079,9.708419799804688,0.4726085960865021
1787816924427555300,9.960555419921874,1.2696466445922852,9.709513664245605,0.5326741933822632
1787816924443634700,9.976634765625,1.316861629486084,9.70062255859375,0.5780896544456482
1787816924459662300,9.992662353515625,1.4082775115966797,9.684814453125,0.6257168650627136
1787816924475711200,10.008711181640624,1.4764606952667236,9.670923233032227,0.6809663772583008
1787816924491746800,10.024746826171874,1.4879924058914185,9.664531707763672,0.7437010407447815
1787816924507849500,10.040849365234376,1.4537115097045898,9.664740562438965,0.8061736226081848
1787816924523941400,10.05694140625,1.4010956287384033,9.668174743652344,0.8565747737884521
1787816924539984400,10.072984375,1.3696351051330566,9.669882774353027,0.8876070976257324
1787816924556077600,10.08907763671875,1.380441665649414,9.667594909667969,0.895766019821167
1787816924572079000,10.1050791015625,1.3889853954315186,9.668006896972656,0.8779203295707703
1787816924588194000,10.121194091796875,1.4068626165390015,9.669032096862793,0.8372284770011902
1787816924604294700,10.137294677734374,1.4278497695922852,9.670816421508789,0.7790716886520386
1787816924620312000,10.15331201171875,1.4485182762145996,9.672959327697754,0.7113681435585022
1787816924636359400,10.169359375,1.4693490266799927,9.674408912658691,0.6459369659423828
1787816924652417800,10.185417724609374,1.4923033714294434,9.674121856689453,0.5956749320030212
1787816924668567000,10.201567138671875,1.5123651027679443,9.67271900177002,0.5671420693397522
1787816924684631800,10.2176318359375,1.520066738128662,9.671645164489746,0.5648831129074097
1787816924700686600,10.2336865234375,1.5296292304992676,9.668746948242188,0.5881554484367371
1787816924716750800,10.249750732421875,1.5575588941574097,9.661816596984863,0.627465546131134
1787816924732759800,10.265759765625,1.622876524925232,9.648624420166016,0.6638684868812561
1787816924748908800,10.28190869140625,1.7304459810256958,9.628284454345703,0.6870869994163513
1787816924764975600,10.2979755859375,1.8636574745178223,9.602365493774414,0.7012631893157959
1787816924781039600,10.31403955078125,1.9991363286972046,9.575117111206055,0.700707733631134
1787816924797097500,10.330097412109374,2.1131343841552734,9.551424980163574,0.6894727945327759
1787816924813117200,10.3461171875,2.19378399848938,9.533928871154785,0.6796568036079407
1787816924829218000,10.362218017578124,2.2383041381835938,9.523298263549805,0.6835123896598816
1787816924845242400,10.378242431640626,2.2522995471954346,9.518209457397461,0.7079855799674988
1787816924861263000,10.39426318359375,2.2472424507141113,9.516392707824707,0.7473792433738708
1787816924877341200,10.410341064453124,2.239748954772949,9.51478099822998,0.7892078161239624
1787816924893311700,10.426311767578126,2.244988441467285,9.511343955993652,0.8153313398361206
1787816924909416400,10.44241650390625,2.2644381523132324,9.506089210510254,0.8228057622909546
1787816924925445600,10.458445556640624,2.318687915802002,9.495660781860352,0.7915290594100952
1787816924941478700,10.474478759765624,2.363232374191284,9.487475395202637,0.7571725845336914
1787816924957532400,10.490532470703124,2.3879776000976562,9.482589721679688,0.7405864000320435
1787816924973530600,10.506530517578126,2.4248950481414795,9.474393844604492,0.7253576517105103
1787816924989661700,10.52266162109375,2.4760305881500244,9.461563110351562,0.7200719714164734
1787816925005709300,10.538709228515625,2.538607597351074,9.443868637084961,0.7343100309371948
1787816925021757000,10.5547568359375,2.606790065765381,9.422834396362305,0.7650178670883179
1787816925037807400,10.570807373046875,2.6653709411621094,9.402364730834961,0.8134722709655762
1787816925053806300,10.586806396484375,2.704707622528076,9.386563301086426,0.8645095229148865
1787816925069940000,10.60293994140625,2.7296926975250244,9.375672340393066,0.9032900333404541
1787816925085993500,10.618993408203124,2.7495996952056885,9.367816925048828,0.9241896271705627
1787816925102039600,10.63503955078125,2.776204824447632,9.359439849853516,0.9294998645782471
1787816925118101500,10.6511015625,2.8104350566864014,9.349501609802246,0.926637589931488
1787816925134107100,10.667107177734374,2.8440563678741455,9.340157508850098,0.9182562828063965
1787816925150253000,10.683253173828126,2.8709583282470703,9.333258628845215,0.9045867919921875
1787816925166316300,10.69931640625,2.938256025314331,9.317769050598145,0.846304714679718
1787816925182376200,10.715376220703124,2.977238416671753,9.309459686279297,0.8002610206604004
1787816925198458400,10.731458251953125,2.9876673221588135,9.308819770812988,0.7681848406791687
1787816925214476000,10.74747607421875,2.9951508045196533,9.309311866760254,0.732247531414032
1787816925230633200,10.76363330078125,3.002035617828369,9.309752464294434,0.6976379752159119
1787816925246649600,10.779649658203125,3.070110559463501,9.293163299560547,0.6180146932601929
1787816925262712800,10.795712890625,3.138251781463623,9.275025367736816,0.5437725186347961
1787816925278796000,10.811796142578125,3.201425075531006,9.257170677185059,0.4754600524902344
1787816925294765600,10.827765625,3.258859872817993,9.240141868591309,0.41234278678894043
1787816925310873300,10.843873291015624,3.313819408416748,9.223155975341797,0.3498576879501343
1787816925326894800,10.859894775390625,3.3641059398651123,9.207135200500488,0.286072313785553
1787816925342913500,10.87591357421875,3.4064879417419434,9.193286895751953,0.2229483425617218
1787816925359003400,10.89200341796875,3.439906120300293,9.182096481323242,0.16295944154262543
1787816925374982000,10.90798193359375,3.4646825790405273,9.173589706420898,0.10779548436403275
1787816925391102200,10.924102294921875,3.4862523078918457,9.1658353805542,0.062471069395542145
1787816925407135700,10.9401357421875,3.5105183124542236,9.156734466552734,0.029580023139715195
1787816925423165000,10.9561650390625,3.53804612159729,9.146129608154297,0.0307239331305027
1787816925439211300,10.972211181640626,3.5808839797973633,9.129432678222656,0.03348112106323242
1787816925455199700,10.98819970703125,3.6349093914031982,9.108055114746094,0.03407324105501175
1787816925471312400,11.0043125,3.6902287006378174,9.085792541503906,0.03142740577459335
1787816925487352000,11.02035205078125,3.727262258529663,9.07067584991455,0.02688216231763363
1787816925503393000,11.03639306640625,3.7393016815185547,9.06573486328125,0.02203238382935524
1787816925519438000,11.05243798828125,3.7278330326080322,9.070467948913574,0.016035189852118492
1787816925535434200,11.068434326171875,3.692391872406006,9.084965705871582,0.006279518827795982
1787816925551557000,11.08455712890625,3.644538640975952,9.104263305664062,-0.011629940010607243
1787816925567610400,11.1006103515625,3.591972589492798,9.125051498413086,-0.03961304947733879
1787816925583660000,11.116659912109375,3.549574375152588,9.141483306884766,-0.06493044644594193
1787816925599723000,11.132722900390625,3.5202581882476807,9.152935028076172,-0.044010698795318604
1787816925615738400,11.14873828125,3.526134490966797,9.150714874267578,-0.034419864416122437
1787816925631877000,11.164877197265625,3.5683770179748535,9.134383201599121,-0.010785305872559547
1787816925647942000,11.18094189453125,3.63093638420105,9.109685897827148,0.018021978437900543
1787816925664004600,11.197004638671874,3.694040060043335,9.084200859069824,0.042105451226234436
1787816925680070400,11.2130703125,3.7357733249664307,9.067047119140625,0.055052027106285095
1787816925696085800,11.229085693359375,3.741976261138916,9.06448745727539,0.05551905930042267
1787816925712209000,11.245208984375,3.7214131355285645,9.07300853729248,0.04465601220726967
1787816925728225500,11.2612255859375,3.690694570541382,9.085609436035156,0.029217619448900223
1787816925744290300,11.277290283203126,3.6605064868927,9.097848892211914,0.014955869875848293
1787816925760365600,11.293365478515625,3.6318604946136475,9.109333038330078,0.005374678876250982
1787816925776338000,11.309337890625,3.605008125305176,9.11999225616455,-0.006577624939382076
1787816925792452400,11.325452392578125,3.588902711868286,9.12613296508789,0.06213467940688133
1787816925808486700,11.341486572265625,3.5807619094848633,9.128827095031738,0.11426643282175064
1787816925824518100,11.35751806640625,3.578963279724121,9.1289644241333,0.15301761031150818
1787816925840618000,11.373617919921875,3.5811965465545654,9.127662658691406,0.17664866149425507
1787816925856603600,11.389603759765626,3.589412212371826,9.124239921569824,0.1864338517189026
1787816925872729300,11.405729248046875,3.6074841022491455,9.1170654296875,0.1885860562324524
1787816925888770300,11.421770263671876,3.63765287399292,9.105184555053711,0.1830216944217682
1787816925904809700,11.437809814453125,3.68220853805542,9.087516784667969,0.16960954666137695
1787816925920864000,11.453864013671875,3.733686923980713,9.066915512084961,0.14495763182640076
1787816925936857900,11.46985791015625,3.7805230617523193,9.0480375289917,0.10506079345941544
1787816925952992000,11.485991943359375,3.8209643363952637,9.031457901000977,0.05828940123319626
1787816925969041700,11.502041748046874,3.857243537902832,9.016205787658691,0.009617138653993607
1787816925985086500,11.51808642578125,3.8894944190979004,9.002257347106934,-0.039903849363327026
1787816926001152500,11.534152587890626,3.920781373977661,8.988343238830566,-0.08691665530204773
1787816926017154000,11.550154052734374,3.9501585960388184,8.974993705749512,-0.12698914110660553
1787816926033292500,11.56629248046875,3.976228952407837,8.962921142578125,-0.16134119033813477
1787816926049354000,11.58235400390625,3.999084234237671,8.9518461227417,-0.20532558858394623
1787816926065412000,11.598412109375,4.019114017486572,8.941883087158203,-0.2446221262216568
1787816926081493500,11.614493408203124,4.038541793823242,8.932099342346191,-0.2796235978603363
1787816926097505800,11.630505859375,4.05485200881958,8.923970222473145,-0.30219313502311707
1787816926113656300,11.64665625,4.062569618225098,8.91993522644043,-0.3172995150089264
1787816926129717200,11.66271728515625,4.066072463989258,8.917521476745605,-0.33953678607940674
1787816926145781500,11.678781494140624,4.067113399505615,8.915709495544434,-0.37294164299964905
1787816926161866200,11.6948662109375,4.067667484283447,8.91354751586914,-0.4160907566547394
1787816926177891000,11.71089111328125,4.066767692565918,8.911397933959961,-0.46773090958595276
1787816926194053000,11.72705322265625,4.065143585205078,8.909213066101074,-0.5205243229866028
1787816926210073600,11.743073486328125,4.065027236938477,8.90621280670166,-0.5703551173210144
1787816926226090500,11.759090576171875,4.058642387390137,8.90349292755127,-0.6523974537849426
1787816926242178300,11.77517822265625,4.052664279937744,8.899401664733887,-0.7395524382591248
1787816926258152200,11.791152099609375,4.0508880615234375,8.892921447753906,-0.8225864171981812
1787816926274261000,11.807260986328124,4.052067756652832,8.885931968688965,-0.8895783424377441
1787816926290291500,11.82329150390625,4.050863742828369,8.881511688232422,-0.9378941655158997
1787816926306314000,11.83931396484375,4.045069694519043,8.88059139251709,-0.9710299968719482
1787816926322361600,11.855361572265625,4.0364789962768555,8.88208293914795,-0.9928874373435974
1787816926338342700,11.8713427734375,4.023089408874512,8.888969421386719,-0.9855888485908508
1787816926354467300,11.88746728515625,4.007891654968262,8.89724063873291,-0.9727791547775269
1787816926370507500,11.903507568359375,3.989800453186035,8.907418251037598,-0.9538361430168152
1787816926386541000,11.919541015625,3.9712681770324707,8.918310165405273,-0.929070234298706
1787816926402631400,11.93563134765625,3.9584262371063232,8.927120208740234,-0.8987510800361633
1787816926418614500,11.951614501953125,3.953709125518799,8.932557106018066,-0.8648739457130432
1787816926434744000,11.967744140625,3.9557039737701416,8.934948921203613,-0.8303526639938354
1787816926450784000,11.983783935546874,3.9608724117279053,8.935720443725586,-0.7967372536659241
1787816926466825000,11.999824951171876,3.9058005809783936,8.965248107910156,-0.7344676852226257
1787816926482863900,12.01586376953125,3.850193738937378,8.99447250366211,-0.6677258014678955
1787816926498859500,12.031859619140626,3.7974464893341064,9.02177619934082,-0.5977877974510193
1787816926514996500,12.04799658203125,3.755195379257202,9.043656349182129,-0.5302760601043701
1787816926531042000,12.0640419921875,3.7223236560821533,9.060848236083984,-0.46447980403900146
1787816926547096300,12.080096435546874,3.6941006183624268,9.075505256652832,-0.39902475476264954
1787816926563171600,12.096171630859375,3.6667799949645996,9.089227676391602,-0.3332539200782776
1787816926579177200,12.11217724609375,3.6364119052886963,9.103557586669922,-0.2686322331428528
1787816926595322000,12.128322021484376,3.6077334880828857,9.11653995513916,-0.20818595588207245
1787816926611331600,12.14433154296875,3.5849761962890625,9.126644134521484,-0.1506955921649933
1787816926627340500,12.160340576171874,3.5419039726257324,9.144149780273438,-0.09909268468618393
1787816926643418400,12.17641845703125,3.4988558292388916,9.161115646362305,-0.04873056709766388
1787816926659432000,12.192431884765625,3.4748647212982178,9.170372009277344,0.00303527619689703
1787816926675538000,12.208537841796876,3.4788107872009277,9.168693542480469,0.05772051587700844
1787816926691555800,12.224555908203126,3.5024242401123047,9.159178733825684,0.1134277880191803
1787816926707577600,12.24057763671875,3.543386459350586,9.142668724060059,0.1624712198972702
1787816926723664600,12.25666455078125,3.589754819869995,9.123824119567871,0.19978578388690948
1787816926739648000,12.27264794921875,3.629401683807373,9.107592582702637,0.22269685566425323
1787816926755761200,12.28876123046875,3.6538937091827393,9.097443580627441,0.23657938838005066
1787816926771801000,12.304801025390624,3.6648902893066406,9.09274673461914,0.2468365877866745
1787816926787832800,12.320832763671875,3.6695361137390137,9.090582847595215,0.2572881281375885
1787816926803879000,12.33687890625,3.6772119998931885,9.087137222290039,0.26913681626319885
1787816926819872300,12.352872314453125,3.6928861141204834,9.080419540405273,0.2810230851173401
1787816926836001000,12.3690009765625,3.717158794403076,9.070185661315918,0.2912779152393341
1787816926852048400,12.38504833984375,3.747100353240967,9.057645797729492,0.29779914021492004
1787816926868092000,12.401091796875,3.780007839202881,9.043659210205078,0.30682870745658875
1787816926884161800,12.417161865234375,3.815617561340332,9.028120994567871,0.32321926951408386
1787816926900162800,12.433162841796875,3.8110337257385254,9.029525756835938,0.33779287338256836
1787816926916302300,12.44930224609375,3.8171722888946533,9.025956153869629,0.3629210293292999
1787816926932356900,12.46535693359375,3.8609659671783447,9.00571346282959,0.40055781602859497
1787816926948383000,12.481383056640626,3.899984359741211,8.9871244430542,0.4383218586444855
1787816926964457000,12.49745703125,3.9299604892730713,8.972387313842773,0.47122958302497864
1787816926980464400,12.51346435546875,3.950563669204712,8.962315559387207,0.49025240540504456
1787816926996613400,12.52961328125,3.9632163047790527,8.95645523071289,0.49519526958465576
1787816927012674000,12.545674072265625,3.970885753631592,8.953487396240234,0.4873794615268707
1787816927028732400,12.561732421875,3.981215476989746,8.949703216552734,0.47235435247421265
1787816927044800500,12.577800537109376,4.000012397766113,8.942054748535156,0.45821285247802734
1787816927060813800,12.593813720703125,3.988847494125366,8.945711135864258,0.48346537351608276
1787816927076966700,12.609966552734376,4.013691425323486,8.934200286865234,0.4906398057937622
1787816927092985600,12.625985595703124,4.070157527923584,8.90937614440918,0.47668901085853577
1787816927109048300,12.64204833984375,4.128904819488525,8.883138656616211,0.4608415961265564
1787816927125121300,12.658121337890625,4.18292236328125,8.858463287353516,0.4485330283641815
1787816927141094100,12.67409423828125,4.1961588859558105,8.85047721862793,0.48134487867355347
1787816927157164300,12.690164306640625,4.198248386383057,8.84735107421875,0.5190991163253784
1787816927173193700,12.70619384765625,4.208736896514893,8.841219902038574,0.5382959842681885
1787816927189220600,12.722220703125,4.207817554473877,8.84001350402832,0.5646402835845947
1787816927205269200,12.738269287109375,4.198023319244385,8.842641830444336,0.5955713987350464
1787816927221246200,12.75424609375,4.179047107696533,8.848993301391602,0.6334677338600159
1787816927237362400,12.770362548828125,4.152978420257568,8.8577241897583,0.6810938119888306
1787816927253403000,12.78640283203125,4.103489875793457,8.875500679016113,0.7465007901191711
1787816927269435100,12.80243505859375,4.0872602462768555,8.876867294311523,0.8160510063171387
1787816927285520600,12.818520751953125,4.084748268127441,8.871716499328613,0.8819751739501953
1787816927301563100,12.834563232421875,4.084770679473877,8.867855072021484,0.91988605260849
1787816927317668900,12.8506689453125,4.081087589263916,8.870800018310547,0.9077612161636353
1787816927333762800,12.8667626953125,4.072566986083984,8.880507469177246,0.8492082953453064
1787816927349806600,12.882806640625,4.0678324699401855,8.891488075256348,0.7513903379440308
1787816927365852400,12.898852294921875,4.077844142913818,8.896199226379395,0.6318532824516296
1787816927381844500,12.914844482421875,4.100879192352295,8.894271850585938,0.49509239196777344
1787816927397967000,12.930967041015625,4.12246561050415,8.891280174255371,0.34757280349731445
1787816927414019000,12.94701904296875,4.127542972564697,8.893383979797363,0.2037646323442459
1787816927430061300,12.963061279296875,4.11325216293335,8.902071952819824,0.0683203786611557
1787816927446110200,12.979110107421874,4.078131198883057,8.918307304382324,-0.05511457100510597
1787816927462164000,12.9951640625,4.0305094718933105,8.938745498657227,-0.15563246607780457
1787816927478284300,13.0112841796875,3.979870557785034,8.95995044708252,-0.22428762912750244
1787816927494398200,13.027398193359375,3.9284260272979736,8.98143196105957,-0.26786255836486816
1787816927510461700,13.043461669921875,3.8698582649230957,9.005756378173828,-0.30160030722618103
1787816927526541800,13.059541748046875,3.794058084487915,9.036458015441895,-0.34342867136001587
1787816927542558000,13.075557861328125,3.69710636138916,9.074213981628418,-0.4005557596683502
1787816927558643700,13.091643798828125,3.5971875190734863,9.111384391784668,-0.46186524629592896
1787816927574662100,13.107662109375,3.5185937881469727,9.140121459960938,-0.49810150265693665
1787816927590724000,13.12372412109375,3.46968936920166,9.159601211547852,-0.4830789864063263
1787816927606781700,13.13978173828125,3.4517252445220947,9.169240951538086,-0.4254204332828522
1787816927622802200,13.15580224609375,3.458944082260132,9.170106887817383,-0.3394453227519989
1787816927638895400,13.171895263671875,3.483351945877075,9.163980484008789,-0.24107947945594788
1787816927654967000,13.187967041015625,3.5172677040100098,9.153139114379883,-0.13886603713035583
1787816927670991000,13.2039912109375,3.559499979019165,9.137770652770996,-0.039103053510189056
1787816927687066400,13.22006640625,3.6100523471832275,9.117820739746094,0.05687003582715988
1787816927703095800,13.236095703125,3.6650726795196533,9.094825744628906,0.14757321774959564
1787816927719207200,13.252207275390624,3.7125604152679443,9.073859214782715,0.22881825268268585
1787816927735289600,13.26828955078125,3.744541883468628,9.0585355758667,0.3028586208820343
1787816927751317000,13.28431689453125,3.763413190841675,9.048023223876953,0.3747076094150543
1787816927767399400,13.3003994140625,3.7781572341918945,9.038639068603516,0.44600555300712585
1787816927783436800,13.316436767578125,3.7840960025787354,9.032896995544434,0.5077097415924072
1787816927799543600,13.33254345703125,3.7946693897247314,9.024850845336914,0.5682947039604187
1787816927815639600,13.3486396484375,3.811042547225952,9.013616561889648,0.6332821249961853
1787816927831680800,13.3646806640625,3.8215527534484863,9.004070281982422,0.7020271420478821
1787816927847771000,13.38077099609375,3.8084309101104736,9.004087448120117,0.7698635458946228
1787816927863820000,13.396820068359375,3.762141466140747,9.017709732055664,0.8352334499359131
1787816927879934500,13.4129345703125,3.6853902339935303,9.04370403289795,0.8942610621452332
1787816927896034000,13.429033935546874,3.604264974594116,9.07061767578125,0.9505652785301208
1787816927912087600,13.445087646484374,3.5373728275299072,9.091728210449219,0.998937726020813
1787816927928136200,13.46113623046875,3.4845056533813477,9.10854434967041,1.0310393571853638
1787816927944193000,13.477193115234375,3.432495594024658,9.127429008483887,1.0384745597839355
1787816927960308700,13.493308837890625,3.375847101211548,9.15078353881836,1.0184366703033447
1787816927976409300,13.509409423828124,3.3269758224487305,9.171313285827637,0.9943099021911621
1787816927992465200,13.525465087890625,3.306082248687744,9.178611755371094,0.9966508746147156
1787816928008525300,13.541525390625,3.3130273818969727,9.17286491394043,1.0260521173477173
1787816928024586800,13.557586669921875,3.3114066123962402,9.16927433013916,1.062732458114624
1787816928040715300,13.57371533203125,3.257591485977173,9.190240859985352,1.0478347539901733
1787816928056828700,13.58982861328125,3.143320322036743,9.242088317871094,0.9347431659698486
1787816928072889300,13.605889404296875,3.0294899940490723,9.295300483703613,0.7680947780609131
1787816928088957000,13.62195703125,2.969356060028076,9.327367782592773,0.5945909023284912
1787816928105026300,13.6380263671875,2.973212718963623,9.334550857543945,0.44335606694221497
1787816928121167000,13.6541669921875,3.0079410076141357,9.327873229980469,0.33687224984169006
1787816928137243400,13.670243408203126,3.051403045654297,9.315741539001465,0.2762015163898468
1787816928153265700,13.686265625,3.0967519283294678,9.301609992980957,0.24610914289951324
1787816928169329400,13.702329345703125,3.1475088596343994,9.284895896911621,0.23300153017044067
1787816928185376500,13.71837646484375,3.1929619312286377,9.270135879516602,0.19995266199111938
1787816928201470700,13.734470703125,3.2379837036132812,9.255544662475586,0.1440434455871582
1787816928217544700,13.750544677734375,3.273561716079712,9.24400520324707,0.05043810233473778
1787816928233576200,13.766576171875,3.3085155487060547,9.231432914733887,-0.06905600428581238
1787816928249655000,13.782655029296874,3.3582699298858643,9.211661338806152,-0.19419249892234802
1787816928265689600,13.798689697265624,3.4141993522644043,9.187713623046875,-0.3155360221862793
1787816928281790000,13.8147900390625,3.4494290351867676,9.169968605041504,-0.42839083075523376
1787816928297874200,13.830874267578125,3.430248737335205,9.171756744384766,-0.5316428542137146
1787816928313911600,13.84691162109375,3.345567226409912,9.197103500366211,-0.6251929402351379
1787816928329998800,13.862998779296875,3.198140859603882,9.242633819580078,-0.7183247804641724
1787816928346040000,13.8790400390625,3.0173089504241943,9.295180320739746,-0.8160024881362915
1787816928362151000,13.89515087890625,2.826591730117798,9.345051765441895,-0.92237788438797
1787816928378240500,13.911240478515625,2.6296980381011963,9.389216423034668,-1.0477160215377808
1787816928394284500,13.927284423828125,2.4155168533325195,9.430517196655273,-1.1836439371109009
1787816928410334700,13.943334716796874,2.196183681488037,9.466424942016602,-1.316805362701416
1787816928426390500,13.959390625,2.0114712715148926,9.4992094039917,-1.37455415725708
1787816928442515500,13.975515380859376,1.9625802040100098,9.51105785369873,-1.3632588386535645
1787816928458622200,13.991622314453124,2.04915714263916,9.50094985961914,-1.3051021099090576
1787816928474679800,14.0076796875,2.1740221977233887,9.482147216796875,-1.2381106615066528
1787816928490742800,14.02374267578125,2.2196238040924072,9.47822093963623,-1.1861659288406372
1787816928506809000,14.03980908203125,2.1706881523132324,9.492467880249023,-1.1625728607177734
1787816928522943200,14.055943115234374,2.097195625305176,9.507533073425293,-1.1743018627166748
1787816928539010600,14.072010498046875,2.0864105224609375,9.504434585571289,-1.217777132987976
1787816928555036000,14.088035888671875,2.1550135612487793,9.481752395629883,-1.2738488912582397
1787816928571116300,14.1041162109375,2.27585768699646,9.446002960205078,-1.3281193971633911
1787816928587095000,14.120094970703125,2.4001755714416504,9.408920288085938,-1.3717756271362305
1787816928603206400,14.136206298828125,2.5029263496398926,9.378849983215332,-1.393898844718933
1787816928619238400,14.15223828125,2.596588373184204,9.354704856872559,-1.3847849369049072
1787816928635268900,14.168268798828125,2.6703011989593506,9.338555335998535,-1.3532447814941406
1787816928651345400,14.184345458984374,2.7125983238220215,9.333258628845215,-1.3047987222671509
1787816928667378200,14.200378173828126,2.7419064044952393,9.333355903625488,-1.2412950992584229
1787816928683478300,14.216478271484375,2.762071132659912,9.337307929992676,-1.1644830703735352
1787816928699556400,14.232556396484375,2.7707021236419678,9.345471382141113,-1.0750652551651
1787816928715585000,14.2485849609375,2.760324001312256,9.359456062316895,-0.9754977822303772
1787816928731663600,14.26466357421875,2.729294776916504,9.378740310668945,-0.8721011281013489
1787816928747708700,14.280708740234376,2.693829298019409,9.397958755493164,-0.769444465637207
1787816928763819500,14.296819580078125,2.6793665885925293,9.409439086914062,-0.6736840009689331
1787816928779917000,14.3129169921875,2.701519727706909,9.408614158630371,-0.5917354822158813
1787816928795959300,14.328959228515625,2.75954270362854,9.395759582519531,-0.5244423747062683
1787816928812011000,14.345010986328125,2.8459112644195557,9.372397422790527,-0.47889965772628784
1787816928828059100,14.36105908203125,2.949634313583374,9.341506004333496,-0.4542196989059448
1787816928844177200,14.37717724609375,3.0765016078948975,9.301484107971191,-0.43351855874061584
1787816928860275200,14.393275146484376,3.2109339237213135,9.25546646118164,-0.4434531033039093
1787816928876323300,14.4093232421875,3.3508012294769287,9.204577445983887,-0.467210978269577
1787816928892374500,14.42537451171875,3.4944357872009277,9.149726867675781,-0.49172845482826233
1787816928908427300,14.44142724609375,3.623077392578125,9.097373008728027,-0.5305860042572021
1787816928924549400,14.45754931640625,3.7150723934173584,9.057246208190918,-0.5787240266799927
1787816928940657400,14.473657470703126,3.766601800918579,9.032550811767578,-0.6293959617614746
1787816928956715300,14.48971533203125,3.783118486404419,9.022785186767578,-0.6691557168960571
1787816928972784000,14.5057841796875,3.778850793838501,9.023509979248047,-0.6833484768867493
1787816928988802300,14.52180224609375,3.7703187465667725,9.028321266174316,-0.6667205691337585
1787816929004942600,14.537942626953125,3.769049882888794,9.03213882446289,-0.6205772757530212
1787816929021017900,14.554017822265624,3.777299165725708,9.03271198272705,-0.559038519859314
1787816929037085200,14.570085205078126,3.786159038543701,9.032369613647461,-0.5016816854476929
1787816929053153000,14.586153076171875,3.7987887859344482,9.029391288757324,-0.45791095495224
1787816929069222400,14.602222412109375,3.8247506618499756,9.019830703735352,-0.42932578921318054
1787816929085384700,14.618384765625,3.868344783782959,9.00192642211914,-0.41428545117378235
1787816929101408300,14.634408203125,3.9217958450317383,8.979284286499023,-0.40294280648231506
1787816929117429200,14.65042919921875,3.9754080772399902,8.956302642822266,-0.3887970745563507
1787816929133523700,14.666523681640625,4.022152423858643,8.936288833618164,-0.3679743707180023
1787816929149508400,14.68250830078125,4.060136318206787,8.92032241821289,-0.33694297075271606
1787816929173684000,14.70668408203125,4.107489585876465,8.900713920593262,-0.27608722448349
1787816929189680000,14.72268017578125,4.136332988739014,8.888824462890625,-0.22348757088184357
1787816929205736000,14.73873583984375,4.1631999015808105,8.877654075622559,-0.15943214297294617
1787816929221774300,14.7547744140625,4.185668468475342,8.868054389953613,-0.09052461385726929
1787816929237818400,14.770818359375,4.210183143615723,8.85680866241455,-0.04103109985589981
1787816929253919000,14.7869189453125,4.2595438957214355,8.833134651184082,-0.04920709878206253
1787816929269916000,14.802916015625,4.313839912414551,8.806621551513672,-0.06775836646556854
1787816929285967600,14.818967529296875,4.363680839538574,8.781766891479492,-0.09618950635194778
1787816929302008300,14.83500830078125,4.401337146759033,8.762494087219238,-0.13162468373775482
1787816929318059500,14.8510595703125,4.423321723937988,8.750716209411621,-0.17200608551502228
1787816929334198800,14.86719873046875,4.429085731506348,8.746820449829102,-0.21615122258663177
1787816929350206500,14.88320654296875,4.4218525886535645,8.749252319335938,-0.2611243426799774
1787816929366257000,14.8992568359375,4.407303810119629,8.755289077758789,-0.3016258776187897
1787816929382318800,14.91531884765625,4.393332004547119,8.76120376586914,-0.33215194940567017
1787816929398379800,14.9313798828125,4.380451679229736,8.766800880432129,-0.3538902997970581
1787816929414516500,14.9475166015625,4.364658832550049,8.774042129516602,-0.36922553181648254
1787816929430539500,14.96353955078125,4.330381393432617,8.790899276733398,-0.37184274196624756
1787816929446630400,14.97963037109375,4.281283855438232,8.815032005310059,-0.36908581852912903
1787816929462701300,14.995701416015624,4.222175121307373,8.842726707458496,-0.3870464265346527
1787816929478770200,15.011770263671876,4.161940097808838,8.868941307067871,-0.43649524450302124
1787816929494886700,15.02788671875,4.103539943695068,8.892706871032715,-0.5011187791824341
1787816929510865200,15.043865234375,4.0518927574157715,8.91160774230957,-0.5794830322265625
1787816929526915300,15.059915283203125,4.0084428787231445,8.925278663635254,-0.6649605631828308
1787816929542939100,15.075939208984375,3.9697535037994385,8.93593978881836,-0.748632550239563
1787816929558966800,15.091966796875,3.905027151107788,8.959589004516602,-0.8043146729469299
1787816929575093000,15.108093017578126,3.841110944747925,8.981789588928223,-0.8623892664909363
1787816929591078400,15.124078369140625,3.7867486476898193,8.998600959777832,-0.9252657294273376
1787816929607169300,15.140169189453125,3.755220651626587,9.005091667175293,-0.9884493350982666
1787816929623197000,15.156197021484376,3.7397642135620117,9.006467819213867,-1.0334879159927368
1787816929639231500,15.1722314453125,3.7246222496032715,9.010422706604004,-1.0535022020339966
1787816929655367400,15.188367431640625,3.711399555206299,9.017226219177246,-1.0418962240219116
1787816929671359200,15.204359130859375,3.6980135440826416,9.026832580566406,-1.005678415298462
1787816929687420700,15.220420654296875,3.6721718311309814,9.042444229125977,-0.9590435028076172
1787816929703456800,15.236456787109375,3.62233304977417,9.06667423248291,-0.9189727902412415
1787816929719496400,15.252496337890625,3.5541021823883057,9.096356391906738,-0.8916478157043457
1787816929735584300,15.268584228515625,3.483069658279419,9.125832557678223,-0.8705129623413086
1787816929751584500,15.28458447265625,3.4340813159942627,9.146363258361816,-0.8494210839271545
1787816929767638800,15.300638671875,3.4137043952941895,9.15583324432373,-0.8292945623397827
1787816929783683000,15.31668310546875,3.4165496826171875,9.156290054321289,-0.8123647570610046
1787816929799733000,15.33273291015625,3.4332361221313477,9.151165962219238,-0.7996659874916077
1787816929815880700,15.348880615234375,3.4578914642333984,9.142889022827148,-0.7880062460899353
1787816929831885600,15.364885498046876,3.488006114959717,9.132654190063477,-0.773831307888031
1787816929847963000,15.380962890625,3.5233981609344482,9.12053394317627,-0.7562544345855713
1787816929864016400,15.397016357421874,3.5441205501556396,9.113640785217285,-0.7423959970474243
1787816929880076300,15.413076171875,3.55391526222229,9.11042308807373,-0.7350339293479919
1787816929896237300,15.4292373046875,3.571244716644287,9.104077339172363,-0.7296385169029236
1787816929912253000,15.4452529296875,3.5864715576171875,9.098201751708984,-0.7282470464706421
1787816929928341000,15.461341064453125,3.5930097103118896,9.095527648925781,-0.7294076085090637
1787816929944358100,15.477358154296875,3.5986196994781494,9.094313621520996,-0.7167872190475464
1787816929960375300,15.493375244140625,3.6091222763061523,9.092658042907715,-0.6842509508132935
1787816929976495600,15.50949560546875,3.604600429534912,9.096653938293457,-0.6543176174163818
1787816929992467200,15.52546728515625,3.6200544834136963,9.09404182434082,-0.6033291816711426
1787816930008552400,15.541552490234375,3.6414339542388916,9.08903980255127,-0.5474512577056885
1787816930024577300,15.557577392578125,3.6486029624938965,9.08878231048584,-0.5021466612815857
1787816930040607200,15.573607177734376,3.6723594665527344,9.081894874572754,-0.45095425844192505
1787816930056733200,15.589733154296875,3.708270311355591,9.069754600524902,-0.3983566462993622
1787816930072726800,15.605726806640625,3.7433414459228516,9.057141304016113,-0.3549214005470276
1787816930088780500,15.621780517578125,3.7818408012390137,9.042448997497559,-0.3197101056575775
1787816930104814000,15.63781396484375,3.830378770828247,9.022992134094238,-0.29019495844841003
1787816930120855600,15.65385546875,3.8940932750701904,8.996530532836914,-0.2624266743659973
1787816930136999400,15.66999951171875,3.9727725982666016,8.962798118591309,-0.2360214740037918
1787816930152999000,15.6859990234375,4.064642429351807,8.922111511230469,-0.2121320515871048
1787816930169052000,15.702052001953126,4.169483661651611,8.874141693115234,-0.18820904195308685
1787816930185096000,15.718095947265626,4.27660608291626,8.823579788208008,-0.15955577790737152
1787816930201145900,15.734145751953125,4.371305465698242,8.777670860290527,-0.12068302184343338
1787816930225264400,15.758264404296876,4.492845058441162,8.716815948486328,-0.04311053454875946
1787816930241310700,15.774310791015624,4.581036567687988,8.67089557647705,0.008068447932600975
1787816930257358600,15.790358642578125,4.686117172241211,8.614400863647461,0.052885204553604126
1787816930273414400,15.806414306640624,4.808018684387207,8.546649932861328,0.09012626111507416
1787816930289527300,15.82252734375,4.932415962219238,8.475248336791992,0.10877513885498047
1787816930305620200,15.8386201171875,5.041520118713379,8.410841941833496,0.10585545748472214
1787816930321669400,15.85466943359375,5.121811389923096,8.362318992614746,0.09520692378282547
1787816930337725200,15.87072509765625,5.170381546020508,8.332362174987793,0.09637977182865143
1787816930353792800,15.886792724609375,5.186958312988281,8.321653366088867,0.12622137367725372
1787816930369921000,15.902921142578125,5.1673407554626465,8.332602500915527,0.1916077435016632
1787816930386032000,15.9190322265625,5.114587783813477,8.362807273864746,0.2735258638858795
1787816930402099500,15.935099365234375,5.037283420562744,8.40666389465332,0.35238516330718994
1787816930418164000,15.9511640625,4.941097259521484,8.460968971252441,0.4098305106163025
1787816930434234000,15.967234130859374,4.826037406921387,8.52645206451416,0.4235071539878845
1787816930450322000,15.983322021484375,4.702513217926025,8.596879959106445,0.387813925743103
1787816930466393300,15.999393310546875,4.587596893310547,8.662040710449219,0.30561143159866333
1787816930482462000,16.0154619140625,4.502955436706543,8.709561347961426,0.19319267570972443
1787816930498531000,16.031531005859375,4.460042953491211,8.733342170715332,0.08456336706876755
1787816930514556700,16.047556640625,4.4586615562438965,8.734448432922363,-0.01198562141507864
1787816930530652000,16.06365185546875,4.487288475036621,8.719246864318848,-0.09679653495550156
1787816930546728400,16.079728515625,4.52849006652832,8.696390151977539,-0.18966419994831085
1787816930562759400,16.095759521484375,4.579783916473389,8.667113304138184,-0.27771279215812683
1787816930578851600,16.1118515625,4.642190933227539,8.630691528320312,-0.36283114552497864
1787816930594834200,16.127834228515624,4.700236797332764,8.594606399536133,-0.4592527151107788
1787816930610948400,16.1439482421875,4.737547874450684,8.568204879760742,-0.5584805607795715
1787816930627029200,16.160029296875,4.751402378082275,8.553031921386719,-0.6634694933891296
1787816930643062500,16.1760625,4.756823539733887,8.541694641113281,-0.7632181644439697
1787816930659117000,16.192116943359373,4.761250972747803,8.532172203063965,-0.838402271270752
1787816930675162000,16.208162109375,4.76060676574707,8.52776050567627,-0.8856067657470703
1787816930691276500,16.224276611328126,4.732036113739014,8.541510581970215,-0.9059922695159912
1787816930707371500,16.24037158203125,4.659256935119629,8.581844329833984,-0.9020342230796814
1787816930723411200,16.2564111328125,4.529864311218262,8.652765274047852,-0.8833855986595154
1787816930739459600,16.27245947265625,4.3545613288879395,8.744405746459961,-0.8622907996177673
1787816930755507200,16.288507080078126,4.151824951171875,8.844223976135254,-0.8440627455711365
1787816930771631000,16.304631103515625,3.942888021469116,8.93984603881836,-0.8385647535324097
1787816930787732000,16.32073193359375,3.7426486015319824,9.023816108703613,-0.8565768003463745
1787816930803780400,16.3367802734375,3.5433197021484375,9.099924087524414,-0.8981372117996216
1787816930819825200,16.3528251953125,3.354480504989624,9.167256355285645,-0.937701404094696
1787816930835875000,16.368875,3.2573914527893066,9.200275421142578,-0.9564201831817627
1787816930851995400,16.384995361328127,3.3305060863494873,9.169769287109375,-0.9967176914215088
1787816930868101600,16.4011015625,3.5571155548095703,9.080368995666504,-1.0316113233566284
1787816930884155100,16.417155029296875,3.7613821029663086,8.997875213623047,-1.0298770666122437
1787816930900212000,16.4332119140625,3.8428101539611816,8.971587181091309,-0.9559487700462341
1787816930916274200,16.449274169921875,3.81424880027771,8.999811172485352,-0.7907596230506897
1787816930932406500,16.465406494140623,3.8125274181365967,9.01773738861084,-0.5616536736488342
1787816930948467200,16.48146728515625,3.8989264965057373,8.992915153503418,-0.31023675203323364
1787816930964478700,16.497478759765624,4.041347026824951,8.93482780456543,-0.08211801946163177
1787816930980539000,16.513538818359375,4.166642665863037,8.877010345458984,0.09038462489843369
1787816930996559400,16.529559326171874,4.242545127868652,8.839262962341309,0.1965656578540802
1787816931012647000,16.54564697265625,4.276706218719482,8.821440696716309,0.24974428117275238
1787816931028716800,16.561716796875,4.282722473144531,8.818038940429688,0.2661980092525482
1787816931044739600,16.577739501953126,4.273101329803467,8.822609901428223,0.26934972405433655
1787816931060812500,16.5938125,4.266817569732666,8.825421333312988,0.2767559289932251
1787816931076839400,16.60983935546875,4.228626728057861,8.843070030212402,0.2987082302570343
1787816931092938800,16.625938720703125,4.1673407554626465,8.870518684387207,0.34287557005882263
1787816931109026800,16.64202685546875,4.08485746383667,8.905916213989258,0.41106268763542175
1787816931125058600,16.65805859375,3.977715253829956,8.949440956115723,0.5056535005569458
1787816931141137000,16.674136962890625,3.8537979125976562,8.995856285095215,0.6270581483840942
1787816931157172200,16.690172119140627,3.7316153049468994,9.036210060119629,0.7696399688720703
1787816931173280500,16.706280517578126,3.625516653060913,9.064090728759766,0.9318208694458008
1787816931189368800,16.722368896484376,3.5338549613952637,9.079699516296387,1.1141515970230103
1787816931205412000,16.738412109375,3.4290621280670166,9.09392261505127,1.3086299896240234
1787816931221505500,16.754505615234375,3.302964925765991,9.11000919342041,1.5061767101287842
1787816931237557500,16.7705576171875,3.2032434940338135,9.10806655883789,1.7183555364608765
1787816931253698800,16.78669873046875,3.2154252529144287,9.079266548156738,1.843466877937317
1787816931269799000,16.802798828125,3.353247880935669,9.035579681396484,1.8123005628585815
1787816931285852000,16.818851806640627,3.533935785293579,8.998113632202148,1.6479215621948242
1787816931301910000,16.834909912109374,3.661933660507202,8.988710403442383,1.4013298749923706
1787816931317977000,16.85097705078125,3.6992831230163574,9.00609016418457,1.1730538606643677
1787816931334108400,16.8671083984375,3.6680405139923096,9.036494255065918,1.0284124612808228
1787816931350175000,16.883175048828125,3.61991024017334,9.0597505569458,0.9937681555747986
1787816931366239500,16.899239501953126,3.5868256092071533,9.066670417785645,1.0490820407867432
1787816931382306800,16.915306884765624,3.5753965377807617,9.058199882507324,1.1558283567428589
1787816931398282000,16.931281982421876,3.585970640182495,9.03878116607666,1.2695070505142212
1787816931414376200,16.947376220703124,3.614915132522583,9.014030456542969,1.3601634502410889
1787816931430461000,16.9634609375,3.659123420715332,8.992108345031738,1.3867913484573364
1787816931446489300,16.9794892578125,3.7007274627685547,8.97883129119873,1.3622066974639893
1787816931462559000,16.99555908203125,3.7043509483337402,8.988072395324707,1.2894707918167114
1787816931478591200,17.01159130859375,3.663902997970581,9.019959449768066,1.1775202751159668
1787816931494692600,17.027692626953126,3.5767478942871094,9.071539878845215,1.0413707494735718
1787816931510780700,17.04378076171875,3.432797431945801,9.142413139343262,0.895860493183136
1787816931526806300,17.05980615234375,3.2406225204467773,9.224638938903809,0.7581444978713989
1787816931542881000,17.075881103515623,3.0221831798553467,9.307747840881348,0.6345119476318359
1787816931558908200,17.091908203125,2.8159193992614746,9.378955841064453,0.5255100131034851
1787816931575009800,17.108009765625,2.6454646587371826,9.433090209960938,0.4344099462032318
1787816931591044400,17.12404443359375,2.5117886066436768,9.472210884094238,0.3721621632575989
1787816931607075000,17.140074951171876,2.372282028198242,9.508915901184082,0.35096096992492676
1787816931623150000,17.156150146484375,2.2001376152038574,9.548822402954102,0.3870028853416443
1787816931639182000,17.17218212890625,2.0597381591796875,9.574538230895996,0.5060261487960815
1787816931655273700,17.188273681640624,2.0219409465789795,9.571702003479004,0.6816656589508057
1787816931671374300,17.204374267578125,2.1347157955169678,9.530957221984863,0.8799000978469849
1787816931687418600,17.220418701171877,2.3355841636657715,9.46424388885498,1.0693591833114624
1787816931703507000,17.2365068359375,2.548963785171509,9.386857032775879,1.2490434646606445
1787816931719556600,17.252556640625,2.724907159805298,9.316167831420898,1.3979638814926147
1787816931735671300,17.26867138671875,2.8795220851898193,9.252811431884766,1.504734992980957
1787816931751772000,17.28477197265625,3.044581413269043,9.188384056091309,1.573057770729065
1787816931767815400,17.3008154296875,3.2227864265441895,9.122856140136719,1.5992363691329956
1787816931783908600,17.31690869140625,3.3928821086883545,9.064483642578125,1.5791975259780884
1787816931799916800,17.332916748046873,3.535562753677368,9.019128799438477,1.5249658823013306
1787816931816054300,17.34905419921875,3.644196033477783,8.987311363220215,1.4554957151412964
1787816931832066800,17.36506689453125,3.726303815841675,8.963448524475098,1.393432378768921
1787816931848130300,17.38113037109375,3.800311326980591,8.938560485839844,1.3528382778167725
1787816931864200200,17.3972001953125,3.8527638912200928,8.923723220825195,1.3014500141143799
1787816931880265200,17.41326513671875,3.871894359588623,8.924339294433594,1.238958716392517
1787816931896405000,17.429405029296873,3.8474926948547363,8.942179679870605,1.1851693391799927
1787816931912473900,17.445473876953123,3.775766372680664,8.977889060974121,1.1451982259750366
1787816931928543500,17.46154345703125,3.6576061248779297,9.02898120880127,1.1268547773361206
1787816931944603100,17.47760302734375,3.49985671043396,9.089784622192383,1.138944149017334
1787816931960668200,17.493668212890626,3.327355146408081,9.150150299072266,1.1721131801605225
1787816931976753400,17.50975341796875,3.1604883670806885,9.204535484313965,1.2075786590576172
1787816931992826000,17.525826171875,3.0138604640960693,9.250550270080566,1.2305872440338135
1787816932008847400,17.541847412109377,2.9137473106384277,9.281721115112305,1.2369844913482666
1787816932024917200,17.557917236328127,2.9123363494873047,9.278711318969727,1.2626230716705322
1787816932040948000,17.573947998046876,3.0751395225524902,9.223087310791016,1.2839730978012085
1787816932057069000,17.590069091796874,3.329780340194702,9.136329650878906,1.2690353393554688
1787816932073146400,17.606146484375,3.5229413509368896,9.076675415039062,1.1718547344207764
1787816932089176300,17.62217626953125,3.5782155990600586,9.077826499938965,0.9797142148017883
1787816932105260500,17.638260498046876,3.5276341438293457,9.1198091506958,0.7451605200767517
1787816932121303300,17.65430322265625,3.4771909713745117,9.154739379882812,0.5198737978935242
1787816932137415400,17.67041552734375,3.4809064865112305,9.161750793457031,0.3405798673629761
1787816932153514200,17.68651416015625,3.527029037475586,9.147612571716309,0.2272513061761856
1787816932169553400,17.702553466796875,3.580054521560669,9.128152847290039,0.1744619607925415
1787816932185595000,17.718594970703126,3.626554489135742,9.110173225402832,0.15245530009269714
1787816932201599500,17.734599609375,3.675638437271118,9.090764045715332,0.13447685539722443
1787816932217736200,17.750736083984375,3.738661050796509,9.065508842468262,0.09671119600534439
1787816932233847800,17.766847900390626,3.8143653869628906,9.034355163574219,0.03806552663445473
1787816932249903000,17.782903076171873,3.873197078704834,9.009187698364258,-0.057223234325647354
1787816932265950700,17.79895068359375,3.8837664127349854,9.003015518188477,-0.18017244338989258
1787816932282012700,17.8150126953125,3.844456911087036,9.016499519348145,-0.305453896522522
1787816932298139600,17.8311396484375,3.7575995922088623,9.048519134521484,-0.418500155210495
1787816932314205000,17.847204833984375,3.6429553031921387,9.090056419372559,-0.5197609663009644
1787816932330267100,17.86326708984375,3.514319896697998,9.135225296020508,-0.6063148975372314
1787816932346335200,17.879335205078124,3.38130784034729,9.17952823638916,-0.688044548034668
1787816932362365200,17.895365234375,3.2458057403564453,9.221902847290039,-0.7691808342933655
1787816932378464300,17.91146435546875,3.1056666374206543,9.263792037963867,-0.8410577178001404
1787816932394497300,17.927497314453124,2.961270570755005,9.306257247924805,-0.8915449380874634
1787816932410528800,17.94352880859375,2.813337802886963,9.349973678588867,-0.9129650592803955
1787816932426609000,17.95960888671875,2.6441333293914795,9.401884078979492,-0.8851710557937622
1787816932442638000,17.97563818359375,2.452059507369995,9.459819793701172,-0.8182903528213501
1787816932458760400,17.991760498046876,2.288837432861328,9.509888648986816,-0.7026029229164124
1787816932474846000,18.007845947265626,2.2734172344207764,9.522809028625488,-0.5639806389808655
1787816932490883000,18.023883056640624,2.401153326034546,9.496918678283691,-0.4619540870189667
1787816932506967300,18.03996728515625,2.551126480102539,9.461276054382324,-0.3826256990432739
1787816932523012000,18.05601220703125,2.6317689418792725,9.44196605682373,-0.30572396516799927
1787816932539127300,18.072127197265626,2.613924980163574,9.44900894165039,-0.23240357637405396
1787816932555221000,18.088220947265626,2.55804705619812,9.465680122375488,-0.16640110313892365
1787816932571265000,18.10426513671875,2.5175812244415283,9.477371215820312,-0.10781214386224747
1787816932587353600,18.120353515625,2.51110577583313,9.479521751403809,-0.05843173339962959
1787816932603347000,18.136346923828125,2.53214955329895,9.47409439086914,-0.011201485060155392
1787816932619474000,18.152473876953124,2.567112922668457,9.464631080627441,0.03287497162818909
1787816932635575300,18.1685751953125,2.6220338344573975,9.449380874633789,0.06751549243927002
1787816932651621000,18.18462109375,2.654456853866577,9.440174102783203,0.08594196289777756
1787816932667666000,18.200666015625,2.6800012588500977,9.432902336120605,0.09134528040885925
1787816932683719000,18.216718994140624,2.703535318374634,9.426261901855469,0.0829562246799469
1787816932699845000,18.23284521484375,2.717458486557007,9.422386169433594,0.06670885533094406
1787816932715956200,18.248956298828126,2.7168846130371094,9.422633171081543,0.054229021072387695
1787816932732015000,18.26501513671875,2.6997427940368652,9.42756462097168,0.05314064025878906
1787816932748075000,18.281074951171874,2.6607375144958496,9.438591957092285,0.062081195414066315
1787816932764087000,18.297087158203126,2.598409652709961,9.455703735351562,0.09134352952241898
1787816932780226000,18.31322607421875,2.523743152618408,9.475275993347168,0.14232873916625977
1787816932796247300,18.329247314453124,2.449789047241211,9.493586540222168,0.20185206830501556
1787816932812269600,18.34526953125,2.395416736602783,9.506194114685059,0.2542649805545807
1787816932828345000,18.361344970703126,2.371950387954712,9.511059761047363,0.2897822856903076
1787816932844325000,18.3773251953125,2.3796017169952393,9.508678436279297,0.3048749268054962
1787816932860397800,18.393397705078126,2.4152040481567383,9.499541282653809,0.3096434473991394
1787816932876424700,18.4094248046875,2.448512554168701,9.491174697875977,0.3046118915081024
1787816932892447700,18.42544775390625,2.4631106853485107,9.487885475158691,0.2889867424964905
1787816932908494800,18.441494873046874,2.4800214767456055,9.484156608581543,0.2658309042453766
1787816932924519000,18.457518798828126,2.5283472537994385,9.472198486328125,0.23522505164146423
1787816932940620000,18.4736201171875,2.6022064685821533,9.45332145690918,0.18339930474758148
1787816932956702700,18.48970263671875,2.677720546722412,9.433368682861328,0.1085653007030487
1787816932972732200,18.505732177734377,2.7319817543029785,9.4183988571167,0.02121756039559841
1787816932988827400,18.521827392578125,2.755892276763916,9.41128158569336,-0.05706511810421944
1787816933004818000,18.53781787109375,2.745370864868164,9.41383171081543,-0.11449410021305084
1787816933020939800,18.553939697265626,2.7005791664123535,9.426338195800781,-0.14632950723171234
1787816933036984300,18.569984375,2.6323463916778564,9.445549011230469,-0.1508651077747345
1787816933053030700,18.58603076171875,2.5568931102752686,9.46644401550293,-0.13830548524856567
1787816933069079800,18.602079833984376,2.472032070159912,9.489288330078125,-0.11340776830911636
1787816933085080300,18.618080322265627,2.393434762954712,9.509681701660156,-0.08847060799598694
1787816933101203000,18.634202880859377,2.335210084915161,9.524322509765625,-0.06695026159286499
1787816933117253400,18.65025341796875,2.303009510040283,9.532268524169922,-0.048912499099969864
1787816933133297700,18.666297607421875,2.2944812774658203,9.534391403198242,-0.033926527947187424
1787816933149345500,18.682345458984376,2.302055597305298,9.532598495483398,-0.022892216220498085
1787816933165354800,18.698354736328124,2.3246004581451416,9.52713394165039,-0.01898994669318199
1787816933181498400,18.714498291015627,2.3591456413269043,9.518621444702148,-0.026204409077763557
1787816933197514200,18.73051416015625,2.3983922004699707,9.508736610412598,-0.045051440596580505
1787816933213574100,18.74657421875,2.4400033950805664,9.497961044311523,-0.0744192823767662
1787816933229650000,18.76264990234375,2.4795448780059814,9.487381935119629,-0.10876286774873734
1787816933245674500,18.778674560546875,2.546044111251831,9.469430923461914,-0.1337985247373581
1787816933261790500,18.79479052734375,2.6290063858032227,9.44654655456543,-0.14657062292099
1787816933277819000,18.81081884765625,2.686656951904297,9.430122375488281,-0.15836481750011444
1787816933293842000,18.826842041015624,2.722118377685547,9.419812202453613,-0.16617080569267273
1787816933309922300,18.84292236328125,2.743915319442749,9.413345336914062,-0.17396920919418335
1787816933325895700,18.858895751953124,2.7551796436309814,9.409940719604492,-0.18002018332481384
1787816933342017000,18.87501708984375,2.765702962875366,9.406838417053223,-0.18077801167964935
1787816933358042600,18.891042724609374,2.778914451599121,9.403042793273926,-0.17553924024105072
1787816933374066200,18.907066162109373,2.7969300746917725,9.39790153503418,-0.16436755657196045
1787816933390112000,18.923112060546874,2.822218179702759,9.390626907348633,-0.14698533713817596
1787816933406097000,18.939096923828124,2.8497555255889893,9.382593154907227,-0.12738047540187836
1787816933422219800,18.9552197265625,2.874985456466675,9.375131607055664,-0.10852643102407455
1787816933438257700,18.971257568359373,2.898153066635132,9.368162155151367,-0.09297551214694977
1787816933454290000,18.9872900390625,2.9174399375915527,9.362289428710938,-0.08041033893823624
1787816933470347800,19.00334765625,2.929013252258301,9.358748435974121,-0.07147855311632156
1787816933486339800,19.01933984375,2.934587001800537,9.357054710388184,-0.06426554918289185
1787816933502471400,19.035471435546874,2.935499429702759,9.35680103302002,-0.059232525527477264
1787816933518518800,19.051518798828123,2.9362499713897705,9.356602668762207,-0.05319587513804436
1787816933534561300,19.067561279296875,2.937588930130005,9.356233596801758,-0.04301058128476143
1787816933550626600,19.08362646484375,2.9350552558898926,9.357088088989258,-0.027186989784240723
1787816933566627600,19.099627685546874,2.931222915649414,9.35832691192627,-0.006992635317146778
1787816933582772700,19.115772705078125,2.9287424087524414,9.359095573425293,0.01443476788699627
1787816933598826500,19.131826416015624,2.9265902042388916,9.359712600708008,0.035261284559965134
1787816933614879000,19.14787890625,2.9245314598083496,9.360273361206055,0.05296528339385986
1787816933630951400,19.163951416015625,2.9263970851898193,9.359594345092773,0.06773059815168381
1787816933646961400,19.17996142578125,2.932244062423706,9.357657432556152,0.08116641640663147
1787816933663115800,19.19611572265625,2.9365077018737793,9.356182098388672,0.09585633128881454
1787816933679178200,19.21217822265625,2.93603777885437,9.35616397857666,0.11077800393104553
1787816933695244000,19.228244140625,2.93135929107666,9.357450485229492,0.12500643730163574
1787816933711334700,19.244334716796875,2.925849199295044,9.359003067016602,0.1373959630727768
1787816933727361800,19.26036181640625,2.922410488128662,9.359905242919922,0.14858955144882202
1787816933743476500,19.2764765625,2.92232608795166,9.359752655029297,0.15949907898902893
1787816933759502300,19.29250244140625,2.9306797981262207,9.35698413848877,0.16840776801109314
1787816933775523800,19.30852392578125,2.9440953731536865,9.352665901184082,0.17422610521316528
1787816933791615200,19.324615234375,2.9564640522003174,9.348658561706543,0.17971505224704742
