time,seconds_elapsed,z,y,x
1787816914590507300,0.12350732421875,-0.019547687843441963,-0.10445795953273773,-0.014049900695681572
1787816914607206100,0.1402060546875,-0.019547687843441963,-0.10445795953273773,-0.014049900695681572
1787816914623302400,0.156302490234375,-0.019547687843441963,-0.10445795953273773,-0.014049900695681572
1787816914639359200,0.172359130859375,-0.019547687843441963,-0.10445795953273773,-0.014049900695681572
1787816914655342000,0.188342041015625,-0.019547687843441963,-0.10445795953273773,-0.014049900695681572
1787816914671389400,0.204389404296875,-0.019547687843441963,-0.10445795953273773,-0.014049900695681572
1787816914687470800,0.220470947265625,-0.019547687843441963,-0.10445795953273773,-0.014049900695681572
1787816914703574300,0.23657421875,-0.019547687843441963,-0.10445795953273773,-0.014049900695681572
1787816914719634000,0.252634033203125,-0.025656340643763542,0,-0.013439035043120384
1787816914735622100,0.2686220703125,-0.03298672288656235,0.02321287989616394,-0.025045474991202354
1787816914751677000,0.284677001953125,-0.036041051149368286,0.04459316283464432,-0.04092797264456749
1787816914767766500,0.3007666015625,-0.02871066704392433,0.033597588539123535,-0.03481931984424591
1787816914783884000,0.316884033203125,-0.015882495790719986,0.014049900695681572,-0.01771509274840355
1787816914799961000,0.332961181640625,-0.0012217304902151227,-0.007941247895359993,0.003054326167330146
1787816914815970000,0.348969970703125,0.00366519158706069,-0.003054326167330146,0.01710422709584236
1787816914832044500,0.36504443359375,-0.0006108652451075613,0.003054326167330146,0.016493361443281174
1787816914848096300,0.38109619140625,-0.0006108652451075613,0.009162978269159794,0.006719517521560192
1787816914864172000,0.397172119140625,-0.001832595793530345,0.012828170321881771,-0.00427605677396059
1787816914880203500,0.41320361328125,-0.009162978269159794,0.00733038317412138,-0.01038470957428217
1787816914896169200,0.429169189453125,-0.010995574295520782,-0.00427605677396059,-0.010995574295520782
1787816914912204000,0.4452041015625,-0.010995574295520782,-0.00733038317412138,-0.006108652334660292
1787816914928262100,0.46126220703125,-0.015271631069481373,-0.00427605677396059,0.0012217304902151227
1787816914944349700,0.477349609375,-0.01160643994808197,-0.007941247895359993,0.00427605677396059
1787816914960398800,0.49339892578125,-0.012217304669320583,0.0024434609804302454,0.00427605677396059
1787816914976378000,0.509378173828125,-0.012828170321881771,0.010995574295520782,0.00733038317412138
1787816914992414700,0.525414794921875,-0.006719517521560192,0.007941247895359993,0.006719517521560192
1787816915008483300,0.5414833984375,-0.00427605677396059,0.00366519158706069,-0.0006108652451075613
1787816915024580000,0.557580078125,-0.004886921960860491,-0.00427605677396059,-0.009773843921720982
1787816915040636400,0.573636474609375,-0.0024434609804302454,-0.014049900695681572,-0.006108652334660292
1787816915056626000,0.5896259765625,-0.001832595793530345,-0.03298672288656235,-0.005497787147760391
1787816915072664300,0.605664306640625,0.003054326167330146,-0.02871066704392433,-0.0024434609804302454
1787816915088750000,0.62175,0.00427605677396059,-0.025045474991202354,0
1787816915104858600,0.637858642578125,-0.001832595793530345,-0.015882495790719986,-0.01038470957428217
1787816915120928800,0.6539287109375,-0.007941247895359993,-0.00366519158706069,-0.021991148591041565
1787816915136923000,0.6699228515625,-0.006719517521560192,0.0006108652451075613,-0.018936822190880775
1787816915152960000,0.6859599609375,-0.003054326167330146,0.006719517521560192,-0.01466076634824276
1787816915169057300,0.702057373046875,0.00366519158706069,0.015271631069481373,-0.01710422709584236
1787816915185177600,0.718177490234375,0.001832595793530345,-0.001832595793530345,-0.019547687843441963
1787816915201207300,0.734207275390625,0.006108652334660292,0,-0.018325956538319588
1787816915217216000,0.750216064453125,0.01771509274840355,-0.006108652334660292,-0.009162978269159794
1787816915233292500,0.76629248046875,0.025045474991202354,-0.02015855349600315,-0.00427605677396059
1787816915249347300,0.782347412109375,0.021380282938480377,-0.015271631069481373,-0.00427605677396059
1787816915265426400,0.798426513671875,0.00733038317412138,0.01160643994808197,-0.006719517521560192
1787816915281461800,0.814461669921875,0.00366519158706069,0.024434609338641167,-0.022602014243602753
1787816915297428000,0.830427978515625,0.00855211354792118,0.012217304669320583,-0.04092797264456749
1787816915313511700,0.84651171875,0.015271631069481373,-0.0012217304902151227,-0.04703662544488907
1787816915329574400,0.862574462890625,0.012217304669320583,-0.014049900695681572,-0.03787364438176155
1787816915345665000,0.8786650390625,0.004886921960860491,-0.01038470957428217,-0.02382374368607998
1787816915361712600,0.894712646484375,0.0012217304902151227,0.0012217304902151227,-0.028099801391363144
1787816915377694200,0.910694091796875,0.006719517521560192,0.01160643994808197,-0.039706241339445114
1787816915393740500,0.926740478515625,0.010995574295520782,0.022602014243602753,-0.0354301854968071
1787816915409811200,0.942811279296875,0.01771509274840355,0.003054326167330146,-0.027488935738801956
1787816915425902300,0.95890234375,0.01771509274840355,-0.0024434609804302454,-0.010995574295520782
1787816915441950500,0.974950439453125,0.007941247895359993,0.02015855349600315,0.00427605677396059
1787816915457932800,0.990932861328125,0.0024434609804302454,0.036041051149368286,-0.0006108652451075613
1787816915473982200,1.006982177734375,0.01038470957428217,0.031154127791523933,-0.018325956538319588
1787816915490058500,1.02305859375,0.022602014243602753,0.014049900695681572,-0.021380282938480377
1787816915506163200,1.0391630859375,0.025656340643763542,0.00366519158706069,-0.012217304669320583
1787816915522228000,1.05522802734375,0.02687807008624077,0.0006108652451075613,0.006108652334660292
1787816915538218800,1.07121875,0.018936822190880775,0.003054326167330146,0.015271631069481373
1787816915554280400,1.087280517578125,0.006108652334660292,0.00733038317412138,0.001832595793530345
1787816915570371000,1.10337109375,0.0012217304902151227,0.006719517521560192,-0.019547687843441963
1787816915586482700,1.119482666015625,-0.004886921960860491,-0.01771509274840355,-0.04337143152952194
1787816915602557000,1.135556884765625,-0.0024434609804302454,-0.02932153269648552,-0.051312681287527084
1787816915618557400,1.151557373046875,-0.006108652334660292,-0.03787364438176155,-0.039706241339445114
1787816915634632700,1.1676328125,-0.009773843921720982,-0.03481931984424591,-0.036651913076639175
1787816915650729200,1.183729248046875,-0.01038470957428217,-0.03237585723400116,-0.05009094998240471
1787816915666847200,1.19984716796875,-0.01710422709584236,-0.018936822190880775,-0.060475658625364304
1787816915682871800,1.215871826171875,-0.012217304669320583,-0.019547687843441963,-0.06230825558304787
1787816915698883000,1.231883056640625,-0.003054326167330146,-0.03237585723400116,-0.06230825558304787
1787816915714964500,1.247964599609375,0.005497787147760391,-0.04703662544488907,-0.060475658625364304
1787816915731020300,1.264020263671875,0.006108652334660292,-0.05803219974040985,-0.05314527451992035
1787816915747147300,1.280147216796875,0.003054326167330146,-0.04459316283464432,-0.036041051149368286
1787816915763183600,1.29618359375,0.006719517521560192,-0.03420845419168472,-0.03726277872920036
1787816915779144000,1.31214404296875,0.01771509274840355,-0.036041051149368286,-0.05253441259264946
1787816915795229200,1.328229248046875,0.015271631069481373,-0.036041051149368286,-0.06719517707824707
1787816915811315500,1.3443154296875,0.00733038317412138,-0.03176499158143997,-0.05742133408784866
1787816915827382500,1.360382568359375,-0.004886921960860491,-0.007941247895359993,-0.025656340643763542
1787816915843432200,1.37643212890625,-0.009162978269159794,0.0006108652451075613,-0.006719517521560192
1787816915859402200,1.39240234375,0.00366519158706069,-0.00855211354792118,-0.01038470957428217
1787816915875441200,1.408441162109375,-0.001832595793530345,-0.014049900695681572,-0.004886921960860491
1787816915891511800,1.42451171875,-0.003054326167330146,0.0012217304902151227,0.004886921960860491
1787816915907601000,1.440600830078125,-0.010995574295520782,0.021380282938480377,0.02015855349600315
1787816915923658800,1.45665869140625,-0.01771509274840355,0.018936822190880775,0.01771509274840355
1787816915939641000,1.47264111328125,-0.013439035043120384,-0.015271631069481373,0.014049900695681572
1787816915955682800,1.488682861328125,0.006108652334660292,-0.04948008432984352,0.00366519158706069
1787816915971761400,1.504761474609375,0.015271631069481373,-0.07208210229873657,-0.016493361443281174
1787816915987863800,1.52086376953125,0.012828170321881771,-0.07024950534105301,-0.02382374368607998
1787816916003928600,1.536928466796875,0.006719517521560192,-0.06291911751031876,-0.01160643994808197
1787816916019921200,1.552921142578125,-0.00366519158706069,-0.054367005825042725,0.01038470957428217
1787816916035956000,1.5689560546875,-0.001832595793530345,-0.04153883829712868,0.013439035043120384
1787816916052040200,1.585040283203125,0.004886921960860491,-0.022602014243602753,-0.00733038317412138
1787816916068151000,1.601151123046875,0.00366519158706069,-0.009162978269159794,-0.021380282938480377
1787816916084218400,1.61721826171875,-0.012828170321881771,0.014049900695681572,-0.027488935738801956
1787816916100213500,1.633213623046875,0.018325956538319588,0.019547687843441963,-0.07513642311096191
1787816916116281000,1.649281005859375,0.018936822190880775,0.016493361443281174,-0.09285151958465576
1787816916132376800,1.665376953125,-0.00733038317412138,-0.00427605677396059,-0.08246681094169617
1787816916148503600,1.681503662109375,-0.03726277872920036,-0.015882495790719986,-0.07635815441608429
1787816916164535800,1.697535888671875,-0.051312681287527084,-0.014049900695681572,-0.07880161702632904
1787816916180545500,1.713545654296875,-0.06352998316287994,-0.029932396486401558,-0.0659734457731247
1787816916196633300,1.72963330078125,-0.05803219974040985,-0.059864792972803116,-0.0403171069920063
1787816916212695300,1.7456953125,-0.05009094998240471,-0.08002334833145142,0.0024434609804302454
1787816916228785200,1.76178515625,-0.05619960278272629,-0.11362093687057495,0.033597588539123535
1787816916244826600,1.77782666015625,-0.09346238523721695,-0.16310101747512817,0.019547687843441963
1787816916260794000,1.793794189453125,-0.09773843735456467,-0.22663100063800812,-0.029932396486401558
1787816916276883500,1.809883544921875,-0.07696902006864548,-0.24434609711170197,-0.10384709388017654
1787816916292948500,1.825948486328125,-0.07391469180583954,-0.19914206862449646,-0.18448130786418915
1787816916309039000,1.8420390625,-0.09162978827953339,-0.14538592100143433,-0.20097467303276062
1787816916325084000,1.858083984375,-0.11789698898792267,-0.09712757170200348,-0.1563815027475357
1787816916341057500,1.8740576171875,-0.13866640627384186,-0.05619960278272629,-0.08674286305904388
1787816916357099500,1.890099609375,-0.13316862285137177,-0.060475658625364304,-0.06902777403593063
1787816916373172000,1.906171875,-0.13316862285137177,-0.07024950534105301,-0.10873401165008545
1787816916389271600,1.922271484375,-0.1368338167667389,-0.10751228034496307,-0.17348572611808777
1787816916405325600,1.93832568359375,-0.1258382350206375,-0.1362229436635971,-0.21930062770843506
1787816916421310000,1.95431005859375,-0.11667526513338089,-0.15454891324043274,-0.2223549485206604
1787816916437371600,1.97037158203125,-0.09957103431224823,-0.17959438264369965,-0.19975294172763824
1787816916453408800,1.98640869140625,-0.09957103431224823,-0.15332718193531036,-0.15027284622192383
1787816916469511000,2.002510986328125,-0.10751228034496307,-0.05742133408784866,-0.1563815027475357
1787816916485572000,2.018572021484375,-0.10323622822761536,-0.024434609338641167,-0.1875356286764145
1787816916501561300,2.034561279296875,-0.07696902006864548,-0.036651913076639175,-0.23457226157188416
1787816916517623300,2.050623291015625,-0.04214970022439957,-0.02687807008624077,-0.25961771607398987
1787816916533710800,2.0667109375,-0.007941247895359993,-0.009773843921720982,-0.26633724570274353
1787816916549817600,2.082817626953125,0.048258353024721146,-0.02076941914856434,-0.2431243658065796
1787816916565885000,2.098885009765625,0.06352998316287994,0.02687807008624077,-0.25595253705978394
1787816916581879000,2.114879150390625,0.05192354694008827,0.15577064454555511,-0.3121521472930908
1787816916597946400,2.1309462890625,-0.015271631069481373,0.23029619455337524,-0.33108896017074585
1787816916614045700,2.147045654296875,-0.05619960278272629,0.33475416898727417,-0.21135938167572021
1787816916630165000,2.1631650390625,-0.09834930300712585,0.1973094791173935,0.00366519158706069
1787816916646231300,2.179231201171875,-0.04153883829712868,0.05314527451992035,0.192422553896904
1787816916662238200,2.19523828125,-0.009162978269159794,-0.1814269721508026,0.28527405858039856
1787816916678307000,2.21130712890625,-0.0012217304902151227,-0.27977627515792847,0.22540926933288574
1787816916694419700,2.227419677734375,-0.0403171069920063,-0.27550023794174194,0.08918632566928864
1787816916710505000,2.2435048828125,-0.12400564551353455,-0.24068090319633484,-0.07208210229873657
1787816916726540000,2.2595400390625,-0.2028072625398636,-0.1716531366109848,-0.14294247329235077
1787816916742514700,2.2755146484375,-0.2376265823841095,-0.04153883829712868,-0.15332718193531036
1787816916758598000,2.291597900390625,-0.24068090319633484,0.09834930300712585,-0.14905111491680145
1787816916774667500,2.30766748046875,-0.25534167885780334,0.2974913716316223,-0.1411098688840866
1787816916790760400,2.323760498046875,-0.29504790902137756,0.5143485069274902,-0.08674286305904388
1787816916806799000,2.339799072265625,-0.30054569244384766,0.6432411074638367,-0.03298672288656235
1787816916822779400,2.355779296875,-0.2767219543457031,0.6829473376274109,-0.00733038317412138
1787816916838865700,2.37186572265625,-0.23518311977386475,0.5693264007568359,0.10384709388017654
1787816916854945000,2.387945068359375,-0.2480112910270691,0.35552358627319336,0.35552358627319336
1787816916871047400,2.40404736328125,-0.22296582162380219,0.05009094998240471,0.6572909951210022
1787816916887102700,2.420102783203125,-0.12339477986097336,-0.17898350954055786,0.7104362845420837
1787816916903095800,2.436095703125,0.03237585723400116,-0.35185837745666504,0.5925393104553223
1787816916919144400,2.45214453125,0.16798794269561768,-0.42149701714515686,0.5552765130996704
1787816916935230000,2.46822998046875,0.28038713335990906,-0.3433062732219696,0.6811147332191467
1787816916951338000,2.484337890625,0.3341432809829712,-0.1814269721508026,0.808174729347229
1787816916967379200,2.500379150390625,0.34086281061172485,-0.02076941914856434,0.6872233748435974
1787816916983418400,2.51641845703125,0.31031954288482666,0.21868975460529327,0.2474004179239273
1787816916999508200,2.53250830078125,0.20036379992961884,0.4703662395477295,-0.10873401165008545
1787816917015595800,2.548595703125,0.11056660860776901,0.7904596328735352,-0.09773843735456467
1787816917031703600,2.56470361328125,0.05375614017248154,1.0977247953414917,0.16432274878025055
1787816917047755000,2.580755126953125,0.060475658625364304,1.2626584768295288,0.2565633952617645
1787816917063762000,2.596761962890625,0.10201449692249298,1.151481032371521,-0.02015855349600315
1787816917079818800,2.61281884765625,0.1661553531885147,0.7739662528038025,-0.5393940210342407
1787816917095971800,2.628971923828125,0.1466076523065567,0.2370157092809677,-1.0231993198394775
1787816917112104000,2.64510400390625,-0.042760565876960754,-0.1514945775270462,-0.9865473508834839
1787816917128132000,2.661132080078125,-0.26939156651496887,-0.29138273000717163,-0.7165449261665344
1787816917144193800,2.67719384765625,-0.5027421116828918,-0.21502456068992615,-0.4031710624694824
1787816917160255200,2.693255126953125,-0.5497786998748779,0.05314527451992035,-0.3433062732219696
1787816917176371500,2.709371337890625,-0.34636059403419495,-0.16798794269561768,-0.4709770977497101
1787816917192457500,2.72545751953125,-0.06169738993048668,-0.24190263450145721,-0.6004805564880371
1787816917208481500,2.7414814453125,0.2021963894367218,-0.36224308609962463,-0.6627888083457947
1787816917224501500,2.75750146484375,0.3634648323059082,-0.1264491081237793,-0.4288274049758911
1787816917240570000,2.773570068359375,0.3286454975605011,0.17837265133857727,-0.03848451003432274
1787816917256685800,2.789685791015625,0.23151792585849762,0.3084869384765625,0.4184426963329315
1787816917272783400,2.805783447265625,0.24556782841682434,-0.05375614017248154,0.6585127115249634
1787816917288816000,2.821816162109375,0.30970868468284607,-0.48258355259895325,0.6719517707824707
1787816917304843800,2.83784375,0.3549126982688904,-0.6585127115249634,0.7312057018280029
1787816917320920000,2.853920166015625,0.27000242471694946,-0.43188172578811646,0.9633345007896423
1787816917337050000,2.870050048828125,0.3488040566444397,-0.7440338730812073,0.4862487316131592
1787816917353152800,2.88615283203125,0.4960225820541382,-1.2327260971069336,-0.375071257352829
1787816917369193700,2.90219384765625,0.598647952079773,-1.5625933408737183,-1.0995573997497559
1787816917385228800,2.918228759765625,0.4056145250797272,-1.6200146675109863,-1.0042624473571777
1787816917401309000,2.934308837890625,0.14416420459747314,-1.643227458000183,-0.48747047781944275
1787816917417439000,2.95043896484375,-0.16920967400074005,-1.4844025373458862,-0.054367005825042725
1787816917433546800,2.966546630859375,-0.43676865100860596,-1.176526427268982,-0.06963863968849182
1787816917449590800,2.9825908203125,-0.5290092825889587,-0.8924741148948669,-0.42149701714515686
1787816917465629400,2.99862939453125,-0.4807509481906891,-0.7641924023628235,-0.740368664264679
1787816917481716200,3.01471630859375,-0.36651915311813354,-0.6780604124069214,-0.8295549750328064
1787816917497852000,3.030851806640625,-0.21563543379306793,-0.7305948138237,-0.646295428276062
1787816917513966600,3.046966552734375,-0.07513642311096191,-0.8509352803230286,-0.46242499351501465
1787816917530016800,3.063016845703125,-0.02871066704392433,-0.8155050873756409,-0.1618792861700058
1787816917546023200,3.079023193359375,-0.10690141469240189,-0.5491678714752197,0.19303341209888458
1787816917562075600,3.09507568359375,-0.2730567753314972,-0.11423180252313614,0.43127086758613586
1787816917578180400,3.111180419921875,-0.43676865100860596,0.3243694305419922,0.504574716091156
1787816917594307300,3.127307373046875,-0.5253441333770752,0.50335294008255,0.5949827432632446
1787816917610367200,3.1433671875,-0.5387831330299377,0.3732386529445648,0.8924741148948669
1787816917626428200,3.15942822265625,-0.43737950921058655,0.15760323405265808,1.2119566202163696
1787816917642489600,3.175489501953125,-0.294437050819397,0.16982053220272064,1.4355332851409912
1787816917658648300,3.1916484375,-0.1661553531885147,0.4245513379573822,1.2956452369689941
1787816917674784300,3.2077841796875,-0.10690141469240189,0.9040805697441101,1.0317513942718506
1787816917690805200,3.22380517578125,-0.19547687470912933,1.493565559387207,0.9529497623443604
1787816917706822400,3.239822509765625,-0.3549126982688904,1.7049249410629272,1.1643091440200806
1787816917722884600,3.255884521484375,0.018325956538319588,1.5613715648651123,0.8570439219474792
1787816917738999000,3.2719990234375,0.4288274049758911,1.4593570232391357,0.24923302233219147
1787816917755084800,3.288084716796875,0.6035348773002625,1.5699236392974854,-0.22113321721553802
1787816917771133000,3.3041328125,0.5717698931694031,1.7415767908096313,0.02871066704392433
1787816917787167000,3.3201669921875,0.5125159621238708,1.7812830209732056,0.503963828086853
1787816917803251200,3.336251220703125,0.47708576917648315,1.5766432285308838,0.608421802520752
1787816917819381000,3.352381103515625,0.59803706407547,1.3182471990585327,0.07024950534105301
1787816917835477800,3.368477783203125,0.7483099102973938,1.0219775438308716,-0.6615670323371887
1787816917851512600,3.3845126953125,0.7220427393913269,0.9169087409973145,-0.9376781582832336
1787816917867545600,3.400545654296875,0.5876523852348328,0.7183775305747986,-0.9101892113685608
1787816917883636200,3.41663623046875,0.4538728892803192,0.40072759985923767,-0.789237916469574
1787816917899771600,3.432771728515625,0.3182607889175415,0.18509216606616974,-0.6579018831253052
1787816917915881500,3.448881591796875,0.16554448008537292,0.06719517707824707,-0.4807509481906891
1787816917931921400,3.46492138671875,0.07024950534105301,-0.13011430203914642,-0.3604104816913605
1787816917947965000,3.48096484375,0.10018189996480942,-0.32986724376678467,-0.3494149148464203
1787816917964055800,3.497055908203125,0.16493362188339233,-0.2987131178379059,-0.24373523890972137
1787816917980195000,3.513195068359375,0.16982053220272064,-0.031154127791523933,0.09468411654233932
1787816917996313900,3.52931396484375,0.11484266817569733,0.21563543379306793,0.43127086758613586
1787816918012372500,3.54537255859375,0.09162978827953339,0.22907446324825287,0.5015203952789307
1787816918028426800,3.5614267578125,0.1264491081237793,-0.09529497474431992,0.3591887652873993
1787816918044480000,3.57747998046875,0.20097467303276062,-0.6481280326843262,0.14355333149433136
1787816918060633900,3.5936337890625,0.27977627515792847,-1.004873275756836,0.16004669666290283
1787816918076756500,3.609756591796875,0.30054569244384766,-1.0054842233657837,0.5674937963485718
1787816918092774700,3.625774658203125,0.13011430203914642,-0.3634648323059082,1.1374311447143555
1787816918108835300,3.64183544921875,0.039095375686883926,-0.2968805134296417,0.656680166721344
1787816918124891000,3.657890869140625,0.06291911751031876,-0.5876523852348328,-0.6401867866516113
1787816918140997000,3.6739970703125,0.17959438264369965,-1.2693779468536377,-1.7373007535934448
1787816918157129000,3.69012890625,0.1508837193250656,-1.4734070301055908,-1.451415777206421
1787816918173148700,3.706148681640625,-0.00366519158706069,-1.5320500135421753,-0.5571091175079346
1787816918189170700,3.722170654296875,-0.36529740691185,-1.318858027458191,0.1459967941045761
1787816918205241600,3.73824169921875,-0.6194173693656921,-0.8509352803230286,-0.0555887371301651
1787816918221362000,3.75436181640625,-0.7348709106445312,-0.6395758986473083,-0.7929030656814575
1787816918237457700,3.770457763671875,-0.740368664264679,-0.6090326309204102,-1.264491081237793
1787816918253492500,3.786492431640625,-0.5803219676017761,-0.5149593949317932,-1.3353514671325684
1787816918269528600,3.802528564453125,-0.2987131178379059,-0.20463985204696655,-1.0787880420684814
1787816918285619200,3.818619140625,-0.31093040108680725,-0.1612684279680252,-0.9969320893287659
1787816918301677000,3.834677001953125,-0.3121521472930908,0.34147366881370544,-0.998153805732727
1787816918317777400,3.85077734375,-0.413555771112442,0.9486737251281738,-1.014647126197815
1787816918333815800,3.86681591796875,-0.6126978397369385,1.0977247953414917,-0.8454375267028809
1787816918349797600,3.882797607421875,-0.7086036801338196,0.749531626701355,-0.22968533635139465
1787816918365890600,3.898890625,-0.5613851547241211,0.12950342893600464,0.7202101349830627
1787816918382027000,3.915027099609375,-0.18325957655906677,-0.2125810980796814,1.5430456399917603
1787816918398139100,3.93113916015625,0.01160643994808197,-0.02015855349600315,1.855197787284851
1787816918414185200,3.947185302734375,0.003054326167330146,0.5192354321479797,1.6297885179519653
1787816918430235600,3.963235595703125,0.021380282938480377,1.0891727209091187,0.9779952764511108
1787816918446288400,3.979288330078125,-0.00366519158706069,1.4966198205947876,0.6279694437980652
1787816918462432500,3.9954326171875,-0.09162978827953339,1.500285029411316,0.7617489695549011
1787816918478551600,4.011551513671875,0.10323622822761536,1.2370021343231201,0.8698720932006836
1787816918494608100,4.027608154296875,0.43249258399009705,1.4135421514511108,0.33597588539123535
1787816918510664000,4.043663818359375,0.455705463886261,1.7916678190231323,-0.051312681287527084
1787816918526721000,4.059720947265625,0.504574716091156,2.1594085693359375,0.2877175211906433
1787816918542828300,4.075828369140625,0.788627028465271,2.1875083446502686,0.8619308471679688
1787816918558963000,4.091962890625,1.045190453529358,1.9517145156860352,0.9627236127853394
1787816918575030000,4.108030029296875,1.3353514671325684,1.6407840251922607,0.4343251883983612
1787816918591091500,4.124091552734375,1.38849675655365,1.2479976415634155,-0.3799581825733185
1787816918607156500,4.140156494140625,1.0195341110229492,0.9847147464752197,-0.7898487448692322
1787816918623270100,4.156270263671875,0.4599815309047699,0.9492846131324768,-0.8148942589759827
1787816918639406800,4.17240673828125,-0.16004669666290283,0.7929030656814575,-0.8191702961921692
1787816918655433000,4.188432861328125,-0.41111230850219727,0.3677408695220947,-0.9156870245933533
1787816918671454500,4.204454345703125,-0.4196644127368927,-0.012217304669320583,-0.8472700715065002
1787816918687525400,4.220525390625,-0.31031954288482666,-0.31031954288482666,-0.5467243790626526
1787816918703605500,4.23660546875,-0.14294247329235077,-0.28099802136421204,-0.11178833991289139
1787816918719704300,4.252704345703125,-0.012828170321881771,-0.07819075137376785,0.1667662113904953
1787816918735740400,4.268740478515625,0.07147123664617538,0,0.29138273000717163
1787816918751766500,4.2847666015625,0.15271630883216858,-0.17592918872833252,0.37629300355911255
1787816918767888000,4.300887939453125,0.304210901260376,-0.769690215587616,0.46242499351501465
1787816918784017400,4.317017333984375,0.32070425152778625,-1.2321151494979858,0.5308418869972229
1787816918800123400,4.333123291015625,0.19608774781227112,-1.5430456399917603,0.5180137157440186
1787816918816160000,4.349159912109375,0.02687807008624077,-1.1582005023956299,0.6145304441452026
1787816918832201500,4.365201416015625,-0.2791654169559479,-0.7275404930114746,0.5497786998748779
1787816918848284700,4.38128466796875,-0.4404338300228119,-0.9639453291893005,-0.4404338300228119
1787816918864411600,4.39741162109375,-0.13988813757896423,-1.9058995246887207,-1.9633208513259888
1787816918880526800,4.41352685546875,-0.030543262138962746,-2.394591808319092,-2.2565362453460693
1787816918896583200,4.429583251953125,-0.13927727937698364,-1.9156733751296997,-1.083064079284668
1787816918912629200,4.445629150390625,-0.4196644127368927,-1.2406673431396484,0.5436700582504272
1787816918928726500,4.4617265625,-0.6157521605491638,-0.5833762884140015,1.037249207496643
1787816918944868900,4.477868896484375,-0.5571091175079346,-0.08246681094169617,0.3738495409488678
1787816918960994800,4.493994873046875,-0.42699480056762695,0.3066543638706207,-0.6401867866516113
1787816918977056500,4.510056396484375,-0.04703662544488907,-0.05497787147760391,-1.0250319242477417
1787816918993115000,4.526114990234375,0.20463985204696655,-0.3854559659957886,-0.7189884185791016
1787816919009175800,4.54217578125,0.1716531366109848,-0.30543261766433716,-0.3286454975605011
1787816919025333000,4.5583330078125,0.03420845419168472,0.031154127791523933,-0.20463985204696655
1787816919041466400,4.57446630859375,-0.09651670604944229,0.5198463201522827,-0.3341432809829712
1787816919057488600,4.590488525390625,-0.2272418737411499,0.626747727394104,-0.3396410644054413
1787816919073509400,4.60650927734375,-0.2877175211906433,0.5626068711280823,0.05253441259264946
1787816919089579500,4.62257958984375,-0.2669481039047241,0.4386012554168701,0.7538077235221863
1787816919105698800,4.63869873046875,-0.11362093687057495,0.30604347586631775,1.3671164512634277
1787816919121789700,4.654789794921875,-0.009773843921720982,0.19120082259178162,1.5601497888565063
1787816919137824300,4.67082421875,0.09224065393209457,0.2987131178379059,1.3274102210998535
1787816919153849900,4.686849853515625,0.14049901068210602,0.6713408827781677,1.0128145217895508
1787816919169924000,4.702924072265625,0.16432274878025055,1.0378600358963013,0.9486737251281738
1787816919193025800,4.72602587890625,0.13316862285137177,1.5045610666275024,1.5625933408737183
1787816919209119700,4.74211962890625,0.0757472887635231,1.1954632997512817,1.977981686592102
1787816919225196800,4.75819677734375,0.28955012559890747,0.9370672702789307,1.3335188627243042
1787816919241294800,4.774294921875,0.43615779280662537,0.9853256344795227,0.08246681094169617
1787816919257295600,4.790295654296875,0.18570303916931152,1.4654656648635864,-0.23396138846874237
1787816919273324800,4.80632470703125,0.06719517707824707,1.778228759765625,0.22846360504627228
1787816919289419800,4.822419677734375,0.15577064454555511,1.7654005289077759,0.6615670323371887
1787816919305503700,4.838503662109375,0.4398229718208313,1.4147639274597168,0.6120869517326355
1787816919321610200,4.8546103515625,0.7538077235221863,1.091616153717041,0.1514945775270462
1787816919337620700,4.870620849609375,0.816726803779602,0.9523389339447021,-0.30115658044815063
1787816919353661400,4.886661376953125,0.6505714654922485,0.8576548099517822,-0.5552765130996704
1787816919369771800,4.902771728515625,0.36713001132011414,0.5919284224510193,-0.5363397002220154
1787816919385870600,4.91887060546875,0.13011430203914642,0.24434609711170197,-0.5308418869972229
1787816919401981400,4.9349814453125,-0.0861319974064827,-0.06719517707824707,-0.5742133259773254
1787816919417996000,4.95099609375,-0.2015855312347412,-0.30604347586631775,-0.6499606370925903
1787816919434040800,4.967040771484375,-0.2669481039047241,-0.4129449129104614,-0.5705481171607971
1787816919450160400,4.983160400390625,-0.2926044464111328,-0.42638394236564636,-0.33047810196876526
1787816919466262000,4.999261962890625,-0.32131510972976685,-0.29993483424186707,0.03848451003432274
1787816919482385200,5.01538525390625,-0.41111230850219727,-0.08185594528913498,0.3292563557624817
1787816919498365200,5.031365234375,-0.513737678527832,-0.00427605677396059,0.40133845806121826
1787816919514426000,5.047426025390625,-0.5357288122177124,-0.009162978269159794,0.29077184200286865
1787816919530560300,5.063560302734375,-0.44165557622909546,-0.003054326167330146,0.14844025671482086
1787816919546574000,5.079573974609375,-0.27550023794174194,-0.03481931984424591,0.1869247704744339
1787816919562705000,5.095704833984375,0.0959058403968811,0.18509216606616974,0.4917465150356293
1787816919578692000,5.111692138671875,0.3695734739303589,0.6359107494354248,1.0030407905578613
1787816919594713000,5.127713134765625,0.47708576917648315,0.030543262138962746,0.6505714654922485
1787816919610803700,5.1438037109375,0.5613851547241211,-0.808174729347229,-0.48869219422340393
1787816919626875400,5.15987548828125,0.24923302233219147,-1.4422528743743896,-1.670716404914856
1787816919642969600,5.175969482421875,-0.35613444447517395,-1.822821855545044,-1.788002610206604
1787816919658971100,5.19197119140625,-0.7837401032447815,-1.508837103843689,-1.0525208711624146
1787816919675001000,5.2080009765625,-0.9828822016716003,-0.8613200187683105,-0.16920967400074005
1787816919691099400,5.224099365234375,-0.9572258591651917,-0.3995058834552765,0.06230825558304787
1787816919707183900,5.240183837890625,-0.7428121566772461,-0.1612684279680252,-0.12339477986097336
1787816919723285200,5.25628515625,-0.3384193480014801,-0.06291911751031876,-0.35613444447517395
1787816919739299800,5.2722998046875,-0.056810468435287476,-0.06536258012056351,-0.41172316670417786
1787816919755288800,5.288288818359375,0.11911872029304504,0.021991148591041565,-0.24373523890972137
1787816919771404000,5.304404052734375,0.26450464129447937,0.021991148591041565,-0.07696902006864548
1787816919787431400,5.320431396484375,0.31581732630729675,0.02015855349600315,0.04764748737215996
1787816919803533600,5.336533447265625,0.23457226157188416,0.0024434609804302454,0.0507018156349659
1787816919819503400,5.35250341796875,0.07819075137376785,0.04153883829712868,0.04459316283464432
1787816919835543600,5.36854345703125,-0.15943582355976105,0.05619960278272629,0.10323622822761536
1787816919851648500,5.3846484375,-0.32131510972976685,-0.014049900695681572,0.22663100063800812
1787816919867738400,5.40073828125,-0.35674530267715454,-0.05925392732024193,0.39095374941825867
1787816919883846100,5.41684619140625,-0.34147366881370544,-0.10201449692249298,0.5858197808265686
1787816919899862500,5.432862548828125,-0.28466320037841797,-0.06414084881544113,0.7000515460968018
1787816919915909600,5.44890966796875,-0.1869247704744339,-0.14844025671482086,0.6646214127540588
1787816919932032500,5.465032470703125,-0.07635815441608429,-0.29565876722335815,0.46670106053352356
1787816919948083500,5.48108349609375,-0.010995574295520782,-0.3683517575263977,0.21502456068992615
1787816919964207400,5.497207275390625,-0.024434609338641167,-0.059864792972803116,0.2223549485206604
1787816919980191500,5.51319140625,-0.039095375686883926,0.18325957655906677,0.38117989897727966
1787816919996247300,5.529247314453125,0.0012217304902151227,0.018936822190880775,0.3933972120285034
1787816920012327200,5.5453271484375,0.10445795953273773,0.05742133408784866,-0.025045474991202354
1787816920028395300,5.561395263671875,0.056810468435287476,0.3286454975605011,-0.47708576917648315
1787816920044482000,5.57748193359375,-0.11667526513338089,0.6096435189247131,-0.6572909951210022
1787816920060474600,5.593474609375,-0.2217440903186798,0.7470881938934326,-0.5015203952789307
1787816920076542500,5.60954248046875,-0.20402899384498596,0.79840087890625,-0.27977627515792847
1787816920092633900,5.6256337890625,-0.09896016865968704,0.7232644557952881,-0.14905111491680145
1787816920108703700,5.641703857421875,0.10506882518529892,0.4306600093841553,-0.12522737681865692
1787816920124793600,5.657793701171875,0.2938261926174164,0.039095375686883926,-0.18387043476104736
1787816920140803600,5.673803466796875,0.38728857040405273,-0.2883284091949463,-0.2272418737411499
1787816920156781300,5.68978125,0.3995058834552765,-0.6389650702476501,-0.24434609711170197
1787816920172883500,5.705883544921875,0.28527405858039856,-0.8558222055435181,-0.251676470041275
1787816920188957400,5.72195751953125,0.10201449692249298,-0.8118399381637573,-0.2565633952617645
1787816920205057000,5.73805712890625,-0.15943582355976105,-0.6145304441452026,-0.25106561183929443
1787816920221064400,5.754064453125,-0.3597996234893799,-0.44287729263305664,-0.2541199326515198
1787816920237098200,5.77009814453125,-0.4245513379573822,-0.3396410644054413,-0.2791654169559479
1787816920253201200,5.786201171875,-0.375071257352829,-0.2535090744495392,-0.26450464129447937
1787816920269239000,5.802239013671875,-0.24556782841682434,-0.15515977144241333,-0.19853121042251587
1787816920285349400,5.818349365234375,-0.09529497474431992,-0.12522737681865692,-0.12400564551353455
1787816920301332500,5.83433251953125,0.00427605677396059,-0.13439035415649414,-0.059864792972803116
1787816920317324000,5.850323974609375,0.0659734457731247,-0.18936823308467865,0.012828170321881771
1787816920333416000,5.866416015625,0.08429940044879913,-0.30604347586631775,0.09162978827953339
1787816920349462000,5.8824619140625,0.12278391420841217,-0.42088615894317627,0.14294247329235077
1787816920365583600,5.89858349609375,0.20830504596233368,-0.5161811113357544,0.1508837193250656
1787816920381587700,5.914587646484375,0.25534167885780334,-0.5406157374382019,0.05619960278272629
1787816920397598200,5.93059814453125,0.2070833146572113,-0.5277875661849976,-0.10201449692249298
1787816920413698600,5.946698486328125,0.11728613078594208,-0.5650503635406494,-0.18936823308467865
1787816920429759200,5.96275927734375,0.01771509274840355,-0.6609562039375305,-0.10812314599752426
1787816920445884400,5.978884521484375,-0.07757988572120667,-0.6805039048194885,0.11789698898792267
1787816920461893000,5.99489306640625,-0.09712757170200348,-0.6902777552604675,0.29138273000717163
1787816920477910800,6.010910888671875,-0.07819075137376785,-0.7739662528038025,0.3646865487098694
1787816920494054100,6.02705419921875,-0.04398229718208313,-0.8289441466331482,0.2816088795661926
1787816920510071300,6.0430712890625,-0.05253441259264946,-0.9175195693969727,0.1368338167667389
1787816920526205400,6.059205322265625,-0.11362093687057495,-1.007927656173706,-0.05009094998240471
1787816920542205000,6.075204833984375,-0.1918116807937622,-1.0885618925094604,-0.2070833146572113
1787816920558227700,6.091227783203125,-0.2968805134296417,-1.2388347387313843,-0.32498031854629517
1787816920574322400,6.107322509765625,-0.4141666293144226,-1.3536773920059204,-0.3897320330142975
1787816920590347500,6.123347412109375,-0.5754350423812866,-1.4019356966018677,-0.413555771112442
1787816920606435800,6.139435791015625,-0.6988298296928406,-1.387274980545044,-0.3549126982688904
1787816920622446000,6.155446044921875,-0.7299839854240417,-1.3170254230499268,-0.2742784917354584
1787816920638421500,6.17142138671875,-0.7165449261665344,-1.3145819902420044,-0.18936823308467865
1787816920654538000,6.1875380859375,-0.6823364496231079,-1.2754865884780884,-0.12828169763088226
1787816920670563600,6.2035634765625,-0.645684540271759,-1.244943380355835,-0.0708603709936142
1787816920686657000,6.219656982421875,-0.6145304441452026,-1.235169529914856,-0.00366519158706069
1787816920702633000,6.235633056640625,-0.5839871764183044,-1.1924089193344116,0.025656340643763542
1787816920718619100,6.251619140625,-0.5583308339118958,-1.2009611129760742,0.039095375686883926
1787816920734743800,6.267743896484375,-0.5253441333770752,-1.2302825450897217,0.019547687843441963
1787816920750779400,6.283779296875,-0.45692721009254456,-1.2864822149276733,-0.039095375686883926
1787816920766881300,6.29988134765625,-0.41722095012664795,-1.4190399646759033,-0.1264491081237793
1787816920782851800,6.315851806640625,-0.35063666105270386,-1.5467108488082886,-0.17837265133857727
1787816920798841300,6.33184130859375,-0.30482175946235657,-1.674992561340332,-0.18387043476104736
1787816920814970600,6.347970703125,-0.2932153046131134,-1.7654005289077759,-0.13316862285137177
1787816920831011600,6.364011474609375,-0.30054569244384766,-1.793500304222107,-0.05803219974040985
1787816920847124700,6.380124755859375,-0.32131510972976685,-1.8154915571212769,0.025656340643763542
1787816920863124200,6.396124267578125,-0.33475416898727417,-1.8582520484924316,0.05864306539297104
1787816920879128300,6.41212841796875,-0.36590829491615295,-1.884519338607788,0.07391469180583954
1787816920895270400,6.4282705078125,-0.394618958234787,-1.882686734199524,0.10567969083786011
1787816920911331000,6.4443310546875,-0.4251621961593628,-1.9266690015792847,0.14355333149433136
1787816920927455200,6.460455322265625,-0.45814892649650574,-1.9346102476119995,0.16371189057826996
1787816920943461600,6.476461669921875,-0.5009095072746277,-1.8942930698394775,0.1618792861700058
1787816920959475200,6.49247509765625,-0.5668829679489136,-1.8197675943374634,0.14966198801994324
1787816920975584800,6.508584716796875,-0.6218608021736145,-1.7269160747528076,0.10384709388017654
1787816920991598000,6.52459814453125,-0.6542366743087769,-1.633453607559204,0.056810468435287476
1787816921007729700,6.540729736328125,-0.6664539575576782,-1.5613715648651123,0.0024434609804302454
1787816921023741700,6.55674169921875,-0.6414085030555725,-1.519832730293274,-0.03481931984424591
1787816921039714800,6.57271484375,-0.5681046843528748,-1.4862351417541504,-0.04214970022439957
1787816921055827500,6.588827392578125,-0.5070181488990784,-1.540602207183838,-0.02076941914856434
1787816921071855000,6.604855224609375,-0.41233405470848083,-1.6291775703430176,0.01160643994808197
1787816921087951400,6.620951416015625,-0.32559117674827576,-1.6627751588821411,0.054367005825042725
1787816921103925500,6.636925537109375,-0.2974913716316223,-1.6572774648666382,0.08918632566928864
1787816921119903200,6.6529033203125,-0.28527405858039856,-1.6279559135437012,0.1062905490398407
1787816921136023600,6.6690234375,-0.2828305959701538,-1.5778648853302002,0.08552113175392151
1787816921152057600,6.6850576171875,-0.29016098380088806,-1.5436564683914185,0.045204028487205505
1787816921168157700,6.70115771484375,-0.3194825351238251,-1.5241087675094604,-0.01466076634824276
1787816921184139800,6.717139892578125,-0.3549126982688904,-1.4795156717300415,-0.08368854224681854
1787816921200127500,6.73312744140625,-0.38179078698158264,-1.4819591045379639,-0.13011430203914642
1787816921216262100,6.74926220703125,-0.4092797040939331,-1.5167783498764038,-0.1569923609495163
1787816921232306700,6.765306640625,-0.43127086758613586,-1.5027284622192383,-0.16920967400074005
1787816921248415200,6.781415283203125,-0.44654250144958496,-1.5167783498764038,-0.18936823308467865
1787816921264405200,6.7974052734375,-0.44837507605552673,-1.4636331796646118,-0.19547687470912933
1787816921280404000,6.813404052734375,-0.4502076804637909,-1.3829989433288574,-0.21013765037059784
1787816921296529700,6.82952978515625,-0.44715335965156555,-1.3371840715408325,-0.23029619455337524
1787816921312580600,6.84558056640625,-0.4440990388393402,-1.29381263256073,-0.2480112910270691
1787816921328697900,6.86169775390625,-0.4349360466003418,-1.2345587015151978,-0.2474004179239273
1787816921344701700,6.87770166015625,-0.4147774875164032,-1.1465940475463867,-0.21868975460529327
1787816921360708900,6.893708984375,-0.3677408695220947,-1.06657075881958,-0.1869247704744339
1787816921376855000,6.90985498046875,-0.2785545587539673,-0.9865473508834839,-0.15943582355976105
1787816921392918500,6.92591845703125,-0.16371189057826996,-0.9236282706260681,-0.12889257073402405
1787816921409049000,6.942049072265625,-0.07452555745840073,-0.8588765263557434,-0.059864792972803116
1787816921425055500,6.958055419921875,-0.04459316283464432,-0.8100073337554932,0.019547687843441963
1787816921441070300,6.9740703125,-0.03420845419168472,-0.7574729323387146,0.08857546001672745
1787816921457174800,6.9901748046875,-0.04092797264456749,-0.7476990818977356,0.11056660860776901
1787816921473190000,7.00618994140625,-0.04214970022439957,-0.7641924023628235,0.08185594528913498
1787816921489278200,7.0222783203125,-0.05253441259264946,-0.8002334833145142,0.02076941914856434
1787816921505298200,7.038298095703125,-0.07696902006864548,-0.817337691783905,-0.031154127791523933
1787816921521271300,7.054271240234375,-0.1062905490398407,-0.8210029006004333,-0.07269296050071716
1787816921537386000,7.070385986328125,-0.13561208546161652,-0.8038986921310425,-0.09651670604944229
1787816921553412000,7.086412109375,-0.15577064454555511,-0.7489207983016968,-0.08429940044879913
1787816921569511700,7.10251171875,-0.16920967400074005,-0.7043276429176331,-0.05497787147760391
1787816921585489200,7.1184892578125,-0.16982053220272064,-0.6994407176971436,-0.04642575979232788
1787816921601477400,7.134477294921875,-0.1514945775270462,-0.7116580009460449,-0.04398229718208313
1787816921617601800,7.150601806640625,-0.14844025671482086,-0.6817256212234497,-0.01466076634824276
1787816921633638000,7.166637939453125,-0.16004669666290283,-0.6591235995292664,0.03481931984424591
1787816921649742300,7.182742431640625,-0.16493362188339233,-0.6090326309204102,0.08796459436416626
1787816921665713700,7.198713623046875,-0.16493362188339233,-0.5693264007568359,0.11911872029304504
1787816921681700900,7.214700927734375,-0.1618792861700058,-0.5296201705932617,0.11667526513338089
1787816921697828000,7.230828125,-0.16493362188339233,-0.48808133602142334,0.08246681094169617
1787816921713868500,7.24686865234375,-0.15393804013729095,-0.485027015209198,0.028099801391363144
1787816921729974300,7.262974365234375,-0.14782938361167908,-0.5112941861152649,-0.012217304669320583
1787816921745946000,7.278946044921875,-0.14905111491680145,-0.5473352670669556,-0.022602014243602753
1787816921761941200,7.294941162109375,-0.16065755486488342,-0.5320636034011841,-0.0006108652451075613
1787816921778079500,7.31107958984375,-0.18570303916931152,-0.4893030524253845,0.013439035043120384
1787816921794129400,7.32712939453125,-0.2015855312347412,-0.4550946056842804,0.02687807008624077
1787816921810248700,7.343248779296875,-0.21930062770843506,-0.4306600093841553,0.04092797264456749
1787816921826253300,7.35925341796875,-0.23273965716362,-0.4190535545349121,0.036041051149368286
1787816921842268200,7.37526806640625,-0.22540926933288574,-0.40683624148368835,-0.01038470957428217
1787816921858420200,7.391420166015625,-0.21563543379306793,-0.3640756905078888,-0.08246681094169617
1787816921874487600,7.407487548828125,-0.19120082259178162,-0.29565876722335815,-0.14538592100143433
1787816921890576100,7.423576171875,-0.1612684279680252,-0.2718350291252136,-0.1875356286764145
1787816921906588200,7.439588134765625,-0.1368338167667389,-0.1966986060142517,-0.18875735998153687
1787816921922605300,7.455605224609375,-0.11545353382825851,-0.11728613078594208,-0.15454891324043274
1787816921938716400,7.47171630859375,-0.08002334833145142,-0.03176499158143997,-0.10812314599752426
1787816921954737000,7.48773681640625,-0.04153883829712868,-0.0006108652451075613,-0.07330382615327835
1787816921970826200,7.503826171875,0.019547687843441963,0.036651913076639175,-0.03420845419168472
1787816921986794800,7.519794677734375,0.06536258012056351,0.036651913076639175,0
1787816922002769200,7.53576904296875,0.09224065393209457,0.01160643994808197,-0.0012217304902151227
1787816922018881800,7.5518818359375,0.12095131725072861,-0.03176499158143997,-0.025656340643763542
1787816922034903300,7.5679033203125,0.12217304855585098,-0.06291911751031876,-0.054367005825042725
1787816922050994700,7.58399462890625,0.11423180252313614,-0.0910189226269722,-0.06963863968849182
1787816922066966800,7.599966796875,0.1111774742603302,-0.12095131725072861,-0.0959058403968811
1787816922082944800,7.61594482421875,0.11423180252313614,-0.12950342893600464,-0.13866640627384186
1787816922099067100,7.632067138671875,0.09529497474431992,-0.05864306539297104,-0.16432274878025055
1787816922115100200,7.64810009765625,0.05314527451992035,0.051312681287527084,-0.19058994948863983
1787816922131201300,7.664201171875,0.021991148591041565,0.12339477986097336,-0.21807889640331268
1787816922147181300,7.680181396484375,0.027488935738801956,0.08124507963657379,-0.22663100063800812
1787816922163168800,7.696168701171875,0.04214970022439957,0.019547687843441963,-0.2076941877603531
1787816922179286800,7.712286865234375,0.0555887371301651,-0.02076941914856434,-0.14049901068210602
1787816922195324400,7.728324462890625,0.07452555745840073,-0.05864306539297104,-0.03298672288656235
1787816922211434500,7.7444345703125,0.08491026610136032,-0.09773843735456467,0.0910189226269722
1787816922227423700,7.760423828125,0.08002334833145142,-0.12339477986097336,0.20891591906547546
1787816922243419100,7.776419189453125,0.04642575979232788,-0.09468411654233932,0.18570303916931152
1787816922259539700,7.792539794921875,0.007941247895359993,-0.04153883829712868,0.05375614017248154
1787816922275584300,7.808584228515625,-0.013439035043120384,0.03176499158143997,-0.11484266817569733
1787816922291699000,7.824698974609375,0.02932153269648552,0.07269296050071716,-0.2626720666885376
1787816922307693800,7.84069384765625,0.06536258012056351,0.059864792972803116,-0.3488040566444397
1787816922323696000,7.856696044921875,0.13377949595451355,0.10323622822761536,-0.3701843321323395
1787816922339837200,7.872837158203125,0.18020524084568024,0.18509216606616974,-0.3378084897994995
1787816922355832800,7.888832763671875,0.2278527319431305,0.2028072625398636,-0.27000242471694946
1787816922371904000,7.904904052734375,0.2791654169559479,0.1563815027475357,-0.21991148591041565
1787816922387902700,7.92090283203125,0.3280346393585205,0.0959058403968811,-0.16982053220272064
1787816922403862800,7.93686279296875,0.34147366881370544,0.059864792972803116,-0.13561208546161652
1787816922419962000,7.952962158203125,0.29138273000717163,0.06475171446800232,-0.12278391420841217
1787816922435975200,7.96897509765625,0.16798794269561768,0.07024950534105301,-0.1319468915462494
1787816922452061700,7.985061767578125,0.051312681287527084,0.05009094998240471,-0.16004669666290283
1787816922468074200,8.00107421875,-0.015882495790719986,-0.009162978269159794,-0.18387043476104736
1787816922484044500,8.01704443359375,-0.0757472887635231,-0.06719517707824707,-0.1618792861700058
1787816922500152600,8.033152587890624,-0.16249015927314758,-0.0659734457731247,-0.09468411654233932
1787816922516173800,8.049173828125,-0.22968533635139465,-0.028099801391363144,-0.0861319974064827
1787816922532260000,8.065260009765625,-0.2938261926174164,0.05192354694008827,-0.14966198801994324
1787816922548225800,8.081225830078125,-0.34697145223617554,0.07147123664617538,-0.26022860407829285
1787816922564198700,8.09719873046875,-0.3830125033855438,0.1569923609495163,-0.37079519033432007
1787816922580309800,8.113309814453125,-0.4306600093841553,0.23945917189121246,-0.4153883755207062
1787816922596337700,8.129337646484375,-0.475253164768219,0.304210901260376,-0.375071257352829
1787816922612429300,8.14542919921875,-0.4282165467739105,0.2626720666885376,-0.3139847218990326
1787816922628392000,8.161391845703125,-0.29016098380088806,0.14294247329235077,-0.29077184200286865
1787816922644371700,8.177371826171875,-0.07819075137376785,0.16982053220272064,-0.2974913716316223
1787816922660496100,8.19349609375,0.09162978827953339,0.3084869384765625,-0.26572638750076294
1787816922676530400,8.209530517578125,0.2070833146572113,0.5015203952789307,-0.2015855312347412
1787816922692631000,8.225631103515624,0.3188716471195221,0.7281513810157776,-0.01466076634824276
1787816922708598300,8.241598388671875,0.4147774875164032,0.8857545852661133,0.3066543638706207
1787816922724596000,8.257595947265624,0.5009095072746277,0.9706648588180542,0.5418374538421631
1787816922740723700,8.2737236328125,0.5699372887611389,0.9767735004425049,0.626747727394104
1787816922756814000,8.28981396484375,0.5473352670669556,0.9004153609275818,0.5943718552589417
1787816922772924000,8.305923828125,0.45814892649650574,0.607810914516449,0.5656611919403076
1787816922788899800,8.32189990234375,0.4245513379573822,0.3793473243713379,0.5027421116828918
1787816922804950000,8.337949951171876,0.30115658044815063,0.3274237811565399,0.3952298164367676
1787816922821067500,8.354067626953125,0.07269296050071716,0.40622538328170776,0.26939156651496887
1787816922837125000,8.370125,-0.11789698898792267,0.6230825781822205,0.20586158335208893
1787816922853205000,8.386205078125,-0.21441370248794556,0.856433093547821,0.1814269721508026
1787816922869194800,8.40219482421875,-0.13255776464939117,0.8686503767967224,0.14844025671482086
1787816922885254400,8.41825439453125,0.02626720629632473,0.6902777552604675,0.09224065393209457
1787816922901334000,8.434333984375,0.12278391420841217,0.18325957655906677,-0.13866640627384186
1787816922917355000,8.45035498046875,0.40744712948799133,-0.2779437005519867,-0.5791002511978149
1787816922933442000,8.466442138671875,0.769690215587616,-0.6676757335662842,-0.7415903806686401
1787816922949446100,8.482446044921875,1.0506882667541504,-1.0231993198394775,-0.455705463886261
1787816922965474800,8.498474853515624,1.2492194175720215,-1.2583824396133423,0.18448130786418915
1787816922981568300,8.514568359375,1.2021827697753906,-1.2846496105194092,0.6224716901779175
1787816922997649700,8.530649658203124,0.9480628371238708,-1.0024298429489136,0.5418374538421631
1787816923013750300,8.546750244140625,0.41661009192466736,-0.42271876335144043,-0.02626720629632473
1787816923029759000,8.562759033203125,-0.14966198801994324,0.05803219974040985,-0.7214318513870239
1787816923045799000,8.578798828125,-0.5112941861152649,0.2724458873271942,-1.0238101482391357
1787816923061904000,8.59490380859375,-0.7452555894851685,0.14844025671482086,-0.8875871896743774
1787816923077985500,8.610985595703125,-0.6511823534965515,-0.4544837474822998,-0.4642575979232788
1787816923094084400,8.62708447265625,-0.41661009192466736,-1.064738154411316,0.05742133408784866
1787816923110090500,8.643090576171875,-0.23884831368923187,-1.518610954284668,0.4282165467739105
1787816923126127600,8.659127685546874,-0.08735372871160507,-1.6896532773971558,0.7580837607383728
1787816923142240000,8.675239990234376,0.16798794269561768,-0.7269296646118164,1.2712105512619019
1787816923158333000,8.6913330078125,0.17287486791610718,-0.4434881806373596,1.4282029867172241
1787816923174442200,8.707442138671874,-0.00366519158706069,-1.218676209449768,0.6695083379745483
1787816923190462200,8.723462158203125,-0.06108652427792549,-2.1178698539733887,-0.7648032903671265
1787816923206511900,8.739511962890624,-0.44104471802711487,-2.607783794403076,-1.6731599569320679
1787816923222627000,8.755626953125,-0.9266825914382935,-2.433687210083008,-1.6743816137313843
1787816923238726400,8.771726318359375,-1.5913039445877075,-1.3127493858337402,-0.9395107626914978
1787816923254846500,8.787846435546875,-1.99447500705719,-0.42760565876960754,-0.17470745742321014
1787816923270822400,8.803822509765626,-1.8496999740600586,-0.10873401165008545,0.08002334833145142
1787816923286874000,8.8198740234375,-1.2308934926986694,0.09896016865968704,0.13439035415649414
1787816923302996000,8.835995849609375,-0.523511528968811,0.10323622822761536,0.13072516024112701
1787816923319056100,8.85205615234375,0.006108652334660292,-0.006719517521560192,0.09529497474431992
1787816923335182600,8.8681826171875,0.40194934606552124,-0.1716531366109848,-0.01160643994808197
1787816923351171000,8.884171142578126,0.4196644127368927,-0.19792033731937408,-0.16371189057826996
1787816923367233500,8.900233642578126,0.07880161702632904,0.05803219974040985,-0.34758231043815613
1787816923383320000,8.916320068359376,-0.33658674359321594,0.4856378734111786,-0.48808133602142334
1787816923399398400,8.9323984375,-0.7153232097625732,0.8222246170043945,-0.4813618063926697
1787816923415496700,8.94849658203125,-0.8936958312988281,0.7318165898323059,-0.22602014243602753
1787816923431503000,8.964503173828126,-0.856433093547821,0.38240164518356323,0.13316862285137177
1787816923447527700,8.980527587890625,-0.6817256212234497,0.12095131725072861,0.5693264007568359
1787816923463625200,8.996625244140626,-0.523511528968811,-0.004886921960860491,0.8631525635719299
1787816923479702300,9.012702392578126,-0.4331034719944,0.11789698898792267,0.979216992855072
1787816923495804200,9.02880419921875,-0.35552358627319336,0.3280346393585205,1.0714576244354248
1787816923511814000,9.04481396484375,-0.22540926933288574,0.5192354321479797,1.0965031385421753
1787816923527847700,9.06084765625,0.015882495790719986,0.6774495840072632,1.0293079614639282
1787816923543947500,9.076947509765626,0.21074850857257843,0.8472700715065002,0.9779952764511108
1787816923559983000,9.092983154296874,0.3952298164367676,1.1050552129745483,0.8802568316459656
1787816923576091600,9.109091552734375,0.5564982295036316,1.2803735733032227,0.7757988572120667
1787816923592109800,9.12510986328125,0.4917465150356293,0.9627236127853394,0.4001167416572571
1787816923608157000,9.141156982421874,0.4502076804637909,0.7128797173500061,-0.684779942035675
1787816923624265000,9.157264892578125,0.3628539443016052,1.0219775438308716,-1.4294246435165405
1787816923640355300,9.173355224609375,0.3836233615875244,1.4190399646759033,-1.074512004852295
1787816923656471600,9.189471435546874,0.6194173693656921,1.197295904159546,-0.4917465150356293
1787816923672491800,9.20549169921875,0.9737191796302795,0.6774495840072632,-0.21441370248794556
1787816923688540000,9.221539794921876,1.0519099235534668,0.36224308609962463,-0.3683517575263977
1787816923704661500,9.23766162109375,0.9126327037811279,0.313373863697052,-0.46670106053352356
1787816923720770800,9.253770751953125,0.6346889734268188,0.30970868468284607,-0.3842342495918274
1787816923736898300,9.269898193359374,0.4043927788734436,0.25473082065582275,-0.1722639948129654
1787816923752885200,9.28588525390625,0.2669481039047241,0.10445795953273773,-0.018936822190880775
1787816923768953000,9.301953125,0.2076941877603531,-0.12400564551353455,0.05009094998240471
1787816923785087700,9.318087646484376,0.23273965716362,-0.42699480056762695,-0.00733038317412138
1787816923801159000,9.334158935546874,0.2541199326515198,-0.7000515460968018,-0.11056660860776901
1787816923817291800,9.350291748046875,0.2730567753314972,-0.770301103591919,-0.08307767659425735
1787816923833288700,9.366288818359376,0.3885102868080139,-0.5729916095733643,0.14355333149433136
1787816923849313500,9.3823134765625,0.4697553813457489,-0.24373523890972137,0.4905247986316681
1787816923865401600,9.398401611328126,0.4709770977497101,0.00366519158706069,0.7354817390441895
1787816923881474000,9.41447412109375,0.47219884395599365,0.11423180252313614,0.816726803779602
1787816923897565000,9.43056494140625,0.5503895878791809,-0.09651670604944229,0.6255260109901428
1787816923913563400,9.4465634765625,0.5571091175079346,-0.42271876335144043,0.4398229718208313
1787816923929589500,9.462589599609375,0.4178318381309509,-0.4251621961593628,0.6090326309204102
1787816923945687600,9.4786875,0.22052235901355743,-0.9382890462875366,0.7012733221054077
1787816923961768700,9.494768798828124,0.07941248267889023,-1.6022995710372925,-0.13744467496871948
1787816923977868800,9.510868896484375,-0.21441370248794556,-1.6157386302947998,-0.950506329536438
1787816923993878800,9.526878662109375,-0.779464066028595,-1.2638801336288452,-1.0708467960357666
1787816924009916000,9.542916015625,-1.129489779472351,-0.720820963382721,-0.30054569244384766
1787816924026018000,9.55901806640625,-1.2327260971069336,-0.23396138846874237,0.5106833577156067
1787816924042108400,9.5751083984375,-1.1117748022079468,0.1466076523065567,1.0409144163131714
1787816924058221300,9.59122119140625,-0.7586946487426758,0.46181413531303406,0.8582656979560852
1787816924074239000,9.607239013671874,-0.4153883755207062,0.5302310585975647,0.1966986060142517
1787816924090242600,9.62324267578125,-0.09040805697441101,0.46670106053352356,-0.3927863538265228
1787816924106370000,9.6393701171875,0.14905111491680145,0.41599923372268677,-0.8032878041267395
1787816924122422500,9.655422607421874,0.2272418737411499,0.4660901725292206,-0.8930850028991699
1787816924138538200,9.671538330078125,0.23640485107898712,0.5534439086914062,-0.8142833709716797
1787816924154526000,9.68752587890625,0.2119702398777008,0.5516113042831421,-0.6261368989944458
1787816924170536000,9.703535888671874,0.19364428520202637,0.5253441333770752,-0.4392121136188507
1787816924186661600,9.71966162109375,0.14477506279945374,0.5650503635406494,-0.3292563557624817
1787816924202765600,9.735765625,0.06963863968849182,0.6200281977653503,-0.23945917189121246
1787816924218896600,9.751896728515625,-0.001832595793530345,0.6921103000640869,-0.10567969083786011
1787816924234888000,9.767887939453125,-0.01466076634824276,0.7037167549133301,0.0659734457731247
1787816924250950100,9.7839501953125,0.021991148591041565,0.7623597979545593,0.23029619455337524
1787816924267080000,9.800079833984375,0.08185594528913498,0.8643743395805359,0.40072759985923767
1787816924283189000,9.81618896484375,0.19975294172763824,0.9553932547569275,0.5192354321479797
1787816924299326700,9.83232666015625,0.33108896017074585,1.009149432182312,0.5320636034011841
1787816924315318500,9.848318603515626,0.5082398653030396,1.034194827079773,0.4948008358478546
1787816924331338000,9.864337890625,0.6695083379745483,0.9767735004425049,0.4966334402561188
1787816924347473700,9.8804736328125,0.8478809595108032,0.827111542224884,0.4807509481906891
1787816924363539700,9.896539794921875,0.9950994849205017,0.778853178024292,0.4703662395477295
1787816924379629300,9.91262939453125,0.9761626720428467,0.9639453291893005,0.5876523852348328
1787816924395627300,9.928627197265625,0.7550294399261475,1.1453723907470703,0.6627888083457947
1787816924411651300,9.9446513671875,0.5925393104553223,1.2748757600784302,0.42149701714515686
1787816924427745800,9.960745849609374,0.4813618063926697,1.3768903017044067,-0.11850785464048386
1787816924443825400,9.976825439453124,0.4746423065662384,1.2986994981765747,-0.5015203952789307
1787816924459923500,9.99292333984375,0.5057964324951172,1.1074986457824707,-0.4538728892803192
1787816924475901700,10.008901611328126,0.5283984541893005,0.8655960559844971,-0.11972958594560623
1787816924491937300,10.024937255859374,0.49357911944389343,0.5687155723571777,0.21441370248794556
1787816924508040200,10.041040283203126,0.403781920671463,0.3634648323059082,0.3689626157283783
1787816924524131800,10.0571318359375,0.2767219543457031,0.21135938167572021,0.32986724376678467
1787816924540245200,10.073245361328125,0.1062905490398407,0.07757988572120667,0.1563815027475357
1787816924556268300,10.089268310546874,-0.07696902006864548,0.009162978269159794,-0.015882495790719986
1787816924572269800,10.105269775390624,-0.21563543379306793,0.04214970022439957,-0.09834930300712585
1787816924588385000,10.121385009765625,-0.3286454975605011,0.16249015927314758,-0.11972958594560623
1787816924604485600,10.137485595703126,-0.3854559659957886,0.3176499307155609,-0.10934487730264664
1787816924620574000,10.153573974609374,-0.3604104816913605,0.47280970215797424,-0.09773843735456467
1787816924636550000,10.1695498046875,-0.2828305959701538,0.5803219676017761,-0.10262536257505417
1787816924652608000,10.18560791015625,-0.11423180252313614,0.6218608021736145,-0.1062905490398407
1787816924668757200,10.20175732421875,0.031154127791523933,0.5815436840057373,-0.02626720629632473
1787816924684822000,10.217822021484375,0.19792033731937408,0.5607742667198181,-0.006719517521560192
1787816924700947200,10.233947265625,0.3481931984424591,0.6621779203414917,-0.09651670604944229
1787816924716941300,10.24994140625,0.44165557622909546,0.8399397134780884,-0.2541199326515198
1787816924732950300,10.2659501953125,0.4447098970413208,0.9877691268920898,-0.413555771112442
1787816924749098500,10.282098388671875,0.3878994286060333,1.1496484279632568,-0.6340781450271606
1787816924765166000,10.298166015625,0.2981022298336029,1.3243558406829834,-0.7531968355178833
1787816924781299700,10.3142998046875,0.24434609711170197,1.4550809860229492,-0.6774495840072632
1787816924797288000,10.330287841796874,0.2565633952617645,1.5234979391098022,-0.49235737323760986
1787816924813308000,10.346307861328125,0.3481931984424591,1.5180001258850098,-0.2321287989616394
1787816924829408500,10.362408447265626,0.4795292317867279,1.4679092168807983,-0.021991148591041565
1787816924845432800,10.378432861328125,0.5650503635406494,1.3909401893615723,0.11056660860776901
1787816924861524200,10.394524169921874,0.6065891981124878,1.289536476135254,0.1875356286764145
1787816924877532200,10.4105322265625,0.5619960427284241,1.2217304706573486,0.1966986060142517
1787816924893502500,10.42650244140625,0.484416127204895,1.208902359008789,0.15454891324043274
1787816924909607000,10.44260693359375,0.3933972120285034,1.2162326574325562,0.11301007121801376
1787816924925636400,10.45863623046875,0.3378084897994995,1.3041973114013672,0.09162978827953339
1787816924941739800,10.47473974609375,0.3139847218990326,1.4367550611495972,0.03237585723400116
1787816924957723000,10.490722900390624,0.33658674359321594,1.5454890727996826,-0.03848451003432274
1787816924973721300,10.506721435546876,0.43127086758613586,1.6126842498779297,-0.12217304855585098
1787816924989852200,10.52285205078125,0.588263213634491,1.6187928915023804,-0.17531833052635193
1787816925005900000,10.538900146484375,0.7342600226402283,1.5821410417556763,-0.17287486791610718
1787816925022018000,10.55501806640625,0.8649851679801941,1.541213035583496,-0.11178833991289139
1787816925037997800,10.570997802734375,0.9108000993728638,1.633453607559204,0
1787816925053997000,10.5869970703125,0.8820894360542297,1.7727309465408325,0.10384709388017654
1787816925070130700,10.603130615234376,0.8014551997184753,1.9266690015792847,0.17287486791610718
1787816925086184000,10.619183837890626,0.7250970602035522,2.02929425239563,0.14844025671482086
1787816925102300700,10.63530078125,0.6780604124069214,2.0500638484954834,0.08368854224681854
1787816925118292000,10.6512919921875,0.6298020482063293,2.0146336555480957,0.051312681287527084
1787816925134297600,10.667297607421874,0.5742133259773254,1.9419406652450562,0.07880161702632904
1787816925150443500,10.683443603515625,0.5112941861152649,1.852143406867981,0.11362093687057495
1787816925166506800,10.6995068359375,0.46547931432724,1.777006983757019,0.14049901068210602
1787816925182637300,10.71563720703125,0.41111230850219727,1.7159204483032227,0.15821409225463867
1787816925198649000,10.731649169921875,0.3683517575263977,1.670716404914856,0.17592918872833252
1787816925214667000,10.7476669921875,0.36590829491615295,1.6322319507598877,0.1814269721508026
1787816925230823400,10.763823486328125,0.3732386529445648,1.5894713401794434,0.16554448008537292
1787816925246840600,10.779840576171875,0.40622538328170776,1.5644259452819824,0.1472185254096985
1787816925262974000,10.795973876953125,0.44226643443107605,1.5693128108978271,0.15760323405265808
1787816925278986800,10.81198681640625,0.4764748811721802,1.5632041692733765,0.18325957655906677
1787816925294956800,10.827956787109375,0.5112941861152649,1.595579981803894,0.20341812074184418
1787816925311063800,10.844063720703126,0.5326744914054871,1.6487252712249756,0.21319197118282318
1787816925327085300,10.860085205078125,0.5571091175079346,1.6908750534057617,0.22540926933288574
1787816925343174700,10.876174560546875,0.5949827432632446,1.6951510906219482,0.22663100063800812
1787816925359194000,10.892194091796876,0.6236934065818787,1.6615535020828247,0.19120082259178162
1787816925375172400,10.90817236328125,0.6499606370925903,1.6548339128494263,0.12767083942890167
1787816925391293000,10.92429296875,0.6542366743087769,1.6169602870941162,0.007941247895359993
1787816925407326500,10.940326416015624,0.6481280326843262,1.570534586906433,-0.13561208546161652
1787816925423425800,10.95642578125,0.6407976150512695,1.5241087675094604,-0.23945917189121246
1787816925439402000,10.972402099609376,0.6194173693656921,1.5167783498764038,-0.31520646810531616
1787816925455390700,10.988390625,0.6059783101081848,1.5668693780899048,-0.3188716471195221
1787816925471503000,11.004503173828125,0.5870414972305298,1.5766432285308838,-0.19058994948863983
1787816925487542800,11.020542724609374,0.5650503635406494,1.5668693780899048,-0.01038470957428217
1787816925503654100,11.036654052734375,0.523511528968811,1.5485434532165527,0.18570303916931152
1787816925519629600,11.052629638671876,0.5021312236785889,1.5693128108978271,0.3341432809829712
1787816925535624200,11.068624267578125,0.4801400899887085,1.652390480041504,0.39095374941825867
1787816925551747600,11.08474755859375,0.40133845806121826,1.6969836950302124,0.39645153284072876
1787816925567800800,11.10080078125,0.4080579876899719,1.7727309465408325,0.31459560990333557
1787816925583920600,11.116920654296875,0.45631635189056396,1.7470746040344238,0.17104226350784302
1787816925599914000,11.1329140625,0.5656611919403076,1.662164330482483,-0.04703662544488907
1787816925615929000,11.14892919921875,0.6713408827781677,1.568701982498169,-0.2877175211906433
1787816925632067300,11.1650673828125,0.7305948138237,1.5302174091339111,-0.4239404797554016
1787816925648132400,11.18113232421875,0.7507534027099609,1.5161675214767456,-0.44715335965156555
1787816925664265700,11.197265625,0.7098253965377808,1.5271631479263306,-0.3170390725135803
1787816925680260900,11.2132607421875,0.6359107494354248,1.4953981637954712,-0.08307767659425735
1787816925696299000,11.229299072265626,0.5503895878791809,1.5008958578109741,0.1215621829032898
1787816925712399600,11.245399658203125,0.4508185386657715,1.5008958578109741,0.2528982162475586
1787816925728416300,11.261416259765625,0.3830125033855438,1.5045610666275024,0.2736676335334778
1787816925744551700,11.2775517578125,0.34147366881370544,1.4929546117782593,0.26145032048225403
1787816925760556300,11.293556396484375,0.3219259977340698,1.4611896276474,0.21991148591041565
1787816925776528400,11.3095283203125,0.30543261766433716,1.4043792486190796,0.14416420459747314
1787816925792643000,11.32564306640625,0.2675589919090271,1.377501130104065,0.06108652427792549
1787816925808677400,11.341677490234375,0.22296582162380219,1.4007140398025513,0.019547687843441963
1787816925824779000,11.357779052734376,0.16249015927314758,1.4440854787826538,0.00427605677396059
1787816925840808400,11.373808349609375,0.12278391420841217,1.50211763381958,-0.00733038317412138
1787816925856794000,11.389794189453125,0.11789698898792267,1.531439185142517,-0.02932153269648552
1787816925872920300,11.40592041015625,0.1319468915462494,1.5894713401794434,-0.05925392732024193
1787816925888961000,11.4219609375,0.14966198801994324,1.665218710899353,-0.09834930300712585
1787816925905070800,11.43807080078125,0.15821409225463867,1.7214182615280151,-0.10873401165008545
1787816925921054200,11.45405419921875,0.18631389737129211,1.7464637756347656,-0.10018189996480942
1787816925937048300,11.47004833984375,0.2480112910270691,1.7464637756347656,-0.10567969083786011
1787816925953182700,11.4861826171875,0.3237585723400116,1.7373007535934448,-0.1411098688840866
1787816925969232400,11.502232421875,0.3781255781650543,1.7360789775848389,-0.18081611394882202
1787816925985347800,11.518347900390625,0.4392121136188507,1.7641788721084595,-0.2119702398777008
1787816926001343200,11.53434326171875,0.4960225820541382,1.7690657377243042,-0.2223549485206604
1787816926017344500,11.550344482421876,0.543059229850769,1.7550158500671387,-0.2125810980796814
1787816926033483300,11.566483154296876,0.6053674817085266,1.747685432434082,-0.19303341209888458
1787816926049544400,11.58254443359375,0.646295428276062,1.6994271278381348,-0.1820378452539444
1787816926065673500,11.598673583984375,0.6640105247497559,1.6224581003189087,-0.17776179313659668
1787816926081684500,11.6146845703125,0.6511823534965515,1.49906325340271,-0.1618792861700058
1787816926097696000,11.630696044921875,0.588874101638794,1.4019356966018677,-0.10690141469240189
1787816926113847000,11.646846923828125,0.5149593949317932,1.3060299158096313,-0.07024950534105301
1787816926129908000,11.662907958984375,0.42149701714515686,1.2577714920043945,-0.05314527451992035
1787816926146042600,11.679042724609374,0.3219259977340698,1.214400053024292,-0.05803219974040985
1787816926162056700,11.695056640625,0.24007004499435425,1.2015719413757324,-0.05925392732024193
1787816926178081800,11.711081787109375,0.2076941877603531,1.1691961288452148,-0.0555887371301651
1787816926194243800,11.727243896484374,0.21074850857257843,1.1258246898651123,-0.07391469180583954
1787816926210264300,11.743264404296875,0.24556782841682434,1.129489779472351,-0.10690141469240189
1787816926226351000,11.75935107421875,0.2968805134296417,1.1618657112121582,-0.1319468915462494
1787816926242368500,11.775368408203125,0.35185837745666504,1.2040153741836548,-0.14966198801994324
1787816926258342700,11.7913427734375,0.403781920671463,1.2315043210983276,-0.13500121235847473
1787816926274451500,11.807451416015626,0.4447098970413208,1.1911872625350952,-0.09407325088977814
1787816926290482400,11.823482421875,0.47280970215797424,1.1203268766403198,-0.04886921867728233
1787816926306574800,11.839574951171874,0.4905247986316681,1.0170906782150269,-0.016493361443281174
1787816926322552300,11.85555224609375,0.4899139404296875,0.9065240025520325,-0.003054326167330146
1787816926338533400,11.871533447265625,0.4856378734111786,0.826500654220581,0.007941247895359993
1787816926354658300,11.887658203125,0.4801400899887085,0.7232644557952881,0.02687807008624077
1787816926370698500,11.903698486328125,0.46731191873550415,0.6279694437980652,0.02871066704392433
1787816926386802000,11.919802001953125,0.45326200127601624,0.5510004758834839,-0.00733038317412138
1787816926402822000,11.93582177734375,0.4392121136188507,0.4789183437824249,-0.07330382615327835
1787816926418805200,11.95180517578125,0.41111230850219727,0.4386012554168701,-0.1319468915462494
1787816926434934500,11.9679345703125,0.384845107793808,0.4202753007411957,-0.1667662113904953
1787816926450974700,11.983974609375,0.3744603991508484,0.4129449129104614,-0.18325957655906677
1787816926467086000,12.000086181640626,0.38117989897727966,0.4092797040939331,-0.19853121042251587
1787816926483054000,12.01605419921875,0.4141666293144226,0.4178318381309509,-0.20830504596233368
1787816926499049500,12.032049560546875,0.44715335965156555,0.4282165467739105,-0.20402899384498596
1787816926515187000,12.04818701171875,0.4960225820541382,0.44837507605552673,-0.1722639948129654
1787816926531232800,12.064232666015625,0.5241223573684692,0.4196644127368927,-0.1258382350206375
1787816926547357400,12.080357421875,0.5448917746543884,0.38728857040405273,-0.06841690838336945
1787816926563362300,12.0963623046875,0.5485569834709167,0.3274237811565399,0.004886921960860491
1787816926579368000,12.112367919921875,0.5204572081565857,0.2669481039047241,0.07391469180583954
1787816926595512600,12.1285126953125,0.49235737323760986,0.23457226157188416,0.1160643994808197
1787816926611522300,12.144522216796876,0.4648684561252594,0.19364428520202637,0.10873401165008545
1787816926627601400,12.160601318359374,0.4184426963329315,0.12461651116609573,0.08246681094169617
1787816926643608800,12.17660888671875,0.3677408695220947,0.028099801391363144,0.036651913076639175
1787816926659622700,12.19262255859375,0.3335324227809906,-0.08246681094169617,-0.042760565876960754
1787816926675728400,12.208728271484375,0.28099802136421204,-0.23151792585849762,-0.1875356286764145
1787816926691746300,12.224746337890625,0.19303341209888458,-0.33719760179519653,-0.31459560990333557
1787816926707838500,12.24083837890625,0.1062905490398407,-0.3530801236629486,-0.35185837745666504
1787816926723855400,12.25685546875,0.01771509274840355,-0.2785545587539673,-0.2993239760398865
1787816926739838500,12.27283837890625,-0.02382374368607998,-0.1820378452539444,-0.1820378452539444
1787816926755951900,12.288951904296875,-0.018325956538319588,-0.11484266817569733,-0.08429940044879913
1787816926771991600,12.304991455078126,0.005497787147760391,-0.06352998316287994,-0.036651913076639175
1787816926788094000,12.321093994140625,0.04581489413976669,-0.00427605677396059,-0.060475658625364304
1787816926804070000,12.33706982421875,0.0806342139840126,0.05375614017248154,-0.1313360333442688
1787816926820063000,12.35306298828125,0.11972958594560623,0.1466076523065567,-0.19914206862449646
1787816926836191500,12.36919140625,0.14477506279945374,0.2528982162475586,-0.2565633952617645
1787816926852239000,12.385239013671875,0.18570303916931152,0.31093040108680725,-0.2871066629886627
1787816926868353000,12.40135302734375,0.22846360504627228,0.29138273000717163,-0.3066543638706207
1787816926884352300,12.417352294921875,0.26572638750076294,0.21563543379306793,-0.33536502718925476
1787816926900353500,12.433353515625,0.27488934993743896,0.09529497474431992,-0.36163222789764404
1787816926916493000,12.4494931640625,0.2541199326515198,-0.022602014243602753,-0.36163222789764404
1787816926932570400,12.4655703125,0.2021963894367218,-0.13011430203914642,-0.32681289315223694
1787816926948644600,12.48164453125,0.11850785464048386,-0.21868975460529327,-0.26022860407829285
1787816926964647400,12.4976474609375,-0.0024434609804302454,-0.242513507604599,-0.19303341209888458
1787816926980655000,12.513655029296874,-0.09346238523721695,-0.22052235901355743,-0.1417207419872284
1787816926996803300,12.52980322265625,-0.1661553531885147,-0.14538592100143433,-0.10201449692249298
1787816927012864500,12.545864501953124,-0.21380282938480377,-0.10934487730264664,-0.11972958594560623
1787816927028993800,12.561993896484376,-0.22052235901355743,-0.11667526513338089,-0.17470745742321014
1787816927044991000,12.577990966796875,-0.20341812074184418,-0.14905111491680145,-0.27977627515792847
1787816927061004300,12.59400439453125,-0.19792033731937408,-0.14966198801994324,-0.3952298164367676
1787816927077157400,12.610157470703125,-0.20830504596233368,-0.11667526513338089,-0.4691445231437683
1787816927093176600,12.626176513671876,-0.2223549485206604,-0.08368854224681854,-0.49724429845809937
1787816927109309400,12.642309326171874,-0.22540926933288574,-0.11178833991289139,-0.46670106053352356
1787816927125311700,12.658311767578125,-0.192422553896904,-0.19120082259178162,-0.37751471996307373
1787816927141284600,12.67428466796875,-0.1368338167667389,-0.26022860407829285,-0.2736676335334778
1787816927157354500,12.6903544921875,-0.07391469180583954,-0.3072652220726013,-0.15760323405265808
1787816927173384000,12.706384033203125,-0.025045474991202354,-0.32559117674827576,-0.0806342139840126
1787816927189481000,12.72248095703125,0.006719517521560192,-0.32070425152778625,-0.031154127791523933
1787816927205459700,12.738459716796875,0.060475658625364304,-0.33169981837272644,0.027488935738801956
1787816927221437200,12.754437255859376,0.10873401165008545,-0.3878994286060333,0.08368854224681854
1787816927237553000,12.770552978515624,0.152105450630188,-0.48258355259895325,0.08735372871160507
1787816927253593900,12.78659375,0.21013765037059784,-0.5717698931694031,0.04214970022439957
1787816927269696000,12.802696044921875,0.2021963894367218,-0.6120869517326355,-0.02871066704392433
1787816927285711600,12.818711669921875,0.1062905490398407,-0.5369505286216736,-0.05497787147760391
1787816927301753900,12.83475390625,-0.1264491081237793,-0.32070425152778625,-0.019547687843441963
1787816927317859000,12.850859130859375,-0.3787364661693573,-0.08185594528913498,0.04642575979232788
1787816927333953300,12.866953369140624,-0.5864306092262268,0.11850785464048386,0.06108652427792549
1787816927350067700,12.883067626953125,-0.7153232097625732,0.18448130786418915,-0.018936822190880775
1787816927366043400,12.89904345703125,-0.8417723178863525,0.2021963894367218,-0.13561208546161652
1787816927382035200,12.91503515625,-0.9108000993728638,0.251676470041275,-0.15393804013729095
1787816927398157800,12.93115771484375,-0.8930850028991699,0.27611109614372253,-0.07513642311096191
1787816927414209800,12.947209716796875,-0.7910705208778381,0.3390302062034607,0.05314527451992035
1787816927430322700,12.96332275390625,-0.685390830039978,0.3585779070854187,0.20036379992961884
1787816927446300700,12.97930078125,-0.5748242139816284,0.3549126982688904,0.30604347586631775
1787816927462354700,12.995354736328125,-0.42149701714515686,0.25534167885780334,0.3481931984424591
1787816927478475000,13.01147509765625,-0.27550023794174194,0.13072516024112701,0.3481931984424591
1787816927494589000,13.0275888671875,-0.20463985204696655,0.0659734457731247,0.3854559659957886
1787816927510723000,13.04372314453125,-0.18997909128665924,0.15271630883216858,0.47280970215797424
1787816927526732300,13.059732177734375,-0.192422553896904,0.4337143301963806,0.6236934065818787
1787816927542748400,13.07574853515625,-0.13988813757896423,0.6530149579048157,0.6780604124069214
1787816927558834200,13.091834228515625,-0.015271631069481373,0.6316346526145935,0.5705481171607971
1787816927574852900,13.107852783203125,0.20097467303276062,0.4337143301963806,0.3597996234893799
1787816927590985000,13.12398486328125,0.44776421785354614,0.2919935882091522,0.14844025671482086
1787816927606972400,13.139972412109374,0.6725626587867737,0.3078760802745819,-0.029932396486401558
1787816927622992600,13.15599267578125,0.7941248416900635,0.3891211748123169,-0.1508837193250656
1787816927639085600,13.17208544921875,0.8845328688621521,0.4893030524253845,-0.23090706765651703
1787816927655157500,13.188157470703125,0.9224064946174622,0.6041457056999207,-0.2822197377681732
1787816927671252200,13.204252197265625,0.921795666217804,0.6792821288108826,-0.32681289315223694
1787816927687257000,13.220257080078126,0.8943067193031311,0.6536257863044739,-0.37140607833862305
1787816927703286300,13.236286376953124,0.8112290501594543,0.6059783101081848,-0.33047810196876526
1787816927719397600,13.252397705078126,0.7012733221054077,0.43676865100860596,-0.24434609711170197
1787816927735480000,13.26847998046875,0.5729916095733643,0.1875356286764145,-0.1264491081237793
1787816927751577600,13.28457763671875,0.4605923891067505,-0.04703662544488907,-0.051312681287527084
1787816927767590400,13.30059033203125,0.3396410644054413,-0.20586158335208893,-0.03787364438176155
1787816927783627500,13.31662744140625,0.27122417092323303,-0.323147714138031,-0.0757472887635231
1787816927799734000,13.332734130859375,0.2278527319431305,-0.503963828086853,-0.14294247329235077
1787816927815830300,13.348830322265625,0.1875356286764145,-0.6774495840072632,-0.14477506279945374
1787816927831942100,13.364942138671875,0.14477506279945374,-0.7721336483955383,-0.03726277872920036
1787816927847961900,13.3809619140625,0.11362093687057495,-0.827722430229187,0.1918116807937622
1787816927864010200,13.39701025390625,0.06536258012056351,-0.8356636762619019,0.4190535545349121
1787816927880125200,13.413125244140625,0.033597588539123535,-0.8845328688621521,0.48258355259895325
1787816927896224500,13.429224609375,-0.0012217304902151227,-0.9108000993728638,0.3995058834552765
1787816927912348700,13.4453486328125,-0.0861319974064827,-0.8717046976089478,0.2791654169559479
1787816927928327200,13.4613271484375,-0.19914206862449646,-0.770301103591919,0.2565633952617645
1787816927944383500,13.477383544921874,-0.3084869384765625,-0.6053674817085266,0.313373863697052
1787816927960499500,13.49349951171875,-0.49235737323760986,-0.6976081132888794,0.2828305959701538
1787816927976600000,13.50960009765625,-0.607200026512146,-1.2858713865280151,0.05925392732024193
1787816927992726300,13.525726318359375,-0.5638286471366882,-1.9297232627868652,-0.2217440903186798
1787816928008716300,13.54171630859375,-0.6151412725448608,-2.520430088043213,-0.3433062732219696
1787816928024777000,13.55777685546875,-0.836885392665863,-2.4013113975524902,-0.021380282938480377
1787816928040905700,13.57390576171875,-1.2492194175720215,-1.7660114765167236,0.5198463201522827
1787816928057019100,13.59001904296875,-1.5125023126602173,-1.3060299158096313,0.7086036801338196
1787816928073150500,13.606150390625,-1.531439185142517,-1.1081095933914185,0.4202753007411957
1787816928089147600,13.622147705078126,-1.4025466442108154,-1.0812314748764038,-0.01771509274840355
1787816928105216800,13.638216796875,-1.1966849565505981,-1.2192870378494263,-0.2541199326515198
1787816928121358000,13.654358154296874,-0.9718865752220154,-1.5234979391098022,-0.33597588539123535
1787816928137433600,13.67043359375,-0.8362745046615601,-1.8038851022720337,-0.3536909818649292
1787816928153526800,13.68652685546875,-0.7293730974197388,-1.9327776432037354,-0.3878994286060333
1787816928169543000,13.70254296875,-0.7782423496246338,-1.8417587280273438,-0.3695734739303589
1787816928185567500,13.7185673828125,-0.9425650835037231,-1.5778648853302002,-0.28099802136421204
1787816928201661400,13.734661376953126,-1.0757336616516113,-1.2400563955307007,-0.20952677726745605
1787816928217735200,13.750735107421875,-1.1313223838806152,-0.9712757468223572,-0.21319197118282318
1787816928233837800,13.766837890625,-1.1105530261993408,-0.750142514705658,-0.304210901260376
1787816928249845800,13.782845703125,-1.0415252447128296,-0.5644394755363464,-0.37262779474258423
1787816928265880600,13.798880615234374,-0.9364564418792725,-0.41111230850219727,-0.2981022298336029
1787816928281980200,13.814980224609375,-0.8228355050086975,-0.2681698501110077,0.01160643994808197
1787816928298065000,13.83106494140625,-0.7580837607383728,-0.29504790902137756,0.4905247986316681
1787816928314173000,13.8471728515625,-0.7446447610855103,-0.34086281061172485,0.9443976879119873
1787816928330189600,13.863189453125,-0.740368664264679,-0.27611109614372253,1.1985175609588623
1787816928346230500,13.87923046875,-0.7666358947753906,-0.24434609711170197,1.289536476135254
1787816928362341000,13.895341064453126,-0.8197811841964722,-0.06291911751031876,1.2999212741851807
1787816928378431200,13.91143115234375,-0.8191702961921692,0.32620203495025635,1.3396275043487549
1787816928394545700,13.927545654296875,-0.627358615398407,0.8240572214126587,1.416596531867981
1787816928410525000,13.94352490234375,-0.34513887763023376,0.5296201705932617,1.2553280591964722
1787816928426581200,13.959581298828125,0.04337143152952194,0.33169981837272644,0.513737678527832
1787816928442706000,13.975705810546875,0.33719760179519653,0.02932153269648552,-0.3689626157283783
1787816928458812700,13.991812744140624,0.3836233615875244,-0.29077184200286865,-0.8210029006004333
1787816928474941200,14.007941162109375,0.26450464129447937,-0.4709770977497101,-0.3988949954509735
1787816928490933500,14.02393359375,0.09834930300712585,-0.5290092825889587,0.24495697021484375
1787816928506999800,14.039999755859375,-0.15393804013729095,-0.578489363193512,0.588263213634491
1787816928523133700,14.0561337890625,-0.37079519033432007,-0.5479460954666138,0.2632829248905182
1787816928539201300,14.072201171875,-0.4648684561252594,-0.46364670991897583,-0.2474004179239273
1787816928555297000,14.088297119140625,-0.4331034719944,-0.2779437005519867,-0.7086036801338196
1787816928571307300,14.104307373046876,-0.3604104816913605,-0.2076941877603531,-0.8124507665634155
1787816928587285500,14.120285400390625,-0.2742784917354584,-0.3274237811565399,-0.6585127115249634
1787816928603396600,14.136396728515624,-0.17409659922122955,-0.5161811113357544,-0.4544837474822998
1787816928619428900,14.152428955078125,-0.06902777403593063,-0.769079327583313,-0.2626720666885376
1787816928635530200,14.1685302734375,-0.009162978269159794,-1.0525208711624146,-0.1264491081237793
1787816928651536100,14.1845361328125,0.01160643994808197,-1.291369080543518,-0.036651913076639175
1787816928667569000,14.20056884765625,0.05314527451992035,-1.4978415966033936,0.048258353024721146
1787816928683668700,14.216668701171875,0.07819075137376785,-1.6768250465393066,0.12461651116609573
1787816928699747000,14.2327470703125,0.11362093687057495,-1.8112154006958008,0.22907446324825287
1787816928715846700,14.2488466796875,0.1313360333442688,-1.8759671449661255,0.3695734739303589
1787816928731854600,14.2648544921875,0.11239920556545258,-1.974927306175232,0.42271876335144043
1787816928747899400,14.2808994140625,0.05864306539297104,-2.0586159229278564,0.30604347586631775
1787816928764010000,14.297010009765625,-0.02626720629632473,-2.101376533508301,0.08185594528913498
1787816928780107500,14.313107421875,-0.14966198801994324,-2.158186912536621,-0.20586158335208893
1787816928796220200,14.32922021484375,-0.3243694305419922,-2.191173553466797,-0.42210787534713745
1787816928812201500,14.345201416015625,-0.4386012554168701,-2.2931880950927734,-0.5100724697113037
1787816928828250000,14.36125,-0.7367035150527954,-2.309070587158203,-0.6621779203414917
1787816928844367600,14.37736767578125,-0.93095862865448,-2.403143882751465,-0.7104362845420837
1787816928860466000,14.3934658203125,-1.0311405658721924,-2.4892759323120117,-0.8112290501594543
1787816928876584400,14.40958447265625,-1.0574077367782593,-2.476447820663452,-0.8570439219474792
1787816928892565500,14.4255654296875,-1.13926362991333,-2.314568519592285,-0.788627028465271
1787816928908618000,14.441617919921875,-1.1887437105178833,-2.1618521213531494,-0.5632177591323853
1787816928924740000,14.457739990234375,-1.156978726387024,-1.9449949264526367,-0.3127630054950714
1787816928940848000,14.47384814453125,-1.0445796251296997,-1.7745635509490967,-0.031154127791523933
1787816928956976000,14.48997607421875,-0.8631525635719299,-1.718363881111145,0.14049901068210602
1787816928972974800,14.505974853515625,-0.6524040699005127,-1.6786576509475708,0.18814650177955627
1787816928988992800,14.52199267578125,-0.40072759985923767,-1.5925257205963135,0.16065755486488342
1787816929005133600,14.538133544921875,-0.21135938167572021,-1.4520267248153687,0.11362093687057495
1787816929021208600,14.55420849609375,-0.13011430203914642,-1.2431107759475708,0.05619960278272629
1787816929037346600,14.5703466796875,-0.11484266817569733,-1.0488556623458862,-0.00427605677396059
1787816929053343200,14.58634326171875,-0.12889257073402405,-0.826500654220581,-0.11056660860776901
1787816929069412600,14.60241259765625,-0.15821409225463867,-0.6475171446800232,-0.24617868661880493
1787816929085575400,14.618575439453124,-0.17348572611808777,-0.5821545720100403,-0.3323107063770294
1787816929101599000,14.634598876953126,-0.16982053220272064,-0.5937610268592834,-0.3530801236629486
1787816929117690000,14.650690185546875,-0.1514945775270462,-0.6389650702476501,-0.31093040108680725
1787816929133714700,14.666714599609374,-0.10995574295520782,-0.6908885836601257,-0.24862214922904968
1787816929149698800,14.68269873046875,-0.07452555745840073,-0.6957755088806152,-0.2070833146572113
1787816929173875000,14.706875,-0.07330382615327835,-0.6829473376274109,-0.20525072515010834
1787816929189871400,14.722871337890625,-0.11789698898792267,-0.6707300543785095,-0.23029619455337524
1787816929205924000,14.738924072265625,-0.20463985204696655,-0.6420193910598755,-0.26572638750076294
1787816929221937700,14.754937744140625,-0.2974913716316223,-0.6120869517326355,-0.294437050819397
1787816929238079500,14.77107958984375,-0.3903428912162781,-0.6059783101081848,-0.3536909818649292
1787816929254110000,14.78710986328125,-0.4404338300228119,-0.588874101638794,-0.3952298164367676
1787816929270106400,14.8031064453125,-0.44776421785354614,-0.5057964324951172,-0.37140607833862305
1787816929286158300,14.819158447265625,-0.42088615894317627,-0.35246923565864563,-0.2889392673969269
1787816929302199000,14.835198974609375,-0.36590829491615295,-0.16798794269561768,-0.17959438264369965
1787816929318320400,14.8513203125,-0.2883284091949463,0.03787364438176155,-0.0659734457731247
1787816929334389000,14.867388916015624,-0.2217440903186798,0.19975294172763824,0.022602014243602753
1787816929350397200,14.883397216796874,-0.1313360333442688,0.3390302062034607,0.08674286305904388
1787816929366447600,14.899447509765626,-0.04092797264456749,0.39767327904701233,0.08491026610136032
1787816929382509600,14.915509521484376,0.006719517521560192,0.3695734739303589,0.06719517707824707
1787816929398641000,14.931640869140624,0.01771509274840355,0.29504790902137756,0.07757988572120667
1787816929414707200,14.947707275390625,-0.0354301854968071,0.19120082259178162,0.14416420459747314
1787816929430717000,14.963717041015625,-0.09651670604944229,0.1869247704744339,0.24373523890972137
1787816929446820900,14.97982080078125,-0.23457226157188416,0.12767083942890167,0.342695415019989
1787816929462892000,14.99589208984375,-0.35124751925468445,0.1215621829032898,0.39217549562454224
1787816929479031600,15.012031494140626,-0.44593164324760437,0.12889257073402405,0.37262779474258423
1787816929495077400,15.028077392578124,-0.5167919993400574,0.16982053220272064,0.3286454975605011
1787816929511056400,15.044056396484375,-0.5619960427284241,0.19853121042251587,0.25961771607398987
1787816929527105800,15.060105712890625,-0.5516113042831421,0.20097467303276062,0.21563543379306793
1787816929543129900,15.0761298828125,-0.5229006409645081,0.2168571650981903,0.2070833146572113
1787816929559228000,15.092227783203125,-0.45875978469848633,0.2779437005519867,0.18936823308467865
1787816929575284000,15.108283935546876,-0.38240164518356323,0.35124751925468445,0.12828169763088226
1787816929591268900,15.124268798828124,-0.2877175211906433,0.4001167416572571,0.06291911751031876
1787816929607360000,15.140360107421875,-0.16004669666290283,0.42088615894317627,0.03726277872920036
1787816929623387600,15.1563876953125,-0.01160643994808197,0.34636059403419495,0.05742133408784866
1787816929639492900,15.172492919921876,0.16982053220272064,0.2590068578720093,0.06658431142568588
1787816929655558100,15.18855810546875,0.3188716471195221,0.19425514340400696,0.0659734457731247
1787816929671550000,15.204550048828125,0.42088615894317627,0.17592918872833252,0.14294247329235077
1787816929687611400,15.220611328125,0.42760565876960754,0.22296582162380219,0.3090978264808655
1787816929703647500,15.2366474609375,0.3903428912162781,0.3066543638706207,0.43615779280662537
1787816929719757600,15.252757568359375,0.32620203495025635,0.3274237811565399,0.45875978469848633
1787816929735774700,15.268774658203125,0.2834414839744568,0.2791654169559479,0.3194825351238251
1787816929751774700,15.284774658203125,0.24678955972194672,0.21380282938480377,0.1313360333442688
1787816929767829500,15.30082958984375,0.2174680233001709,0.19303341209888458,-0.06291911751031876
1787816929783873500,15.31687353515625,0.1820378452539444,0.17409659922122955,-0.18081611394882202
1787816929799993900,15.332993896484375,0.16432274878025055,0.16432274878025055,-0.24617868661880493
1787816929816071200,15.3490712890625,0.16371189057826996,0.1270599663257599,-0.28527405858039856
1787816929832076000,15.365075927734376,0.15821409225463867,0.05375614017248154,-0.3170390725135803
1787816929848153600,15.381153564453125,0.14905111491680145,-0.012828170321881771,-0.35063666105270386
1787816929864207400,15.397207275390626,0.1459967941045761,-0.0024434609804302454,-0.3744603991508484
1787816929880337000,15.4133369140625,0.1563815027475357,0.04703662544488907,-0.37079519033432007
1787816929896428300,15.42942822265625,0.18081611394882202,0.14049901068210602,-0.30482175946235657
1787816929912443600,15.445443603515624,0.21624629199504852,0.2070833146572113,-0.23335053026676178
1787816929928531700,15.46153173828125,0.2822197377681732,0.2528982162475586,-0.17104226350784302
1787816929944548600,15.477548583984374,0.36224308609962463,0.27550023794174194,-0.1411098688840866
1787816929960636400,15.493636474609374,0.4489859640598297,0.2840523421764374,-0.1459967941045761
1787816929976686000,15.50968603515625,0.4905247986316681,0.28099802136421204,-0.16920967400074005
1787816930000759800,15.533759765625,0.5167919993400574,0.2535090744495392,-0.21807889640331268
1787816930016776000,15.54977587890625,0.513126790523529,0.26145032048225403,-0.242513507604599
1787816930032756500,15.565756591796875,0.49846604466438293,0.2742784917354584,-0.2577851414680481
1787816930048877600,15.581877685546875,0.46242499351501465,0.27611109614372253,-0.2571742534637451
1787816930064913000,15.597912841796875,0.3995058834552765,0.27977627515792847,-0.2535090744495392
1787816930081022500,15.6140224609375,0.33536502718925476,0.2626720666885376,-0.2877175211906433
1787816930097005000,15.630005126953124,0.3023782968521118,0.24434609711170197,-0.36590829491615295
1787816930112993800,15.645993896484375,0.2767219543457031,0.19547687470912933,-0.4709770977497101
1787816930129131300,15.66213134765625,0.24678955972194672,0.1569923609495163,-0.5681046843528748
1787816930145179000,15.678178955078126,0.2174680233001709,0.11667526513338089,-0.675006091594696
1787816930161294000,15.694294189453124,0.21441370248794556,0.09834930300712585,-0.7513642311096191
1787816930177273600,15.710273681640626,0.22846360504627228,0.036041051149368286,-0.7843509912490845
1787816930193276000,15.72627587890625,0.24373523890972137,-0.05375614017248154,-0.7574729323387146
1787816930209409000,15.742408935546875,0.24007004499435425,-0.15577064454555511,-0.7202101349830627
1787816930225455600,15.75845556640625,0.22479841113090515,-0.21380282938480377,-0.7098253965377808
1787816930241571800,15.77457177734375,0.17837265133857727,-0.2541199326515198,-0.7605272531509399
1787816930257549000,15.790549072265625,0.13500121235847473,-0.29077184200286865,-0.8558222055435181
1787816930273605000,15.806605224609376,0.02871066704392433,-0.2816088795661926,-0.9254608750343323
1787816930289717800,15.8227177734375,-0.11728613078594208,-0.2125810980796814,-0.8436049222946167
1787816930305811000,15.83881103515625,-0.22357667982578278,-0.23518311977386475,-0.6505714654922485
1787816930321930500,15.854930419921875,-0.2541199326515198,-0.3530801236629486,-0.43737950921058655
1787816930337916000,15.870916015625,-0.22479841113090515,-0.6261368989944458,-0.1875356286764145
1787816930353983200,15.886983154296875,-0.13255776464939117,-0.9162978529930115,0.06963863968849182
1787816930370111500,15.903111572265624,-0.08979719132184982,-1.1142182350158691,0.2968805134296417
1787816930386222800,15.919222900390626,-0.15515977144241333,-1.2492194175720215,0.49724429845809937
1787816930402360600,15.935360595703125,-0.2577851414680481,-1.2308934926986694,0.6249151229858398
1787816930418354400,15.9513544921875,-0.39095374941825867,-0.9871582388877869,0.7678576111793518
1787816930434424600,15.967424560546876,-0.5271766781806946,-0.6762278079986572,0.8637634515762329
1787816930450512600,15.9835126953125,-0.7024950385093689,-0.32681289315223694,0.8515461683273315
1787816930466584000,15.999583984375,-0.8625417351722717,-0.1270599663257599,0.66584312915802
1787816930482723000,16.01572314453125,-0.8741481900215149,-0.1459967941045761,0.3982841372489929
1787816930498721500,16.031721435546874,-0.8313875794410706,-0.2431243658065796,0.06841690838336945
1787816930514747100,16.0477470703125,-0.8020660877227783,-0.37201693654060364,-0.17104226350784302
1787816930530842600,16.063842529296874,-0.8552113175392151,-0.4795292317867279,-0.28466320037841797
1787816930546918700,16.079918701171874,-0.9743300676345825,-0.5858197808265686,-0.32009339332580566
1787816930563020800,16.096020751953127,-0.8600982427597046,-0.5009095072746277,-0.4190535545349121
1787816930579042300,16.112042236328126,-0.7721336483955383,-0.16249015927314758,-0.43615779280662537
1787816930595025000,16.12802490234375,-0.6701191663742065,0.0910189226269722,-0.3378084897994995
1787816930611139300,16.144139404296876,-0.48380526900291443,0.41661009192466736,-0.17592918872833252
1787816930627220000,16.160219970703125,-0.33597588539123535,0.7024950385093689,-0.10873401165008545
1787816930643347000,16.176346923828124,-0.1716531366109848,0.789237916469574,-0.10445795953273773
1787816930659307800,16.192307861328125,0.04764748737215996,0.779464066028595,-0.09529497474431992
1787816930675352800,16.208352783203125,0.24373523890972137,0.7874053120613098,0.05864306539297104
1787816930691467300,16.22446728515625,0.42088615894317627,0.7916813492774963,0.33292156457901
1787816930707562200,16.240562255859373,0.5314527750015259,0.7654141783714294,0.740368664264679
1787816930723672600,16.256672607421876,0.5338962078094482,0.7330383062362671,1.1252137422561646
1787816930739650000,16.272650146484374,0.5167919993400574,0.778853178024292,1.3371840715408325
1787816930755697700,16.28869775390625,0.46547931432724,0.826500654220581,1.3909401893615723
1787816930771821600,16.304821533203125,0.31031954288482666,0.9089674949645996,1.3182471990585327
1787816930787922700,16.320922607421874,0.10751228034496307,0.9059131741523743,1.2773191928863525
1787816930804041000,16.337041015625,0.07880161702632904,0.9950994849205017,1.273043155670166
1787816930820015600,16.353015625,0.2431243658065796,1.0910053253173828,0.7819074988365173
1787816930836065800,16.369065673828125,0.35063666105270386,1.3781119585037231,-0.4801400899887085
1787816930852186000,16.38518603515625,0.3927863538265228,1.757459282875061,-1.6487252712249756
1787816930868292000,16.4012919921875,0.637132465839386,1.8796323537826538,-1.8093829154968262
1787816930884416500,16.41741650390625,1.0958921909332275,1.7043139934539795,-0.9828822016716003
1787816930900402400,16.43340234375,1.6279559135437012,1.431868076324463,-0.012217304669320583
1787816930916464600,16.449464599609374,2.0109684467315674,1.2718214988708496,0.07208210229873657
1787816930932597000,16.465596923828127,2.238821029663086,1.1606439352035522,-0.5247332453727722
1787816930948657700,16.48165771484375,2.152078151702881,1.1459832191467285,-0.9969320893287659
1787816930964740000,16.497739990234376,1.8179349899291992,1.1184942722320557,-0.9462302923202515
1787816930980729300,16.513729248046875,1.4092661142349243,1.1136072874069214,-0.6261368989944458
1787816930996750000,16.52975,0.9572258591651917,1.0690141916275024,-0.2675589919090271
1787816931012837600,16.545837646484376,0.6218608021736145,0.9627236127853394,-0.04581489413976669
1787816931028907500,16.561907470703126,0.4392121136188507,0.8417723178863525,0.06230825558304787
1787816931045000700,16.578000732421874,0.3591887652873993,0.694553792476654,0.16859880089759827
1787816931061002800,16.594002685546876,0.35063666105270386,0.4807509481906891,0.2932153046131134
1787816931077029600,16.610029541015624,0.39217549562454224,0.28527405858039856,0.39645153284072876
1787816931093129500,16.62612939453125,0.47769662737846375,0.07696902006864548,0.5448917746543884
1787816931109217500,16.642217529296875,0.5876523852348328,-0.06719517707824707,0.7128797173500061
1787816931125319700,16.658319580078125,0.7342600226402283,-0.16371189057826996,0.837496280670166
1787816931141327400,16.674327392578125,0.8637634515762329,-0.18936823308467865,0.8515461683273315
1787816931157363000,16.690363037109375,1.0231993198394775,-0.14233160018920898,0.7483099102973938
1787816931173470500,16.706470458984374,1.1704177856445312,-0.13500121235847473,0.6157521605491638
1787816931189559600,16.7225595703125,1.2565498352050781,-0.1918116807937622,0.646906316280365
1787816931205673500,16.738673583984376,1.120937705039978,-0.5864306092262268,0.7568620443344116
1787816931221696000,16.754696044921875,0.8655960559844971,-1.397048830986023,0.5119050741195679
1787816931237748500,16.77074853515625,0.5412266254425049,-1.6004669666290283,-0.11545353382825851
1787816931253889300,16.78688916015625,-0.24556782841682434,-0.9993755221366882,-0.9621127843856812
1787816931269989400,16.8029892578125,-0.950506329536438,0.02626720629632473,-1.2516628503799438
1787816931286113300,16.81911328125,-1.2822061777114868,0.9327912330627441,-0.8509352803230286
1787816931302100700,16.835100830078126,-1.2596040964126587,1.1044443845748901,-0.2828305959701538
1787816931318168000,16.85116796875,-0.7556403279304504,0.9682214260101318,0.26633724570274353
1787816931334299100,16.867299072265624,-0.15454891324043274,0.618195652961731,0.4105014503002167
1787816931350365400,16.883365478515625,0.31581732630729675,0.22846360504627228,0.2974913716316223
1787816931366500900,16.8995009765625,0.6298020482063293,-0.1508837193250656,0.09346238523721695
1787816931382497300,16.915497314453123,0.7159340381622314,-0.21380282938480377,-0.06963863968849182
1787816931398472700,16.93147265625,0.6591235995292664,-0.10323622822761536,-0.17959438264369965
1787816931414567400,16.9475673828125,0.45631635189056396,0.08246681094169617,-0.25106561183929443
1787816931430651400,16.9636513671875,0.14905111491680145,0.21135938167572021,-0.2474004179239273
1787816931446750200,16.979750244140625,-0.2632829248905182,0.3543018400669098,-0.033597588539123535
1787816931462749700,16.995749755859375,-0.5345070958137512,0.4184426963329315,0.24862214922904968
1787816931478782000,17.011781982421876,-0.7257078886032104,0.45265114307403564,0.5754350423812866
1787816931494883300,17.02788330078125,-0.8008443117141724,0.5057964324951172,0.9578366875648499
1787816931510971400,17.043971435546876,-0.7641924023628235,0.5455026626586914,1.2754865884780884
1787816931527067600,17.060067626953124,-0.6114761233329773,0.7067710757255554,1.513113260269165
1787816931543071700,17.07607177734375,-0.43615779280662537,0.9920451641082764,1.4831807613372803
1787816931559099000,17.092098876953123,-0.2620611786842346,1.2889256477355957,1.282817006111145
1787816931575200300,17.1082001953125,-0.03848451003432274,1.5968017578125,0.9902125597000122
1787816931591235000,17.124235107421875,0.2669481039047241,1.8374826908111572,0.9443976879119873
1787816931607336000,17.1403359375,0.5687155723571777,1.7806721925735474,1.1734721660614014
1787816931623340800,17.1563408203125,0.8936958312988281,1.2870930433273315,1.1093312501907349
1787816931639373000,17.172373046875,1.4892895221710205,1.0476338863372803,0.4966334402561188
1787816931655464400,17.18846435546875,1.626123309135437,0.9920451641082764,-0.4764748811721802
1787816931671565000,17.20456494140625,1.4886785745620728,0.9810495972633362,-1.1227703094482422
1787816931687680300,17.22068017578125,1.443474531173706,0.9437867999076843,-1.3280210494995117
1787816931703698200,17.2366982421875,1.3115277290344238,0.9480628371238708,-1.091616153717041
1787816931719747000,17.2527470703125,1.0824532508850098,1.047023057937622,-0.8723155856132507
1787816931735861800,17.26886181640625,0.8802568316459656,1.0696250200271606,-0.8973610401153564
1787816931751962400,17.28496240234375,0.5852088928222656,1.0042624473571777,-1.0305296182632446
1787816931768077000,17.3010771484375,0.21074850857257843,0.7861835956573486,-1.0525208711624146
1787816931784098800,17.317098876953125,-0.1313360333442688,0.49724429845809937,-0.9651671051979065
1787816931800107500,17.333107421875,-0.45631635189056396,0.03237585723400116,-0.7965682744979858
1787816931816245000,17.349244873046874,-0.6829473376274109,-0.4740314185619354,-0.6585127115249634
1787816931832257000,17.365257080078123,-0.8130616545677185,-0.7825183868408203,-0.5968153476715088
1787816931848391400,17.381391357421876,-0.9138544201850891,-0.988990843296051,-0.5100724697113037
1787816931864390700,17.397390625,-0.9352346658706665,-1.0867292881011963,-0.3335324227809906
1787816931880455400,17.413455322265627,-0.8454375267028809,-1.047023057937622,-0.04764748737215996
1787816931896595500,17.429595458984377,-0.7324274182319641,-0.9841039180755615,0.2687807083129883
1787816931912664600,17.44566455078125,-0.588874101638794,-0.9999864101409912,0.6194173693656921
1787816931928804000,17.46180419921875,-0.40622538328170776,-1.1160508394241333,0.9046914577484131
1787816931944793900,17.4777939453125,-0.2773328125476837,-1.2565498352050781,1.0152580738067627
1787816931960859000,17.49385888671875,-0.18936823308467865,-1.2400563955307007,0.9963212013244629
1787816931976944000,17.509944091796875,-0.1313360333442688,-0.9334021210670471,0.912021815776825
1787816931993016300,17.526016357421874,-0.28099802136421204,-1.0476338863372803,0.6359107494354248
1787816932009108200,17.542108154296876,-0.485027015209198,-1.567480206489563,0.025045474991202354
1787816932025108000,17.55810791015625,-0.5705481171607971,-2.22477126121521,-1.168585181236267
1787816932041138700,17.574138671875,-0.836885392665863,-2.4550673961639404,-2.0537290573120117
1787816932057259800,17.590259765625,-1.2137892246246338,-2.0696115493774414,-1.8545868396759033
1787816932073337000,17.606337158203125,-1.7250834703445435,-1.3487904071807861,-0.7709119319915771
1787816932089437200,17.622437255859374,-2.0030272006988525,-1.0323622226715088,0.17043140530586243
1787816932105451300,17.638451171875,-1.95965576171875,-0.979216992855072,0.3439171314239502
1787816932121494000,17.654493896484375,-1.7079792022705078,-0.9560040831565857,0.04459316283464432
1787816932137605400,17.67060546875,-1.2956452369689941,-1.1191051006317139,-0.3127630054950714
1787816932153705000,17.686705078125,-0.9175195693969727,-1.2638801336288452,-0.3988949954509735
1787816932169814500,17.702814453125,-0.6823364496231079,-1.2571606636047363,-0.3488040566444397
1787816932185785600,17.71878564453125,-0.5577199459075928,-1.1246029138565063,-0.3384193480014801
1787816932201790200,17.734790283203125,-0.5644394755363464,-0.8417723178863525,-0.41722095012664795
1787816932217927000,17.750927001953126,-0.646295428276062,-0.5479460954666138,-0.46792277693748474
1787816932234038800,17.767038818359374,-0.7715228199958801,-0.26939156651496887,-0.40194934606552124
1787816932250164200,17.783164306640625,-0.8704829812049866,-0.09285151958465576,-0.1459967941045761
1787816932266141000,17.799140869140626,-0.901637077331543,-0.05619960278272629,0.16554448008537292
1787816932282203600,17.81520361328125,-0.8509352803230286,-0.09957103431224823,0.5222898125648499
1787816932298331000,17.831330810546874,-0.7904596328735352,-0.17837265133857727,0.7666358947753906
1787816932314395400,17.8473955078125,-0.7037167549133301,-0.2376265823841095,0.8833111524581909
1787816932330528800,17.86352880859375,-0.6133087277412415,-0.15027284622192383,0.9108000993728638
1787816932346526000,17.87952587890625,-0.5265658497810364,0.07208210229873657,0.9071348905563354
1787816932362556000,17.895555908203125,-0.39156460762023926,0.33108896017074585,0.9071348905563354
1787816932378655000,17.911655029296874,-0.2174680233001709,0.5259549617767334,0.9132435321807861
1787816932394687700,17.927687744140623,0.024434609338641167,0.7238753437995911,0.9156870245933533
1787816932410790100,17.9437900390625,0.3188716471195221,0.6304129362106323,1.0286970138549805
1787816932426799600,17.959799560546877,0.5100724697113037,-0.054367005825042725,1.3909401893615723
1787816932442828500,17.97582861328125,0.6065891981124878,-0.3689626157283783,1.3298536539077759
1787816932458951000,17.991950927734376,0.8912523984909058,-0.10506882518529892,0.3689626157283783
1787816932475037000,18.008036865234374,0.8106181621551514,0.33108896017074585,-0.7275404930114746
1787816932491144000,18.02414404296875,0.6890559792518616,0.5913175344467163,-1.0769554376602173
1787816932507158000,18.040157958984373,0.6707300543785095,0.6505714654922485,-0.7037167549133301
1787816932523202800,18.056202880859374,0.6328563690185547,0.4911356568336487,-0.009773843921720982
1787816932539317800,18.07231787109375,0.5363397002220154,0.3188716471195221,0.3488040566444397
1787816932555411700,18.08841162109375,0.4447098970413208,0.15454891324043274,0.3280346393585205
1787816932571527000,18.10452685546875,0.34574973583221436,0.04459316283464432,0.09040805697441101
1787816932587544000,18.1205439453125,0.3017674386501312,-0.030543262138962746,-0.11239920556545258
1787816932603537400,18.136537353515624,0.2791654169559479,-0.08552113175392151,-0.19364428520202637
1787816932619663600,18.15266357421875,0.2076941877603531,-0.15332718193531036,-0.19303341209888458
1787816932635766000,18.16876611328125,0.08796459436416626,-0.17592918872833252,-0.15454891324043274
1787816932651882000,18.184882080078125,0.013439035043120384,-0.18509216606616974,-0.16798794269561768
1787816932667856400,18.2008564453125,-0.08735372871160507,-0.16920967400074005,-0.16493362188339233
1787816932683909600,18.21690966796875,-0.15393804013729095,-0.17348572611808777,-0.11178833991289139
1787816932700035800,18.233035888671875,-0.1508837193250656,-0.18325957655906677,-0.02015855349600315
1787816932716146700,18.249146728515626,-0.0861319974064827,-0.20402899384498596,0.07330382615327835
1787816932732276200,18.265276123046874,-0.025656340643763542,-0.22907446324825287,0.21991148591041565
1787816932748265700,18.281265625,0.06536258012056351,-0.32681289315223694,0.38117989897727966
1787816932764277800,18.29727783203125,0.18448130786418915,-0.42210787534713745,0.4740314185619354
1787816932780416300,18.313416259765624,0.26022860407829285,-0.49296826124191284,0.4917465150356293
1787816932796438300,18.329438232421875,0.22968533635139465,-0.5015203952789307,0.38728857040405273
1787816932812530400,18.345530517578126,0.16798794269561768,-0.44654250144958496,0.19975294172763824
1787816932828535800,18.361535888671874,0.019547687843441963,-0.3591887652873993,0.013439035043120384
1787816932844515300,18.377515380859375,-0.11178833991289139,-0.37079519033432007,-0.08674286305904388
1787816932860588300,18.39358837890625,-0.19792033731937408,-0.3952298164367676,-0.07757988572120667
1787816932876615200,18.409615234375,-0.24495697021484375,-0.42699480056762695,-0.03420845419168472
1787816932892708400,18.425708251953125,-0.31459560990333557,-0.5760459303855896,-0.0806342139840126
1787816932908685600,18.441685546875,-0.3445279896259308,-0.6340781450271606,-0.2828305959701538
1787816932924710000,18.4577099609375,-0.4447098970413208,-0.5778785347938538,-0.46853363513946533
1787816932940810800,18.473810791015627,-0.5583308339118958,-0.34025195240974426,-0.5198463201522827
1787816932956892700,18.489892578125,-0.6157521605491638,-0.13439035415649414,-0.40072759985923767
1787816932972993800,18.505993896484377,-0.5650503635406494,-0.05009094998240471,-0.22479841113090515
1787816932989018000,18.52201806640625,-0.4178318381309509,0.006719517521560192,0.01771509274840355
1787816933005008400,18.53800830078125,-0.23884831368923187,0.04459316283464432,0.2632829248905182
1787816933021130500,18.554130615234374,-0.06108652427792549,0.039706241339445114,0.50335294008255
1787816933037175000,18.570175048828126,0.06291911751031876,0.045204028487205505,0.6377432942390442
1787816933053291500,18.58629150390625,0.1563815027475357,0.013439035043120384,0.66584312915802
1787816933069270300,18.602270263671876,0.17409659922122955,-0.013439035043120384,0.5858197808265686
1787816933085271000,18.61827099609375,0.14355333149433136,-0.016493361443281174,0.4544837474822998
1787816933101393700,18.6343935546875,0.10567969083786011,-0.07330382615327835,0.2577851414680481
1787816933117443800,18.65044384765625,0.0708603709936142,-0.1313360333442688,0.09162978827953339
1787816933133558800,18.666558837890626,0.039095375686883926,-0.18325957655906677,-0.009162978269159794
1787816933149535700,18.68253564453125,-0.02076941914856434,-0.22663100063800812,-0.10812314599752426
1787816933165545700,18.698545654296876,-0.10506882518529892,-0.2577851414680481,-0.18020524084568024
1787816933181688800,18.714688720703126,-0.18020524084568024,-0.24068090319633484,-0.19486601650714874
1787816933197704700,18.73070458984375,-0.2571742534637451,-0.19914206862449646,-0.18570303916931152
1787816933213835500,18.74683544921875,-0.2987131178379059,-0.17287486791610718,-0.15515977144241333
1787816933229840400,18.76284033203125,-0.31093040108680725,-0.18509216606616974,-0.08368854224681854
1787816933245865000,18.778864990234375,-0.2834414839744568,-0.21135938167572021,-0.021380282938480377
1787816933261981200,18.794981201171876,-0.24007004499435425,-0.17959438264369965,0.02321287989616394
1787816933278009600,18.811009521484376,-0.1661553531885147,-0.13377949595451355,0.042760565876960754
1787816933294102800,18.827102783203124,-0.11850785464048386,-0.07757988572120667,0.031154127791523933
1787816933310112800,18.84311279296875,-0.06719517707824707,-0.03787364438176155,-0.009162978269159794
1787816933326086400,18.85908642578125,-0.00733038317412138,-0.005497787147760391,-0.042760565876960754
1787816933342207500,18.87520751953125,0.045204028487205505,0.021991148591041565,-0.0659734457731247
1787816933358233300,18.8912333984375,0.10445795953273773,0.033597588539123535,-0.08246681094169617
1787816933374327000,18.9073271484375,0.1508837193250656,0.02015855349600315,-0.08491026610136032
1787816933390302500,18.923302490234374,0.15943582355976105,0.013439035043120384,-0.05619960278272629
1787816933406287600,18.93928759765625,0.1368338167667389,-0.013439035043120384,-0.01710422709584236
1787816933422410500,18.955410400390626,0.09162978827953339,-0.031154127791523933,0.013439035043120384
1787816933438448400,18.971448486328125,0.04764748737215996,-0.05314527451992035,0.0403171069920063
1787816933454551300,18.98755126953125,0.006719517521560192,-0.056810468435287476,0.08002334833145142
1787816933470538500,19.00353857421875,-0.019547687843441963,-0.07635815441608429,0.09529497474431992
1787816933486530600,19.019530517578126,-0.025045474991202354,-0.07208210229873657,0.06902777403593063
1787816933502662000,19.035661865234374,-0.00855211354792118,-0.06169738993048668,0.04153883829712868
1787816933518709200,19.051709228515627,0.021380282938480377,-0.060475658625364304,0.021380282938480377
1787816933534822400,19.067822509765627,0.05803219974040985,-0.06230825558304787,0.04153883829712868
1787816933550817300,19.0838173828125,0.08552113175392151,-0.051312681287527084,0.05192354694008827
1787816933566818000,19.099818115234374,0.08735372871160507,-0.0507018156349659,0.04153883829712868
1787816933582963000,19.115962890625,0.08002334833145142,-0.0403171069920063,0.02626720629632473
1787816933607038200,19.1400380859375,0.06108652427792549,0.0006108652451075613,0.007941247895359993
1787816933623110400,19.1561103515625,0.05253441259264946,0.003054326167330146,-0.02687807008624077
1787816933639164200,19.1721640625,0.0555887371301651,-0.014049900695681572,-0.03237585723400116
1787816933655295500,19.18829541015625,0.05864306539297104,-0.0507018156349659,0.001832595793530345
1787816933671381000,19.204381103515626,0.054367005825042725,-0.07391469180583954,0.042760565876960754
1787816933687402000,19.220402099609377,0.05497787147760391,-0.07269296050071716,0.04703662544488907
1787816933703492600,19.23649267578125,0.04764748737215996,-0.04764748737215996,0.03787364438176155
1787816933719564000,19.25256396484375,0.04398229718208313,-0.03298672288656235,0.005497787147760391
1787816933735657200,19.2686572265625,0.033597588539123535,-0.01710422709584236,-0.04459316283464432
1787816933751705900,19.284705810546875,0.031154127791523933,0.0024434609804302454,-0.09285151958465576
1787816933767681800,19.300681884765623,0.027488935738801956,-0.0012217304902151227,-0.09834930300712585
1787816933783774200,19.316774169921874,0.033597588539123535,-0.007941247895359993,-0.07880161702632904
