time,seconds_elapsed,z,y,x
1787816914599289600,0.13228955078125,-6.64900016784668,-11.109000205993652,27.543001174926758
1787816914615434000,0.14843408203125,-13.492000579833984,-18.71500015258789,34.92100143432617
1787816914631551000,0.164551025390625,-13.608000755310059,-19.15300178527832,34.204002380371094
1787816914647585000,0.1805849609375,-11.563000679016113,-20.977001190185547,34.288002014160156
1787816914663676700,0.1966767578125,-13.520000457763672,-20.02800178527832,32.87200164794922
1787816914679708400,0.21270849609375,-13.369000434875488,-21.62200164794922,33.87700271606445
1787816914695695000,0.228695068359375,-13.606000900268555,-19.152000427246094,34.305999755859375
1787816914711820800,0.24482080078125,-12.646000862121582,-20.123001098632812,33.888999938964844
1787816914727856000,0.260856201171875,-14.858000755310059,-19.569000244140625,35.01700210571289
1787816914743963100,0.276963134765625,-12.947000503540039,-20.43600082397461,34.49800109863281
1787816914759995600,0.29299560546875,-14.6510009765625,-19.68000030517578,34.71000289916992
1787816914775993600,0.30899365234375,-14.35300064086914,-20.017000198364258,33.58700180053711
1787816914792132400,0.32513232421875,-13.088000297546387,-19.052000045776367,33.797000885009766
1787816914808189000,0.34118896484375,-12.212000846862793,-18.821001052856445,35.12200164794922
1787816914824314400,0.357314453125,-11.57300090789795,-21.091001510620117,33.777000427246094
1787816914840363800,0.37336376953125,-13.794000625610352,-21.4060001373291,33.98100280761719
1787816914856323300,0.3893232421875,-12.926000595092773,-20.424001693725586,35.415000915527344
1787816914872419000,0.405419189453125,-13.616000175476074,-18.94099998474121,34.00300216674805
1787816914888429800,0.421429931640625,-13.184000968933105,-19.47800064086914,33.99700164794922
1787816914904511500,0.437511474609375,-12.007000923156738,-19.907001495361328,34.09400177001953
1787816914920523800,0.453523681640625,-15.092000961303711,-17.852001190185547,35.13500213623047
1787816914936488200,0.46948828125,-13.808000564575195,-19.9010009765625,34.30000305175781
1787816914952600000,0.48560009765625,-14.154000282287598,-20.0260009765625,32.97500228881836
1787816914968625200,0.501625244140625,-13.272000312805176,-20.764001846313477,33.986000061035156
1787816914984722000,0.517721923828125,-13.618000984191895,-18.618000030517578,34.10700225830078
1787816915000735500,0.533735595703125,-15.511000633239746,-19.793001174926758,34.20100021362305
1787816915016710000,0.5497099609375,-13.160000801086426,-20.54400062561035,34.39500045776367
1787816915032829700,0.56582958984375,-16.04800033569336,-20.660001754760742,33.37900161743164
1787816915048863500,0.581863525390625,-12.737000465393066,-20.222000122070312,34.499000549316406
1787816915064969700,0.5979697265625,-14.883000373840332,-20.124000549316406,33.586002349853516
1787816915080985600,0.613985595703125,-13.79800033569336,-20.43600082397461,34.397003173828125
1787816915096977400,0.629977294921875,-14.75200080871582,-19.893001556396484,34.81100082397461
1787816915113109200,0.646109130859375,-13.586000442504883,-19.463001251220703,35.01700210571289
1787816915129156900,0.662156982421875,-11.463000297546387,-19.575000762939453,34.91100311279297
1787816915145267000,0.678266845703125,-13.36500072479248,-20.86400032043457,34.49500274658203
1787816915161280000,0.694280029296875,-12.646000862121582,-20.123001098632812,33.888999938964844
1787816915177284900,0.710284912109375,-13.367000579833984,-19.244001388549805,35.426002502441406
1787816915193427200,0.72642724609375,-12.191000938415527,-20.32200050354004,35.10900115966797
1787816915209434000,0.74243408203125,-13.587000846862793,-20.22100067138672,34.50100326538086
1787816915225559600,0.7585595703125,-13.714000701904297,-18.720001220703125,34.513999938964844
1787816915241613300,0.77461328125,-15.713000297546387,-20.21900177001953,34.4010009765625
1787816915257574700,0.79057470703125,-12.634000778198242,-20.98000144958496,33.88100051879883
1787816915273675300,0.80667529296875,-13.282000541687012,-20.014001846313477,33.99300003051758
1787816915289689900,0.82268994140625,-13.640000343322754,-19.821001052856445,32.3650016784668
1787816915305772300,0.838772216796875,-14.643000602722168,-20.4320011138916,34.60200119018555
1787816915321832000,0.85483203125,-13.48900032043457,-19.793001174926758,34.402000427246094
1787816915337802800,0.870802734375,-13.713000297546387,-20.881000518798828,33.17100143432617
1787816915353918500,0.88691845703125,-13.294000625610352,-18.832000732421875,34.207000732421875
1787816915369943800,0.90294384765625,-13.16300106048584,-19.790000915527344,34.70800018310547
1787816915386040600,0.91904052734375,-14.096000671386719,-20.963001251220703,35.00400161743164
1787816915402060500,0.935060546875,-13.390000343322754,-19.25800132751465,34.40700149536133
1787816915418036700,0.95103662109375,-14.358000755310059,-20.020000457763672,33.38300323486328
1787816915434149000,0.967149169921875,-13.9010009765625,-20.21700096130371,34.70500183105469
1787816915450176500,0.983176513671875,-13.872000694274902,-19.98400115966797,36.13300323486328
1787816915466276400,0.9992763671875,-14.128000259399414,-20.118000030517578,34.095001220703125
1787816915482302700,1.015302734375,-13.39900016784668,-19.26300048828125,33.999000549316406
1787816915498285300,1.031285400390625,-12.543000221252441,-19.260000228881836,34.30400085449219
1787816915514415400,1.047415283203125,-13.707000732421875,-20.661001205444336,33.58000183105469
1787816915530455000,1.063455078125,-14.012001037597656,-19.356000900268555,35.018001556396484
1787816915546563300,1.079563232421875,-13.253000259399414,-20.644001007080078,34.90400314331055
1787816915562602000,1.09560205078125,-12.993000984191895,-18.735000610351562,33.49400329589844
1787816915578598700,1.1115986328125,-12.434000968933105,-20.448001861572266,33.682003021240234
1787816915594735600,1.127735595703125,-14.670001029968262,-19.475000381469727,33.999000549316406
1787816915610786800,1.143786865234375,-13.35400104522705,-20.209001541137695,35.41699981689453
1787816915626903600,1.159903564453125,-13.27500057220459,-19.577001571655273,34.608001708984375
1787816915642955000,1.175955078125,-13.586000442504883,-21.409000396728516,33.777000427246094
1787816915658959400,1.19195947265625,-13.453001022338867,-21.069000244140625,35.20600128173828
1787816915675045400,1.20804541015625,-12.947000503540039,-19.57200050354004,35.0150032043457
1787816915691100000,1.224099853515625,-14.334000587463379,-19.249000549316406,34.91800308227539
1787816915707229400,1.2402294921875,-12.236001014709473,-20.565000534057617,32.96800231933594
1787816915723286500,1.25628662109375,-12.767000198364258,-20.34800148010254,33.07200241088867
1787816915739249000,1.272248779296875,-11.589000701904297,-18.939001083374023,34.40700149536133
1787816915755395600,1.2883955078125,-14.694000244140625,-19.058000564575195,33.1879997253418
1787816915771411000,1.304410888671875,-13.609000205993652,-18.937000274658203,34.30800247192383
1787816915787488000,1.320488037109375,-15.296000480651855,-19.143001556396484,34.71600341796875
1787816915803550500,1.336550537109375,-14.575000762939453,-19.48200035095215,33.4900016784668
1787816915819522000,1.35252197265625,-15.50200080871582,-20.220001220703125,34.29899978637695
1787816915835635000,1.368635009765625,-14.456000328063965,-19.799001693725586,33.89400100708008
1787816915851660000,1.384659912109375,-15.321001052856445,-19.8070011138916,33.182003021240234
1787816915867747300,1.400747314453125,-14.224000930786133,-20.86800193786621,34.0880012512207
1787816915883762000,1.416761962890625,-13.577000617980957,-19.567001342773438,35.32100296020508
1787816915899738000,1.432738037109375,-15.835000991821289,-19.36400032043457,34.20500183105469
1787816915915852000,1.44885205078125,-14.772000312805176,-19.47300148010254,34.2030029296875
1787816915931889000,1.464888916015625,-16.672000885009766,-20.111000061035156,34.302001953125
1787816915947987200,1.4809873046875,-12.85200023651123,-20.551000595092773,33.88600158691406
1787816915964005000,1.497005126953125,-14.03700065612793,-20.019001007080078,33.48400115966797
1787816915979990800,1.51299072265625,-14.236001014709473,-20.011001586914062,34.09600067138672
1787816915996114400,1.529114501953125,-12.856000900268555,-20.121000289916992,33.99100112915039
1787816916012157700,1.54515771484375,-14.465001106262207,-19.48000144958496,33.69300079345703
1787816916028265500,1.561265380859375,-14.678000450134277,-19.37200164794922,33.694000244140625
1787816916044278500,1.577278564453125,-13.920001029968262,-20.121000289916992,33.8910026550293
1787816916060267300,1.593267333984375,-14.022000312805176,-20.442001342773438,33.88800048828125
1787816916076398800,1.60939892578125,-15.396000862121582,-20.545000076293945,34.09300231933594
1787816916092445700,1.62544580078125,-14.898000717163086,-20.349000930786133,32.76900100708008
1787816916108558600,1.64155859375,-14.130001068115234,-20.119001388549805,33.99300003051758
1787816916124601600,1.6576015625,-14.850000381469727,-20.860000610351562,34.59800338745117
1787816916140607500,1.673607421875,-13.534000396728516,-18.84800148010254,32.98500061035156
1787816916156754000,1.68975390625,-15.840001106262207,-20.66400146484375,33.17500305175781
1787816916172765700,1.705765625,-15.306000709533691,-19.36600112915039,34.10300064086914
1787816916188893400,1.7218935546875,-15.3100004196167,-19.909000396728516,33.5890007019043
1787816916204957700,1.737957763671875,-15.457000732421875,-18.636001586914062,32.58100128173828
1787816916220926500,1.753926513671875,-13.483000755310059,-20.546001434326172,34.19200134277344
1787816916237037800,1.770037841796875,-15.621000289916992,-19.796001434326172,33.99800109863281
1787816916253055000,1.786054931640625,-14.465001106262207,-19.588001251220703,33.59000015258789
1787816916269140000,1.802139892578125,-15.092000961303711,-20.338001251220703,33.58500289916992
1787816916285206000,1.8182060546875,-15.970001220703125,-18.084001541137695,33.70800018310547
1787816916301176800,1.8341767578125,-17.016000747680664,-19.586000442504883,33.492000579833984
1787816916317292000,1.8502919921875,-16.83100128173828,-18.95400047302246,32.682003021240234
1787816916333312300,1.866312255859375,-15.446001052856445,-18.41400146484375,33.19499969482422
1787816916349402600,1.882402587890625,-14.88900089263916,-20.992000579833984,32.763999938964844
1787816916365422600,1.898422607421875,-15.860000610351562,-19.05500030517578,33.29100036621094
1787816916381402000,1.914402099609375,-18.608001708984375,-19.475000381469727,33.59700012207031
1787816916397524000,1.93052392578125,-15.234001159667969,-18.738000869750977,32.98800277709961
1787816916413554400,1.946554443359375,-15.666000366210938,-18.850000381469727,32.58000183105469
1787816916429662700,1.962662841796875,-17.558000564575195,-19.268001556396484,33.19000244140625
1787816916445652200,1.97865234375,-15.249000549316406,-18.963001251220703,32.17100143432617
1787816916461637400,1.994637451171875,-16.733001708984375,-19.284000396728516,32.06800079345703
1787816916477763000,2.01076318359375,-16.38800048828125,-19.59200096130371,33.08400344848633
1787816916493801500,2.026801513671875,-16.976001739501953,-18.761001586914062,31.054000854492188
1787816916509908000,2.042907958984375,-17.125,-19.371000289916992,33.49400329589844
1787816916525945900,2.05894580078125,-16.079999923706055,-18.843000411987305,33.09000015258789
1787816916541939200,2.074939208984375,-18.108001708984375,-17.873001098632812,33.2030029296875
1787816916558069200,2.0910693359375,-17.046001434326172,-18.73900032043457,32.68400192260742
1787816916574113000,2.107113037109375,-17.89900016784668,-19.2810001373291,32.17100143432617
1787816916590227200,2.123227294921875,-18.314001083374023,-18.518001556396484,33.095001220703125
1787816916606268700,2.1392685546875,-16.612001419067383,-19.38300132751465,32.678001403808594
1787816916622276400,2.1552763671875,-17.056001663208008,-18.85300064086914,32.17399978637695
1787816916638408200,2.171408203125,-20.043001174926758,-18.641000747680664,31.670001983642578
1787816916654463700,2.187463623046875,-17.782001495361328,-18.086000442504883,33.40400314331055
1787816916670585300,2.20358544921875,-16.270999908447266,-19.046001434326172,33.90299987792969
1787816916686632000,2.2196318359375,-18.086000442504883,-19.157001495361328,33.39500045776367
1787816916702650000,2.235650146484375,-18.71000099182129,-19.580001831054688,33.698001861572266
1787816916718750000,2.25175,-15.566000938415527,-19.610000610351562,31.860000610351562
1787816916734772200,2.267772216796875,-16.961999893188477,-18.429000854492188,31.87200164794922
1787816916750862800,2.28386279296875,-17.58100128173828,-18.957000732421875,32.37800216674805
1787816916766922200,2.299922119140625,-18.604000091552734,-19.905000686645508,33.49100112915039
1787816916782897400,2.3158974609375,-18.00800132751465,-19.606000900268555,31.863000869750977
1787816916799003400,2.33200341796875,-16.70600128173828,-18.94300079345703,33.49700164794922
1787816916815029500,2.348029541015625,-18.30500030517578,-19.161001205444336,33.09000015258789
1787816916831124500,2.36412451171875,-16.091001510620117,-16.904001235961914,33.820003509521484
1787816916847191600,2.380191650390625,-17.439001083374023,-19.368000030517578,33.698001861572266
1787816916863177200,2.39617724609375,-15.582000732421875,-18.10700035095215,32.07699966430664
1787816916879292400,2.41229248046875,-16.792001724243164,-20.119001388549805,33.691001892089844
1787816916895336000,2.4283359375,-14.909000396728516,-19.38300132751465,32.880001068115234
1787816916911446000,2.444446044921875,-17.466001510620117,-18.736000061035156,32.888999938964844
1787816916927471400,2.460471435546875,-16.280000686645508,-19.915000915527344,32.979000091552734
1787816916943461000,2.476461181640625,-16.638999938964844,-19.939001083374023,31.145002365112305
1787816916959569200,2.492569091796875,-15.338000297546387,-20.034000396728516,32.26300048828125
1787816916975658500,2.508658447265625,-17.233001708984375,-20.885000228881836,32.46200180053711
1787816916991765800,2.524765869140625,-16.05900001525879,-21.856000900268555,32.145999908447266
1787816917007785200,2.54078515625,-16.601001739501953,-21.6460018157959,31.74100112915039
1787816917023825400,2.556825439453125,-14.358000755310059,-21.317001342773438,32.555999755859375
1787816917039934200,2.572934326171875,-16.16200065612793,-21.746000289916992,32.35100173950195
1787816917055987200,2.5889873046875,-14.458001136779785,-22.718000411987305,31.933000564575195
1787816917072111600,2.605111572265625,-13.574000358581543,-22.806001663208008,33.45900344848633
1787816917088145200,2.621145263671875,-13.993000984191895,-22.3700008392334,33.97300338745117
1787816917104204500,2.63720458984375,-14.963000297546387,-22.810001373291016,33.053001403808594
1787816917120346000,2.65334619140625,-16.03700065612793,-20.762001037597656,33.78600311279297
1787816917136411600,2.66941162109375,-13.808000564575195,-21.41400146484375,33.37000274658203
1787816917152543500,2.68554345703125,-15.086000442504883,-21.415000915527344,33.16800308227539
1787816917168581000,2.7015810546875,-15.711000442504883,-21.299001693725586,33.781002044677734
1787816917184602400,2.717602294921875,-14.921000480651855,-19.174001693725586,32.474002838134766
1787816917200690400,2.7336904296875,-15.777000427246094,-18.52800178527832,32.58300018310547
1787816917216760000,2.749760009765625,-16.812000274658203,-18.83500099182129,33.60000228881836
1787816917232848000,2.765847900390625,-16.295000076293945,-19.2760009765625,32.67900085449219
1787816917248894200,2.781894287109375,-16.511001586914062,-20.035001754760742,32.06100082397461
1787816917264916500,2.79791650390625,-16.826000213623047,-20.248001098632812,32.060001373291016
1787816917281015300,2.814015380859375,-15.332000732421875,-21.00200080871582,31.94900131225586
1787816917297093400,2.83009326171875,-15.993000984191895,-20.04400062561035,31.44900131225586
1787816917313190400,2.8461904296875,-16.086000442504883,-19.711000442504883,32.26700210571289
1787816917329246000,2.862245849609375,-17.157001495361328,-21.336000442504883,30.828001022338867
1787816917345283000,2.878282958984375,-15.571001052856445,-19.397001266479492,31.76000213623047
1787816917361385000,2.894385009765625,-16.211999893188477,-21.560001373291016,30.214000701904297
1787816917377472300,2.91047216796875,-18.577001571655273,-20.601001739501953,29.512001037597656
1787816917393577000,2.926576904296875,-19.100000381469727,-21.352001190185547,29.404001235961914
1787816917409632500,2.942632568359375,-20.777000427246094,-19.56300163269043,26.774002075195312
1787816917425669000,2.958669189453125,-19.70800018310547,-19.237001419067383,27.284000396728516
1787816917441777700,2.974777587890625,-20.927000045776367,-18.509000778198242,25.459001541137695
1787816917457867800,2.99086767578125,-21.57900047302246,-18.409000396728516,24.849000930786133
1787816917473976300,3.006976318359375,-21.29400062561035,-17.13300132751465,24.147001266479492
1787816917490041600,3.02304150390625,-22.100000381469727,-17.645999908447266,25.774002075195312
1787816917506082300,3.039082275390625,-21.23200035095215,-16.295000076293945,22.72800064086914
1787816917522197500,3.055197509765625,-21.573001861572266,-15.444001197814941,22.227001190185547
1787816917538250500,3.07125048828125,-21.670000076293945,-15.97800064086914,22.32400131225586
1787816917554374100,3.0873740234375,-21.881000518798828,-16.409000396728516,22.117000579833984
1787816917570356500,3.1033564453125,-22.459001541137695,-15.464000701904297,20.59800148010254
1787816917586415600,3.11941552734375,-23.288002014160156,-16.099000930786133,21.10300064086914
1787816917602539000,3.1355390625,-20.111000061035156,-14.704000473022461,21.6200008392334
1787816917618648300,3.1516484375,-20.86600112915039,-13.846000671386719,21.62900161743164
1787816917634776800,3.16777685546875,-20.032001495361328,-14.181000709533691,20.70800018310547
1787816917650814700,3.183814697265625,-19.37700080871582,-15.359001159667969,20.799001693725586
1787816917666878700,3.199878662109375,-19.474000930786133,-16.327001571655273,20.58700180053711
1787816917683015700,3.216015625,-18.172000885009766,-16.527999877929688,21.70400047302246
1787816917699084300,3.232084228515625,-16.339000701904297,-15.757000923156738,23.440000534057617
1787816917715171000,3.248171142578125,-16.356000900268555,-16.631999969482422,22.108001708984375
1787816917731211800,3.264211669921875,-14.933000564575195,-15.636000633239746,24.66200065612793
1787816917747230200,3.280230224609375,-13.312000274658203,-16.702001571655273,25.261001586914062
1787816917763330600,3.29633056640625,-13.3100004196167,-16.80900001525879,25.26000213623047
1787816917779413500,3.31241357421875,-13.814001083374023,-18.413000106811523,25.45100212097168
1787816917795517700,3.328517578125,-11.481000900268555,-18.203001022338867,25.450000762939453
1787816917811578600,3.34457861328125,-12.496000289916992,-18.821001052856445,27.177001953125
1787816917827614000,3.360614013671875,-12.494000434875488,-19.792001724243164,26.659000396728516
1787816917843712000,3.3767119140625,-12.165000915527344,-18.0570011138916,28.202001571655273
1787816917859794000,3.3927939453125,-11.414000511169434,-19.134000778198242,27.886001586914062
1787816917875894000,3.40889404296875,-11.571000099182129,-17.111000061035156,26.88500213623047
1787816917891964200,3.424964111328125,-9.709000587463379,-18.917001724243164,28.293001174926758
1787816917908004400,3.44100439453125,-10.443000793457031,-18.586000442504883,28.908000946044922
1787816917924113400,3.457113525390625,-9.175000190734863,-19.457000732421875,28.084001541137695
1787816917940201700,3.47320166015625,-10.011000633239746,-18.25800132751465,29.420001983642578
1787816917956313600,3.489313720703125,-10.847000122070312,-19.437000274658203,29.309001922607422
1787816917972381400,3.50538134765625,-10.214000701904297,-18.793001174926758,29.51700210571289
1787816917988428300,3.52142822265625,-9.781000137329102,-18.57200050354004,30.02800178527832
1787816918004546600,3.537546630859375,-9.815000534057617,-17.944000244140625,28.913002014160156
1787816918020652500,3.553652587890625,-8.62700080871582,-19.01500129699707,29.106000900268555
1787816918036774100,3.569774169921875,-8.60300064086914,-19.32400131225586,30.020002365112305
1787816918052803800,3.585803955078125,-8.861000061035156,-18.59600067138672,28.397001266479492
1787816918068864000,3.601864013671875,-9.95300006866455,-21.35700035095215,30.106000900268555
1787816918084990200,3.617990234375,-10.401000022888184,-19.966001510620117,29.915000915527344
1787816918101052000,3.634052001953125,-12.47900104522705,-21.448001861572266,31.025001525878906
1787816918117182500,3.650182373046875,-12.297000885009766,-20.602001190185547,30.21700096130371
1787816918133165800,3.666165771484375,-13.459000587463379,-20.056001663208008,30.83500099182129
1787816918149227300,3.682227294921875,-13.983000755310059,-20.375001907348633,30.934001922607422
1787816918165359900,3.69835986328125,-15.363000869750977,-20.049001693725586,31.143001556396484
1787816918181428200,3.71442822265625,-14.441000938415527,-20.395000457763672,29.407001495361328
1787816918197520000,3.730519775390625,-15.294000625610352,-18.666000366210938,30.340002059936523
1787816918213566500,3.74656640625,-15.051000595092773,-19.080001831054688,31.45600128173828
1787816918229596000,3.762595947265625,-17.187000274658203,-17.895000457763672,31.673002243041992
1787816918245693000,3.77869287109375,-16.158000946044922,-17.593000411987305,30.35000228881836
1787816918261774000,3.794774169921875,-19.759000778198242,-17.474000930786133,30.865001678466797
1787816918277876200,3.810876220703125,-19.41900062561035,-16.381000518798828,32.505001068115234
1787816918293875000,3.826875,-20.019001007080078,-15.665000915527344,29.863000869750977
1787816918309906000,3.842906005859375,-21.042001724243164,-14.667000770568848,32.21600341796875
1787816918326010400,3.85901025390625,-19.160001754760742,-14.580000877380371,30.992000579833984
1787816918342045000,3.875044921875,-21.514001846313477,-12.101000785827637,31.73000144958496
1787816918358145800,3.891145751953125,-21.378000259399414,-12.29900074005127,32.95100021362305
1787816918374218800,3.90721875,-18.72300148010254,-11.331000328063965,33.56700134277344
1787816918390260700,3.9232607421875,-20.053001403808594,-13.136000633239746,34.67300033569336
1787816918406369800,3.939369873046875,-20.4950008392334,-13.253000259399414,33.858001708984375
1787816918422468000,3.955468017578125,-19.410001754760742,-14.429000854492188,34.152000427246094
1787816918438586400,3.97158642578125,-18.04400062561035,-15.197000503540039,33.02300262451172
1787816918454615000,3.987614990234375,-18.34000015258789,-13.346000671386719,35.17900085449219
1787816918470665200,4.003665283203125,-15.862000465393066,-15.598000526428223,35.35900115966797
1787816918486783500,4.019783447265625,-16.071001052856445,-14.730000495910645,36.08000183105469
1787816918502888700,4.035888671875,-15.297000885009766,-15.254000663757324,37.09300231933594
1787816918519015200,4.05201513671875,-13.583000183105469,-16.868000030517578,36.770999908447266
1787816918535048400,4.06804833984375,-14.99000072479248,-15.585000991821289,36.37700271606445
1787816918551062500,4.0840625,-12.62600040435791,-16.328001022338867,37.182003021240234
1787816918567197000,4.100197021484375,-8.92300033569336,-15.694001197814941,36.979000091552734
1787816918583310600,4.116310546875,-9.62700080871582,-17.506000518798828,37.57600021362305
1787816918599443000,4.13244287109375,-6.966000556945801,-18.803001403808594,37.051002502441406
1787816918615482400,4.148482421875,-6.552000522613525,-19.67500114440918,36.02400207519531
1787816918631502800,4.1645029296875,-5.581000328063965,-18.803001403808594,37.25300216674805
1787816918647643400,4.180643310546875,-4.950000286102295,-19.672000885009766,36.43000030517578
1787816918663716000,4.196716064453125,-7.054000377655029,-18.792001724243164,37.86600112915039
1787816918679806500,4.212806396484375,-6.832000255584717,-18.679000854492188,38.37700271606445
1787816918695807000,4.228806884765625,-7.619000434875488,-17.839000701904297,36.95900344848633
1787816918711840000,4.244840087890625,-8.972000122070312,-19.33300018310547,37.25300216674805
1787816918727939600,4.260939697265625,-7.067000389099121,-18.04400062561035,37.770999908447266
1787816918744021000,4.27702099609375,-7.375000476837158,-17.496000289916992,38.59100341796875
1787816918760116500,4.293116455078125,-5.998000144958496,-18.365001678466797,37.86900329589844
1787816918776213500,4.309213623046875,-7.708000183105469,-18.909000396728516,37.051002502441406
1787816918792251000,4.3252509765625,-8.059000015258789,-18.38800048828125,35.93600082397461
1787816918808358100,4.341358154296875,-8.574000358581543,-19.351001739501953,36.03000259399414
1787816918824442000,4.357442138671875,-8.267000198364258,-18.81800079345703,35.83000183105469
1787816918840552700,4.373552734375,-10.406000137329102,-18.067001342773438,35.63600158691406
1787816918856610300,4.3896103515625,-9.742000579833984,-20.861000061035156,35.10100173950195
1787816918872643600,4.4056435546875,-9.761000633239746,-18.82000160217285,35.527000427246094
1787816918888771300,4.421771240234375,-13.408000946044922,-18.079999923706055,34.31500244140625
1787816918904863000,4.437863037109375,-12.883000373840332,-17.21900177001953,34.62800216674805
1787816918920978700,4.453978759765625,-16.11400032043457,-17.350000381469727,32.492000579833984
1787816918937052700,4.470052734375,-14.950000762939453,-17.895000457763672,31.976001739501953
1787816918953101800,4.486101806640625,-14.742000579833984,-16.385000228881836,32.70199966430664
1787816918969225700,4.502225830078125,-13.99000072479248,-17.354000091552734,32.4890022277832
1787816918985335300,4.518335205078125,-15.563000679016113,-16.799001693725586,33.71800231933594
1787816919001463300,4.53446337890625,-16.192001342773438,-16.577001571655273,34.230003356933594
1787816919017500400,4.55050048828125,-14.387001037597656,-16.255001068115234,34.435001373291016
1787816919033563000,4.56656298828125,-16.628000259399414,-17.880001068115234,32.89500045776367
1787816919049697300,4.582697265625,-14.0600004196167,-17.22300148010254,34.22200012207031
1787816919065768000,4.598767822265625,-13.230000495910645,-16.588001251220703,33.717002868652344
1787816919081858300,4.6148583984375,-16.297000885009766,-17.6560001373291,33.61000061035156
1787816919097904000,4.630904052734375,-16.09600067138672,-16.04199981689453,34.13300323486328
1787816919113931300,4.64693115234375,-13.231000900268555,-17.345001220703125,33.20100021362305
1787816919130024200,4.663024169921875,-12.90000057220459,-16.25800132751465,34.43300247192383
1787816919146103000,4.67910302734375,-12.898000717163086,-17.769001007080078,33.605003356933594
1787816919162197200,4.695197265625,-11.297000885009766,-18.523000717163086,33.49400329589844
1787816919178399200,4.711399169921875,-10.4350004196167,-18.409000396728516,34.105003356933594
1787816919193272600,4.7262724609375,-10.112000465393066,-18.08300018310547,34.5150032043457
1787816919209367300,4.7423671875,-10.003000259399414,-18.297000885009766,34.51300048828125
1787816919225444000,4.758444091796875,-5.53000020980835,-19.593000411987305,34.29199981689453
1787816919241542100,4.774542236328125,-7.307000160217285,-20.32900047302246,35.10300064086914
1787816919257543000,4.79054296875,-5.191000461578369,-19.256999969482422,35.415000915527344
1787816919273571800,4.80657177734375,-5.426000118255615,-19.595001220703125,34.19000244140625
1787816919289666800,4.822666748046875,-2.6450002193450928,-20.235000610351562,34.69000244140625
1787816919305751300,4.838751220703125,-3.2950000762939453,-20.134000778198242,34.18300247192383
1787816919321857500,4.854857421875,-0.9160000681877136,-21.733001708984375,35.082000732421875
1787816919337868000,4.870867919921875,-1.2680000066757202,-21.32000160217285,33.8640022277832
1787816919353909000,4.886908935546875,1.0760000944137573,-22.615001678466797,33.44200134277344
1787816919370019000,4.90301904296875,0.2150000035762787,-20.67500114440918,34.17300033569336
1787816919386117400,4.919117431640625,-0.20200000703334808,-21.643001556396484,33.86000061035156
1787816919402229000,4.93522900390625,-0.2900000214576721,-21.95600128173828,34.46800231933594
1787816919418243600,4.95124365234375,0.0020000000949949026,-22.080001831054688,33.24400329589844
1787816919434288000,4.9672880859375,0.21000000834465027,-19.814001083374023,34.487003326416016
1787816919450408000,4.983407958984375,1.0600000619888306,-20.464000701904297,34.07200241088867
1787816919466509600,4.999509521484375,-0.31300002336502075,-21.106000900268555,33.967002868652344
1787816919482632400,5.015632568359375,-0.6220000386238098,-21.316001892089844,34.270999908447266
1787816919498612500,5.031612548828125,-2.0390000343322754,-20.47100067138672,33.159000396728516
1787816919514673700,5.047673583984375,0.8530000448226929,-20.02800178527832,34.586002349853516
1787816919530807300,5.063807373046875,-0.40800002217292786,-20.126001358032227,35.09600067138672
1787816919546821000,5.079821044921875,-0.8480000495910645,-19.702001571655273,34.69300079345703
1787816919562952200,5.0959521484375,-0.656000018119812,-18.850000381469727,34.29300308227539
1787816919578940000,5.11193994140625,-0.8450000286102295,-19.052000045776367,35.20800018310547
1787816919594960400,5.12796044921875,1.783000111579895,-19.720001220703125,33.67100143432617
1787816919611051300,5.14405126953125,1.7010000944137573,-21.110000610351562,33.862003326416016
1787816919627122400,5.160122314453125,0.5350000262260437,-20.567001342773438,34.2760009765625
1787816919643217000,5.176216796875,-1.5070000886917114,-21.876001358032227,32.33100128173828
1787816919659218700,5.19221875,-1.7260000705718994,-20.25800132751465,33.05900192260742
1787816919675249000,5.208248779296875,-1.8000000715255737,-20.56300163269043,34.27900314331055
1787816919691346700,5.2243466796875,-2.138000011444092,-19.170000076293945,34.29199981689453
1787816919707431200,5.24043115234375,-4.243000030517578,-19.371000289916992,35.00600051879883
1787816919723532800,5.25653271484375,-2.180999994277954,-18.547000885009766,32.76900100708008
1787816919739547600,5.272547607421875,-4.259000301361084,-19.705001831054688,34.086002349853516
1787816919755536100,5.2885361328125,-4.928000450134277,-18.21000099182129,33.59100341796875
1787816919771651600,5.304651611328125,-4.7270002365112305,-17.893001556396484,33.28700256347656
1787816919787679000,5.320678955078125,-3.8630001544952393,-18.102001190185547,33.794002532958984
1787816919803780600,5.336780517578125,-3.0320000648498535,-18.439001083374023,32.770999908447266
1787816919819751000,5.3527509765625,-4.046000003814697,-19.0570011138916,34.499000549316406
1787816919835790800,5.368790771484375,-3.4080002307891846,-18.516000747680664,34.90999984741211
1787816919851895800,5.384895751953125,-2.564000129699707,-18.413000106811523,34.70600128173828
1787816919867985700,5.400985595703125,-2.261000156402588,-18.963001251220703,33.682003021240234
1787816919884093200,5.41709326171875,-2.9180002212524414,-16.381000518798828,34.419002532958984
1787816919900110000,5.433110107421875,-2.373000144958496,-17.34600067138672,34.40999984741211
1787816919916157000,5.449156982421875,-4.202000141143799,-15.844000816345215,34.32400131225586
1787816919932279800,5.46527978515625,-1.596000075340271,-17.218000411987305,36.040000915527344
1787816919948330500,5.48133056640625,-4.928000450134277,-17.886001586914062,33.797000885009766
1787816919964454400,5.497454345703125,-4.170000076293945,-17.338001251220703,34.820003509521484
1787816919980438000,5.51343798828125,-2.257000207901001,-17.772001266479492,34.61000061035156
1787816919996494300,5.529494384765625,-2.0240001678466797,-18.409000396728516,35.11300277709961
1787816920012574700,5.54557470703125,-0.5440000295639038,-18.415000915527344,34.805999755859375
1787816920028642600,5.561642578125,-3.5300002098083496,-18.202001571655273,34.40400314331055
1787816920044729600,5.5777294921875,-3.2280001640319824,-18.104000091552734,33.691001892089844
1787816920060722200,5.59372216796875,0.8500000238418579,-18.192001342773438,35.621002197265625
1787816920076789500,5.60978955078125,-0.6380000114440918,-19.16400146484375,34.9010009765625
1787816920092880400,5.62588037109375,-1.755000114440918,-16.494001388549805,34.111000061035156
1787816920108951000,5.641950927734375,-0.367000013589859,-17.24700164794922,34.00100326538086
1787816920125041000,5.658041015625,-2.9030001163482666,-16.804000854492188,34.823001861572266
1787816920141051000,5.67405078125,-1.540000081062317,-17.681001663208008,33.4890022277832
1787816920157028600,5.690028564453125,-2.3310000896453857,-18.077001571655273,35.829002380371094
1787816920173130800,5.706130859375,-3.6100001335144043,-18.726001739501953,35.2140007019043
1787816920189205500,5.72220556640625,-3.31000018119812,-17.76500129699707,35.01900100708008
1787816920205304300,5.73830419921875,-2.6690001487731934,-16.89900016784668,35.73800277709961
1787816920221311700,5.754311767578125,-4.435000419616699,-18.386001586914062,36.5420036315918
1787816920237345800,5.770345703125,-6.409000396728516,-16.1510009765625,35.138999938964844
1787816920253448700,5.78644873046875,-5.767000198364258,-16.79800033569336,34.928001403808594
1787816920269486600,5.802486572265625,-4.490000247955322,-17.554000854492188,34.6140022277832
1787816920285596700,5.8185966796875,-5.337000370025635,-16.25400161743164,35.544002532958984
1787816920301579800,5.834579833984375,-4.061000347137451,-15.499000549316406,36.05800247192383
1787816920317571300,5.8505712890625,-6.843000411987305,-16.804000854492188,34.31800079345703
1787816920333663200,5.866663330078125,-5.6570000648498535,-16.47100067138672,35.3390007019043
1787816920349709300,5.882709228515625,-4.5920000076293945,-18.308000564575195,34.302001953125
1787816920365831200,5.8988310546875,-6.298000335693359,-16.797000885009766,34.92900085449219
1787816920381835300,5.914835205078125,-5.258000373840332,-17.027999877929688,33.80500030517578
1787816920397845200,5.93084521484375,-5.519000053405762,-18.722000122070312,35.31800079345703
1787816920413945900,5.94694580078125,-7.896000385284424,-17.12200164794922,34.520999908447266
1787816920430006500,5.963006591796875,-7.246000289916992,-18.196001052856445,34.409000396728516
1787816920446131700,5.979131591796875,-5.564000129699707,-17.7760009765625,33.9010009765625
1787816920462140700,5.995140625,-6.308000087738037,-17.560001373291016,34.005001068115234
1787816920478158300,6.011158447265625,-9.494000434875488,-16.9060001373291,34.42300033569336
1787816920494301400,6.027301513671875,-9.409000396728516,-16.81100082397461,33.50699996948242
1787816920510319000,6.043319091796875,-10.270000457763672,-18.11400032043457,32.172000885009766
1787816920526452700,6.05945263671875,-11.31100082397461,-18.31599998474121,32.986000061035156
1787816920542452000,6.075451904296875,-11.098000526428223,-17.235000610351562,33.70900344848633
1787816920558474800,6.091474853515625,-10.281000137329102,-16.82400131225586,32.4890022277832
1787816920574569700,6.10756982421875,-11.958000183105469,-16.59200096130371,33.6140022277832
1787816920590594600,6.123594482421875,-12.844000816345215,-16.612001419067383,31.985000610351562
1787816920606683400,6.139683349609375,-12.851000785827637,-15.968000411987305,32.092002868652344
1787816920622693400,6.155693359375,-13.596000671386719,-16.50800132751465,31.681001663208008
1787816920638668800,6.171668701171875,-15.065000534057617,-16.06300163269043,32.70600128173828
1787816920654786000,6.1877861328125,-15.833001136779785,-14.780000686645508,32.41200256347656
1787816920670811100,6.20381103515625,-15.42300033569336,-14.897000312805176,31.698001861572266
1787816920686904300,6.219904296875,-15.786001205444336,-13.519001007080078,30.590002059936523
1787816920702880500,6.235880615234375,-18.018001556396484,-13.625000953674316,30.388002395629883
1787816920718867000,6.251866943359375,-18.985000610351562,-13.955000877380371,29.673002243041992
1787816920734991000,6.2679912109375,-18.677000045776367,-14.069000244140625,29.16200065612793
1787816920751026400,6.2840263671875,-18.654001235961914,-13.407000541687012,30.59400177001953
1787816920767128800,6.30012890625,-20.080001831054688,-11.595000267028809,29.69500160217285
1787816920783099400,6.316099365234375,-18.3700008392334,-13.212000846862793,29.170001983642578
1787816920799088400,6.33208837890625,-21.476001739501953,-12.791000366210938,28.26000213623047
1787816920815218200,6.34821826171875,-21.50400161743164,-13.02500057220459,26.832000732421875
1787816920831258600,6.364258544921875,-23.11400032043457,-11.952000617980957,26.742000579833984
1787816920847371800,6.380371826171875,-24.393001556396484,-11.628000259399414,26.746002197265625
1787816920863371800,6.396371826171875,-22.709001541137695,-11.856000900268555,25.927001953125
1787816920879375400,6.412375244140625,-27.082000732421875,-12.077000617980957,24.91200065612793
1787816920895518000,6.42851806640625,-24.57000160217285,-11.23900032043457,23.796001434326172
1787816920911578400,6.444578369140625,-24.98400115966797,-13.068000793457031,23.16900062561035
1787816920927702800,6.460702880859375,-26.69900131225586,-11.563000679016113,23.38800048828125
1787816920943709200,6.476709228515625,-27.650001525878906,-13.180000305175781,22.560001373291016
1787816920959723000,6.492722900390625,-28.55000114440918,-12.993000984191895,20.424001693725586
1787816920975832300,6.508832275390625,-27.285001754760742,-12.136000633239746,20.532001495361328
1787816920991846000,6.524845947265625,-27.975000381469727,-12.599000930786133,17.880001068115234
1787816921007976700,6.540976806640625,-28.830001831054688,-11.088000297546387,18.60700035095215
1787816921023989200,6.5569892578125,-27.792001724243164,-11.320000648498535,17.381999969482422
1787816921039962000,6.572962158203125,-30.671001434326172,-12.620000839233398,16.05000114440918
1787816921056074800,6.58907470703125,-29.297000885009766,-12.302000999450684,15.949000358581543
1787816921072103000,6.60510302734375,-29.950000762939453,-11.337000846862793,15.856000900268555
1787816921088198700,6.62119873046875,-29.670001983642578,-10.497000694274902,14.641000747680664
1787816921104173000,6.637173095703125,-30.64200210571289,-10.829000473022461,13.722001075744629
1787816921120150800,6.65315087890625,-29.27800178527832,-11.27400016784668,12.69800090789795
1787816921136270600,6.6692705078125,-31.327001571655273,-10.101000785827637,11.998000144958496
1787816921152305000,6.685304931640625,-30.150001525878906,-11.28600025177002,11.680000305175781
1787816921168405200,6.7014052734375,-31.871002197265625,-11.621000289916992,10.457000732421875
1787816921184387000,6.717386962890625,-32.09100341796875,-11.085000991821289,10.462000846862793
1787816921200374800,6.733374755859375,-31.59200096130371,-11.754000663757324,8.622000694274902
1787816921216509400,6.749509521484375,-30.843002319335938,-11.535000801086426,9.031000137329102
1787816921232553500,6.765553466796875,-31.391000747680664,-11.761000633239746,8.112000465393066
1787816921248662800,6.781662841796875,-33.10300064086914,-12.306000709533691,7.193000316619873
1787816921264652800,6.79765283203125,-33.362003326416016,-10.38900089263916,6.293000221252441
1787816921280651000,6.813651123046875,-31.87200164794922,-9.52500057220459,7.012000560760498
1787816921296777000,6.82977685546875,-31.476001739501953,-11.056000709533691,4.75700044631958
1787816921312828000,6.845827880859375,-33.38800048828125,-10.189000129699707,5.277000427246094
1787816921328945200,6.861945068359375,-31.59600067138672,-10.74000072479248,4.353000164031982
1787816921344949000,6.877948974609375,-31.637001037597656,-9.360000610351562,3.3460001945495605
1787816921360956200,6.8939560546875,-32.20000076293945,-8.730000495910645,2.3340001106262207
1787816921377102300,6.910102294921875,-31.32400131225586,-10.985000610351562,2.1090002059936523
1787816921393166300,6.926166259765625,-31.98200225830078,-9.807000160217285,1.9170000553131104
1787816921409296400,6.94229638671875,-33.90800094604492,-9.381000518798828,1.5150001049041748
1787816921425303000,6.958302978515625,-33.1870002746582,-9.720000267028809,0.289000004529953
1787816921441317600,6.974317626953125,-31.03400230407715,-10.354000091552734,1.1970000267028809
1787816921457422000,6.990422119140625,-33.301002502441406,-9.184000015258789,0.2939999997615814
1787816921473436700,7.006436767578125,-32.06500244140625,-9.858000755310059,-1.852000117301941
1787816921489525500,7.022525390625,-32.25699996948242,-9.845000267028809,-0.9350000619888306
1787816921505545200,7.038545166015625,-32.177001953125,-8.996000289916992,-1.5380001068115234
1787816921521518600,7.0545185546875,-32.051002502441406,-11.254000663757324,-2.068000078201294
1787816921537633300,7.07063330078125,-33.00600051879883,-9.307000160217285,-0.8270000219345093
1787816921553659100,7.0866591796875,-32.47300338745117,-10.279000282287598,-1.346000075340271
1787816921569759200,7.10275927734375,-32.2140007019043,-9.451000213623047,-3.4780001640319824
1787816921585736400,7.118736328125,-32.967002868652344,-9.672000885009766,-4.090000152587891
1787816921601724700,7.134724609375,-30.19300079345703,-9.993000030517578,-3.689000129699707
1787816921617848800,7.150848876953125,-33.599002838134766,-10.100000381469727,-4.093000411987305
1787816921633885200,7.16688525390625,-31.49100112915039,-10.76200008392334,-5.2220001220703125
1787816921649989600,7.18298974609375,-31.602001190185547,-11.521000862121582,-5.942000389099121
1787816921665961200,7.198961181640625,-32.15800094604492,-9.914000511169434,-6.029000282287598
1787816921681948200,7.2149482421875,-30.46200180053711,-9.054000854492188,-5.616000175476074
1787816921698075600,7.23107568359375,-31.41400146484375,-11.104000091552734,-6.753000259399414
1787816921714115800,7.24711572265625,-32.23800277709961,-11.303000450134277,-5.735000133514404
1787816921730220800,7.263220703125,-30.99300193786621,-10.026000022888184,-6.235000133514404
1787816921746193700,7.279193603515625,-34.39800262451172,-10.133000373840332,-6.639000415802002
1787816921762188300,7.295188232421875,-31.44000244140625,-10.039000511169434,-7.253000259399414
1787816921778326800,7.311326904296875,-30.280000686645508,-10.153000831604004,-7.663000583648682
1787816921794376400,7.32737646484375,-30.48400115966797,-10.580000877380371,-7.565000534057617
1787816921810495700,7.343495849609375,-28.466001510620117,-10.475000381469727,-7.465000152587891
1787816921826501000,7.359501220703125,-30.29100227355957,-10.809000968933105,-8.586000442504883
1787816921842515200,7.37551513671875,-27.94900131225586,-11.241000175476074,-8.592000007629395
1787816921858667300,7.391667236328125,-29.239002227783203,-10.600000381469727,-8.891000747680664
1787816921874734800,7.40773486328125,-30.270002365112305,-11.336000442504883,-7.979000568389893
1787816921890823400,7.423823486328125,-30.06800079345703,-11.559000968933105,-8.593000411987305
1787816921906835700,7.439835693359375,-30.610000610351562,-10.484000205993652,-8.379000663757324
1787816921922852900,7.455852783203125,-31.043001174926758,-10.48900032043457,-8.78600025177002
1787816921938963500,7.47196337890625,-29.961002349853516,-11.12700080871582,-8.282999992370605
1787816921954984200,7.487984130859375,-30.07400131225586,-10.482000350952148,-8.176000595092773
1787816921971073800,7.50407373046875,-29.01000213623047,-12.319000244140625,-9.212000846862793
1787816921987041800,7.520041748046875,-30.371002197265625,-11.54900074005127,-7.879000186920166
1787816922003016400,7.536016357421875,-28.81100082397461,-10.707000732421875,-8.789999961853027
1787816922019129000,7.552129150390625,-28.67500114440918,-11.337000846862793,-7.879000186920166
1787816922035150600,7.568150634765625,-31.58700180053711,-10.38800048828125,-9.293000221252441
1787816922051242000,7.584241943359375,-29.34400177001953,-11.356000900268555,-9.305000305175781
1787816922067214000,7.600214111328125,-29.98200225830078,-10.49000072479248,-8.78700065612793
1787816922083192300,7.6161923828125,-29.895002365112305,-10.394000053405762,-9.601000785827637
1787816922099314400,7.632314453125,-30.522001266479492,-11.144000053405762,-9.607000350952148
1787816922115347500,7.648347412109375,-29.558000564575195,-10.27500057220459,-8.684000015258789
1787816922131448300,7.6644482421875,-29.15900230407715,-9.211000442504883,-9.184000015258789
1787816922147428900,7.680428955078125,-28.393001556396484,-10.063000679016113,-8.683000564575195
1787816922163415800,7.696415771484375,-28.917001724243164,-10.058000564575195,-8.37700080871582
1787816922179533800,7.712533935546875,-30.41200065612793,-10.277000427246094,-8.886000633239746
1787816922195572000,7.728572021484375,-29.134000778198242,-10.0600004196167,-8.581000328063965
1787816922211681800,7.744681884765625,-29.049001693725586,-10.181000709533691,-9.600000381469727
1787816922227671000,7.760671142578125,-29.45400047302246,-10.601000785827637,-8.992000579833984
1787816922243666200,7.776666259765625,-29.89000129699707,-10.067000389099121,-9.190999984741211
1787816922259787000,7.792787109375,-30.531002044677734,-10.933000564575195,-9.91100025177002
1787816922275831600,7.80883154296875,-27.441001892089844,-10.283000946044922,-8.992000579833984
1787816922291946000,7.824946044921875,-28.716001510620117,-9.849000930786133,-8.782999992370605
1787816922307941000,7.840941162109375,-30.104001998901367,-10.500000953674316,-9.5
1787816922323943200,7.856943115234375,-29.24300193786621,-10.494000434875488,-8.992000579833984
1787816922340084200,7.873084228515625,-29.8070011138916,-8.568000793457031,-9.280000686645508
1787816922356079900,7.889079833984375,-29.88800048828125,-9.742000579833984,-8.881999969482422
1787816922372151600,7.905151611328125,-27.87900161743164,-9.318000793457031,-8.983000755310059
1787816922388150000,7.92114990234375,-30.09400177001953,-8.54900074005127,-7.853000164031982
1787816922404110000,7.937110107421875,-29.98600196838379,-9.196000099182129,-8.164000511169434
1787816922420209400,7.95320947265625,-29.70600128173828,-7.707000255584717,-8.967000007629395
1787816922436222200,7.96922216796875,-29.78900146484375,-9.097000122070312,-8.77500057220459
1787816922452309200,7.985309326171875,-29.788002014160156,-8.98900032043457,-8.672000885009766
1787816922468321500,8.001321533203125,-29.03400230407715,-7.903000354766846,-7.543000221252441
1787816922484291800,8.017291748046874,-29.040000915527344,-8.339000701904297,-8.056000709533691
1787816922500399600,8.033399658203125,-29.79400062561035,-8.884000778198242,-8.875
1787816922516421000,8.049421142578124,-29.893001556396484,-9.744000434875488,-9.086000442504883
1787816922532507600,8.065507568359376,-28.62200164794922,-8.992000579833984,-8.776000022888184
1787816922548473300,8.081473388671874,-30.09800148010254,-8.443000793457031,-7.954000473022461
1787816922564446000,8.097446044921876,-27.876001358032227,-8.559000015258789,-8.36500072479248
1787816922580556800,8.113556884765625,-28.200000762939453,-8.778000831604004,-8.77400016784668
1787816922596585000,8.1295849609375,-28.59800148010254,-8.11299991607666,-7.13800048828125
1787816922612676600,8.145676513671875,-30.41400146484375,-8.117000579833984,-7.645000457763672
1787816922628639200,8.16163916015625,-28.496002197265625,-8.76400089263916,-7.755000591278076
1787816922644619000,8.177618896484375,-30.530000686645508,-9.095000267028809,-8.672000885009766
1787816922660743000,8.193742919921876,-29.26500129699707,-7.914000511169434,-8.358000755310059
1787816922676778000,8.209778076171874,-30.18800163269043,-8.109000205993652,-7.034000396728516
1787816922692878000,8.225878173828125,-30.825000762939453,-7.999000549316406,-6.930000305175781
1787816922708845600,8.241845458984375,-28.604001998901367,-7.468000411987305,-7.03000020980835
1787816922724843300,8.25784326171875,-30.058000564575195,-8.20300006866455,-6.016000270843506
1787816922740970800,8.273970703125,-32.32500076293945,-7.141000270843506,-7.023000240325928
1787816922757061000,8.29006103515625,-31.446001052856445,-8.313000679016113,-6.423000335693359
1787816922773171500,8.30617138671875,-29.716001510620117,-9.594000816345215,-5.825000286102295
1787816922789147400,8.3221474609375,-29.171001434326172,-8.613000869750977,-4.595000267028809
1787816922805197000,8.338197021484374,-29.615001678466797,-9.057000160217285,-5.719000339508057
1787816922821314800,8.354314697265625,-31.204002380371094,-7.9710001945495605,-4.892000198364258
1787816922837373400,8.37037353515625,-29.678001403808594,-10.003000259399414,-4.403000354766846
1787816922853452000,8.3864521484375,-30.336002349853516,-10.123000144958496,-5.422000408172607
1787816922869441500,8.402441650390625,-28.71000099182129,-9.88900089263916,-3.7920002937316895
1787816922885501400,8.41850146484375,-30.83100128173828,-8.479000091552734,-2.758000135421753
1787816922901581600,8.43458154296875,-30.50200080871582,-9.230000495910645,-2.765000104904175
1787816922917602000,8.45060205078125,-29.566001892089844,-8.271000862121582,-3.063000202178955
1787816922933689300,8.466689453125,-31.382001876831055,-9.13900089263916,-4.087000370025635
1787816922949693400,8.482693359375,-31.187002182006836,-9.042000770568848,-4.800000190734863
1787816922965721900,8.498721923828125,-30.98200225830078,-9.803000450134277,-5.622000217437744
1787816922981815800,8.51481591796875,-28.766000747680664,-8.842000007629395,-5.616000175476074
1787816922997897200,8.530897216796875,-30.25800132751465,-8.951000213623047,-5.9210004806518555
1787816923013998000,8.546998046875,-28.589000701904297,-9.080000877380371,-7.350000381469727
1787816923030006800,8.5630068359375,-29.31800079345703,-8.962000846862793,-6.635000228881836
1787816923046045700,8.579045654296875,-29.5570011138916,-8.329999923706055,-7.444000244140625
1787816923062151200,8.595151123046875,-27.225000381469727,-7.363000392913818,-7.031000137329102
1787816923078233000,8.611233154296874,-28.272001266479492,-6.812000274658203,-6.006000518798828
1787816923094331600,8.62733154296875,-28.530000686645508,-6.948000431060791,-8.146000862121582
1787816923110337500,8.643337646484374,-31.174001693725586,-7.585000514984131,-8.04699993133545
1787816923126374700,8.659374755859375,-29.149002075195312,-6.612000465393066,-7.124000549316406
1787816923142487000,8.675487060546875,-29.481000900268555,-8.131999969482422,-8.664999961853027
1787816923158580500,8.69158056640625,-26.6200008392334,-9.221000671386719,-9.595000267028809
1787816923174689500,8.707689453125,-27.298002243041992,-8.704000473022461,-11.118000984191895
1787816923190709500,8.72370947265625,-27.59600067138672,-9.016000747680664,-10.407000541687012
1787816923206759200,8.73975927734375,-24.119001388549805,-8.713000297546387,-11.427000999450684
1787816923222874400,8.755874267578125,-24.7710018157959,-8.505000114440918,-11.934000968933105
1787816923238974000,8.771973876953124,-23.854001998901367,-8.962000846862793,-13.97700023651123
1787816923255093800,8.78809375,-23.351001739501953,-7.14300012588501,-14.063000679016113
1787816923271069700,8.804069580078124,-25.036001205444336,-7.78000020980835,-13.863000869750977
1787816923287121400,8.820121337890624,-25.06100082397461,-8.660000801086426,-15.500000953674316
1787816923303243500,8.836243408203124,-23.75200080871582,-8.532999992370605,-13.871000289916992
1787816923319303700,8.8523037109375,-24.374000549316406,-7.658000469207764,-12.640000343322754
1787816923335430000,8.868429931640625,-23.867000579833984,-8.538000106811523,-14.278000831604004
1787816923351418600,8.884418701171874,-22.450000762939453,-9.707000732421875,-13.374000549316406
1787816923367480300,8.900480224609375,-25.11400032043457,-8.844000816345215,-13.261000633239746
1787816923383567000,8.916567138671875,-24.82200050354004,-8.75200080871582,-14.381000518798828
1787816923399645700,8.932645751953125,-24.58500099182129,-8.089000701904297,-12.847001075744629
1787816923415743700,8.94874365234375,-25.84200096130371,-8.833000183105469,-12.547000885009766
1787816923431750700,8.964750732421875,-26.121000289916992,-8.37600040435791,-10.505000114440918
1787816923447774700,8.980774658203124,-25.64200210571289,-9.057000160217285,-13.262001037597656
1787816923463872500,8.99687255859375,-25.184001922607422,-9.470000267028809,-12.044000625610352
1787816923479949800,9.01294970703125,-24.227001190185547,-8.605999946594238,-11.426000595092773
1787816923496051700,9.0290517578125,-25.940000534057617,-9.909000396728516,-12.862000465393066
1787816923512061700,9.045061767578124,-26.5210018157959,-11.819000244140625,-11.554000854492188
1787816923528095700,9.061095703125,-24.05500030517578,-11.701000213623047,-10.4350004196167
1787816923544194800,9.07719482421875,-26.077001571655273,-12.349000930786133,-11.04900074005127
1787816923560230400,9.09323046875,-23.011001586914062,-12.253000259399414,-11.562000274658203
1787816923576339500,9.10933935546875,-25.965002059936523,-13.750000953674316,-11.67300033569336
1787816923592357400,9.125357421875,-23.928001403808594,-12.87700080871582,-10.242000579833984
1787816923608404200,9.141404296875,-25.285001754760742,-13.4010009765625,-9.532000541687012
1787816923624512300,9.15751220703125,-24.569000244140625,-11.473000526428223,-9.516000747680664
1787816923640603000,9.173602783203124,-25.647001266479492,-10.617000579833984,-9.710000038146973
1787816923656718600,9.189718505859375,-26.772001266479492,-11.45300006866455,-8.289999961853027
1787816923672739300,9.2057392578125,-24.641000747680664,-9.940000534057617,-7.057000160217285
1787816923688787200,9.221787109375,-25.32400131225586,-9.9660005569458,-9.094000816345215
1787816923704908800,9.23790869140625,-26.2760009765625,-9.855000495910645,-8.88800048828125
1787816923721018000,9.25401806640625,-27.565000534057617,-9.321000099182129,-9.187000274658203
1787816923737145300,9.270145263671875,-26.60700035095215,-8.997000694274902,-8.880000114440918
1787816923753132800,9.2861328125,-26.479001998901367,-9.74000072479248,-8.37700080871582
1787816923769199900,9.302199951171875,-26.48200035095215,-9.526000022888184,-8.375
1787816923785334800,9.318334716796874,-25.530000686645508,-8.773000717163086,-8.064000129699707
1787816923801406200,9.33440625,-24.68000030517578,-8.450000762939453,-7.859000205993652
1787816923817539600,9.35053955078125,-25.336000442504883,-9.109000205993652,-9.086000442504883
1787816923833536000,9.366535888671875,-25.15300178527832,-9.451000213623047,-10.618000030517578
1787816923849561000,9.38256103515625,-26.658000946044922,-8.595000267028809,-10.914000511169434
1787816923865648600,9.398648681640625,-25.76300048828125,-9.542000770568848,-9.497000694274902
1787816923881721600,9.4147216796875,-23.642000198364258,-8.898000717163086,-9.188000679016113
1787816923897812200,9.430812255859376,-24.112001419067383,-9.249000549316406,-11.432000160217285
1787816923913811000,9.44681103515625,-23.66400146484375,-9.128000259399414,-10.31100082397461
1787816923929837000,9.462837158203126,-25.36100196838379,-8.907999992370605,-10.10300064086914
1787816923945934600,9.4789345703125,-25.479001998901367,-8.914999961853027,-10.612000465393066
1787816923962016000,9.49501611328125,-23.902000427246094,-8.711000442504883,-11.224000930786133
1787816923978115800,9.51111572265625,-24.554000854492188,-9.151000022888184,-12.144001007080078
1787816923994126000,9.5271259765625,-21.87900161743164,-10.656000137329102,-12.160000801086426
1787816924010163200,9.5431630859375,-22.23900032043457,-7.978000164031982,-12.34000015258789
1787816924026265300,9.559265380859374,-24.042001724243164,-8.947000503540039,-12.856000900268555
1787816924042355500,9.57535546875,-23.512001037597656,-8.8410005569458,-12.855000495910645
1787816924058468400,9.59146826171875,-21.36800193786621,-9.696000099182129,-12.458000183105469
1787816924074486500,9.607486572265625,-24.33700180053711,-10.121000289916992,-12.5600004196167
1787816924090489600,9.623489501953125,-23.2760009765625,-9.907000541687012,-12.458000183105469
1787816924106617000,9.6396171875,-22.523000717163086,-10.443000793457031,-12.361001014709473
1787816924122669800,9.655669921875,-23.168001174926758,-9.258000373840332,-11.943000793457031
1787816924138785500,9.67178564453125,-23.47100067138672,-8.383000373840332,-10.712000846862793
1787816924154773000,9.68777294921875,-22.439001083374023,-8.187000274658203,-11.934000968933105
1787816924170783200,9.703783203125,-23.701000213623047,-8.934000015258789,-11.837000846862793
1787816924186908700,9.71990869140625,-24.755001068115234,-7.522000312805176,-10.601000785827637
1787816924203013400,9.736013427734376,-23.382001876831055,-7.962000370025635,-11.218000411987305
1787816924219144200,9.752144287109376,-25.360000610351562,-8.475000381469727,-9.794000625610352
1787816924235135200,9.76813525390625,-25.20100212097168,-6.778000354766846,-11.10300064086914
1787816924251197700,9.78419775390625,-25.792001724243164,-7.61400032043457,-9.582000732421875
1787816924267327000,9.800326904296876,-24.524002075195312,-7.512000560760498,-9.78600025177002
1787816924283436500,9.8164365234375,-24.641000747680664,-6.2220001220703125,-9.469000816345215
1787816924299574000,9.832573974609375,-26.738000869750977,-7.175000190734863,-8.86400032043457
1787816924315565800,9.84856591796875,-26.308000564575195,-7.712000370025635,-8.971000671386719
1787816924331585300,9.864585205078125,-26.18800163269043,-7.056000232696533,-7.947000503540039
1787816924347720700,9.880720703125,-25.75800132751465,-6.621000289916992,-7.434000492095947
1787816924363786800,9.896786865234375,-24.69900131225586,-6.624000549316406,-7.5370001792907715
1787816924379876600,9.912876708984374,-25.308000564575195,-7.147000312805176,-6.624000549316406
1787816924395874300,9.928874267578125,-23.07000160217285,-7.902000427246094,-6.7360005378723145
1787816924411899000,9.94489892578125,-25.196001052856445,-6.603000164031982,-6.008000373840332
1787816924427993300,9.960993408203125,-24.630001068115234,-7.014000415802002,-4.688000202178955
1787816924444073000,9.977072998046875,-27.49300193786621,-7.116000175476074,-4.584000110626221
1787816924460171000,9.9931708984375,-26.48200035095215,-7.949000358581543,-2.6570000648498535
1787816924476149200,10.009149169921875,-24.610000610351562,-6.7860002517700195,-3.6680002212524414
1787816924492183800,10.025183837890625,-26.530000686645508,-5.492000102996826,-3.246000051498413
1787816924508287500,10.04128759765625,-25.65300178527832,-5.4770002365112305,-2.0250000953674316
1787816924524379600,10.057379638671875,-25.650001525878906,-5.691000461578369,-2.0270001888275146
1787816924540492800,10.073492919921875,-25.742000579833984,-6.76300048828125,-2.0360000133514404
1787816924556515300,10.089515380859375,-25.661001205444336,-6.562000274658203,-3.0530002117156982
1787816924572517400,10.105517333984375,-25.115001678466797,-6.6620001792907715,-2.444000005722046
1787816924588632600,10.121632568359376,-26.090002059936523,-5.9160003662109375,-2.8430001735687256
1787816924604733200,10.137733154296875,-26.534000396728516,-5.062000274658203,-3.1410000324249268
1787816924620821500,10.153821533203125,-27.126001358032227,-6.330000400543213,-1.9290001392364502
1787816924636797700,10.169797607421875,-25.6510009765625,-6.772000312805176,-2.750000238418579
1787816924652855000,10.18585498046875,-26.274002075195312,-6.65500020980835,-2.0350000858306885
1787816924669004800,10.2020048828125,-25.389001846313477,-6.958000183105469,-0.612000048160553
1787816924685069300,10.2180693359375,-25.435001373291016,-3.9600002765655518,-0.7900000214576721
1787816924701194200,10.2341943359375,-26.784000396728516,-5.560000419616699,-0.39400002360343933
1787816924717188600,10.250188720703125,-25.30000114440918,-5.997000217437744,-0.8080000281333923
1787816924733197800,10.26619775390625,-24.009000778198242,-5.124000072479248,0.5220000147819519
1787816924749345800,10.282345703125,-24.893001556396484,-4.711000442504883,-0.7970000505447388
1787816924765413400,10.298413330078125,-23.273000717163086,-4.589000225067139,0.5250000357627869
1787816924781546800,10.314546630859375,-25.793001174926758,-3.4870002269744873,2.4740002155303955
1787816924797535500,10.330535400390625,-27.073001861572266,-3.5960001945495605,2.1690001487731934
1787816924813555200,10.34655517578125,-24.399002075195312,-3.1570000648498535,3.2900002002716064
1787816924829656000,10.362656005859375,-25.66200065612793,-3.4720001220703125,3.5940001010894775
1787816924845680600,10.3786806640625,-25.238000869750977,-2.933000087738037,3.9040002822875977
1787816924861771500,10.394771484375,-26.492000579833984,-2.05400013923645,5.340000152587891
1787816924877779200,10.410779296875,-25.637001037597656,-3.457000255584717,4.715000152587891
1787816924893749500,10.42674951171875,-25.939001083374023,-3.3380000591278076,5.531000137329102
1787816924909854000,10.44285400390625,-26.998001098632812,-3.2270002365112305,5.737000465393066
1787816924925883600,10.458883544921875,-24.32900047302246,-3.763000249862671,6.035000324249268
1787816924941987000,10.474987060546875,-25.071001052856445,-3.5450000762939453,6.242000102996826
1787816924957970400,10.490970458984375,-26.535001754760742,-2.556000232696533,7.88200044631958
1787816924973969400,10.506969482421875,-24.518001556396484,-2.6680002212524414,7.777000427246094
1787816924990099700,10.523099609375,-24.381000518798828,-4.054000377655029,8.273000717163086
1787816925006147300,10.539147216796875,-23.190000534057617,-2.63700008392334,10.220000267028809
1787816925022265600,10.555265625,-26.27800178527832,-2.9620001316070557,9.610000610351562
1787816925038244900,10.571244873046876,-24.573001861572266,-2.0960001945495605,10.430000305175781
1787816925054244600,10.58724462890625,-24.350000381469727,-3.1710002422332764,10.217000961303711
1787816925070378000,10.6033779296875,-24.64200210571289,-2.614000082015991,11.750000953674316
1787816925086431200,10.61943115234375,-21.845001220703125,-3.4610002040863037,12.860000610351562
1787816925102547200,10.635547119140625,-23.10500144958496,-3.450000047683716,13.472001075744629
1787816925118539300,10.651539306640625,-23.369001388549805,-4.605000019073486,15.194001197814941
1787816925134545000,10.667544921875,-22.209001541137695,-4.396000385284424,14.99100112915039
1787816925150691300,10.68369140625,-23.96700096130371,-4.4730000495910645,17.030000686645508
1787816925166754300,10.69975439453125,-22.58500099182129,-4.798000335693359,16.92300033569336
1787816925182884900,10.715884765625,-21.530000686645508,-4.588000297546387,16.720001220703125
1787816925198896400,10.731896484375,-19.8070011138916,-4.360000133514404,17.942001342773438
1787816925214914300,10.747914306640626,-21.804000854492188,-4.560000419616699,18.75800132751465
1787816925231071000,10.764071044921875,-20.70800018310547,-6.487000465393066,19.045000076293945
1787816925247087900,10.780087890625,-20.530000686645508,-7.740000247955322,21.479000091552734
1787816925263221200,10.79622119140625,-19.299001693725586,-5.931000232696533,20.678001403808594
1787816925279234000,10.812234130859375,-20.448001861572266,-8.295000076293945,20.04800033569336
1787816925295203800,10.828203857421874,-18.60500144958496,-6.11400032043457,23.121000289916992
1787816925311311000,10.84431103515625,-16.81300163269043,-7.637000560760498,21.577001571655273
1787816925327332900,10.860332763671876,-17.119001388549805,-9.034000396728516,21.259000778198242
1787816925343422000,10.876421875,-17.486000061035156,-8.242000579833984,24.323001861572266
1787816925359441400,10.89244140625,-16.099000930786133,-7.9160003662109375,24.8330020904541
1787816925375420000,10.908419921875,-16.61400032043457,-10.391000747680664,23.99700164794922
1787816925391540500,10.92454052734375,-15.985000610351562,-9.315999984741211,24.31100082397461
1787816925407574000,10.940573974609375,-13.586000442504883,-11.22700023651123,25.921001434326172
1787816925423673600,10.956673583984376,-16.461999893188477,-10.904000282287598,25.724000930786133
1787816925439649300,10.972649169921874,-15.483000755310059,-12.080000877380371,26.018001556396484
1787816925455638300,10.98863818359375,-13.683000564575195,-11.870000839233398,25.916000366210938
1787816925471750400,11.00475048828125,-14.326000213623047,-11.008000373840332,26.23000144958496
1787816925487790000,11.0207900390625,-11.574000358581543,-10.045000076293945,26.43800163269043
1787816925503901400,11.0369013671875,-13.875000953674316,-11.858000755310059,26.8330020904541
1787816925519876900,11.052876953125,-11.314000129699707,-10.665000915527344,28.16400146484375
1787816925535872000,11.0688720703125,-9.47700023651123,-12.486001014709473,28.452001571655273
1787816925551995000,11.084994873046876,-8.62700080871582,-12.703001022338867,28.347002029418945
1787816925568048600,11.101048583984374,-7.680000305175781,-12.386000633239746,28.145000457763672
1787816925584168200,11.117168212890626,-9.347000122070312,-12.688000679016113,29.36600112915039
1787816925600161800,11.133161865234374,-7.853000164031982,-14.090001106262207,28.843002319335938
1787816925616176400,11.14917626953125,-5.185000419616699,-14.195000648498535,29.34800148010254
1787816925632315000,11.16531494140625,-5.630000114440918,-13.774001121520996,28.74100112915039
1787816925648380200,11.181380126953124,-4.644000053405762,-14.946001052856445,29.341001510620117
1787816925664513000,11.197512939453125,-5.0920000076293945,-14.095000267028809,28.839000701904297
1787816925680508700,11.2135087890625,-4.763000011444092,-14.845000267028809,28.832000732421875
1787816925696546300,11.22954638671875,-2.19100022315979,-15.052000999450684,29.744001388549805
1787816925712647400,11.2456474609375,-2.1000001430511475,-15.817000389099121,28.617000579833984
1787816925728663300,11.261663330078125,-0.6000000238418579,-15.81100082397461,29.226001739501953
1787816925744798700,11.277798828125,-3.0190000534057617,-15.469000816345215,30.454002380371094
1787816925760803300,11.29380322265625,-2.1740000247955322,-16.66200065612793,29.5260009765625
1787816925776776000,11.30977587890625,1.6410000324249268,-15.484001159667969,29.939001083374023
1787816925792890400,11.325890380859375,0.6450000405311584,-15.398000717163086,28.209001541137695
1787816925808924700,11.341924560546875,0.8980000615119934,-16.022001266479492,29.630001068115234
1787816925825025800,11.35802587890625,2.7180001735687256,-17.421001434326172,29.411001205444336
1787816925841055500,11.374055419921875,3.371000051498413,-18.06100082397461,29.71000099182129
1787816925857041200,11.390041259765624,3.122000217437744,-16.57000160217285,29.011001586914062
1787816925873167600,11.406167724609375,5.706000328063965,-17.849000930786133,29.81100082397461
1787816925889208600,11.42220849609375,5.659000396728516,-17.121000289916992,28.18800163269043
1787816925905318100,11.438318115234376,5.479000091552734,-17.641000747680664,29.304000854492188
1787816925921302000,11.454302001953126,7.898000240325928,-16.795000076293945,28.799001693725586
1787816925937296000,11.4702958984375,6.422000408172607,-17.542001724243164,28.79400062561035
1787816925953430300,11.48643017578125,8.42199993133545,-17.772001266479492,27.873001098632812
1787816925969479700,11.502479736328125,9.85200023651123,-17.744001388549805,30.112001419067383
1787816925985595400,11.518595458984375,9.738000869750977,-18.505001068115234,29.29100227355957
1787816926001590800,11.5345908203125,10.032000541687012,-17.87200164794922,28.5830020904541
1787816926017591800,11.550591796875,12.797000885009766,-18.955001831054688,28.06100082397461
1787816926033730600,11.56673046875,10.861000061035156,-19.183000564575195,26.839000701904297
1787816926049791700,11.582791748046875,13.4010009765625,-18.220001220703125,27.04800033569336
1787816926065920800,11.598920654296874,12.148000717163086,-19.286001205444336,27.345001220703125
1787816926081932300,11.614932373046875,14.778000831604004,-20.27800178527832,25.602001190185547
1787816926097943300,11.630943359375,14.27500057220459,-20.367000579833984,26.82400131225586
1787816926114094600,11.647094482421876,15.557001113891602,-20.905000686645508,26.817001342773438
1787816926130155300,11.6631552734375,15.938000679016113,-19.852001190185547,25.50200080871582
1787816926146289400,11.679289306640625,15.097001075744629,-19.845001220703125,25.911001205444336
1787816926162304000,11.695303955078124,17.62200164794922,-20.6200008392334,24.373001098632812
1787816926178329300,11.711329345703126,16.648000717163086,-19.117000579833984,24.48900032043457
1787816926194491400,11.727491455078125,17.391000747680664,-21.06300163269043,23.248001098632812
1787816926210511400,11.743511474609376,18.214000701904297,-20.648000717163086,22.334001541137695
1787816926226598100,11.75959814453125,19.179000854492188,-20.21200180053711,23.05000114440918
1787816926242616300,11.7756162109375,19.296001434326172,-21.286001205444336,22.83700180053711
1787816926258589400,11.79158935546875,19.501001358032227,-21.615001678466797,22.32400131225586
1787816926274699000,11.807698974609375,18.7450008392334,-20.97300148010254,22.12700080871582
1787816926290730000,11.82372998046875,20.948001861572266,-22.1820011138916,20.178001403808594
1787816926306822400,11.839822509765625,19.604000091552734,-21.509000778198242,22.22300148010254
1787816926322799900,11.8557998046875,20.76500129699707,-23.137001037597656,20.88300132751465
1787816926338780700,11.87178076171875,20.10900115966797,-21.634000778198242,20.999000549316406
1787816926354905300,11.8879052734375,20.74100112915039,-21.09800148010254,21.10500144958496
1787816926370945500,11.903945556640625,21.56800079345703,-22.73400115966797,19.052000045776367
1787816926387049500,11.920049560546875,20.302000045776367,-22.511001586914062,19.565000534057617
1787816926403069200,11.936069091796876,21.26300048828125,-24.238000869750977,18.733001708984375
1787816926419052300,11.95205224609375,22.009000778198242,-23.26500129699707,19.45400047302246
1787816926435181800,11.968181884765626,21.10700035095215,-22.97100067138672,17.319000244140625
1787816926451222000,11.984221923828125,20.913000106811523,-23.284000396728516,17.927000045776367
1787816926467333400,12.00033349609375,21.115001678466797,-22.858001708984375,17.727001190185547
1787816926483301400,12.01630126953125,20.272001266479492,-23.501001358032227,17.621000289916992
1787816926499297000,12.032297119140624,21.475000381469727,-22.725000381469727,19.663000106811523
1787816926515434200,12.048434326171876,22.832000732421875,-25.011001586914062,17.196001052856445
1787816926531480000,12.06447998046875,21.6510009765625,-22.42300033569336,18.240001678466797
1787816926547604200,12.080604248046875,22.16900062561035,-23.94500160217285,16.69700050354004
1787816926563609300,12.096609375,21.32900047302246,-25.45100212097168,16.176000595092773
1787816926579615000,12.112614990234375,21.336000442504883,-24.799001693725586,16.895000457763672
1787816926595759900,12.128759765625,22.687000274658203,-22.98200035095215,16.704999923706055
1787816926611769600,12.14476953125,23.029001235961914,-25.56100082397461,16.17300033569336
1787816926627848400,12.160848388671875,20.027000427246094,-24.601001739501953,15.472001075744629
1787816926643856400,12.1768564453125,21.817001342773438,-24.181001663208008,15.066000938415527
1787816926659870000,12.192869873046876,20.7760009765625,-25.788002014160156,14.951001167297363
1787816926675975200,12.20897509765625,21.597000122070312,-24.402000427246094,14.555000305175781
1787816926691993600,12.22499365234375,21.52400016784668,-24.381000518798828,16.08300018310547
1787816926708085500,12.24108544921875,21.84400177001953,-24.922000885009766,15.772000312805176
1787816926724103000,12.25710302734375,21.916000366210938,-23.970001220703125,14.86400032043457
1787816926740085800,12.273085693359375,21.586000442504883,-23.976001739501953,14.355000495910645
1787816926756199200,12.28919921875,21.084001541137695,-25.25400161743164,14.85400104522705
1787816926772238800,12.30523876953125,22.06100082397461,-25.783000946044922,15.459000587463379
1787816926788341200,12.32134130859375,22.148000717163086,-24.39000129699707,15.471000671386719
1787816926804317200,12.337317138671875,21.285001754760742,-25.046001434326172,14.44800090789795
1787816926820310300,12.353310302734375,22.056001663208008,-25.895000457763672,15.152000427246094
1787816926836439000,12.36943896484375,21.325000762939453,-25.670001983642578,15.868000984191895
1787816926852486400,12.385486328125,21.216001510620117,-26.104001998901367,15.457000732421875
1787816926868600000,12.40160009765625,20.444000244140625,-25.147001266479492,14.754000663757324
1787816926884599600,12.417599609375,21.181001663208008,-26.01700210571289,13.930000305175781
1787816926900600800,12.433600830078126,20.74300193786621,-24.619001388549805,14.248001098632812
1787816926916740000,12.449739990234375,22.772001266479492,-25.588001251220703,14.135000228881836
1787816926932817200,12.465817138671875,20.549001693725586,-26.44500160217285,13.927000999450684
1787816926948892200,12.48189208984375,18.950000762939453,-24.825000762939453,14.656001091003418
1787816926964894700,12.497894775390625,20.76300048828125,-26.661001205444336,13.82300090789795
1787816926980902100,12.513902099609375,19.72300148010254,-26.43000030517578,14.947000503540039
1787816926997051000,12.53005078125,18.326000213623047,-26.761001586914062,14.029000282287598
1787816927013112300,12.5461123046875,19.312000274658203,-28.798002243041992,14.112000465393066
1787816927029241300,12.562241455078125,20.435001373291016,-25.69300079345703,14.03600025177002
1787816927045238800,12.57823876953125,18.442001342773438,-27.6200008392334,13.919000625610352
1787816927061251300,12.594251220703125,17.940000534057617,-27.386001586914062,15.348000526428223
1787816927077404700,12.61040478515625,17.821001052856445,-27.285001754760742,14.840001106262207
1787816927093424600,12.626424560546875,18.25800132751465,-27.4950008392334,15.245000839233398
1787816927109557000,12.642556884765625,17.369001388549805,-25.14000129699707,14.961000442504883
1787816927125559000,12.65855908203125,16.549001693725586,-26.309001922607422,15.563000679016113
1787816927141532200,12.6745322265625,19.21000099182129,-27.282001495361328,15.246000289916992
1787816927157601500,12.6906015625,17.095001220703125,-28.246002197265625,15.03600025177002
1787816927173631500,12.706631591796874,18.644001007080078,-26.546001434326172,14.132000923156738
1787816927189728500,12.722728515625,18.871000289916992,-26.43000030517578,14.846000671386719
1787816927205707300,12.738707275390626,15.62600040435791,-28.01700210571289,15.957000732421875
1787816927221684500,12.7546845703125,17.110000610351562,-28.45400047302246,15.543001174926758
1787816927237801000,12.770801025390625,16.874000549316406,-26.95400047302246,15.455000877380371
1787816927253841000,12.7868408203125,16.54400062561035,-27.718000411987305,14.430000305175781
1787816927269942500,12.802942626953126,18.916000366210938,-27.69900131225586,16.0570011138916
1787816927285959000,12.818958984375,15.072000503540039,-27.166000366210938,15.456000328063965
1787816927302001200,12.835001220703125,15.60300064086914,-27.167001724243164,15.455000877380371
1787816927318106000,12.851106201171875,18.01500129699707,-25.784000396728516,14.955000877380371
1787816927334200800,12.867200927734375,17.33300018310547,-28.231000900268555,16.1560001373291
1787816927350315500,12.8833154296875,16.9950008392334,-26.838001251220703,16.16900062561035
1787816927366290700,12.899290771484376,15.953001022338867,-26.9320011138916,16.985000610351562
1787816927382282800,12.91528271484375,18.295000076293945,-26.60700035095215,17.494001388549805
1787816927398405400,12.9314052734375,16.498001098632812,-27.78900146484375,17.078001022338867
1787816927414457000,12.94745703125,15.65000057220459,-27.246002197265625,17.49100112915039
1787816927430570200,12.9635703125,16.25800132751465,-25.968000411987305,16.993000030517578
1787816927446548200,12.97954833984375,17.685001373291016,-26.91400146484375,18.511001586914062
1787816927462601500,12.9956015625,16.8439998626709,-26.476001739501953,19.12700080871582
1787816927478722000,13.01172216796875,17.7760009765625,-26.2760009765625,18.21000099182129
1787816927494836500,13.02783642578125,15.988000869750977,-27.019001007080078,18.512001037597656
1787816927510970400,13.043970458984376,16.73900032043457,-25.610000610351562,19.746000289916992
1787816927526980400,13.05998046875,17.987001419067383,-25.84400177001953,18.418001174926758
1787816927542996200,13.075996337890626,19.814001083374023,-26.591001510620117,18.918001174926758
1787816927559081500,13.09208154296875,17.33300018310547,-25.637001037597656,17.80900001525879
1787816927575100700,13.1081005859375,20.203001022338867,-24.559001922607422,18.630001068115234
1787816927591232500,13.124232421875,21.613000869750977,-26.48900032043457,18.713001251220703
1787816927607219700,13.1402197265625,19.330001831054688,-25.761001586914062,16.78700065612793
1787816927623240000,13.156239990234376,20.726001739501953,-26.078001022338867,17.292001724243164
1787816927639332900,13.172332763671875,20.106000900268555,-27.796001434326172,16.972000122070312
1787816927655404800,13.18840478515625,18.82000160217285,-27.801000595092773,16.464000701904297
1787816927671499000,13.2044990234375,18.513999938964844,-28.009000778198242,16.8700008392334
1787816927687504600,13.220504638671875,19.968000411987305,-27.815000534057617,15.546000480651855
1787816927703534300,13.236534423828125,18.56300163269043,-27.71900177001953,14.529000282287598
1787816927719644700,13.252644775390625,20.34200096130371,-26.009000778198242,14.440000534057617
1787816927735727600,13.2687275390625,20.875001907348633,-27.95400047302246,13.302000999450684
1787816927751824600,13.28482470703125,19.291000366210938,-28.59400177001953,13.29800033569336
1787816927767838000,13.300837890625,18.32200050354004,-27.953001022338867,13.10200023651123
1787816927783875000,13.316875,20.678001403808594,-29.35000228881836,13.086000442504883
1787816927799981600,13.332981689453124,18.791000366210938,-29.007001876831055,14.416000366210938
1787816927816077000,13.3490771484375,19.909000396728516,-28.823001861572266,12.277000427246094
1787816927832189400,13.365189453125,19.51300048828125,-28.91400146484375,13.499000549316406
1787816927848209700,13.381209716796874,19.477001190185547,-29.1510009765625,11.765000343322754
1787816927864257500,13.397257568359375,18.53900146484375,-29.24700164794922,12.47900104522705
1787816927880372700,13.413372802734376,20.014001846313477,-28.9320011138916,12.17400074005127
1787816927896472000,13.42947216796875,20.03700065612793,-28.918001174926758,13.193000793457031
1787816927912596200,13.44559619140625,19.394001007080078,-29.029001235961914,12.887001037597656
1787816927928573700,13.46157373046875,19.735000610351562,-28.80000114440918,14.009000778198242
1787816927944630800,13.477630859375,18.166000366210938,-28.351001739501953,15.339000701904297
1787816927960746500,13.49374658203125,15.829000473022461,-28.996002197265625,14.929000854492188
1787816927976847000,13.50984716796875,18.801000595092773,-28.2450008392334,15.339000701904297
1787816927992973600,13.5259736328125,18.79800033569336,-27.382001876831055,15.755001068115234
1787816928008964000,13.541964111328125,16.48200035095215,-28.663002014160156,15.848000526428223
1787816928025024300,13.558024169921875,17.871000289916992,-27.795001983642578,16.770999908447266
1787816928041153500,13.574153564453125,17.047000885009766,-27.779001235961914,17.892000198364258
1787816928057266400,13.590266357421875,15.476000785827637,-27.871002197265625,18.810001373291016
1787816928073397800,13.606397705078125,18.237001419067383,-26.90300178527832,19.427000045776367
1787816928089395200,13.622395263671875,15.93600082397461,-26.66200065612793,21.163000106811523
1787816928105464000,13.638464111328124,14.898000717163086,-25.889001846313477,22.700000762939453
1787816928121605400,13.65460546875,16.082000732421875,-25.233001708984375,23.82400131225586
1787816928137681200,13.67068115234375,15.020000457763672,-26.20400047302246,23.20600128173828
1787816928153774000,13.686774169921875,14.785000801086426,-26.433000564575195,22.084001541137695
1787816928169790200,13.702790283203125,12.190000534057617,-25.420001983642578,25.356000900268555
1787816928185814800,13.718814697265625,15.692000389099121,-25.427001953125,25.249000549316406
1787816928201909200,13.7349091796875,13.456000328063965,-24.671001434326172,25.463001251220703
1787816928217982700,13.750982666015625,12.28700065612793,-23.80500030517578,25.981000900268555
1787816928234085600,13.767085693359375,11.255000114440918,-24.974000930786133,26.5830020904541
1787816928250093600,13.783093505859375,11.15000057220459,-24.21700096130371,27.099000930786133
1787816928266128000,13.7991279296875,10.726000785827637,-23.783000946044922,27.409000396728516
1787816928282227500,13.8152275390625,11.129000663757324,-23.040000915527344,26.906002044677734
1787816928298312200,13.831312255859375,10.070000648498535,-22.713001251220703,27.216001510620117
1787816928314420200,13.847420166015626,11.343000411987305,-21.851001739501953,27.731000900268555
1787816928330437000,13.86343701171875,9.348000526428223,-22.158000946044922,28.546001434326172
1787816928346477800,13.879477783203125,9.688000679016113,-22.68600082397461,29.152002334594727
1787816928362588700,13.895588623046875,11.051000595092773,-20.75400161743164,29.575000762939453
1787816928378678300,13.91167822265625,10.62700080871582,-20.861000061035156,29.575000762939453
1787816928394793000,13.92779296875,11.249000549316406,-20.547000885009766,29.067001342773438
1787816928410772200,13.943772216796875,11.781000137329102,-19.142000198364258,29.996002197265625
1787816928426828500,13.95982861328125,11.797000885009766,-19.67300033569336,30.398000717163086
1787816928442953500,13.975953369140624,13.422000885009766,-21.49300193786621,30.68600082397461
1787816928459059500,13.9920595703125,15.50100040435791,-20.118000030517578,29.575000762939453
1787816928475188500,14.0081884765625,12.671000480651855,-19.983001708984375,31.31100082397461
1787816928491180800,14.024180908203125,15.222001075744629,-21.283000946044922,30.584001541137695
1787816928507247400,14.040247314453126,11.148000717163086,-20.111000061035156,29.580001831054688
1787816928523380700,14.056380615234374,11.019000053405762,-20.125001907348633,28.562002182006836
1787816928539448800,14.07244873046875,12.033000946044922,-20.415000915527344,31.003002166748047
1787816928555544300,14.08854443359375,13.487000465393066,-19.681001663208008,29.989002227783203
1787816928571554800,14.104554931640624,13.007000923156738,-20.73000144958496,31.610000610351562
1787816928587533000,14.120532958984375,10.958000183105469,-20.097000122070312,30.60000228881836
1787816928603644000,14.136643798828125,10.92400074005127,-19.253000259399414,29.588001251220703
1787816928619676400,14.152676513671874,11.493000984191895,-20.20400047302246,30.700000762939453
1787816928635778000,14.168778076171876,11.168000221252441,-19.235000610351562,31.014001846313477
1787816928651783400,14.184783447265625,9.393000602722168,-20.618000030517578,31.514001846313477
1787816928667816000,14.20081591796875,11.355000495910645,-19.25,29.893001556396484
1787816928683916000,14.216916015625,7.6660003662109375,-17.931001663208008,31.947002410888672
1787816928699994600,14.23299462890625,7.979000568389893,-18.367000579833984,31.434001922607422
1787816928716094200,14.24909423828125,6.075000286102295,-19.332000732421875,31.12200164794922
1787816928732102400,14.265102294921874,6.583000183105469,-19.347000122070312,30.102001190185547
1787816928748147000,14.28114697265625,6.4150004386901855,-21.26500129699707,30.9010009765625
1787816928764257300,14.29725732421875,4.573000431060791,-19.231000900268555,30.513002395629883
1787816928780354000,14.31335400390625,4.276000022888184,-19.974000930786133,31.01700210571289
1787816928796467500,14.329467529296876,1.1890000104904175,-20.082000732421875,30.612001419067383
1787816928812449000,14.345448974609376,0.5730000138282776,-20.608001708984375,31.21900177001953
1787816928828498000,14.361497802734375,-1.318000078201294,-20.37700080871582,32.24300003051758
1787816928844615200,14.377615234375,-1.974000096321106,-18.659000396728516,32.46200180053711
1787816928860713200,14.393713134765624,-1.6570000648498535,-20.498001098632812,31.22300148010254
1787816928876832000,14.40983203125,-4.0360002517700195,-17.602001190185547,31.150001525878906
1787816928892812500,14.4258125,-6.890000343322754,-18.022001266479492,31.455001831054688
1787816928908865500,14.441865478515625,-7.8460001945495605,-16.183000564575195,32.59300231933594
1787816928924987600,14.457987548828125,-8.396000862121582,-15.438000679016113,32.19300079345703
1787816928941095700,14.474095703125,-8.72800064086914,-15.985000610351562,31.272001266479492
1787816928957223700,14.4902236328125,-10.767000198364258,-14.699000358581543,31.082000732421875
1787816928973222700,14.50622265625,-9.381999969482422,-13.725000381469727,31.904001235961914
1787816928989240300,14.522240234375,-10.587000846862793,-14.178000450134277,29.966001510620117
1787816929005380900,14.538380859375,-12.69800090789795,-13.951000213623047,30.684001922607422
1787816929021456100,14.5544560546875,-13.801000595092773,-13.974000930786133,28.851001739501953
1787816929037594400,14.570594482421875,-14.338000297546387,-13.004000663757324,29.16600227355957
1787816929053590800,14.5865908203125,-14.346000671386719,-13.225000381469727,28.655000686645508
1787816929069660400,14.602660400390626,-15.713000297546387,-14.512001037597656,28.442001342773438
1787816929085822700,14.61882275390625,-14.112000465393066,-12.996000289916992,29.777002334594727
1787816929101846500,14.634846435546875,-16.368000030517578,-12.792000770568848,28.76300048828125
1787816929117937400,14.6509375,-15.484001159667969,-13.962000846862793,29.567001342773438
1787816929133962000,14.6669619140625,-17.130001068115234,-13.019001007080078,27.744001388549805
1787816929149946600,14.682946533203125,-17.4320011138916,-12.90000057220459,28.560001373291016
1787816929174059000,14.70705908203125,-17.88300132751465,-12.051000595092773,27.957000732421875
1787816929189907500,14.722907470703126,-16.170000076293945,-13.018000602722168,27.946001052856445
1787816929205931300,14.73893115234375,-16.18400001525879,-12.053000450134277,27.955001831054688
1787816929221947100,14.754947021484375,-19.077001571655273,-12.281000137329102,26.632001876831055
1787816929238327000,14.7713271484375,-18.32400131225586,-12.168000221252441,27.141000747680664
1787816929254158000,14.787157958984375,-18.740001678466797,-11.946000099182129,27.65300178527832
1787816929270315300,14.803315185546875,-20.88300132751465,-12.062000274658203,26.738000869750977
1787816929286287400,14.819287353515625,-18.249000549316406,-10.890000343322754,26.541000366210938
1787816929302249700,14.835249755859374,-19.5260009765625,-10.890000343322754,26.441001892089844
1787816929318567700,14.851567626953125,-18.338001251220703,-10.664000511169434,27.46000099182129
1787816929334636300,14.86763623046875,-19.32900047302246,-10.25100040435791,26.141000747680664
1787816929350644700,14.883644775390625,-20.229000091552734,-11.621000289916992,27.76000213623047
1787816929366695400,14.8996953125,-19.79800033569336,-11.402000427246094,28.16900062561035
1787816929382756900,14.9157568359375,-17.4010009765625,-10.460000038146973,26.748001098632812
1787816929398888200,14.93188818359375,-21.517000198364258,-11.62700080871582,27.150001525878906
1787816929414795800,14.947795654296876,-18.095001220703125,-11.077000617980957,28.577001571655273
1787816929430729200,14.963729248046874,-20.44900131225586,-11.085000991821289,27.76500129699707
1787816929446892300,14.979892333984376,-19.867000579833984,-10.687000274658203,25.527000427246094
1787816929462939600,14.995939697265625,-20.46500015258789,-9.582000732421875,27.98200225830078
1787816929479278600,15.012278564453124,-19.82200050354004,-10.660000801086426,27.564001083374023
1787816929495300000,15.028300048828125,-18.322999954223633,-11.087000846862793,27.864002227783203
1787816929511265000,15.04426513671875,-19.619001388549805,-9.369000434875488,27.983001708984375
1787816929527353900,15.060353759765626,-19.171001434326172,-11.517000198364258,27.658000946044922
1787816929543377000,15.076376953125,-16.822999954223633,-11.081000328063965,28.47300148010254
1787816929559475000,15.092474853515625,-17.270000457763672,-9.797000885009766,28.282001495361328
1787816929575390000,15.108389892578124,-15.552000999450684,-10.329000473022461,28.78400230407715
1787816929591385000,15.124385009765625,-17.58100128173828,-10.332000732421875,28.277000427246094
1787816929607558100,15.14055810546875,-19.1460018157959,-9.880000114440918,29.81100082397461
1787816929623635200,15.15663525390625,-19.827001571655273,-8.50100040435791,28.70400047302246
1787816929639740400,15.172740478515625,-16.917001724243164,-10.101000785827637,29.60300064086914
1787816929655737600,15.188737548828126,-17.783000946044922,-9.245000839233398,29.408000946044922
1787816929671756500,15.204756591796874,-17.884000778198242,-10.106000900268555,29.095001220703125
1787816929687859000,15.22085888671875,-17.661001205444336,-10.748000144958496,29.190000534057617
1787816929703863000,15.236863037109375,-17.244001388549805,-10.213000297546387,29.19500160217285
1787816929720004900,15.2530048828125,-15.414000511169434,-11.822000503540039,29.280000686645508
1787816929735933000,15.268932861328125,-16.880001068115234,-11.808000564575195,30.19900131225586
1787816929752022000,15.28502197265625,-18.207000732421875,-10.973000526428223,28.374000549316406
1787816929768076800,15.301076904296876,-16.203001022338867,-10.984000205993652,27.76000213623047
1787816929783983000,15.316983154296874,-14.870000839233398,-12.248000144958496,29.58100128173828
1787816929800241700,15.33324169921875,-15.397000312805176,-12.028000831604004,29.889001846313477
1787816929816318700,15.349318603515625,-16.25200080871582,-13.327000617980957,28.860000610351562
1787816929832204500,15.36520458984375,-16.04800033569336,-13.008000373840332,28.65900230407715
1787816929848401200,15.381401123046874,-17.086999893188477,-12.5600004196167,29.989002227783203
1787816929864443600,15.397443603515624,-14.620000839233398,-12.982000350952148,30.797000885009766
1787816929880584400,15.41358447265625,-15.308000564575195,-11.82300090789795,29.280000686645508
1787816929896675600,15.429675537109375,-15.863000869750977,-11.51200008392334,28.36600112915039
1787816929912691000,15.44569091796875,-15.201001167297363,-11.498000144958496,29.48600196838379
1787816929928779000,15.461779052734375,-16.152000427246094,-11.710000991821289,29.58700180053711
1787816929944629800,15.477629638671875,-14.117000579833984,-12.135000228881836,30.090002059936523
1787816929960884000,15.493884033203125,-16.16900062561035,-10.964000701904297,29.288002014160156
1787816929976933000,15.50993310546875,-16.58500099182129,-12.579000473022461,28.66400146484375
1787816930001006300,15.53400634765625,-17.179000854492188,-12.87600040435791,30.393001556396484
1787816930017023700,15.550023681640624,-15.487000465393066,-13.207000732421875,29.87900161743164
1787816930033003500,15.56600341796875,-15.296000480651855,-11.491000175476074,29.996002197265625
1787816930049124900,15.582124755859375,-15.406001091003418,-12.034000396728516,29.48200225830078
1787816930065161000,15.598160888671876,-16.106000900268555,-13.520000457763672,30.488000869750977
1787816930081270000,15.61427001953125,-15.795001029968262,-13.848000526428223,29.976001739501953
1787816930097252900,15.6302529296875,-17.231000900268555,-12.908000946044922,28.05000114440918
1787816930113241000,15.646240966796874,-14.743000984191895,-13.316000938415527,29.87700080871582
1787816930129379300,15.66237939453125,-15.28600025177002,-13.430000305175781,29.266000747680664
1787816930145426400,15.678426513671875,-16.99100112915039,-12.459000587463379,29.582000732421875
1787816930161542000,15.6945419921875,-16.051000595092773,-12.794000625610352,28.661001205444336
1787816930177521000,15.71052099609375,-16.02400016784668,-13.642000198364258,29.367000579833984
1787816930193523700,15.726523681640625,-16.332000732421875,-12.879000663757324,30.290000915527344
1787816930209656300,15.74265625,-16.235000610351562,-12.885000228881836,29.88300132751465
1787816930225703000,15.758702880859374,-15.314001083374023,-12.042000770568848,28.8700008392334
1787816930241819600,15.774819580078125,-16.468000411987305,-12.248000144958496,29.37900161743164
1787816930257796600,15.790796630859376,-18.04400062561035,-12.12700080871582,30.19700050354004
1787816930273852400,15.806852294921875,-17.726001739501953,-11.588000297546387,30.507001876831055
1787816930289965000,15.822965087890625,-19.576000213623047,-10.964000701904297,28.88500213623047
1787816930306058800,15.839058837890626,-19.23900032043457,-11.818000793457031,29.183000564575195
1787816930322178000,15.855177978515625,-18.301000595092773,-11.830000877380371,28.367000579833984
1787816930338163200,15.8711630859375,-17.328001022338867,-11.929000854492188,29.078001022338867
1787816930354230800,15.887230712890625,-20.345001220703125,-10.76200008392334,27.869001388549805
1787816930370358500,15.903358642578125,-20.22100067138672,-10.860000610351562,28.58100128173828
1787816930386470400,15.919470458984375,-18.972000122070312,-11.52500057220459,27.046001434326172
1787816930402608000,15.935608154296874,-20.85700035095215,-11.61400032043457,28.168001174926758
1787816930418602000,15.95160205078125,-20.02800178527832,-10.655000686645508,27.8700008392334
1787816930434671900,15.967671875,-20.897001266479492,-10.018000602722168,27.367000579833984
1787816930450759700,15.983759765625,-21.11400032043457,-10.669000625610352,26.751001358032227
1787816930466831600,15.99983154296875,-22.786001205444336,-11.51400089263916,27.4580020904541
1787816930482970400,16.015970458984373,-20.711000442504883,-11.11500072479248,25.524002075195312
1787816930498969000,16.031968994140627,-22.893001556396484,-11.407000541687012,27.46000099182129
1787816930514994700,16.04799462890625,-20.69300079345703,-11.104000091552734,26.339000701904297
1787816930531089700,16.064089599609375,-23.032001495361328,-9.697000503540039,27.067001342773438
1787816930547166200,16.080166259765626,-23.246000289916992,-9.914000511169434,26.862001419067383
1787816930563267300,16.096267333984375,-22.626001358032227,-8.844000816345215,26.769001007080078
1787816930579289900,16.112289794921875,-22.42500114440918,-9.824000358581543,25.639001846313477
1787816930595272700,16.128272705078125,-21.678001403808594,-10.256000518798828,25.533000946044922
1787816930611386400,16.144386474609377,-24.319000244140625,-9.270000457763672,26.76700210571289
1787816930627467000,16.160467041015625,-24.018001556396484,-7.336000442504883,27.191001892089844
1787816930643594200,16.17659423828125,-21.9950008392334,-9.38900089263916,26.152000427246094
1787816930659555300,16.192555419921874,-23.214000701904297,-8.922000885009766,28.908000946044922
1787816930675600100,16.20860009765625,-21.98000144958496,-8.516000747680664,27.382001876831055
1787816930691714600,16.224714599609374,-23.00400161743164,-8.27500057220459,29.21900177001953
1787816930707809300,16.240809326171874,-22.363000869750977,-9.246000289916992,28.802001953125
1787816930723920100,16.256920166015625,-20.375001907348633,-8.72700023651123,27.786001205444336
1787816930739897300,16.2728974609375,-21.08700180053711,-9.355000495910645,28.80000114440918
1787816930755945200,16.2889453125,-19.538000106811523,-11.373000144958496,30.308000564575195
1787816930772068900,16.30506884765625,-19.551000595092773,-11.922000885009766,29.386001586914062
1787816930788170200,16.321170166015627,-17.101001739501953,-11.056000709533691,30.308000564575195
1787816930804288300,16.337288330078124,-18.280000686645508,-12.034000396728516,29.180002212524414
1787816930820262700,16.3532626953125,-18.440000534057617,-14.379000663757324,30.07600212097168
1787816930836313000,16.36931298828125,-16.42300033569336,-13.842000961303711,30.384000778198242
1787816930852433400,16.385433349609375,-15.694001197814941,-13.096000671386719,30.18600082397461
1787816930868539600,16.40153955078125,-15.362000465393066,-14.06100082397461,30.177001953125
1787816930884663800,16.417663818359376,-16.84600067138672,-12.43600082397461,31.314001083374023
1787816930900649200,16.433649169921875,-15.453001022338867,-13.078001022338867,31.51000213623047
1787816930916712200,16.449712158203123,-15.338000297546387,-13.181000709533691,31.81500244140625
1787816930932844500,16.465844482421875,-14.576001167297363,-14.03600025177002,32.112003326416016
1787816930948905000,16.481905029296875,-15.227001190185547,-15.016000747680664,30.881000518798828
1787816930964987600,16.497987548828124,-13.907000541687012,-17.043001174926758,31.677001953125
1787816930980977000,16.513976806640624,-12.007000923156738,-17.702001571655273,30.75200080871582
1787816930996996600,16.52999658203125,-13.707000732421875,-17.268001556396484,30.961002349853516
1787816931013085200,16.546085205078125,-11.267000198364258,-17.488000869750977,30.753002166748047
1787816931029154300,16.562154296875,-13.819000244140625,-16.190000534057617,31.37900161743164
1787816931045248000,16.578248046875,-10.832000732421875,-18.02400016784668,30.849000930786133
1787816931061250300,16.594250244140625,-9.857000350952148,-17.14900016784668,32.28200149536133
1787816931077276400,16.6102763671875,-10.504000663757324,-18.23400115966797,31.15300178527832
1787816931093376800,16.626376708984374,-11.807000160217285,-17.926000595092773,30.036001205444336
1787816931109465000,16.642465087890624,-11.875000953674316,-18.875,31.149002075195312
1787816931125567000,16.65856689453125,-10.854000091552734,-17.60500144958496,30.14000129699707
1787816931141574700,16.67457470703125,-10.474000930786133,-20.918001174926758,30.823001861572266
1787816931157609700,16.690609619140623,-11.555000305175781,-19.3070011138916,30.941001892089844
1787816931173717200,16.70671728515625,-8.181000709533691,-19.759000778198242,29.608001708984375
1787816931189806800,16.722806884765625,-10.585000038146973,-22.650001525878906,29.48400115966797
1787816931205921300,16.73892138671875,-10.393000602722168,-21.690000534057617,29.18600082397461
1787816931221943600,16.754943603515624,-9.862000465393066,-22.231000900268555,28.875001907348633
1787816931237995800,16.770995849609374,-10.26300048828125,-23.08100128173828,29.378002166748047
1787816931254136800,16.78713671875,-11.11400032043457,-23.94500160217285,28.76000213623047
1787816931270236400,16.803236328125,-12.106000900268555,-21.804000854492188,28.47500228881836
1787816931286361000,16.819361083984376,-11.566000938415527,-21.367000579833984,29.191001892089844
1787816931302348500,16.8353486328125,-11.265000343322754,-20.405000686645508,28.9950008392334
1787816931318415400,16.851415283203124,-12.5260009765625,-19.5310001373291,30.125001907348633
1787816931334546400,16.86754638671875,-12.432000160217285,-18.674001693725586,30.132001876831055
1787816931350612200,16.8836123046875,-9.76400089263916,-20.615001678466797,29.501001358032227
1787816931366748400,16.89974853515625,-12.202000617980957,-20.069000244140625,30.018001556396484
1787816931382744800,16.915744873046876,-11.902000427246094,-19.216001510620117,29.720001220703125
1787816931398720000,16.931719970703124,-10.855000495910645,-18.68600082397461,29.417001724243164
1787816931414815500,16.9478154296875,-10.179000854492188,-19.852001190185547,30.42500114440918
1787816931430899000,16.96389892578125,-12.313000679016113,-21.04400062561035,29.19500160217285
1787816931446997500,16.97999755859375,-12.974000930786133,-19.977001190185547,28.797000885009766
1787816931462997000,16.9959970703125,-11.917000770568848,-18.793001174926758,29.316001892089844
1787816931479029200,17.012029296875,-12.006000518798828,-19.75400161743164,29.511001586914062
1787816931495131100,17.028131103515626,-11.430000305175781,-18.86400032043457,32.06500244140625
1787816931511218700,17.04421875,-9.961000442504883,-18.768001556396484,31.351001739501953
1787816931527315000,17.06031494140625,-8.153000831604004,-17.689001083374023,32.17300033569336
1787816931543319000,17.076319091796876,-7.294000148773193,-18.549001693725586,32.0629997253418
1787816931559346400,17.092346435546876,-7.740000247955322,-18.453001022338867,31.147001266479492
1787816931575447600,17.108447509765625,-5.377000331878662,-19.089000701904297,31.953001022338867
1787816931591482400,17.124482421875,-6.8610005378723145,-16.49100112915039,33.71000289916992
1787816931607583500,17.14058349609375,-5.1660003662109375,-18.334001541137695,32.367000579833984
1787816931623588000,17.156588134765624,-2.630000114440918,-17.913000106811523,32.0620002746582
1787816931639620000,17.1726201171875,-2.947000026702881,-17.911001205444336,32.16400146484375
1787816931655711700,17.188711669921876,-2.6040000915527344,-20.166000366210938,31.839000701904297
1787816931671812600,17.2048125,-1.1180000305175781,-20.926000595092773,31.321001052856445
1787816931687927800,17.220927734375,-1.1299999952316284,-20.393001556396484,31.12200164794922
1787816931703945700,17.23694580078125,-1.2450000047683716,-22.559001922607422,29.371002197265625
1787816931719994600,17.25299462890625,-1.1750000715255737,-20.96000099182129,28.774002075195312
1787816931736109300,17.269109375,-0.40700000524520874,-21.595001220703125,29.48000144958496
1787816931752209700,17.285209716796874,-0.6230000257492065,-21.81300163269043,29.173002243041992
1787816931768324400,17.301324462890626,0.562000036239624,-22.452001571655273,29.573001861572266
1787816931784346000,17.31734619140625,1.599000096321106,-21.172000885009766,29.27800178527832
1787816931800355000,17.33335498046875,0.76500004529953,-22.242000579833984,29.269001007080078
1787816931816492300,17.3494921875,-1.156000018119812,-21.48900032043457,29.27800178527832
1787816931832504300,17.36550439453125,-1.1490000486373901,-19.86400032043457,30.617000579833984
1787816931848639000,17.381638916015625,-2.1510000228881836,-19.134000778198242,28.9950008392334
1787816931864638200,17.39763818359375,-2.445000171661377,-19.767000198364258,29.703001022338867
1787816931880702200,17.4137021484375,-4.031000137329102,-18.78700065612793,30.630001068115234
1787816931896843300,17.42984326171875,-3.5210001468658447,-18.909000396728516,29.610000610351562
1787816931912911400,17.445911376953124,-3.625000238418579,-18.692001342773438,29.816001892089844
1787816931929051600,17.4620517578125,-5.463000297546387,-17.628000259399414,29.012001037597656
1787816931945041400,17.47804150390625,-5.4800004959106445,-17.09800148010254,28.610000610351562
1787816931961106400,17.4941064453125,-6.325000286102295,-17.418001174926758,28.608001708984375
1787816931977191400,17.51019140625,-5.889000415802002,-16.87200164794922,29.427001953125
1787816931993263600,17.526263671875,-2.697000026702881,-17.845001220703125,29.10900115966797
1787816932009355000,17.54235498046875,-3.7930002212524414,-17.216001510620117,27.9950008392334
1787816932025355500,17.55835546875,-6.332000255584717,-17.422000885009766,28.302001953125
1787816932041386200,17.57438623046875,-7.2950005531311035,-16.020000457763672,28.825000762939453
1787816932057507000,17.590507080078126,-8.891000747680664,-15.804000854492188,28.82900047302246
1787816932073584000,17.606584228515626,-8.967000007629395,-14.769001007080078,26.088001251220703
1787816932089684500,17.6226845703125,-8.023000717163086,-12.292000770568848,27.12700080871582
1787816932105698800,17.63869873046875,-10.038000106811523,-11.747000694274902,27.542001724243164
1787816932121741600,17.654741455078124,-9.825000762939453,-11.530000686645508,27.74700164794922
1787816932137852400,17.670852294921875,-11.419000625610352,-12.069000244140625,27.33700180053711
1787816932153952300,17.6869521484375,-10.226000785827637,-11.732000350952148,28.663002014160156
1787816932170061800,17.703061767578124,-9.111000061035156,-10.361000061035156,27.1460018157959
1787816932186033200,17.719033203125,-11.440000534057617,-10.35300064086914,27.45400047302246
1787816932202037500,17.73503759765625,-10.717000961303711,-10.366000175476074,26.536001205444336
1787816932218174500,17.751174560546875,-10.390000343322754,-9.497000694274902,27.46000099182129
1787816932234285800,17.767285888671875,-12.222000122070312,-10.051000595092773,25.93000030517578
1787816932250412000,17.783412109375,-12.868000984191895,-9.407000541687012,25.93600082397461
1787816932266388000,17.799387939453126,-13.18600082397461,-8.64900016784668,26.453001022338867
1787816932282451200,17.815451171875,-11.360000610351562,-9.612000465393066,26.748001098632812
1787816932298578400,17.831578369140626,-12.408000946044922,-8.845000267028809,27.876001358032227
1787816932314642700,17.847642578125,-11.808000564575195,-8.11299991607666,26.660001754760742
1787816932330776300,17.8637763671875,-12.415000915527344,-9.282000541687012,27.261001586914062
1787816932346773500,17.8797734375,-11.468000411987305,-8.208000183105469,27.575000762939453
1787816932362803000,17.895802978515626,-11.030000686645508,-10.146000862121582,26.946001052856445
1787816932378902500,17.911902587890626,-11.872000694274902,-9.059000015258789,27.976001739501953
1787816932394935300,17.927935302734376,-9.939000129699707,-9.59000015258789,28.580001831054688
1787816932411037200,17.944037109375,-9.96500015258789,-8.741000175476074,27.976001739501953
1787816932427047000,17.960046875,-9.304000854492188,-11.429000854492188,27.340002059936523
1787816932443075800,17.976075927734374,-10.891000747680664,-10.019000053405762,28.47500228881836
1787816932459198500,17.992198486328125,-11.172000885009766,-13.237000465393066,28.14200210571289
1787816932475284200,18.0082841796875,-8.413000106811523,-13.135000228881836,28.139001846313477
1787816932491391500,18.0243916015625,-10.35200023651123,-11.959000587463379,27.64200210571289
1787816932507405300,18.0404052734375,-8.54800033569336,-12.179000854492188,27.434001922607422
1787816932523450000,18.0564501953125,-10.31100082397461,-13.772000312805176,28.339000701904297
1787816932539565300,18.0725654296875,-9.890000343322754,-13.342000961303711,28.44500160217285
1787816932555659500,18.088659423828126,-7.8610005378723145,-14.85200023651123,28.0210018157959
1787816932571773700,18.104773681640626,-9.76200008392334,-13.762001037597656,29.154001235961914
1787816932587791400,18.120791259765625,-6.499000072479248,-14.649001121520996,27.308000564575195
1787816932603785000,18.136784912109373,-8.939000129699707,-14.319000244140625,27.6200008392334
1787816932619910400,18.152910400390624,-9.663000106811523,-15.387001037597656,27.815000534057617
1787816932636013300,18.169013427734374,-9.74000072479248,-15.47800064086914,29.03700065612793
1787816932652129300,18.18512939453125,-9.803000450134277,-14.4350004196167,26.907001495361328
1787816932668104000,18.20110400390625,-10.417000770568848,-15.284000396728516,27.409000396728516
1787816932684157000,18.217156982421876,-8.187000274658203,-13.77500057220459,28.33700180053711
1787816932700283100,18.233283203125,-8.730000495910645,-14.754000663757324,27.2080020904541
1787816932716394200,18.249394287109375,-10.608000755310059,-14.839000701904297,28.636001586914062
1787816932732523500,18.2655234375,-9.777000427246094,-14.31100082397461,28.130001068115234
1787816932748512500,18.281512451171874,-9.01400089263916,-15.057001113891602,28.530000686645508
1787816932764524800,18.29752490234375,-12.11400032043457,-14.74000072479248,27.82400131225586
1787816932780663600,18.31366357421875,-10.624000549316406,-15.606000900268555,27.407001495361328
1787816932796685600,18.329685546875,-10.083000183105469,-15.384000778198242,28.019001007080078
1787816932812778000,18.345778076171875,-9.141000747680664,-15.394001007080078,27.407001495361328
1787816932828783600,18.36178369140625,-9.135000228881836,-14.958001136779785,27.920001983642578
1787816932844762600,18.3777626953125,-10.6510009765625,-14.974000930786133,26.59800148010254
1787816932860835800,18.3938359375,-11.386000633239746,-14.643000602722168,27.213001251220703
1787816932876862200,18.4098623046875,-11.67400074005127,-16.35300064086914,27.503002166748047
1787816932892956000,18.425955810546874,-12.656000137329102,-15.611001014709473,26.79800033569336
1787816932908932600,18.4419326171875,-12.76400089263916,-16.909000396728516,25.8700008392334
1787816932924957200,18.457957275390626,-11.294000625610352,-15.084000587463379,26.292001724243164
1787816932941058300,18.474058349609376,-12.767000198364258,-14.42500114440918,27.31800079345703
1787816932957139500,18.490139404296876,-11.72700023651123,-14.656001091003418,26.194002151489258
1787816932973240800,18.50624072265625,-11.622000694274902,-13.25200080871582,27.0210018157959
1787816932989265700,18.522265625,-14.260000228881836,-14.10200023651123,27.22100067138672
1787816933005256000,18.538255859375,-12.053000450134277,-14.119000434875488,26.19900131225586
1787816933021378000,18.5543779296875,-13.197000503540039,-14.320000648498535,27.11600112915039
1787816933037422600,18.570422607421875,-13.422000885009766,-13.246000289916992,27.22800064086914
1787816933053539000,18.5865390625,-12.224000930786133,-14.094000816345215,28.033000946044922
1787816933069517600,18.602517578125,-11.06100082397461,-13.77500057220459,28.035001754760742
1787816933085518000,18.61851806640625,-12.112000465393066,-14.415000915527344,28.132001876831055
1787816933101641000,18.634640869140625,-12.7760009765625,-15.079000473022461,26.49700164794922
1787816933117691600,18.650691650390623,-13.831000328063965,-15.721000671386719,26.391000747680664
1787816933133806000,18.66680615234375,-9.996000289916992,-14.63900089263916,27.61800193786621
1787816933149783300,18.682783203125,-12.346000671386719,-13.780000686645508,27.527000427246094
1787816933165793500,18.69879345703125,-11.057000160217285,-14.529000282287598,27.72300148010254
1787816933181936400,18.714936279296875,-12.961000442504883,-15.386000633239746,27.514001846313477
1787816933197952300,18.7309521484375,-11.596000671386719,-14.317000389099121,27.5210018157959
1787816933214082600,18.74708251953125,-13.294000625610352,-14.85400104522705,27.213001251220703
1787816933230087400,18.76308740234375,-10.507000923156738,-14.086000442504883,28.84600067138672
1787816933246112500,18.779112548828124,-12.954000473022461,-14.949000358581543,28.12900161743164
1787816933262228700,18.795228759765624,-12.113000869750977,-13.659000396728516,28.546001434326172
1787816933278257200,18.811257080078125,-13.192000389099121,-14.533000946044922,27.216001510620117
1787816933294350000,18.82735009765625,-14.35300064086914,-14.742000579833984,27.41900062561035
1787816933310359800,18.84335986328125,-14.705000877380371,-13.465001106262207,26.718000411987305
1787816933326334200,18.859334228515625,-11.943000793457031,-13.9010009765625,26.507001876831055
1787816933342454800,18.875454833984374,-14.732000350952148,-12.833000183105469,25.909000396728516
1787816933358481000,18.89148095703125,-13.76300048828125,-12.827000617980957,26.519001007080078
1787816933374574000,18.907573974609374,-14.052000999450684,-13.457000732421875,27.430002212524414
1787816933390550000,18.923550048828126,-11.836000442504883,-13.577000617980957,26.713001251220703
1787816933406535000,18.939534912109377,-12.47700023651123,-14.010000228881836,26.303001403808594
1787816933422657800,18.95565771484375,-11.803000450134277,-14.529000282287598,27.62200164794922
1787816933438696000,18.971696044921874,-14.066000938415527,-14.222001075744629,26.303001403808594
1787816933454798600,18.987798583984375,-15.009000778198242,-14.861001014709473,26.50200080871582
1787816933470786000,19.0037861328125,-12.17400074005127,-13.04800033569336,26.209001541137695
1787816933486778000,19.019778076171875,-13.225000381469727,-14.120000839233398,25.99700164794922
1787816933502909000,19.035908935546875,-12.249000549316406,-14.649001121520996,26.602001190185547
1787816933518956800,19.051956787109376,-13.409000396728516,-13.562000274658203,27.632001876831055
1787816933535069400,19.0680693359375,-13.17300033569336,-14.737000465393066,27.927001953125
1787816933551064600,19.084064697265624,-13.011000633239746,-14.768000602722168,25.68600082397461
1787816933567065300,19.1000654296875,-13.724000930786133,-14.316000938415527,27.32000160217285
1787816933583210000,19.1162099609375,-13.772000312805176,-13.481000900268555,25.698001861572266
1787816933607276000,19.140276123046874,-12.881000518798828,-14.861001014709473,26.703001022338867
1787816933623358000,19.15635791015625,-14.070000648498535,-14.11600112915039,26.202001571655273
1787816933639411700,19.17241162109375,-14.177000999450684,-13.90000057220459,26.306001663208008
1787816933655542300,19.188542236328125,-13.201000213623047,-14.214000701904297,27.01500129699707
1787816933671504400,19.20450439453125,-12.36500072479248,-15.088000297546387,25.886001586914062
1787816933687630800,19.220630859375,-13.851000785827637,-14.112000465393066,26.507001876831055
1787816933703740200,19.236740234375,-14.16300106048584,-14.108000755310059,26.81300163269043
1787816933719703300,19.252703369140626,-13.303000450134277,-15.184000968933105,26.599000930786133
1787816933735904800,19.26890478515625,-13.202000617980957,-13.350000381469727,27.532001495361328
1787816933751819800,19.28481982421875,-14.28800106048584,-14.22700023651123,25.8960018157959
1787816933767695000,19.300695068359374,-14.49000072479248,-14.004000663757324,26.509000778198242
1787816933784021500,19.317021484375,-13.22700023651123,-13.797000885009766,26.102001190185547
