time,seconds_elapsed,z,y,x
1787774961188181000,0.124180908203125,3.5756020545959473,9.11893081665039,0.48016566038131714
1787774961204192800,0.14019287109375,3.4493939876556396,9.169921875,0.4296380579471588
1787774961220246000,0.15624609375,3.2066383361816406,9.260209083557129,0.36934345960617065
1787774961236295700,0.172295654296875,2.9898886680603027,9.33287525177002,0.3583407998085022
1787774961252351700,0.188351806640625,2.9601898193359375,9.341621398925781,0.3765174448490143
1787774961268372000,0.2043720703125,3.1580777168273926,9.276222229003906,0.38552579283714294
1787774961284470300,0.22047021484375,3.424722194671631,9.18128490447998,0.3816458284854889
1787774961300555000,0.236554931640625,3.626797676086426,9.10344123840332,0.3795856833457947
1787774961316565800,0.252565673828125,3.7174599170684814,9.065640449523926,0.4062483608722687
1787774961332607000,0.26860693359375,3.6576571464538574,9.088260650634766,0.44210803508758545
1787774961348646100,0.284646240234375,3.5181238651275635,9.146080017089844,0.3773917555809021
1787774961364653800,0.30065380859375,3.4092116355895996,9.191033363342285,0.26938343048095703
1787774961380684500,0.3166845703125,3.312936782836914,9.22829818725586,0.18259426951408386
1787774961396697600,0.332697509765625,3.215106248855591,9.263145446777344,0.1661279946565628
1787774961412743000,0.348742919921875,3.0762782096862793,9.309223175048828,0.21277765929698944
1787774961428786700,0.36478662109375,2.9533019065856934,9.348657608032227,0.22581571340560913
1787774961444793000,0.38079296875,2.9234700202941895,9.358776092529297,0.192388653755188
1787774961460844300,0.39684423828125,2.946040391921997,9.352919578552246,0.1188768520951271
1787774961476861400,0.412861328125,2.8609249591827393,9.379279136657715,0.12105565518140793
1787774961492920300,0.42892041015625,2.8218581676483154,9.391483306884766,0.08704071491956711
1787774961508975900,0.444975830078125,2.788172721862793,9.401779174804688,0.055240679532289505
1787774961524988000,0.46098779296875,2.7746992111206055,9.405860900878906,0.035125672817230225
1787774961541020200,0.477020263671875,2.77571177482605,9.40560531616211,0.020370295271277428
1787774961557029600,0.493029541015625,2.784506320953369,9.403022766113281,0.008926380425691605
1787774961573090800,0.5090908203125,2.7961626052856445,9.399568557739258,-0.0011184826726093888
1787774961589122800,0.525122802734375,2.8114209175109863,9.395013809204102,-0.006609481293708086
1787774961605132000,0.541132080078125,2.814293146133423,9.394126892089844,-0.02256575971841812
1787774961621184500,0.5571845703125,2.818652391433716,9.392803192138672,-0.028757307678461075
1787774961637200000,0.573199951171875,2.811231851577759,9.39501667022705,-0.032192982733249664
1787774961653275100,0.589275146484375,2.785829544067383,9.402600288391113,-0.025814970955252647
1787774961669299500,0.605299560546875,2.75614333152771,9.411364555358887,-0.016525164246559143
1787774961685313300,0.621313232421875,2.7295477390289307,9.419126510620117,-0.005101122427731752
1787774961701339400,0.63733935546875,2.7058398723602295,9.425965309143066,0.004093260504305363
1787774961717349400,0.653349365234375,2.6806561946868896,9.433152198791504,0.010142769664525986
1787774961733432600,0.6694326171875,2.6502254009246826,9.441740989685059,0.014778029173612595
1787774961749463800,0.6854638671875,2.6140284538269043,9.451817512512207,0.02007964253425598
1787774961765475300,0.701475341796875,2.5756943225860596,9.46232795715332,0.023063188418745995
1787774961781525200,0.717525146484375,2.5381786823272705,9.472443580627441,0.02943330816924572
1787774961797543000,0.73354296875,2.5037832260131836,9.481560707092285,0.03810396045446396
1787774961813585700,0.749585693359375,2.4768052101135254,9.488616943359375,0.04458659887313843
1787774961829622300,0.765622314453125,2.4547059535980225,9.494321823120117,0.05171586573123932
1787774961845641200,0.78164111328125,2.435173511505127,9.49930477142334,0.05960486829280853
1787774961861681400,0.797681396484375,2.4135444164276123,9.504802703857422,0.06277093291282654
1787774961877706500,0.81370654296875,2.391796350479126,9.510293006896973,0.06342661380767822
1787774961893756400,0.82975634765625,2.368328809738159,9.516167640686035,0.06292086094617844
1787774961909809400,0.845809326171875,2.337311029434204,9.523862838745117,0.05863836035132408
1787774961925839400,0.86183935546875,2.306000232696533,9.531516075134277,0.05419789254665375
1787774961941912000,0.877912109375,2.2752768993377686,9.538938522338867,0.04655921459197998
1787774961957952500,0.893952392578125,2.2462282180786133,9.545868873596191,0.03546586632728577
1787774961974018000,0.91001806640625,2.221404552459717,9.551713943481445,0.022716421633958817
1787774961990080300,0.926080322265625,2.201277256011963,9.556394577026367,0.010701427236199379
1787774962006123300,0.942123291015625,2.1875860691070557,9.559542655944824,0.000901917286682874
1787774962022189800,0.95818994140625,2.1735482215881348,9.56274127960205,-0.008227583952248096
1787774962038239500,0.974239501953125,2.1572635173797607,9.566411972045898,-0.019539836794137955
1787774962054312200,0.990312255859375,2.140136241912842,9.570226669311523,-0.03117065317928791
1787774962070333200,1.006333251953125,2.1242334842681885,9.57370662689209,-0.046470366418361664
1787774962086382000,1.022382080078125,2.1060867309570312,9.577644348144531,-0.059380702674388885
1787774962102475300,1.038475341796875,2.0915300846099854,9.5807523727417,-0.07116466760635376
1787774962118532600,1.05453271484375,2.0852601528167725,9.582012176513672,-0.08462313562631607
1787774962134614800,1.07061474609375,2.0934934616088867,9.580120086669922,-0.09463643282651901
1787774962150649300,1.0866494140625,2.1115829944610596,9.576103210449219,-0.09936448186635971
1787774962166712600,1.102712646484375,2.130296468734741,9.571991920471191,-0.09592282027006149
1787774962182799400,1.11879931640625,2.146591901779175,9.568602561950684,-0.06618468463420868
1787774962198865400,1.134865478515625,2.1605396270751953,9.565632820129395,-0.033956337720155716
1787774962214907400,1.150907470703125,2.1736152172088623,9.562726974487305,-0.008465338498353958
1787774962230944800,1.16694482421875,2.1873555183410645,9.55959415435791,0.007868687622249126
1787774962246962700,1.182962646484375,2.199261426925659,9.55683708190918,0.02303951606154442
1787774962263015400,1.199015380859375,2.2061517238616943,9.555197715759277,0.03847542405128479
1787774962279034000,1.2150341796875,2.2058870792388916,9.555183410644531,0.0541921928524971
1787774962295088400,1.23108837890625,2.200216770172119,9.55635929107666,0.07369272410869598
1787774962311142700,1.247142578125,2.188080072402954,9.558915138244629,0.09920505434274673
1787774962327159600,1.26315966796875,2.1727547645568848,9.562067031860352,0.12810221314430237
1787774962343198200,1.2791982421875,2.164968490600586,9.563438415527344,0.15478768944740295
1787774962359218700,1.29521875,2.1681430339813232,9.562355995178223,0.175777867436409
1787774962375280400,1.3112802734375,2.1802425384521484,9.559326171875,0.1903136819601059
1787774962391340500,1.327340576171875,2.1925711631774902,9.556411743164062,0.19502390921115875
1787774962407359700,1.34335986328125,2.195943593978882,9.555699348449707,0.19193784892559052
1787774962423414500,1.35941455078125,2.1879262924194336,9.557551383972168,0.1912769079208374
1787774962439432700,1.3754326171875,2.1655173301696777,9.562493324279785,0.19916151463985443
1787774962455502800,1.3915029296875,2.1324009895324707,9.569648742675781,0.21232765913009644
1787774962471522600,1.4075224609375,2.1014790534973145,9.576098442077637,0.22920915484428406
1787774962487541000,1.423541015625,2.077019691467285,9.581010818481445,0.24619609117507935
1787774962503582000,1.43958203125,2.06919002532959,9.582122802734375,0.2679491639137268
1787774962519603700,1.455603759765625,2.075218677520752,9.580123901367188,0.29170215129852295
1787774962535682800,1.471682861328125,2.089787006378174,9.576229095458984,0.31471893191337585
1787774962551701800,1.48770166015625,2.1078567504882812,9.57158374786377,0.3348636031150818
1787774962567765000,1.503764892578125,2.119688034057617,9.56844425201416,0.3495449721813202
1787774962583825000,1.519824951171875,2.1179323196411133,9.5686674118042,0.3540797531604767
1787774962599846700,1.5358466796875,2.108142852783203,9.570942878723145,0.35093992948532104
1787774962615917300,1.551917236328125,2.0984292030334473,9.573184967041016,0.3480772376060486
1787774962631941400,1.56794140625,2.0923421382904053,9.574599266052246,0.3457484245300293
1787774962647953400,1.583953369140625,2.0630431175231934,9.580528259277344,0.3573980927467346
1787774962663983400,1.5999833984375,2.0372793674468994,9.585558891296387,0.3700565695762634
1787774962680001800,1.616001708984375,2.013648509979248,9.589855194091797,0.3876613676548004
1787774962696040700,1.632040771484375,1.9901373386383057,9.593778610229492,0.4112980365753174
1787774962712080100,1.648080078125,1.9661338329315186,9.597543716430664,0.43806254863739014
1787774962728100000,1.66410009765625,1.9421685934066772,9.601252555847168,0.46295449137687683
1787774962744163000,1.6801630859375,1.9204707145690918,9.604654312133789,0.4824765920639038
1787774962760189000,1.69618896484375,1.9033297300338745,9.607468605041504,0.49425017833709717
1787774962776239600,1.712239501953125,1.8894908428192139,9.610143661499023,0.4953368604183197
1787774962792293000,1.728293212890625,1.8751747608184814,9.613322257995605,0.488020122051239
1787774962808319700,1.74431982421875,1.8588770627975464,9.616893768310547,0.4798946678638458
1787774962824394800,1.760394775390625,1.8435101509094238,9.620197296142578,0.47295764088630676
1787774962840428300,1.77642822265625,1.8298029899597168,9.623164176940918,0.46577519178390503
1787774962856488200,1.79248828125,1.8127561807632446,9.626924514770508,0.4545905590057373
1787774962872550100,1.808550048828125,1.7861239910125732,9.632967948913574,0.43137863278388977
1787774962888582400,1.82458251953125,1.7599060535430908,9.638985633850098,0.40383192896842957
1787774962904654600,1.840654541015625,1.7484906911849976,9.641592025756836,0.3910333812236786
1787774962920697000,1.856697021484375,1.7705219984054565,9.636524200439453,0.41602784395217896
1787774962936766700,1.8727666015625,1.8141010999679565,9.625938415527344,0.4698346257209778
1787774962952877000,1.888876953125,1.8521168231964111,9.61535930633545,0.5337924957275391
1787774962968970200,1.90497021484375,1.859358787536621,9.610565185546875,0.5917754769325256
1787774962985027000,1.921027099609375,1.8286348581314087,9.614241600036621,0.6267635226249695
1787774963001079600,1.93707958984375,1.7743146419525146,9.624064445495605,0.6321539878845215
1787774963017149700,1.953149658203125,1.721237301826477,9.634684562683105,0.6169126629829407
1787774963033220600,1.969220703125,1.678174614906311,9.64445686340332,0.58186936378479
1787774963049322200,1.985322265625,1.6451644897460938,9.652970314025879,0.5329245328903198
1787774963065407700,2.00140771484375,1.620129108428955,9.659945487976074,0.4806489944458008
1787774963081468700,2.01746875,1.632038950920105,9.66168212890625,0.39843466877937317
1787774963097550000,2.033550048828125,1.6731024980545044,9.658615112304688,0.2868395149707794
1787774963121624600,2.05762451171875,1.6472830772399902,9.663463592529297,0.2726271450519562
1787774963137706200,2.073706298828125,1.6273729801177979,9.666801452636719,0.27386122941970825
1787774963153792800,2.089792724609375,1.6078908443450928,9.669776916503906,0.283734530210495
1787774963169860900,2.10586083984375,1.5903023481369019,9.671904563903809,0.30917686223983765
1787774963185889800,2.121889892578125,1.5726970434188843,9.673524856567383,0.34628552198410034
1787774963201908700,2.13790869140625,1.5661793947219849,9.673771858215332,0.36824294924736023
1787774963217952800,2.153952880859375,1.5651452541351318,9.673545837402344,0.3784479796886444
1787774963234012000,2.170011962890625,1.5614044666290283,9.673532485961914,0.3939433693885803
1787774963250046200,2.186046142578125,1.5616692304611206,9.673056602478027,0.40444064140319824
1787774963266110200,2.202110107421875,1.5671157836914062,9.672135353088379,0.40539997816085815
1787774963282136000,2.218135986328125,1.577193260192871,9.670876502990723,0.3962320387363434
1787774963298180600,2.2341806640625,1.5911352634429932,9.669146537780762,0.3824756145477295
1787774963314219000,2.250218994140625,1.6113035678863525,9.666243553161621,0.37127354741096497
1787774963330257000,2.2662568359375,1.6372177600860596,9.662104606628418,0.36557459831237793
1787774963346322400,2.282322509765625,1.6652902364730835,9.657352447509766,0.3643750250339508
1787774963362346500,2.298346435546875,1.69217848777771,9.652612686157227,0.36608022451400757
1787774963378393600,2.3143935546875,1.7153528928756714,9.648453712463379,0.36785805225372314
1787774963394453000,2.330452880859375,1.7328110933303833,9.645341873168945,0.3676482141017914
1787774963410504700,2.346504638671875,1.745944857597351,9.643051147460938,0.36559346318244934
1787774963426530600,2.362530517578125,1.7593612670898438,9.640874862670898,0.3585667610168457
1787774963442552300,2.37855224609375,1.7802715301513672,9.637410163879395,0.34836700558662415
1787774963458593500,2.394593505859375,1.8082700967788696,9.63261604309082,0.3365525007247925
1787774963474633500,2.410633544921875,1.8391131162643433,9.627250671386719,0.32269540429115295
1787774963490691800,2.42669189453125,1.865944504737854,9.622445106506348,0.3118019700050354
1787774963506721800,2.4427216796875,1.8719441890716553,9.62144947052002,0.3064649701118469
1787774963522747600,2.45874755859375,1.8558543920516968,9.624643325805664,0.3040754497051239
1787774963538827800,2.474827880859375,1.84759521484375,9.626380920410156,0.2992977201938629
1787774963554868000,2.490867919921875,1.8773280382156372,9.620536804199219,0.3021943271160126
1787774963570911700,2.506911865234375,1.9525246620178223,9.605475425720215,0.304747074842453
1787774963586976800,2.522976806640625,2.0507047176361084,9.5858736038208,0.27573826909065247
1787774963603002400,2.53900244140625,2.12335205078125,9.571593284606934,0.21537834405899048
1787774963619083800,2.555083740234375,2.146782159805298,9.567756652832031,0.14053967595100403
1787774963635118000,2.5711181640625,2.1135432720184326,9.575948715209961,0.0675327405333519
1787774963651171300,2.58717138671875,2.0413410663604736,9.591828346252441,0.012973317876458168
1787774963667258600,2.603258544921875,1.9576416015625,9.609240531921387,-0.023089345544576645
1787774963683286500,2.61928662109375,1.888028860092163,9.623083114624023,-0.04487769305706024
1787774963699372500,2.63537255859375,1.8403480052947998,9.632229804992676,-0.06063012033700943
1787774963715419600,2.651419677734375,1.8206974267959595,9.635866165161133,-0.07471227645874023
1787774963731489800,2.66748974609375,1.8323768377304077,9.633596420288086,-0.08130334317684174
1787774963747550500,2.683550537109375,1.8670997619628906,9.626977920532227,-0.07504560053348541
1787774963763583700,2.699583740234375,1.9067847728729248,9.619306564331055,-0.0593557134270668
1787774963779681300,2.715681396484375,1.946973204612732,9.611369132995605,-0.03580415993928909
1787774963795717600,2.731717529296875,1.983955979347229,9.603869438171387,-0.0036348493304103613
1787774963811743700,2.74774365234375,2.0117902755737305,9.598028182983398,0.03098740614950657
1787774963827797000,2.763796875,2.054417610168457,9.588821411132812,0.06538885831832886
1787774963843833600,2.77983349609375,2.0881001949310303,9.581340789794922,0.09026771783828735
1787774963859896300,2.795896240234375,2.087491750717163,9.581330299377441,0.10427315533161163
1787774963875976400,2.8119765625,2.091858148574829,9.580265045166016,0.11422844231128693
1787774963892010800,2.8280107421875,2.097033977508545,9.579042434692383,0.12166370451450348
1787774963908122000,2.8441220703125,2.1034629344940186,9.577560424804688,0.12722761929035187
1787774963924170500,2.86017041015625,2.111398696899414,9.575807571411133,0.1277107298374176
1787774963940245200,2.876245361328125,2.121199607849121,9.573701858520508,0.12308599054813385
1787774963956320000,2.892320068359375,2.1317408084869385,9.571480751037598,0.11329466849565506
1787774963972371200,2.90837109375,2.141596794128418,9.569530487060547,0.08959449082612991
1787774963988393700,2.924393798828125,2.144838333129883,9.569007873535156,0.06460603326559067
1787774964004450300,2.9404501953125,2.139894723892212,9.570240020751953,0.04218143969774246
1787774964020527900,2.95652783203125,2.1283321380615234,9.572882652282715,0.02279854565858841
1787774964036625000,2.972625,2.112212657928467,9.576478958129883,0.005229425150901079
1787774964052687400,2.988687255859375,2.0958411693573,9.580071449279785,-0.009472908452153206
1787774964068745200,3.0047451171875,2.079298496246338,9.583653450012207,-0.022244127467274666
1787774964084806400,3.020806396484375,2.05141282081604,9.58963394165039,-0.03174392133951187
1787774964100895700,3.036895751953125,2.0068604946136475,9.599045753479004,-0.0354151576757431
1787774964116980700,3.052980712890625,1.965005874633789,9.607702255249023,-0.03484437242150307
1787774964133048300,3.06904833984375,1.9101625680923462,9.618782043457031,-0.02638210356235504
1787774964149135600,3.085135498046875,1.8538053035736084,9.629837989807129,-0.006009615957736969
1787774964165159400,3.101159423828125,1.8223741054534912,9.635802268981934,0.02575301192700863
1787774964181250300,3.117250244140625,1.8289885520935059,9.634370803833008,0.0641338899731636
1787774964197288400,3.133288330078125,1.8603203296661377,9.628024101257324,0.10371069610118866
1787774964213312000,3.14931201171875,1.8998814821243286,9.619802474975586,0.14232757687568665
1787774964229412900,3.165412841796875,1.9339649677276611,9.612319946289062,0.18305735290050507
1787774964245434000,3.18143408203125,1.9510984420776367,9.60802173614502,0.22258301079273224
1787774964261520400,3.197520263671875,1.9484400749206543,9.607559204101562,0.26223331689834595
1787774964277557800,3.213557861328125,1.9185867309570312,9.612529754638672,0.2978031039237976
1787774964293597400,3.229597412109375,1.8756725788116455,9.620405197143555,0.3162989616394043
1787774964309701400,3.245701416015625,1.8358533382415771,9.627975463867188,0.31956878304481506
1787774964325718000,3.261718017578125,1.810834527015686,9.632879257202148,0.3145177960395813
1787774964341802500,3.277802490234375,1.80766761302948,9.63353443145752,0.3126721680164337
1787774964357845200,3.29384521484375,1.828521966934204,9.629432678222656,0.31770139932632446
1787774964373896700,3.309896728515625,1.8668385744094849,9.621881484985352,0.32357174158096313
1787774964389959000,3.325958984375,1.9165865182876587,9.612152099609375,0.3219355046749115
1787774964405980200,3.341980224609375,1.9663034677505493,9.602453231811523,0.3113631308078766
1787774964422025700,3.358025634765625,2.0108556747436523,9.593727111816406,0.29541444778442383
1787774964438060000,3.37406005859375,2.0833945274353027,9.579007148742676,0.26922741532325745
1787774964454126300,3.390126220703125,2.144954204559326,9.566010475158691,0.2469426691532135
1787774964470153500,3.406153564453125,2.1953179836273193,9.555026054382324,0.22907383739948273
1787774964486177300,3.42217724609375,2.23655104637146,9.545764923095703,0.21589389443397522
1787774964502220500,3.438220458984375,2.26792049407959,9.538603782653809,0.2048826664686203
1787774964518282200,3.4542822265625,2.2889349460601807,9.533767700195312,0.19615663588047028
1787774964534346200,3.47034619140625,2.2968995571136475,9.531915664672852,0.19294950366020203
1787774964550382000,3.486382080078125,2.2930335998535156,9.532709121704102,0.19968348741531372
1787774964566402800,3.50240283203125,2.285628318786621,9.534125328063965,0.2162051498889923
1787774964582444300,3.5184443359375,2.2795581817626953,9.534993171691895,0.24065789580345154
1787774964598488800,3.53448876953125,2.279001235961914,9.534385681152344,0.2684032618999481
1787774964614515700,3.550515625,2.2813022136688232,9.533082008361816,0.29396674036979675
1787774964630608600,3.566608642578125,2.2792468070983887,9.532958030700684,0.31329965591430664
1787774964646638300,3.582638427734375,2.273425579071045,9.53415584564209,0.31905895471572876
1787774964662741500,3.598741455078125,2.267096996307373,9.5360107421875,0.30846697092056274
1787774964678810600,3.614810546875,2.229872941970825,9.544720649719238,0.31047114729881287
1787774964694862300,3.6308623046875,2.1856589317321777,9.55484390258789,0.3134918212890625
1787774964710929200,3.64692919921875,2.1449575424194336,9.56413459777832,0.31120428442955017
1787774964726969300,3.66296923828125,2.1149230003356934,9.570847511291504,0.31048429012298584
1787774964743028700,3.67902880859375,2.098475933074951,9.574766159057617,0.30106502771377563
1787774964759086600,3.695086669921875,2.081282615661621,9.579158782958984,0.279964804649353
1787774964775130400,3.71113037109375,2.069178819656372,9.582602500915527,0.25025853514671326
1787774964791228400,3.727228515625,2.086090087890625,9.579591751098633,0.22367841005325317
1787774964807279000,3.743279052734375,2.137993574142456,9.568499565124512,0.207903191447258
1787774964823376400,3.75937646484375,2.2046070098876953,9.553479194641113,0.2028491199016571
1787774964839435000,3.77543505859375,2.2539589405059814,9.541955947875977,0.20281872153282166
1787774964855470000,3.791469970703125,2.25999116897583,9.54058837890625,0.2000967562198639
1787774964871547000,3.807546875,2.2064125537872314,9.553400039672852,0.18619404733181
1787774964887603000,3.82360302734375,2.119358539581299,9.573566436767578,0.15985417366027832
1787774964903725000,3.83972509765625,2.034752368927002,9.592350006103516,0.13043488562107086
1787774964919786500,3.855786376953125,1.9630440473556519,9.607545852661133,0.10921221971511841
1787774964935830800,3.871830810546875,1.913320541381836,9.617616653442383,0.10516586154699326
1787774964951901400,3.8879013671875,1.8828312158584595,9.623483657836914,0.11793562024831772
1787774964967962600,3.903962646484375,1.8694639205932617,9.625773429870605,0.14141878485679626
1787774964984047000,3.920047119140625,1.872273325920105,9.624696731567383,0.17380890250205994
1787774965000142300,3.936142333984375,1.8897297382354736,9.620406150817871,0.2170587033033371
1787774965016195600,3.952195556640625,1.9187061786651611,9.613415718078613,0.2668246030807495
1787774965032280300,3.9682802734375,1.948438048362732,9.606050491333008,0.31269100308418274
1787774965048343600,3.984343505859375,1.9951869249343872,9.59457778930664,0.3656742572784424
1787774965064477000,4.000476806640625,2.063316822052002,9.57783031463623,0.422220915555954
1787774965080529700,4.01652978515625,2.0623321533203125,9.57840347290039,0.41398486495018005
1787774965096549400,4.03254931640625,2.0592386722564697,9.580238342285156,0.38597163558006287
1787774965112596500,4.048596435546875,2.0572071075439453,9.58229923248291,0.3432447016239166
1787774965128620800,4.064620849609375,2.058480739593506,9.583479881286621,0.29994916915893555
1787774965144713000,4.080712890625,2.060112714767456,9.584268569946289,0.2609758675098419
1787774965160773600,4.096773681640625,2.056298017501831,9.585977554321289,0.22594036161899567
1787774965176815900,4.11281591796875,2.0466513633728027,9.588736534118652,0.1943143755197525
1787774965192883000,4.128883056640625,2.0339298248291016,9.591996192932129,0.1647118479013443
1787774965208909800,4.144909912109375,2.0228986740112305,9.594744682312012,0.13835984468460083
1787774965224956000,4.160955810546875,2.0175139904022217,9.596199035644531,0.11401114612817764
1787774965240999000,4.1769990234375,2.015427827835083,9.59688949584961,0.09033858776092529
1787774965257032000,4.193031982421875,2.010226011276245,9.598153114318848,0.0695640966296196
1787774965281123800,4.217123779296875,2.012430191040039,9.597830772399902,0.04655877500772476
1787774965297170400,4.23317041015625,1.9684263467788696,9.606956481933594,0.04582827165722847
1787774965313232600,4.249232666015625,1.911478042602539,9.618359565734863,0.061814066022634506
1787774965329256200,4.265256103515625,1.8398011922836304,9.6321382522583,0.08621946722269058
1787774965345337900,4.281337890625,1.7611758708953857,9.646635055541992,0.1052776575088501
1787774965361357600,4.297357666015625,1.671120524406433,9.662583351135254,0.11064984649419785
1787774965377416000,4.313416015625,1.5796222686767578,9.678102493286133,0.0974845141172409
1787774965393437200,4.329437255859375,1.5101029872894287,9.689340591430664,0.08176453411579132
1787774965409454800,4.345454833984375,1.4896143674850464,9.692570686340332,0.07430237531661987
1787774965425517600,4.361517578125,1.5033178329467773,9.690519332885742,0.06535948812961578
1787774965441593000,4.377593017578125,1.5409302711486816,9.684718132019043,0.04658946394920349
1787774965457653000,4.393653076171875,1.587749719619751,9.67724323272705,0.020157383754849434
1787774965473693200,4.409693115234375,1.632251501083374,9.669848442077637,-0.013548340648412704
1787774965489709800,4.425709716796875,1.652721643447876,9.666263580322266,-0.0476081408560276
1787774965505795300,4.44179541015625,1.6408276557922363,9.668135643005371,-0.0725293755531311
1787774965521831700,4.457831787109375,1.6019370555877686,9.674580574035645,-0.08178308606147766
1787774965537850000,4.47385009765625,1.5422143936157227,9.684369087219238,-0.07060790807008743
1787774965553882600,4.489882568359375,1.472510814666748,9.695372581481934,-0.043393153697252274
1787774965569915000,4.505914794921875,1.3922754526138306,9.707311630249023,-0.007613543886691332
1787774965586008600,4.522008544921875,1.3167977333068848,9.717799186706543,0.02885930798947811
1787774965602102800,4.538102783203125,1.2658696174621582,9.724417686462402,0.06073708459734917
1787774965618185200,4.554185302734375,1.2421225309371948,9.727241516113281,0.09115546196699142
1787774965634262000,4.570261962890625,1.2489365339279175,9.726037979125977,0.12146203964948654
1787774965650295000,4.586294921875,1.2822023630142212,9.721327781677246,0.148737370967865
1787774965666345000,4.602344970703125,1.3355742692947388,9.713703155517578,0.17493155598640442
1787774965682398000,4.61839794921875,1.4105817079544067,9.702559471130371,0.20245566964149475
1787774965698480400,4.63448046875,1.4906882047653198,9.690001487731934,0.22820457816123962
1787774965714525000,4.65052490234375,1.560328722000122,9.67835521697998,0.2553708553314209
1787774965730564600,4.666564697265625,1.6071544885635376,9.669853210449219,0.2852756679058075
1787774965746617900,4.682617919921875,1.6280311346054077,9.665364265441895,0.31729140877723694
1787774965762658000,4.698657958984375,1.6310395002365112,9.663664817810059,0.35172390937805176
1787774965778749200,4.714749267578125,1.6278595924377441,9.662755012512207,0.3893967866897583
1787774965794822700,4.73082275390625,1.624010682106018,9.661795616149902,0.4274192452430725
1787774965810874400,4.746874267578125,1.6493308544158936,9.65514850616455,0.47774040699005127
1787774965826935600,4.762935546875,1.6731199026107788,9.649361610412598,0.5107889175415039
1787774965843001600,4.779001708984375,1.711836576461792,9.640681266784668,0.5452354550361633
1787774965859095800,4.795095703125,1.7601522207260132,9.62984561920166,0.5816833972930908
1787774965875155700,4.81115576171875,1.8146032094955444,9.617202758789062,0.6221299767494202
1787774965891210800,4.827210693359375,1.870646357536316,9.603574752807617,0.6651443243026733
1787774965907279000,4.843279052734375,1.920330286026001,9.590852737426758,0.7058718800544739
1787774965923297300,4.85929736328125,1.9549362659454346,9.58117389678955,0.7414325475692749
1787774965939347000,4.875346923828125,1.9715666770935059,9.57552719116211,0.7698013186454773
1787774965955434800,4.891434814453125,1.9734739065170288,9.572938919067383,0.7966275215148926
1787774965971492400,4.907492431640625,1.9670355319976807,9.571407318115234,0.8302769660949707
1787774965987574000,4.923573974609375,1.9831644296646118,9.565166473388672,0.8631364703178406
1787774966003619300,4.939619384765625,1.968721628189087,9.56389331817627,0.9090982675552368
1787774966019683800,4.955683837890625,1.9436196088790894,9.564517974853516,0.9553723931312561
1787774966035771400,4.971771484375,1.906116247177124,9.566601753234863,1.0085890293121338
1787774966051790300,4.987790283203125,1.8652898073196411,9.56771183013916,1.0723700523376465
1787774966067874800,5.003874755859375,1.8340736627578735,9.565244674682617,1.145719051361084
1787774966083915800,5.019915771484375,1.8179593086242676,9.55789566040039,1.2296669483184814
1787774966099930400,5.035930419921875,1.812072992324829,9.547993659973145,1.31248140335083
1787774966115974400,5.051974365234375,1.8087272644042969,9.53838062286377,1.3849890232086182
1787774966131998700,5.067998779296875,1.793518304824829,9.533589363098145,1.4367928504943848
1787774966148040000,5.0840400390625,1.7649807929992676,9.534652709960938,1.4647940397262573
1787774966164086800,5.100086669921875,1.7360548973083496,9.53986930847168,1.4654022455215454
1787774966180151800,5.11615185546875,1.7251368761062622,9.546041488647461,1.4378472566604614
1787774966196179500,5.132179443359375,1.7389473915100098,9.55057430267334,1.390310525894165
1787774966212204000,5.1482041015625,1.7746636867523193,9.551337242126465,1.3390166759490967
1787774966228262700,5.1642626953125,1.8322057723999023,9.546523094177246,1.2951143980026245
1787774966244338000,5.180337890625,1.9030662775039673,9.537692070007324,1.2574498653411865
1787774966260408300,5.196408203125,1.9709137678146362,9.5280179977417,1.225873351097107
1787774966276457500,5.21245751953125,2.025009870529175,9.519413948059082,1.2043722867965698
1787774966292476000,5.228475830078125,2.1039140224456787,9.506746292114258,1.1686396598815918
1787774966308548600,5.244548583984375,2.170654535293579,9.494829177856445,1.143187165260315
1787774966324568600,5.260568603515625,2.1845593452453613,9.49118709564209,1.1469292640686035
1787774966340588800,5.2765888671875,2.1837878227233887,9.491056442260742,1.1494947671890259
1787774966356627500,5.29262744140625,2.168382167816162,9.494369506835938,1.1512854099273682
1787774966372649000,5.30864892578125,2.142937421798706,9.499777793884277,1.1543196439743042
1787774966388725200,5.324725341796875,2.110569953918457,9.50553035736084,1.1665247678756714
1787774966404754200,5.340754150390625,2.0783705711364746,9.509772300720215,1.1895380020141602
1787774966420823300,5.3568232421875,2.0577948093414307,9.510906219482422,1.2159487009048462
1787774966436884700,5.372884765625,2.056748390197754,9.506782531738281,1.2495046854019165
1787774966452911600,5.38891162109375,2.072816848754883,9.49875545501709,1.2835384607315063
1787774966469001200,5.405001220703125,2.0953099727630615,9.490399360656738,1.3085895776748657
1787774966485041000,5.421041015625,2.1232266426086426,9.482329368591309,1.3220181465148926
1787774966501060900,5.437060791015625,2.154125690460205,9.476336479187012,1.3149837255477905
1787774966517105400,5.45310546875,2.18693208694458,9.472860336303711,1.2855501174926758
1787774966533153300,5.4691533203125,2.220506429672241,9.471275329589844,1.2388275861740112
1787774966549202200,5.4852021484375,2.257652759552002,9.469658851623535,1.1827733516693115
1787774966565246700,5.501246826171875,2.2975082397460938,9.467313766479492,1.123302936553955
1787774966581273900,5.51727392578125,2.3360698223114014,9.464781761169434,1.063515067100525
1787774966597340000,5.53333984375,2.370007276535034,9.462602615356445,1.006280779838562
1787774966613370400,5.549370361328125,2.3935751914978027,9.467103004455566,0.9028645157814026
1787774966629422300,5.56542236328125,2.4038236141204834,9.472678184509277,0.8126473426818848
1787774966645476000,5.58147607421875,2.4018502235412598,9.480113983154297,0.7272966504096985
1787774966661506300,5.59750634765625,2.4078211784362793,9.482169151306152,0.6791627407073975
1787774966677568300,5.613568359375,2.415308713912964,9.483434677124023,0.6333458423614502
1787774966693609200,5.629609130859375,2.425086736679077,9.483545303344727,0.5930699706077576
1787774966709671400,5.64567138671875,2.4369640350341797,9.482810974121094,0.554888129234314
1787774966725733000,5.661733154296875,2.4465620517730713,9.482420921325684,0.5181053280830383
1787774966741775400,5.677775390625,2.4486398696899414,9.483870506286621,0.4803796708583832
1787774966757856500,5.6938564453125,2.436774253845215,9.48865032196045,0.44502896070480347
1787774966773901800,5.70990185546875,2.4075989723205566,9.497869491577148,0.4054130017757416
1787774966789974000,5.72597412109375,2.375375509262085,9.506916999816895,0.38278353214263916
1787774966805994500,5.741994384765625,2.3424720764160156,9.515802383422852,0.3643389344215393
1787774966822036700,5.75803662109375,2.282944440841675,9.531452178955078,0.3316285014152527
1787774966838100000,5.774099853515625,2.22243070602417,9.546667098999023,0.3038923442363739
1787774966854151400,5.7901513671875,2.1653847694396973,9.560458183288574,0.281345009803772
1787774966870230300,5.806230224609375,2.113126277923584,9.572640419006348,0.26390811800956726
1787774966886252000,5.822251953125,2.0654940605163574,9.5834379196167,0.24868015944957733
1787774966902309600,5.8383095703125,2.023555278778076,9.592737197875977,0.23450902104377747
1787774966918410800,5.85441064453125,1.9914170503616333,9.599891662597656,0.21619799733161926
1787774966934472700,5.87047265625,1.9674509763717651,9.605268478393555,0.1958233118057251
1787774966950560500,5.886560546875,1.9540801048278809,9.608407020568848,0.17461363971233368
1787774966966594300,5.90259423828125,1.9595844745635986,9.607597351074219,0.15657617151737213
1787774966982615800,5.91861572265625,1.9843379259109497,9.602545738220215,0.15460632741451263
1787774966998645200,5.934645263671875,2.0159037113189697,9.595693588256836,0.17084172368049622
1787774967014667300,5.950667236328125,2.041409969329834,9.589824676513672,0.1957227736711502
1787774967030757600,5.966757568359375,2.051077365875244,9.587187767028809,0.22203649580478668
1787774967046773000,5.98277294921875,2.04036021232605,9.588839530944824,0.2479819506406784
1787774967062842400,5.99884228515625,2.0046606063842773,9.595770835876465,0.27001142501831055
1787774967078904800,6.01490478515625,1.9511890411376953,9.606250762939453,0.28847557306289673
1787774967094934300,6.030934326171875,1.898542881011963,9.616265296936035,0.3056064546108246
1787774967110989600,6.046989501953125,1.8540958166122437,9.624500274658203,0.3189440965652466
1787774967127102700,6.063102783203125,1.818318486213684,9.631009101867676,0.3282824158668518
1787774967143169800,6.079169677734375,1.8281238079071045,9.630189895629883,0.29631665349006653
1787774967159204000,6.0952041015625,1.8307167291641235,9.630122184753418,0.2821577787399292
1787774967175231200,6.111231201171875,1.8390525579452515,9.628541946411133,0.2818965017795563
1787774967191298800,6.127298828125,1.8547931909561157,9.625568389892578,0.2803367078304291
1787774967207312100,6.14331201171875,1.8682185411453247,9.623067855834961,0.2769993841648102
1787774967223330800,6.159330810546875,1.877041220664978,9.621578216552734,0.26895782351493835
1787774967239392800,6.175392822265625,1.9031788110733032,9.617283821105957,0.23702245950698853
1787774967255416800,6.191416748046875,1.9308401346206665,9.612525939941406,0.2039516717195511
1787774967271500500,6.20750048828125,1.9595179557800293,9.607379913330078,0.17010727524757385
1787774967287542300,6.223542236328125,1.9896897077560425,9.60172176361084,0.13594458997249603
1787774967303561000,6.23956103515625,2.015873432159424,9.596643447875977,0.10524696856737137
1787774967319601200,6.25560107421875,2.0367467403411865,9.592484474182129,0.07934943586587906
1787774967335619600,6.27161962890625,2.0553040504455566,9.588674545288086,0.05868804454803467
1787774967351703000,6.287703125,2.0757617950439453,9.584359169006348,0.041033145040273666
1787774967367733000,6.30373291015625,2.0997610092163086,9.579176902770996,0.02784896083176136
1787774967383752200,6.319752197265625,2.130443811416626,9.572420120239258,0.019466040655970573
1787774967399808000,6.33580810546875,2.165815591812134,9.564484596252441,0.01662760227918625
1787774967415829800,6.351829833984375,2.1979637145996094,9.557146072387695,0.017513737082481384
1787774967431918000,6.36791796875,2.2223217487335205,9.551506042480469,0.01983078196644783
1787774967447957500,6.38395751953125,2.236246347427368,9.54825496673584,0.01995323970913887
1787774967463975700,6.3999755859375,2.2400147914886475,9.547374725341797,0.018480537459254265
1787774967480013800,6.416013916015625,2.2328789234161377,9.549049377441406,0.017088497057557106
1787774967496035300,6.432035400390625,2.219244956970215,9.552225112915039,0.01869271881878376
1787774967512084000,6.448083984375,2.201608180999756,9.556303024291992,0.019833704456686974
1787774967528131300,6.46413134765625,2.2077744007110596,9.554840087890625,0.033882398158311844
1787774967544205600,6.48020556640625,2.238999366760254,9.547372817993164,0.0704910010099411
1787774967560274200,6.496274169921875,2.262465715408325,9.5413236618042,0.12151245772838593
1787774967576305400,6.512305419921875,2.2573440074920654,9.541884422302246,0.16505934298038483
1787774967592394000,6.52839404296875,2.232910394668579,9.547080993652344,0.19433526694774628
1787774967608489000,6.544489013671875,2.1963748931884766,9.555307388305664,0.2060169279575348
1787774967624566800,6.56056689453125,2.1514666080474854,9.565592765808105,0.2025175541639328
1787774967640608500,6.5766083984375,2.112868309020996,9.574347496032715,0.1950511634349823
1787774967656656100,6.59265625,2.107922077178955,9.57553768157959,0.19020546972751617
1787774967672700400,6.608700439453125,2.1635470390319824,9.563169479370117,0.1877012401819229
1787774967688764400,6.624764404296875,2.2638649940490723,9.540163040161133,0.17496231198310852
1787774967704845000,6.640844970703125,2.368521213531494,9.515317916870117,0.1386743187904358
1787774967720905000,6.656905029296875,2.4294979572296143,9.500666618347168,0.07242313772439957
1787774967736951300,6.672951416015625,2.4258148670196533,9.501882553100586,-0.006316343788057566
1787774967753014300,6.68901416015625,2.365499973297119,9.516756057739258,-0.07844313234090805
1787774967769047800,6.7050478515625,2.2704918384552,9.539261817932129,-0.13322876393795013
1787774967785142300,6.721142333984375,2.180037498474121,9.559907913208008,-0.16119696199893951
1787774967801201200,6.737201171875,2.107590675354004,9.576193809509277,-0.15799158811569214
1787774967817263600,6.753263671875,2.045869827270508,9.589948654174805,-0.13309095799922943
1787774967833341400,6.769341552734375,2.0075843334198,9.598475456237793,-0.09618775546550751
1787774967849364700,6.78536474609375,1.9902046918869019,9.602437973022461,-0.05163754150271416
1787774967865432800,6.801432861328125,1.9918770790100098,9.602228164672852,-0.006337970960885286
1787774967881539000,6.8175390625,2.0080227851867676,9.598825454711914,0.0279318168759346
1787774967897603600,6.833603515625,2.0341737270355225,9.593252182006836,0.04493482783436775
1787774967913682400,6.849682373046875,2.0651493072509766,9.586651802062988,0.04099705070257187
1787774967929721900,6.865721923828125,2.0993056297302246,9.579305648803711,0.015236293897032738
1787774967945739800,6.88173974609375,2.1341421604156494,9.571585655212402,-0.024774229153990746
1787774967961782800,6.89778271484375,2.166729211807251,9.564017295837402,-0.07239098846912384
1787774967977806800,6.913806884765625,2.1929006576538086,9.557613372802734,-0.11668270081281662
1787774967993868000,6.929867919921875,2.210883378982544,9.553014755249023,-0.14936725795269012
1787774968009927400,6.945927490234375,2.2230629920959473,9.549837112426758,-0.17037250101566315
1787774968025949400,6.961949462890625,2.2339720726013184,9.547149658203125,-0.17804624140262604
1787774968042019800,6.978019775390625,2.2429420948028564,9.54504108428955,-0.17834420502185822
1787774968058048800,6.994048828125,2.2525837421417236,9.542745590209961,-0.17963029444217682
1787774968074114000,7.010114013671875,2.2660558223724365,9.539527893066406,-0.18106749653816223
1787774968090186200,7.026186279296875,2.2843828201293945,9.535111427307129,-0.18346725404262543
1787774968106207700,7.042207763671875,2.304344892501831,9.530298233032227,-0.18392683565616608
1787774968122249500,7.05824951171875,2.3235855102539062,9.525684356689453,-0.1808323711156845
1787774968138273500,7.0742734375,2.3387575149536133,9.522093772888184,-0.17413243651390076
1787774968154350300,7.090350341796875,2.3524930477142334,9.518973350524902,-0.15912790596485138
1787774968170373600,7.10637353515625,2.3497610092163086,9.519649505615234,-0.1590646356344223
1787774968186396200,7.122396240234375,2.3230204582214355,9.525901794433594,-0.17650851607322693
1787774968202474500,7.138474609375,2.282412528991699,9.535297393798828,-0.1976889669895172
1787774968218500600,7.15450048828125,2.234969139099121,9.546229362487793,-0.2116878181695938
1787774968234583600,7.17058349609375,2.1870481967926025,9.557342529296875,-0.21079613268375397
1787774968250614800,7.18661474609375,2.140211820602417,9.568270683288574,-0.1951683610677719
1787774968266638000,7.20263818359375,2.084035634994507,9.580992698669434,-0.17827436327934265
1787774968282683400,7.218683349609375,2.0117058753967285,9.596588134765625,-0.1701372265815735
1787774968298711600,7.234711669921875,1.9404250383377075,9.611218452453613,-0.17208163440227509
1787774968314790000,7.250789794921875,1.9086405038833618,9.6175537109375,-0.1737074851989746
1787774968330869000,7.266868896484375,1.93193781375885,9.61285400390625,-0.17619681358337402
1787774968346934000,7.28293408203125,1.994700312614441,9.599882125854492,-0.1839752048254013
1787774968362973200,7.29897314453125,2.064194679260254,9.585001945495605,-0.19302476942539215
1787774968378990300,7.314990234375,2.1207115650177,9.572452545166016,-0.20281361043453217
1787774968395061500,7.3310615234375,2.142249345779419,9.567407608032227,-0.21423882246017456
1787774968411101200,7.34710107421875,2.1192290782928467,9.572198867797852,-0.22869126498699188
1787774968427157200,7.3631572265625,2.065460205078125,9.583645820617676,-0.24083544313907623
1787774968443180500,7.3791806640625,2.004824161529541,9.596298217773438,-0.24923808872699738
1787774968459197000,7.395197021484375,1.9569478034973145,9.606139183044434,-0.25068214535713196
1787774968475273000,7.41127294921875,1.9307185411453247,9.611642837524414,-0.2430029958486557
1787774968491356000,7.42735595703125,1.9203006029129028,9.614274978637695,-0.22035160660743713
1787774968507423500,7.443423583984375,1.9276281595230103,9.613533020019531,-0.1860872209072113
1787774968523487000,7.459487060546875,1.9482178688049316,9.61002254486084,-0.14927169680595398
1787774968539520800,7.475520751953125,1.9764742851257324,9.604692459106445,-0.11757131665945053
1787774968555557600,7.4915576171875,2.0123965740203857,9.597505569458008,-0.09244856983423233
1787774968571604700,7.507604736328125,2.0566415786743164,9.588276863098145,-0.07449162006378174
1787774968587688400,7.5236884765625,2.113949775695801,9.575918197631836,-0.058417703956365585
1787774968603736800,7.53973681640625,2.1763620376586914,9.56200122833252,-0.04444178566336632
1787774968619775700,7.555775634765625,2.215350866317749,9.553077697753906,-0.0363449864089489
1787774968635842600,7.571842529296875,2.231165647506714,9.549413681030273,-0.031563013792037964
1787774968651906000,7.587906005859375,2.2248482704162598,9.550897598266602,-0.02844882756471634
1787774968667993000,7.6039931640625,2.217486619949341,9.552628517150879,-0.02089826576411724
1787774968684065300,7.620065185546875,2.213437795639038,9.5535888671875,-0.006817425135523081
1787774968700112000,7.63611181640625,2.2164461612701416,9.552881240844727,0.014966975897550583
1787774968716177400,7.652177490234375,2.228229522705078,9.550049781799316,0.044176265597343445
1787774968732207900,7.668207763671875,2.249089479446411,9.54491901397705,0.08077172189950943
1787774968748264700,7.6842646484375,2.2733237743377686,9.538758277893066,0.12030468881130219
1787774968764345300,7.700345458984375,2.296262741088867,9.532719612121582,0.15761442482471466
1787774968780403000,7.71640283203125,2.3140416145324707,9.52791976928711,0.18540260195732117
1787774968796494000,7.732494140625,2.3293261528015137,9.523834228515625,0.20306889712810516
1787774968812525800,7.74852587890625,2.3469576835632324,9.519306182861328,0.21211963891983032
1787774968828587800,7.764587890625,2.372252941131592,9.513045310974121,0.21159546077251434
1787774968844705300,7.780705322265625,2.3966619968414307,9.507064819335938,0.2052544206380844
1787774968860768300,7.796768310546875,2.4068472385406494,9.504526138305664,0.20366203784942627
1787774968876811300,7.812811279296875,2.4052462577819824,9.50482177734375,0.20871055126190186
1787774968892863500,7.828863525390625,2.396745443344116,9.506675720214844,0.22166238725185394
1787774968908877600,7.844877685546875,2.387320041656494,9.508709907531738,0.23564517498016357
1787774968924892000,7.860891845703125,2.385345697402954,9.508862495422363,0.24904797971248627
1787774968940910800,7.876910888671875,2.4124155044555664,9.501447677612305,0.2704470455646515
1787774968957001700,7.893001708984375,2.470787525177002,9.485750198364258,0.2935045063495636
1787774968973094400,7.909094482421875,2.5549755096435547,9.462850570678711,0.3114117980003357
1787774968989149700,7.925149658203125,2.638648271560669,9.439858436584473,0.3114633560180664
1787774969005185800,7.941185791015625,2.698429584503174,9.423604965209961,0.29073798656463623
1787774969021209000,7.957208984375,2.713230848312378,9.420324325561523,0.2574766278266907
1787774969037266200,7.97326611328125,2.6832571029663086,9.429888725280762,0.2184903472661972
1787774969053283800,7.989283935546875,2.614225149154663,9.45012378692627,0.17713892459869385
1787774969069304300,8.00530419921875,2.5354456901550293,9.472135543823242,0.14342238008975983
1787774969085335000,8.0213349609375,2.4577836990356445,9.492838859558105,0.12534545361995697
1787774969101359600,8.037359619140625,2.39066481590271,9.509950637817383,0.1263612061738968
1787774969117417000,8.0534169921875,2.3431332111358643,9.521442413330078,0.14915449917316437
1787774969133431300,8.069431396484376,2.319148540496826,9.526512145996094,0.1936674416065216
1787774969149447400,8.085447509765626,2.318621873855591,9.52528190612793,0.2517635226249695
1787774969165504800,8.1015048828125,2.333162307739258,9.51987075805664,0.3143438994884491
1787774969181526500,8.117526611328126,2.359043836593628,9.51152229309082,0.3691098690032959
1787774969197593900,8.13359375,2.393996000289917,9.501019477844238,0.41209474205970764
1787774969213620200,8.1496201171875,2.4347171783447266,9.489790916442871,0.4317655861377716
1787774969229685800,8.165685791015624,2.4802117347717285,9.47841739654541,0.42255014181137085
1787774969245729500,8.1817294921875,2.527545213699341,9.46765422821045,0.381375253200531
1787774969261754600,8.197754638671874,2.5699996948242188,9.458578109741211,0.3174892067909241
1787774969277847300,8.213847412109375,2.6080987453460693,9.450374603271484,0.24214038252830505
1787774969293883600,8.229883544921876,2.6428439617156982,9.442354202270508,0.16650639474391937
1787774969309952500,8.245952392578126,2.6726884841918945,9.434859275817871,0.1027509868144989
1787774969326002200,8.262002197265625,2.7019999027252197,9.426911354064941,0.05433686450123787
1787774969342028800,8.27802880859375,2.7341701984405518,9.417757987976074,0.023587284609675407
1787774969358075000,8.294074951171876,2.7710611820220947,9.406994819641113,0.008551555685698986
1787774969374116600,8.31011669921875,2.816779375076294,9.393409729003906,0.0012100334279239178
1787774969390136000,8.326135986328126,2.869473457336426,9.377447128295898,-0.004211699590086937
1787774969406184200,8.34218408203125,2.922821044921875,9.36094856262207,-0.012101284228265285
1787774969422218200,8.35821826171875,2.9700498580932617,9.346051216125488,-0.02241385728120804
1787774969438263800,8.374263916015625,3.0106630325317383,9.333022117614746,-0.03192731738090515
1787774969454314500,8.390314453125,3.042325496673584,9.322699546813965,-0.043629154562950134
1787774969470336000,8.4063359375,3.0575411319732666,9.317597389221191,-0.06490538269281387
1787774969486412500,8.42241259765625,3.055246353149414,9.31812858581543,-0.09132862091064453
1787774969502447600,8.438447509765625,3.035585403442383,9.324200630187988,-0.12205833196640015
1787774969518510300,8.45451025390625,3.0054824352264404,9.333559036254883,-0.14877310395240784
1787774969534580200,8.470580322265626,2.969134569168091,9.344910621643066,-0.16513854265213013
1787774969550619100,8.486619140625,2.9318501949310303,9.356589317321777,-0.16993995010852814
1787774969566674200,8.502674072265625,2.893059492111206,9.368803977966309,-0.16161927580833435
1787774969582711600,8.518711669921874,2.8487136363983154,9.382649421691895,-0.1452532559633255
1787774969598771700,8.534771728515626,2.7958858013153076,9.398754119873047,-0.12976378202438354
1787774969614834400,8.55083447265625,2.733978509902954,9.417078971862793,-0.11990706622600555
1787774969630884600,8.566884521484376,2.6789474487304688,9.432989120483398,-0.11124635487794876
1787774969646963200,8.582963134765626,2.65337872505188,9.440311431884766,-0.10245375335216522
1787774969663015700,8.599015625,2.653315544128418,9.440361022949219,-0.09953509271144867
1787774969679094000,8.615093994140626,2.6619653701782227,9.437814712524414,-0.1094181165099144
1787774969695112200,8.6311123046875,2.6634202003479004,9.437132835388184,-0.13070859014987946
1787774969711218200,8.64721826171875,2.6463403701782227,9.44141960144043,-0.16394378244876862
1787774969727295000,8.663294921875,2.606238842010498,9.45183277130127,-0.20199176669120789
1787774969743361000,8.679361083984375,2.5564982891082764,9.46456527709961,-0.23810674250125885
1787774969759452200,8.6954521484375,2.5074470043182373,9.476839065551758,-0.26950523257255554
1787774969775485200,8.711485107421876,2.4583868980407715,9.488921165466309,-0.29515302181243896
1787774969791592400,8.727592529296874,2.405111312866211,9.502044677734375,-0.31141266226768494
1787774969807693600,8.743693603515625,2.3679847717285156,9.510895729064941,-0.3254213035106659
1787774969823715600,8.759715576171875,2.3260581493377686,9.521202087402344,-0.32644787430763245
1787774969839762200,8.77576220703125,2.293045997619629,9.529541969299316,-0.316471129655838
1787774969855816000,8.79181591796875,2.284855842590332,9.531761169433594,-0.3088248372077942
1787774969871837700,8.807837646484375,2.308793067932129,9.525970458984375,-0.3094235360622406
1787774969887880400,8.82388037109375,2.371162176132202,9.51046371459961,-0.31476956605911255
1787774969903903500,8.839903564453126,2.467437505722046,9.485855102539062,-0.3173360526561737
1787774969919953000,8.855952880859375,2.570779323577881,9.458412170410156,-0.3161431849002838
1787774969936054300,8.87205419921875,2.6613848209381104,9.43342113494873,-0.31299057602882385
1787774969952117500,8.888117431640625,2.7153053283691406,9.418062210083008,-0.3124282658100128
1787774969968162800,8.904162841796875,2.740551471710205,9.41063117980957,-0.31588804721832275
1787774969984185600,8.920185546875,2.746826171875,9.408659934997559,-0.32007279992103577
1787774970000243700,8.93624365234375,2.7520155906677246,9.40718936920166,-0.3187061846256256
1787774970016351700,8.952351806640625,2.7645132541656494,9.403931617736816,-0.3065153956413269
1787774970032418300,8.968418212890626,2.786566734313965,9.398141860961914,-0.2834833264350891
1787774970048460800,8.984460693359376,2.8186516761779785,9.389452934265137,-0.2525714635848999
1787774970064486400,9.000486328125,2.8634867668151855,9.376714706420898,-0.21921266615390778
1787774970080568300,9.016568359375,2.9219021797180176,9.359402656555176,-0.18560893833637238
1787774970096614700,9.03261474609375,2.991380214691162,9.338016510009766,-0.1532633900642395
1787774970112688600,9.048688720703124,3.0617852210998535,9.315601348876953,-0.12422990053892136
1787774970128740900,9.064740966796874,3.129222869873047,9.293313980102539,-0.1125580221414566
1787774970144771600,9.080771484375,3.199474811553955,9.269384384155273,-0.11074235290288925
1787774970160852200,9.096852294921876,3.250514507293701,9.251923561096191,-0.08034648001194
1787774970176888600,9.112888671875,3.268617868423462,9.24588394165039,-0.013396365568041801
1787774970192913700,9.12891357421875,3.270916223526001,9.244894027709961,0.05859627574682236
1787774970208962000,9.144962158203125,3.260101318359375,9.248042106628418,0.12591946125030518
1787774970224987000,9.16098681640625,3.2430620193481445,9.253047943115234,0.18451426923274994
1787774970241045000,9.177044921875,3.220820188522339,9.259740829467773,0.2321779429912567
1787774970257083600,9.193083740234375,3.1920647621154785,9.268588066101074,0.27274930477142334
1787774970273146600,9.209146728515625,3.1568992137908936,9.279274940490723,0.3153400719165802
1787774970289192200,9.225192138671876,3.127868413925171,9.287270545959473,0.36524611711502075
1787774970305213200,9.241213134765625,3.110447406768799,9.291108131408691,0.4133298993110657
1787774970321266400,9.257266357421875,3.097952127456665,9.294292449951172,0.4349859952926636
1787774970337314000,9.27331396484375,3.0802907943725586,9.30073356628418,0.4225422739982605
1787774970353338600,9.289338623046875,3.0579140186309814,9.310050010681152,0.37751317024230957
1787774970369388800,9.305388916015625,3.035017728805542,9.319907188415527,0.313681036233902
1787774970385417000,9.3214169921875,3.0124218463897705,9.329216003417969,0.2478928118944168
1787774970401480200,9.337480224609376,2.989682912826538,9.337922096252441,0.18813349306583405
1787774970417539300,9.353539306640625,2.9609756469726562,9.34797191619873,0.1357562392950058
1787774970433569800,9.36956982421875,2.9201836585998535,9.361281394958496,0.0965830385684967
1787774970449638700,9.385638671875,2.8680810928344727,9.377591133117676,0.07270532101392746
1787774970465674800,9.4016748046875,2.8102433681488037,9.3951416015625,0.0651322528719902
1787774970481731800,9.41773193359375,2.7552082538604736,9.411380767822266,0.07172799855470657
1787774970497785000,9.43378515625,2.708742380142212,9.42469310760498,0.09085121750831604
1787774970513824000,9.449823974609375,2.684368371963501,9.431386947631836,0.11628419905900955
1787774970529887000,9.465886962890625,2.6839632987976074,9.43114185333252,0.14241933822631836
1787774970545929500,9.481929443359375,2.7022206783294678,9.4256010055542,0.1626318246126175
1787774970561985800,9.49798583984375,2.730677604675293,9.417191505432129,0.17408202588558197
1787774970578047500,9.514047607421874,2.7611277103424072,9.40826416015625,0.17647184431552887
1787774970594142000,9.530141845703126,2.7823243141174316,9.402207374572754,0.16601766645908356
1787774970610227700,9.546227783203125,2.7903900146484375,9.400206565856934,0.1422688364982605
1787774970626278700,9.562278564453125,2.7899937629699707,9.40077018737793,0.10881693661212921
1787774970642341400,9.57834130859375,2.7927334308624268,9.400335311889648,0.06870178133249283
1787774970658359000,9.594359130859376,2.8059237003326416,9.396623611450195,0.025379355996847153
1787774970674454300,9.610454345703126,2.8337364196777344,9.388278007507324,-0.02393237315118313
1787774970690527000,9.62652685546875,2.8729238510131836,9.376060485839844,-0.07861702889204025
1787774970706586600,9.642586669921876,2.9161977767944336,9.362059593200684,-0.13434651494026184
1787774970722659000,9.6586591796875,2.957655191421509,9.348114013671875,-0.188232421875
1787774970738687200,9.674687255859375,3.0166094303131104,9.327737808227539,-0.2525210678577423
1787774970754750000,9.69075,3.0533173084259033,9.313994407653809,-0.31169310212135315
1787774970770851800,9.706851806640625,3.0904839038848877,9.29955768585205,-0.3708522617816925
1787774970786877000,9.722876953125,3.121448040008545,9.28678035736084,-0.4273930490016937
1787774970802972700,9.73897265625,3.144590139389038,9.27624225616455,-0.48298197984695435
1787774970819020300,9.755020263671875,3.155867338180542,9.269387245178223,-0.5379205942153931
1787774970835042600,9.77104248046875,3.1550698280334473,9.26624584197998,-0.5938292145729065
1787774970851081500,9.78708154296875,3.142648458480835,9.266674041748047,-0.6503186225891113
1787774970867103500,9.803103515625,3.1217257976531982,9.2698335647583,-0.703858494758606
1787774970883157000,9.819156982421875,3.09735107421875,9.27440357208252,-0.749840497970581
1787774970899207700,9.835207763671875,3.068709373474121,9.280750274658203,-0.7881067991256714
1787774970915221800,9.8512216796875,3.032477378845215,9.29038143157959,-0.814411461353302
1787774970931279600,9.867279541015625,2.9884846210479736,9.30358600616455,-0.8262152671813965
1787774970947303200,9.88330322265625,2.946040153503418,9.317521095275879,-0.8216168284416199
1787774970963368200,9.8993681640625,2.9072458744049072,9.331216812133789,-0.8041825890541077
1787774970979436000,9.91543603515625,2.8670945167541504,9.34564208984375,-0.7804784774780273
1787774970995459600,9.93145947265625,2.8211634159088135,9.36130428314209,-0.7598787546157837
1787774971011503400,9.94750341796875,2.765825033187866,9.378640174865723,-0.7494798302650452
1787774971027527700,9.963527587890624,2.7068536281585693,9.395992279052734,-0.7474404573440552
1787774971043614000,9.979614013671876,2.654212236404419,9.410662651062012,-0.7516621351242065
1787774971059642000,9.99564208984375,2.6118695735931396,9.421777725219727,-0.760673999786377
1787774971075662800,10.011662841796875,2.5845046043395996,9.428302764892578,-0.7732105255126953
1787774971091722200,10.02772216796875,2.65458083152771,9.402962684631348,-0.8413575887680054
1787774971107743700,10.04374365234375,2.7135462760925293,9.379212379455566,-0.9151186943054199
1787774971123829800,10.059829833984375,2.681039571762085,9.389254570007324,-0.9079153537750244
1787774971139862500,10.075862548828125,2.647041082382202,9.400897979736328,-0.886945903301239
1787774971155884300,10.09188427734375,2.617891311645508,9.41115665435791,-0.8643839955329895
1787774971171926500,10.107926513671876,2.595869302749634,9.418423652648926,-0.851560115814209
1787774971187949000,10.123948974609375,2.583996057510376,9.421422958374023,-0.8544865250587463
1787774971204046300,10.14004638671875,2.585474729537964,9.418767929077148,-0.8789300918579102
1787774971220094700,10.1560947265625,2.6019814014434814,9.409525871276855,-0.9278513789176941
1787774971236118300,10.1721181640625,2.631038188934326,9.39497184753418,-0.9912304878234863
1787774971252182800,10.188182861328125,2.672729969024658,9.374977111816406,-1.0661680698394775
1787774971268209000,10.204208984375,2.7201762199401855,9.352909088134766,-1.1376030445098877
1787774971284262400,10.220262451171875,2.7714273929595947,9.330012321472168,-1.2001862525939941
1787774971300322000,10.236322021484375,2.8270621299743652,9.306575775146484,-1.2513015270233154
1787774971316342800,10.2523427734375,2.891695976257324,9.28158187866211,-1.2886863946914673
1787774971332382200,10.26838232421875,2.9592978954315186,9.258056640625,-1.3043475151062012
1787774971348408600,10.28440869140625,3.028416395187378,9.23589038848877,-1.3028473854064941
1787774971364458800,10.300458740234374,3.0902717113494873,9.21767520904541,-1.286502480506897
1787774971380517000,10.31651708984375,3.138885259628296,9.205435752868652,-1.2560880184173584
1787774971396548000,10.332548095703125,3.172515630722046,9.199599266052246,-1.213635802268982
1787774971412627000,10.348626953125,3.1956899166107178,9.198760986328125,-1.1579228639602661
1787774971428668400,10.36466845703125,3.2100515365600586,9.201616287231445,-1.0937232971191406
1787774971444734500,10.380734375,3.2159605026245117,9.207172393798828,-1.027604579925537
1787774971460800300,10.39680029296875,3.215726375579834,9.214441299438477,-0.9610353112220764
1787774971476867800,10.412867919921876,3.2129857540130615,9.22192096710205,-0.8962679505348206
1787774971492931300,10.428931396484375,3.208064317703247,9.229540824890137,-0.8332330584526062
1787774971508974600,10.444974609375,3.2068169116973877,9.235404014587402,-0.7707408666610718
1787774971525046800,10.461046875,3.2078776359558105,9.239733695983887,-0.712191104888916
1787774971541064200,10.477064208984375,3.210007905960083,9.243011474609375,-0.657998263835907
1787774971557115000,10.493114990234375,3.210538625717163,9.246211051940918,-0.6086180210113525
1787774971573193700,10.50919384765625,3.2156872749328613,9.247659683227539,-0.5572768449783325
1787774971589252400,10.52525244140625,3.2301089763641357,9.245901107788086,-0.5000945925712585
1787774971605332000,10.54133203125,3.2363362312316895,9.246613502502441,-0.4434531033039093
1787774971621361200,10.557361083984375,3.2359068393707275,9.249446868896484,-0.38346776366233826
1787774971637421600,10.573421630859375,3.2253153324127197,9.255420684814453,-0.32394251227378845
1787774971653527600,10.589527587890625,3.1966865062713623,9.267206192016602,-0.26548802852630615
1787774971669597200,10.60559716796875,3.150237798690796,9.284394264221191,-0.21541301906108856
1787774971685687600,10.6216875,3.0935208797454834,9.304314613342285,-0.1739504635334015
1787774971701721900,10.637721923828124,3.0335872173309326,9.324729919433594,-0.1310427188873291
1787774971717842200,10.65384228515625,2.988208055496216,9.33981990814209,-0.09371782094240189
1787774971733886500,10.669886474609376,2.971095085144043,9.345418930053711,-0.07820486277341843
1787774971749911000,10.6859111328125,2.9816999435424805,9.34188461303711,-0.09513780474662781
1787774971765965800,10.7019658203125,3.014431953430176,9.330791473388672,-0.14117269217967987
1787774971782016800,10.718016845703126,3.057056188583374,9.315820693969727,-0.20072317123413086
1787774971798084900,10.7340849609375,3.093343734741211,9.302608489990234,-0.2511748671531677
1787774971814115800,10.75011572265625,3.1123037338256836,9.295385360717773,-0.28246384859085083
1787774971830141700,10.7661416015625,3.101527214050293,9.298821449279785,-0.28782889246940613
1787774971846200800,10.782200927734374,3.060195207595825,9.312973022460938,-0.27227285504341125
1787774971862261500,10.798261474609374,2.993138551712036,9.335691452026367,-0.2374732941389084
1787774971878283000,10.814282958984375,2.9185094833374023,9.360457420349121,-0.18579617142677307
1787774971894329000,10.8303291015625,2.8550119400024414,9.380995750427246,-0.1273534744977951
1787774971910355000,10.84635498046875,2.8028371334075928,9.397343635559082,-0.06647773832082748
1787774971926418400,10.86241845703125,2.7632949352264404,9.409273147583008,-0.013875887729227543
1787774971942485500,10.878485595703125,2.759204149246216,9.410385131835938,0.043087638914585114
1787774971958506200,10.89450634765625,2.765629529953003,9.408045768737793,0.10179287940263748
1787774971974548200,10.91054833984375,2.750553607940674,9.411978721618652,0.13971813023090363
1787774971990569700,10.92656982421875,2.729348659515381,9.4177827835083,0.16253480315208435
1787774972006644500,10.94264453125,2.7199037075042725,9.420129776000977,0.1835254430770874
1787774972022664000,10.958663818359375,2.7269608974456787,9.41768741607666,0.20311257243156433
1787774972038685400,10.974685546875,2.7490644454956055,9.410855293273926,0.22095653414726257
1787774972054738000,10.990738037109375,2.7835214138031006,9.400333404541016,0.23694944381713867
1787774972070759400,11.006759521484375,2.825160026550293,9.387578010559082,0.24950967729091644
1787774972086849000,11.02284912109375,2.8669822216033936,9.374659538269043,0.2580689489841461
1787774972102881300,11.03888134765625,2.909355640411377,9.361306190490723,0.26829221844673157
1787774972118903800,11.05490380859375,2.947314977645874,9.349042892456055,0.2812780737876892
1787774972134959000,11.070958984375,2.9843485355377197,9.33723258972168,0.2830611765384674
1787774972150984200,11.086984130859374,3.018585443496704,9.326366424560547,0.2782754898071289
1787774972167033000,11.103033203125,3.051206588745117,9.315938949584961,0.271702378988266
1787774972183074300,11.11907421875,3.07780122756958,9.307409286499023,0.2639177739620209
1787774972199097000,11.13509716796875,3.094552993774414,9.301888465881348,0.2627238631248474
1787774972215154000,11.15115380859375,3.10123610496521,9.299478530883789,0.2691134810447693
1787774972231184100,11.16718408203125,3.102267265319824,9.298794746398926,0.28063830733299255
1787774972247236600,11.183236572265624,3.0932719707489014,9.30142879486084,0.2923727333545685
1787774972263279400,11.199279296875,3.0718960762023926,9.308145523071289,0.3037446141242981
1787774972279303400,11.215303466796875,3.0385420322418213,9.318726539611816,0.3146100640296936
1787774972295350800,11.231350830078124,2.9970054626464844,9.331905364990234,0.3223182260990143
1787774972311388000,11.247387939453125,2.953998327255249,9.345501899719238,0.32537785172462463
1787774972327451600,11.26345166015625,2.917468547821045,9.357025146484375,0.3238212466239929
1787774972343508500,11.279508544921875,2.8904402256011963,9.365644454956055,0.3169477880001068
1787774972359555000,11.29555517578125,2.8553061485290527,9.376500129699707,0.314386785030365
1787774972375633400,11.31163330078125,2.826441526412964,9.385290145874023,0.31300249695777893
1787774972391684900,11.327684814453125,2.8211262226104736,9.387060165405273,0.307827353477478
1787774972407745800,11.343745849609375,2.812509059906006,9.389652252197266,0.30755525827407837
1787774972423766300,11.359766357421876,2.791844367980957,9.395928382873535,0.3042090833187103
1787774972439812600,11.3758125,2.7415993213653564,9.411312103271484,0.28502529859542847
1787774972455883000,11.391883056640625,2.6735873222351074,9.431750297546387,0.25377389788627625
1787774972471936500,11.4079365234375,2.612910270690918,9.449555397033691,0.2214135378599167
1787774972488003300,11.42400341796875,2.5861988067626953,9.457304954528809,0.2033722698688507
1787774972504022300,11.440022216796875,2.6025142669677734,9.452842712402344,0.20269246399402618
1787774972520127000,11.456126953125,2.6453874111175537,9.440460205078125,0.22363092005252838
1787774972536211700,11.472211669921874,2.686021089553833,9.428057670593262,0.25966259837150574
1787774972552280300,11.4882802734375,2.692925453186035,9.42516803741455,0.29115694761276245
1787774972568353300,11.504353271484375,2.658428907394409,9.434527397155762,0.30474400520324707
1787774972584388600,11.520388671875,2.598600149154663,9.451255798339844,0.3023563623428345
1787774972600502800,11.536502685546875,2.545379877090454,9.466060638427734,0.29180312156677246
1787774972616581400,11.552581298828125,2.515315532684326,9.47438907623291,0.2820151448249817
1787774972632649500,11.5686494140625,2.509686231613159,9.47612476348877,0.27372926473617554
1787774972648733400,11.5847333984375,2.518368721008301,9.47399616241455,0.2676272988319397
1787774972664778000,11.600778076171874,2.5367062091827393,9.469050407409668,0.26943477988243103
1787774972680797400,11.61679736328125,2.5602645874023438,9.462350845336914,0.2817378044128418
1787774972696859100,11.632859130859375,2.5872950553894043,9.454246520996094,0.3058168888092041
1787774972712885800,11.6488857421875,2.6173555850982666,9.444820404052734,0.33945146203041077
1787774972728947000,11.664947021484375,2.646554708480835,9.435205459594727,0.37819093465805054
1787774972745007600,11.681007568359375,2.6670823097229004,9.427783966064453,0.41708341240882874
1787774972761026000,11.697026123046875,2.667011022567749,9.426191329956055,0.45207977294921875
1787774972777065500,11.7130654296875,2.6460368633270264,9.430808067321777,0.4782751202583313
1787774972793087700,11.729087646484375,2.616738796234131,9.438163757324219,0.4940814673900604
1787774972809142300,11.745142333984376,2.5948832035064697,9.443802833557129,0.5015653967857361
1787774972825251600,11.76125146484375,2.5895676612854004,9.444975852966309,0.5069261789321899
1787774972841313300,11.777313232421875,2.6009223461151123,9.441280364990234,0.5175129175186157
1787774972857363700,11.79336376953125,2.625438928604126,9.433237075805664,0.5399364829063416
1787774972873382700,11.809382568359375,2.656450033187866,9.422321319580078,0.5775132179260254
1787774972889454600,11.82545458984375,2.689091444015503,9.409929275512695,0.6264176368713379
1787774972905470200,11.84147021484375,2.721226215362549,9.396737098693848,0.6831313371658325
1787774972921486000,11.857486083984375,2.7474732398986816,9.385051727294922,0.7365888953208923
1787774972937526000,11.873526123046876,2.767211437225342,9.375664710998535,0.7809268236160278
1787774972953550800,11.88955078125,2.781890630722046,9.36862850189209,0.812584400177002
1787774972969633500,11.905633544921875,2.792529582977295,9.364120483398438,0.8278960585594177
1787774972985659000,11.921658935546875,2.8069839477539062,9.359503746032715,0.8312015533447266
1787774973001673200,11.937673095703126,2.823599338531494,9.355018615722656,0.8254212141036987
1787774973017737700,11.95373779296875,2.836012601852417,9.352790832519531,0.8079236745834351
1787774973033755600,11.969755615234375,2.8446497917175293,9.350869178771973,0.7997581958770752
1787774973049844700,11.9858447265625,2.8476805686950684,9.34986686706543,0.8006824851036072
1787774973065886000,12.001885986328125,2.8458027839660645,9.34964370727539,0.8099110722541809
1787774973081932000,12.01793212890625,2.8380260467529297,9.351180076599121,0.8194225430488586
1787774973097940500,12.0339404296875,2.819460868835449,9.356809616088867,0.8192307949066162
1787774973113955600,12.04995556640625,2.797805070877075,9.363967895507812,0.81166011095047
1787774973130020900,12.066020751953126,2.800292730331421,9.363340377807617,0.8103190660476685
1787774973146088400,12.08208837890625,2.8254072666168213,9.356111526489258,0.806624710559845
1787774973162099700,12.098099609375,2.8611831665039062,9.346314430236816,0.79399174451828
1787774973178122500,12.11412255859375,2.892127275466919,9.338285446166992,0.7761670351028442
1787774973194139600,12.1301396484375,2.896664619445801,9.3386812210083,0.7541770339012146
1787774973210222000,12.14622216796875,2.8549606800079346,9.35362434387207,0.7275296449661255
1787774973226302500,12.162302490234374,2.766388177871704,9.382644653320312,0.6953073740005493
1787774973242372900,12.178372802734375,2.6448917388916016,9.419967651367188,0.6626697778701782
1787774973258415600,12.19441552734375,2.5227508544921875,9.45514965057373,0.6373786330223083
1787774973274438100,12.210438232421875,2.415416717529297,9.483855247497559,0.6266210675239563
1787774973290526000,12.22652587890625,2.328765630722046,9.505485534667969,0.6269114017486572
1787774973306617900,12.242617919921875,2.274268627166748,9.518291473388672,0.6326412558555603
1787774973322695400,12.2586953125,2.260390281677246,9.5210542678833,0.6407366991043091
1787774973338761000,12.274760986328126,2.2881834506988525,9.513517379760742,0.6539177894592285
1787774973354798300,12.29079833984375,2.3431460857391357,9.498963356018066,0.6706637144088745
1787774973370844000,12.306843994140625,2.4109325408935547,9.480964660644531,0.6849144697189331
1787774973386944800,12.32294482421875,2.4805147647857666,9.46291732788086,0.686036229133606
1787774973403031600,12.339031494140626,2.5441715717315674,9.447757720947266,0.661405086517334
1787774973419082200,12.355082275390625,2.5966556072235107,9.436965942382812,0.6094739437103271
1787774973435128300,12.37112841796875,2.6403868198394775,9.42955207824707,0.5313099026679993
1787774973451202000,12.3872021484375,2.677614212036133,9.42370891571045,0.44102030992507935
1787774973467267600,12.403267578125,2.7092044353485107,9.418420791625977,0.35207098722457886
1787774973483368000,12.419367919921875,2.731031656265259,9.414653778076172,0.27601826190948486
1787774973499458600,12.43545849609375,2.7421278953552246,9.413013458251953,0.2152262181043625
1787774973515519000,12.45151904296875,2.7441389560699463,9.413298606872559,0.17294688522815704
1787774973531591400,12.46759130859375,2.7444567680358887,9.413675308227539,0.1451430767774582
1787774973547615200,12.483615234375,2.749957799911499,9.412386894226074,0.12293869256973267
1787774973563669800,12.499669677734374,2.7667977809906006,9.407683372497559,0.10355901718139648
1787774973579753000,12.5157529296875,2.7926788330078125,9.400218963623047,0.08502893894910812
1787774973595815700,12.531815673828126,2.8116440773010254,9.394685745239258,0.07012947648763657
1787774973611908000,12.547908203125,2.8254833221435547,9.39062213897705,0.05711085721850395
1787774973627945000,12.563945068359375,2.8329663276672363,9.388426780700684,0.04653393477201462
1787774973643964400,12.57996435546875,2.828474760055542,9.389808654785156,0.04020882397890091
1787774973660014000,12.59601416015625,2.8107383251190186,9.3951416015625,0.03855959326028824
1787774973676034600,12.61203466796875,2.784749746322632,9.402864456176758,0.041226331144571304
1787774973692092200,12.628092041015625,2.758746862411499,9.410487174987793,0.04934797063469887
1787774973708154400,12.644154296875,2.7322778701782227,9.418107986450195,0.06548530608415604
1787774973724174600,12.660174560546874,2.710455894470215,9.424165725708008,0.09444631636142731
1787774973740216300,12.67621630859375,2.6919257640838623,9.428956985473633,0.13678498566150665
1787774973756235000,12.692235107421874,2.6698765754699707,9.434459686279297,0.18198241293430328
1787774973772301800,12.7083017578125,2.633471727371216,9.44389533996582,0.21924364566802979
1787774973788319700,12.72431982421875,2.5792105197906494,9.458415031433105,0.23758842051029205
1787774973804385300,12.74038525390625,2.5218887329101562,9.473652839660645,0.24573753774166107
1787774973820415000,12.7564150390625,2.495701551437378,9.480210304260254,0.2597581744194031
1787774973836435000,12.77243505859375,2.5056047439575195,9.47708511352539,0.27784913778305054
1787774973852481500,12.7884814453125,2.530500888824463,9.469799041748047,0.29978886246681213
1787774973868529700,12.80452978515625,2.5538578033447266,9.462655067443848,0.32609423995018005
1787774973884591600,12.820591552734374,2.559478759765625,9.460229873657227,0.35143721103668213
1787774973900619300,12.836619384765624,2.544481039047241,9.46362590789795,0.36854952573776245
1787774973916640500,12.852640625,2.514333486557007,9.471625328063965,0.36989933252334595
1787774973932714800,12.86871484375,2.477724313735962,9.482004165649414,0.35055211186408997
1787774973948763000,12.884762939453125,2.443544626235962,9.491979598999023,0.31904709339141846
1787774973964778500,12.900778564453125,2.417933702468872,9.49959659576416,0.28580695390701294
1787774973980826000,12.916826171875,2.430286407470703,9.497365951538086,0.2532368004322052
1787774973996844800,12.9328447265625,2.447023391723633,9.493396759033203,0.24062253534793854
1787774974012932000,12.94893212890625,2.4267165660858154,9.49796199798584,0.2648293375968933
1787774974028964400,12.96496435546875,2.4017958641052246,9.502998352050781,0.3079049587249756
1787774974044980000,12.98097998046875,2.3821446895599365,9.506301879882812,0.3549998700618744
1787774974061023200,12.997023193359375,2.3739519119262695,9.506583213806152,0.3995072841644287
1787774974077046000,13.0130458984375,2.378460168838501,9.503838539123535,0.43630775809288025
1787774974093091600,13.029091552734375,2.3873043060302734,9.500393867492676,0.4622538089752197
1787774974109138200,13.04513818359375,2.390810012817383,9.498618125915527,0.48028045892715454
1787774974125159200,13.0611591796875,2.388320207595825,9.498634338378906,0.49220162630081177
1787774974141218800,13.07721875,2.3683955669403076,9.503682136535645,0.4910461902618408
1787774974157248500,13.09324853515625,2.3472776412963867,9.508963584899902,0.49020007252693176
1787774974173343700,13.10934375,2.3308889865875244,9.51282787322998,0.4934048652648926
1787774974189401000,13.125401123046874,2.3165693283081055,9.515836715698242,0.5027506351470947
1787774974205434000,13.14143408203125,2.298670768737793,9.519327163696289,0.5185713171958923
1787774974221492200,13.1574921875,2.278644561767578,9.523049354553223,0.5382384061813354
1787774974237536800,13.173536865234375,2.2588980197906494,9.52656364440918,0.5589123964309692
1787774974253598200,13.18959814453125,2.2435109615325928,9.529214859008789,0.575427770614624
1787774974269664000,13.2056640625,2.2314810752868652,9.5316162109375,0.5823925137519836
1787774974285708800,13.221708740234375,2.223069429397583,9.534125328063965,0.5734116435050964
1787774974301784600,13.23778466796875,2.218029737472534,9.536911964416504,0.5459529757499695
1787774974317837800,13.253837890625,2.215538501739502,9.540006637573242,0.5000414848327637
1787774974333914400,13.269914306640626,2.212082862854004,9.544027328491211,0.4343157708644867
1787774974349934600,13.2859345703125,2.209348440170288,9.547638893127441,0.3630073070526123
1787774974365984500,13.301984619140624,2.2201297283172607,9.547268867492676,0.3018189072608948
1787774974382065000,13.31806494140625,2.244718313217163,9.542820930480957,0.2572711706161499
1787774974398124500,13.33412451171875,2.267754316329956,9.538093566894531,0.2290077954530716
1787774974414196200,13.3501962890625,2.277526378631592,9.53618335723877,0.21087825298309326
1787774974430280000,13.366280029296876,2.274796724319458,9.537389755249023,0.1840822398662567
1787774974446371000,13.38237109375,2.262589454650879,9.541041374206543,0.1400456726551056
1787774974462438700,13.398438720703124,2.255282402038574,9.543329238891602,0.09472610056400299
1787774974478497000,13.4144970703125,2.2646820545196533,9.54134750366211,0.06563081592321396
1787774974494558200,13.43055810546875,2.288691282272339,9.535715103149414,0.04893449321389198
1787774974510620200,13.4466201171875,2.316941261291504,9.528964042663574,0.031859416514635086
1787774974526720000,13.462719970703125,2.3214170932769775,9.527928352355957,-0.0020055128261446953
1787774974542783700,13.47878369140625,2.2909152507781982,9.535102844238281,-0.06267356872558594
1787774974558848800,13.494848876953125,2.2344179153442383,9.547636985778809,-0.1428651213645935
1787774974574922500,13.510922607421875,2.1694469451904297,9.560779571533203,-0.23537322878837585
1787774974590965000,13.526965087890625,2.111701250076294,9.57081413269043,-0.3326733410358429
1787774974607029200,13.543029296875,2.07981014251709,9.574746131896973,-0.41115182638168335
1787774974623071700,13.55907177734375,2.135530710220337,9.562467575073242,-0.411221981048584
1787774974639095600,13.575095458984375,2.1989617347717285,9.54920768737793,-0.384197473526001
1787774974655189800,13.591189697265625,2.2052838802337646,9.548454284667969,-0.3663124144077301
1787774974671238400,13.60723828125,2.2029170989990234,9.550444602966309,-0.32647404074668884
1787774974687254800,13.6232548828125,2.1973164081573486,9.553266525268555,-0.2780051827430725
1787774974703290000,13.6392900390625,2.1949269771575928,9.555130958557129,-0.22834844887256622
1787774974719326500,13.655326416015624,2.2053115367889404,9.553739547729492,-0.18180793523788452
1787774974735389700,13.6713896484375,2.2350146770477295,9.547618865966797,-0.13444559276103973
1787774974751443000,13.68744287109375,2.2827205657958984,9.536943435668945,-0.07924742996692657
1787774974767458000,13.7034580078125,2.3452558517456055,9.52206802368164,-0.01998889446258545
1787774974783506700,13.719506591796875,2.421278238296509,9.502948760986328,0.04226619377732277
1787774974799527200,13.735527099609374,2.502408742904663,9.481439590454102,0.10313421487808228
1787774974815594000,13.751593994140626,2.581918478012085,9.459298133850098,0.1605713814496994
1787774974831661600,13.76766162109375,2.658461332321167,9.43700885772705,0.21407967805862427
1787774974847683000,13.78368310546875,2.8192408084869385,9.38725757598877,0.3188377022743225
1787774974863729000,13.79972900390625,2.9720094203948975,9.335729598999023,0.4262804090976715
1787774974879750100,13.815750244140625,3.1220524311065674,9.281149864196777,0.5323799252510071
1787774974895829000,13.8318291015625,3.1763904094696045,9.25854206085205,0.6002902388572693
1787774974911848700,13.8478486328125,3.227543830871582,9.23598575592041,0.6707543730735779
1787774974927869200,13.863869140625,3.271270751953125,9.214252471923828,0.7528171539306641
1787774974943916800,13.879916748046876,3.351921558380127,9.177400588989258,0.8428040146827698
1787774974959939800,13.89593994140625,3.4031636714935303,9.149456024169922,0.9361261129379272
1787774974976031000,13.912031005859374,3.429065227508545,9.130241394042969,1.0249872207641602
1787774974992060700,13.928060791015625,3.432737350463867,9.119668960571289,1.1037904024124146
1787774975008077300,13.944077392578125,3.419497489929199,9.116569519042969,1.1685911417007446
1787774975024110000,13.960110107421874,3.3973336219787598,9.118013381958008,1.2207930088043213
1787774975040128800,13.976128662109375,3.367924690246582,9.122795104980469,1.2657374143600464
1787774975056175600,13.992175537109375,3.3372015953063965,9.128692626953125,1.3040122985839844
1787774975072217900,14.0082177734375,3.307936668395996,9.13496208190918,1.3343273401260376
1787774975088243500,14.024243408203125,3.318310260772705,9.1310396194458,1.3354171514511108
1787774975104292000,14.0402919921875,3.3828814029693604,9.11280345916748,1.2974328994750977
1787774975120320800,14.05632080078125,3.3741958141326904,9.116424560546875,1.2946066856384277
1787774975136366800,14.072366943359375,3.372183322906494,9.119190216064453,1.2802917957305908
1787774975152467200,14.08846728515625,3.3768274784088135,9.121434211730957,1.2517510652542114
1787774975168502500,14.10450244140625,3.3868448734283447,9.122919082641602,1.2132762670516968
1787774975184547600,14.120547607421875,3.4049108028411865,9.122817993164062,1.1623995304107666
1787774975200577500,14.13657763671875,3.4290013313293457,9.120611190795898,1.1076111793518066
1787774975216634600,14.152634521484375,3.4545466899871826,9.117323875427246,1.054002285003662
1787774975232692200,14.168692138671876,3.4789505004882812,9.113676071166992,1.0040913820266724
1787774975248729900,14.184729736328125,3.499931812286377,9.109134674072266,0.9718676209449768
1787774975264799200,14.20079931640625,3.5147652626037598,9.104639053344727,0.9603966474533081
1787774975280840200,14.216840087890626,3.521843194961548,9.10149097442627,0.9643047451972961
1787774975296908800,14.23290869140625,3.5231380462646484,9.099591255187988,0.9774211645126343
1787774975312975400,14.248975341796875,3.519944667816162,9.098464012145996,0.9991650581359863
1787774975329016300,14.265016357421874,3.50736403465271,9.100714683532715,1.0226441621780396
1787774975345108000,14.28110791015625,3.4727988243103027,9.112051963806152,1.0395088195800781
1787774975361155600,14.297155517578124,3.4042065143585205,9.138152122497559,1.037286400794983
1787774975377225500,14.3132255859375,3.3090147972106934,9.175670623779297,1.01384437084198
1787774975393246700,14.329246826171875,3.1926376819610596,9.221596717834473,0.9693392515182495
1787774975409345800,14.345345703125,3.066416025161743,9.270502090454102,0.9084565043449402
1787774975425420800,14.3614208984375,2.955310106277466,9.312394142150879,0.8460767269134521
1787774975441481700,14.377481689453125,2.8659768104553223,9.344944953918457,0.792850911617279
1787774975457551000,14.393551025390625,2.8086371421813965,9.364997863769531,0.7607690095901489
1787774975473626600,14.409626708984375,2.7852654457092285,9.37240982055664,0.7553963661193848
1787774975489741300,14.4257412109375,2.782593011856079,9.371867179870605,0.7717992067337036
1787774975505772000,14.44177197265625,2.789513349533081,9.367607116699219,0.7980954051017761
1787774975521794800,14.457794921875,2.790144443511963,9.365728378295898,0.8176984786987305
1787774975537880300,14.47388037109375,2.7803215980529785,9.368239402770996,0.8223745226860046
1787774975553931000,14.489930908203124,2.7732017040252686,9.373668670654297,0.7836382389068604
1787774975569950200,14.5059501953125,2.746654987335205,9.382580757141113,0.7703665494918823
1787774975585989400,14.5219892578125,2.7177894115448,9.39195728302002,0.7583867907524109
1787774975602009900,14.538009765625,2.6937310695648193,9.400708198547363,0.7354495525360107
1787774975618059500,14.5540595703125,2.674001693725586,9.408682823181152,0.7048375606536865
1787774975634160600,14.57016064453125,2.6738433837890625,9.409770965576172,0.6907781958580017
1787774975650176500,14.586176513671875,2.695061445236206,9.403645515441895,0.6917392611503601
1787774975666209500,14.60220947265625,2.7259390354156494,9.394418716430664,0.6961085796356201
1787774975682225000,14.618224853515626,2.7654824256896973,9.382214546203613,0.7046554684638977
1787774975698294500,14.63429443359375,2.809579372406006,9.368638038635254,0.7108289003372192
1787774975714349300,14.650349365234375,2.859585762023926,9.353507041931152,0.7107011675834656
1787774975730366500,14.666366455078125,2.892911672592163,9.345919609069824,0.6747022271156311
1787774975746415900,14.682415771484376,2.9350452423095703,9.335837364196777,0.6309291124343872
1787774975762437400,14.698437255859375,2.9768712520599365,9.32493782043457,0.59511798620224
1787774975778513400,14.714513427734374,3.0138282775878906,9.314642906188965,0.5697906613349915
1787774975794534000,14.730533935546875,3.0443835258483887,9.306889533996582,0.5328500270843506
1787774975810548700,14.746548828125,3.064405679702759,9.302831649780273,0.4869564175605774
1787774975826584800,14.762584716796875,3.076472520828247,9.300918579101562,0.4456782341003418
1787774975842601200,14.778601318359375,3.083625316619873,9.300005912780762,0.41419661045074463
1787774975858686500,14.7946865234375,3.0977783203125,9.295759201049805,0.4037855267524719
1787774975874716400,14.81071630859375,3.1249547004699707,9.286240577697754,0.41325843334198
1787774975890729200,14.826729248046876,3.1558728218078613,9.275040626525879,0.4295179545879364
1787774975906774500,14.8427744140625,3.1857705116271973,9.26382827758789,0.4502861499786377
1787774975922791200,14.858791259765624,3.1945157051086426,9.260462760925293,0.45748162269592285
1787774975938830600,14.87483056640625,3.180974006652832,9.265503883361816,0.44971829652786255
1787774975954870500,14.89087060546875,3.164095401763916,9.27140998840332,0.447063684463501
1787774975970890200,14.90689013671875,3.14955997467041,9.276294708251953,0.4483509361743927
1787774975986936000,14.92293603515625,3.135955333709717,9.28104305267334,0.44543755054473877
1787774976002957800,14.938957763671874,3.1252293586730957,9.284974098205566,0.4388642907142639
1787774976019006700,14.9550068359375,3.121346950531006,9.286328315734863,0.4378114342689514
1787774976035060000,14.97106005859375,3.1242473125457764,9.284865379333496,0.44807037711143494
1787774976051083300,14.987083251953125,3.1290416717529297,9.282133102416992,0.47064608335494995
1787774976067142400,15.003142333984375,3.13327693939209,9.278796195983887,0.5068490505218506
1787774976083173400,15.01917333984375,3.1340088844299316,9.276467323303223,0.5436456799507141
1787774976099230500,15.03523046875,3.1292848587036133,9.27667236328125,0.5668744444847107
1787774976115314200,15.051314208984374,3.122420072555542,9.278069496154785,0.581667959690094
1787774976131386600,15.06738671875,3.126413583755493,9.275714874267578,0.5975383520126343
1787774976147426000,15.083426025390626,3.1435043811798096,9.2691650390625,0.6093851327896118
1787774976163469600,15.099469482421876,3.157863140106201,9.26549243927002,0.590705394744873
1787774976179539200,15.115539306640626,3.170377731323242,9.264516830444336,0.5365003347396851
1787774976195606300,15.131606201171875,3.187532424926758,9.262609481811523,0.46268430352211
1787774976211655700,15.14765576171875,3.206131935119629,9.259734153747559,0.3852721154689789
1787774976227737900,15.16373779296875,3.2128210067749023,9.260147094726562,0.3128175735473633
1787774976243786200,15.1797861328125,3.2127737998962402,9.261885643005371,0.25678515434265137
1787774976259861200,15.195861328125,3.181335926055908,9.273880004882812,0.2113378345966339
1787774976275884500,15.211884521484375,3.140275478363037,9.288525581359863,0.17986981570720673
1787774976291980800,15.227980712890625,3.0951597690582275,9.303895950317383,0.16701076924800873
1787774976308040000,15.2440400390625,3.051466703414917,9.318239212036133,0.17142799496650696
1787774976324091100,15.260091064453125,3.0155842304229736,9.329651832580566,0.1850372701883316
1787774976340168400,15.27616845703125,2.990145683288574,9.337555885314941,0.1986357420682907
1787774976356203000,15.292203125,2.979928970336914,9.340667724609375,0.20574498176574707
1787774976372259600,15.308259521484375,2.99111008644104,9.337098121643066,0.20557080209255219
1787774976388347400,15.324347412109375,3.019544839859009,9.328140258789062,0.19629764556884766
1787774976404436700,15.340436767578124,3.0538668632507324,9.317357063293457,0.17652298510074615
1787774976420519400,15.35651953125,3.0801141262054443,9.309210777282715,0.14799700677394867
1787774976436602600,15.3726025390625,3.0903356075286865,9.30636978149414,0.10817074775695801
1787774976452717600,15.388717529296875,3.0821571350097656,9.309538841247559,0.05645151808857918
1787774976468760300,15.40476025390625,3.061462640762329,9.31653118133545,-0.010205605998635292
1787774976484784400,15.420784423828126,3.0440585613250732,9.321840286254883,-0.08609744906425476
1787774976500870100,15.4368701171875,3.038102865219116,9.322859764099121,-0.15686273574829102
1787774976516967200,15.45296728515625,3.043388605117798,9.319804191589355,-0.22234928607940674
1787774976533032400,15.469032470703125,3.0613884925842285,9.312519073486328,-0.2743474841117859
1787774976549086500,15.48508642578125,3.0903847217559814,9.301641464233398,-0.3152351379394531
1787774976565109500,15.501109619140625,3.130955219268799,9.286779403686523,-0.35105594992637634
1787774976581173800,15.517173828125,3.17568302154541,9.270386695861816,-0.381273478269577
1787774976597233700,15.533233642578125,3.2205121517181396,9.253790855407715,-0.40748730301856995
1787774976613299500,15.549299560546874,3.2575809955596924,9.23985481262207,-0.4285414218902588
1787774976629345300,15.56534521484375,3.279836654663086,9.231046676635742,-0.4481622874736786
1787774976645372200,15.5813720703125,3.2817654609680176,9.229512214660645,-0.46532079577445984
1787774976661454000,15.5974541015625,3.2711920738220215,9.232436180114746,-0.4814893305301666
1787774976677477000,15.61347705078125,3.2510225772857666,9.238828659057617,-0.49527791142463684
1787774976693493500,15.629493408203125,3.221595287322998,9.248795509338379,-0.5014902949333191
1787774976709547000,15.645547119140625,3.184810161590576,9.261877059936523,-0.4949941039085388
1787774976725571000,15.661571044921875,3.1470348834991455,9.275900840759277,-0.4735162854194641
1787774976741645800,15.677645751953126,3.1172189712524414,9.28756046295166,-0.4410996735095978
1787774976757665000,15.6936650390625,3.0927631855010986,9.29719352722168,-0.40914997458457947
1787774976773683000,15.709682861328124,3.0680572986602783,9.30625057220459,-0.3887096345424652
1787774976789729800,15.725729736328125,3.048964500427246,9.312976837158203,-0.37773045897483826
1787774976805749500,15.74174951171875,3.0491788387298584,9.313100814819336,-0.37287887930870056
1787774976821841200,15.757841064453125,3.0932044982910156,9.29969310760498,-0.34378793835639954
1787774976837909500,15.773909423828124,3.150006055831909,9.281657218933105,-0.3141574263572693
1787774976853966300,15.78996630859375,3.205552101135254,9.26374626159668,-0.2789631485939026
1787774976869997600,15.80599755859375,3.236884593963623,9.253864288330078,-0.24279922246932983
1787774976886019800,15.822019775390626,3.2327778339385986,9.256077766418457,-0.21111543476581573
1787774976902104000,15.83810400390625,3.1943869590759277,9.269917488098145,-0.18687370419502258
1787774976918135300,15.85413525390625,3.1318631172180176,9.291550636291504,-0.1701214462518692
1787774976934194700,15.870194580078126,3.065214157104492,9.313935279846191,-0.15956760942935944
1787774976950220000,15.886219970703126,3.0118625164031982,9.331404685974121,-0.15484876930713654
1787774976966247400,15.902247314453126,2.9758787155151367,9.342944145202637,-0.15468715131282806
1787774976982341000,15.918341064453125,2.970160961151123,9.344378471374512,-0.1764306277036667
1787774976998386700,15.93438671875,2.9578170776367188,9.348610877990723,-0.1586737334728241
1787774977014419700,15.950419677734375,2.9589200019836426,9.348745346069336,-0.1271018087863922
1787774977030485800,15.96648583984375,2.9701573848724365,9.345662117004395,-0.08468173444271088
1787774977046517800,15.982517822265624,2.98490309715271,9.341270446777344,-0.03765694797039032
1787774977062571500,15.998571533203124,2.992691993713379,9.338850975036621,0.006655804812908173
1787774977078624500,16.01462451171875,2.9883759021759033,9.340126991271973,0.04512245953083038
1787774977094666500,16.03066650390625,2.971649646759033,9.3452730178833,0.07462269812822342
1787774977110732300,16.046732177734373,2.95570969581604,9.350098609924316,0.0991227850317955
1787774977126779100,16.062779052734374,2.9435908794403076,9.353604316711426,0.1255176067352295
1787774977142842600,16.078842529296875,2.93908953666687,9.354538917541504,0.15731559693813324
1787774977158912000,16.094912109375,2.9360733032226562,9.354833602905273,0.1922564059495926
1787774977174957000,16.11095703125,2.933394432067871,9.354881286621094,0.22754472494125366
1787774977191042800,16.127042724609375,2.9319069385528564,9.354558944702148,0.25794732570648193
1787774977207099000,16.143098876953125,2.9310855865478516,9.35406494140625,0.28389760851860046
1787774977223180500,16.1591806640625,2.935359001159668,9.352096557617188,0.3038865029811859
1787774977239210800,16.175210693359375,2.948918342590332,9.347183227539062,0.3231615424156189
1787774977255269000,16.19126904296875,2.971649646759033,9.339241027832031,0.34387218952178955
1787774977271351800,16.207351806640624,2.998215675354004,9.329862594604492,0.3670923113822937
1787774977287418600,16.223418701171877,3.0233893394470215,9.320866584777832,0.3885466158390045
1787774977303509800,16.239509765625,3.0420186519622803,9.313994407653809,0.40747299790382385
1787774977319545900,16.2555458984375,3.0522799491882324,9.30978775024414,0.42642802000045776
1787774977335614200,16.2716142578125,3.0576043128967285,9.307137489318848,0.44567516446113586
1787774977351743200,16.2877431640625,3.0634706020355225,9.304101943969727,0.46821725368499756
1787774977367816000,16.30381591796875,3.0695455074310303,9.300837516784668,0.4926568269729614
1787774977383863300,16.31986328125,3.077134847640991,9.297059059143066,0.5160476565361023
1787774977399903500,16.335903564453126,3.089825391769409,9.291886329650879,0.5331341028213501
1787774977415920000,16.351920166015624,3.1084237098693848,9.285360336303711,0.5386757850646973
1787774977431936800,16.367936767578126,3.1283395290374756,9.279315948486328,0.5274246335029602
1787774977447955500,16.38395556640625,3.155500650405884,9.270968437194824,0.5122001767158508
1787774977464040400,16.40004052734375,3.2015573978424072,9.255899429321289,0.49874550104141235
1787774977480121600,16.41612158203125,3.2670350074768066,9.234248161315918,0.47492337226867676
1787774977496174600,16.432174560546876,3.3442180156707764,9.208786964416504,0.4299291670322418
1787774977512199700,16.44819970703125,3.4168012142181396,9.18486499786377,0.3662519156932831
1787774977528220000,16.464219970703127,3.460975170135498,9.17107105255127,0.2889338433742523
1787774977544266200,16.480266357421876,3.4570512771606445,9.174737930297852,0.20832565426826477
1787774977560330800,16.496330810546876,3.404433250427246,9.195738792419434,0.1364646703004837
1787774977576399400,16.5123994140625,3.30916428565979,9.231051445007324,0.08672916889190674
1787774977592428800,16.5284287109375,3.1843559741973877,9.275054931640625,0.060331135988235474
1787774977608449000,16.544448974609374,3.066737413406372,9.31467342376709,0.048745620995759964
1787774977624506400,16.56050634765625,2.975959300994873,9.344060897827148,0.05084726959466934
1787774977640633000,16.576633056640624,2.9015252590179443,9.367378234863281,0.06164155900478363
1787774977656696000,16.592696044921876,2.8534622192382812,9.382040977478027,0.07387662678956985
1787774977672747800,16.608747802734374,2.8254001140594482,9.390456199645996,0.08280008286237717
1787774977688767700,16.624767822265625,2.813412666320801,9.394054412841797,0.08277224749326706
1787774977704840000,16.64083984375,2.8164563179016113,9.393223762512207,0.07296229153871536
1787774977720870000,16.656869873046876,2.82892107963562,9.389615058898926,0.05255063623189926
1787774977736939500,16.672939453125,2.8433892726898193,9.385366439819336,0.020621567964553833
1787774977752970500,16.688970458984375,2.8503975868225098,9.383232116699219,-0.024138635024428368
1787774977768993000,16.704992919921875,2.844956398010254,9.384560585021973,-0.08151530474424362
1787774977785075500,16.721075439453124,2.834439516067505,9.387002944946289,-0.1432880163192749
1787774977801103000,16.73710302734375,2.831601142883301,9.386795997619629,-0.20122897624969482
1787774977817120000,16.7531201171875,2.840197801589966,9.383208274841309,-0.24308833479881287
1787774977833158000,16.769157958984376,2.8554859161376953,9.37796688079834,-0.265210896730423
1787774977849175800,16.78517578125,2.8744630813598633,9.372053146362305,-0.2692011296749115
1787774977865263600,16.801263671875,2.896010160446167,9.365662574768066,-0.26050958037376404
1787774977881302800,16.817302734375,2.9182653427124023,9.359122276306152,-0.24692054092884064
1787774977897322800,16.83332275390625,2.94124174118042,9.352341651916504,-0.23062019050121307
1787774977913377300,16.849377197265625,2.962484359741211,9.346035957336426,-0.2137029618024826
1787774977929409000,16.865408935546874,2.9798617362976074,9.340875625610352,-0.1971053183078766
1787774977945467600,16.881467529296874,2.9939515590667725,9.336713790893555,-0.18009105324745178
1787774977961524000,16.89752392578125,3.0018975734710693,9.334436416625977,-0.1653248518705368
1787774977977559800,16.913559814453127,2.997708797454834,9.335928916931152,-0.15672573447227478
1787774977993626400,16.92962646484375,2.9776954650878906,9.34228229522705,-0.15961262583732605
1787774978009666300,16.945666259765623,2.944789171218872,9.352370262145996,-0.1783474236726761
1787774978025727700,16.961727783203123,2.908134937286377,9.363186836242676,-0.20947350561618805
1787774978041754000,16.977754150390624,2.873621940612793,9.373091697692871,-0.24052126705646515
1787774978057794800,16.993794921875,2.8443689346313477,9.381442070007324,-0.26175254583358765
1787774978073854200,17.009854248046874,2.8208155632019043,9.388330459594727,-0.26958250999450684
1787774978089895700,17.025895751953126,2.803468704223633,9.393671989440918,-0.26436537504196167
1787774978105943300,17.041943359375,2.7876789569854736,9.398804664611816,-0.24842092394828796
1787774978122043600,17.058043701171876,2.7613725662231445,9.407139778137207,-0.22572116553783417
1787774978138132500,17.074132568359374,2.7085797786712646,9.422921180725098,-0.20630890130996704
1787774978154190000,17.090190185546874,2.6361048221588135,9.443687438964844,-0.19519582390785217
1787774978170236700,17.106236572265626,2.5779941082000732,9.460054397583008,-0.17806027829647064
1787774978186287400,17.122287353515624,2.573561191558838,9.462024688720703,-0.13136428594589233
1787774978202387500,17.138387451171877,2.605332136154175,9.454108238220215,-0.04967062547802925
1787774978218471200,17.15447119140625,2.6306753158569336,9.447122573852539,0.04258183762431145
1787774978234520600,17.1705205078125,2.6005594730377197,9.454843521118164,0.11584464460611343
1787774978250576600,17.18657666015625,2.5146706104278564,9.477389335632324,0.1610322743654251
1787774978266636300,17.20263623046875,2.394233226776123,9.508028030395508,0.1883171796798706
1787774978282690600,17.218690673828124,2.2788619995117188,9.535813331604004,0.2131318747997284
1787774978298794200,17.234794189453126,2.1893465518951416,9.555927276611328,0.24780279397964478
1787774978314883000,17.250883056640625,2.138671636581421,9.566375732421875,0.2844686806201935
1787774978330951700,17.26695166015625,2.1176490783691406,9.569912910461426,0.3205012381076813
1787774978347029500,17.283029541015626,2.0999176502227783,9.57227897644043,0.3636091649532318
1787774978363065900,17.29906591796875,2.0758938789367676,9.57537841796875,0.41615182161331177
1787774978379084500,17.31508447265625,2.0807414054870605,9.572515487670898,0.45589640736579895
1787774978395122200,17.3311220703125,2.112302541732788,9.564361572265625,0.4812292754650116
1787774978411146500,17.347146484375,2.1515047550201416,9.554712295532227,0.4988879859447479
1787774978427203600,17.36320361328125,2.185948133468628,9.546319007873535,0.5097066164016724
1787774978443258600,17.379258544921875,2.2185747623443604,9.538899421691895,0.5076736211776733
1787774978459276300,17.3952763671875,2.2688255310058594,9.528514862060547,0.47981297969818115
1787774978475331300,17.411331298828124,2.3333637714385986,9.515484809875488,0.42584875226020813
1787774978491349000,17.427348876953126,2.4037647247314453,9.500785827636719,0.3568532466888428
1787774978507409000,17.443408935546874,2.4589741230010986,9.488842964172363,0.29274025559425354
1787774978523466000,17.459466064453125,2.520332098007202,9.474778175354004,0.21658435463905334
1787774978539482600,17.475482666015626,2.542576789855957,9.470133781433105,0.14926525950431824
1787774978555521000,17.49152099609375,2.5265562534332275,9.475232124328613,0.08307167142629623
1787774978571541200,17.507541259765624,2.4970390796661377,9.483409881591797,0.012127076275646687
1787774978587613000,17.523613037109374,2.4582741260528564,9.493368148803711,-0.05696165934205055
1787774978603631900,17.5396318359375,2.407007932662964,9.50594711303711,-0.11695318669080734
1787774978619652000,17.555652099609375,2.343794345855713,9.521193504333496,-0.15469548106193542
1787774978635704300,17.571704345703125,2.266312837600708,9.539690017700195,-0.16886019706726074
1787774978651723500,17.5877236328125,2.1789135932922363,9.560093879699707,-0.16537527740001678
1787774978667797500,17.603797607421875,2.0880393981933594,9.580474853515625,-0.15804390609264374
1787774978683818500,17.619818603515625,1.9947701692581177,9.600371360778809,-0.15544717013835907
1787774978699884500,17.635884521484375,1.9710683822631836,9.604974746704102,-0.17248889803886414
1787774978715911000,17.651910888671875,1.9231892824172974,9.614253044128418,-0.19467619061470032
1787774978731930000,17.66793017578125,1.908462643623352,9.616617202758789,-0.22105039656162262
1787774978748003800,17.68400390625,1.9232710599899292,9.613070487976074,-0.24560996890068054
1787774978764025600,17.700025634765623,1.9584014415740967,9.605480194091797,-0.2642252445220947
1787774978780087300,17.71608740234375,2.001028299331665,9.59631633758545,-0.2774725556373596
1787774978796123100,17.732123046875,2.0432770252227783,9.587071418762207,-0.28892990946769714
1787774978812140800,17.748140869140624,2.0811209678649902,9.578478813171387,-0.30342692136764526
1787774978828184800,17.764184814453124,2.1178202629089355,9.569921493530273,-0.3191114068031311
1787774978844221200,17.78022119140625,2.1630678176879883,9.559379577636719,-0.3313942551612854
1787774978860235300,17.7962353515625,2.224889039993286,9.545231819152832,-0.329904168844223
1787774978876294400,17.81229443359375,2.290496826171875,9.530231475830078,-0.3141651749610901
1787774978892317700,17.828317626953126,2.3374855518341064,9.51951789855957,-0.2920795977115631
1787774978908405500,17.844405517578124,2.3643462657928467,9.51362133026123,-0.26697680354118347
1787774978924449300,17.86044921875,2.372037410736084,9.512499809265137,-0.23704788088798523
1787774978940471800,17.876471923828124,2.3643040657043457,9.515168190002441,-0.20506416261196136
1787774978956518100,17.89251806640625,2.3452212810516357,9.520620346069336,-0.16777758300304413
1787774978972546600,17.908546630859377,2.3192572593688965,9.527657508850098,-0.12320128828287125
1787774978988597000,17.924596923828126,2.2907285690307617,9.535058975219727,-0.07503733783960342
1787774979004691200,17.940691162109374,2.2629435062408447,9.541940689086914,-0.02894161455333233
1787774979020775000,17.95677490234375,2.2377898693084717,9.547907829284668,0.012119111604988575
1787774979036837600,17.972837646484376,2.2221567630767822,9.551436424255371,0.0497196689248085
1787774979052876000,17.9888759765625,2.219221353530884,9.551898956298828,0.08168603479862213
1787774979068940000,18.00493994140625,2.2267231941223145,9.54992961883545,0.1046827957034111
1787774979084996900,18.020996826171874,2.2418012619018555,9.5462646484375,0.11656361073255539
1787774979101038000,18.0370380859375,2.260199546813965,9.541890144348145,0.11936408281326294
1787774979117115600,18.05311572265625,2.278723955154419,9.5375394821167,0.11470600962638855
1787774979133166300,18.069166259765623,2.29184627532959,9.534496307373047,0.10583556443452835
1787774979149246700,18.085246826171876,2.3045263290405273,9.531097412109375,0.1332411766052246
1787774979165274600,18.101274658203124,2.316300392150879,9.52723503112793,0.1922461837530136
1787774979181331000,18.1173310546875,2.3189644813537598,9.52525520324707,0.24965591728687286
1787774979197407700,18.13340771484375,2.3180248737335205,9.523940086364746,0.3028002679347992
1787774979213467600,18.149467529296874,2.3205885887145996,9.521693229675293,0.35016143321990967
1787774979229557200,18.16555712890625,2.332810878753662,9.517062187194824,0.39230984449386597
1787774979245594000,18.181593994140623,2.359055757522583,9.509794235229492,0.4111962616443634
1787774979261655600,18.197655517578124,2.3886945247650146,9.502520561218262,0.4082286059856415
1787774979277698600,18.213698486328123,2.424678325653076,9.492806434631348,0.4218524098396301
1787774979293723000,18.229722900390627,2.462989091873169,9.481588363647461,0.4511886537075043
1787774979309775400,18.245775390625,2.4917795658111572,9.472559928894043,0.48172420263290405
1787774979325819600,18.261819580078125,2.5091826915740967,9.466389656066895,0.5117470026016235
1787774979341838600,18.277838623046875,2.4996566772460938,9.469062805175781,0.5088987350463867
1787774979357880000,18.293880126953123,2.492724657058716,9.471100807189941,0.5049745440483093
1787774979373903600,18.309903564453126,2.4895286560058594,9.472274780273438,0.49865803122520447
1787774979389969700,18.3259697265625,2.491765022277832,9.472078323364258,0.4911516606807709
1787774979406035000,18.342034912109376,2.5024735927581787,9.469613075256348,0.48419705033302307
1787774979422053600,18.3580537109375,2.5261952877044678,9.463469505310059,0.4811132848262787
1787774979438104600,18.3741044921875,2.562016248703003,9.453816413879395,0.4814591705799103
1787774979454125600,18.39012548828125,2.6068708896636963,9.441025733947754,0.4915785789489746
1787774979470191600,18.406191650390625,2.654503583908081,9.427176475524902,0.5023466944694519
1787774979486206000,18.4222060546875,2.687215566635132,9.417868614196777,0.5030185580253601
1787774979502221800,18.438221923828124,2.664722442626953,9.423720359802246,0.5129746794700623
1787774979518248000,18.454248046875,2.637983560562134,9.430411338806152,0.5280336141586304
1787774979534267100,18.47026708984375,2.6136770248413086,9.4358491897583,0.5512258410453796
1787774979550330600,18.48633056640625,2.5844199657440186,9.44308853149414,0.5650204420089722
1787774979566336300,18.502336181640626,2.544318675994873,9.454073905944824,0.5633223652839661
1787774979582350000,18.51835009765625,2.5068552494049072,9.464102745056152,0.5628852844238281
1787774979598402300,18.53440234375,2.5209622383117676,9.459076881408691,0.5839795470237732
1787774979614421800,18.550421875,2.5485002994537354,9.45091724395752,0.5964175462722778
1787774979630505200,18.566505126953125,2.5813088417053223,9.441460609436035,0.6050145030021667
1787774979646531600,18.582531494140625,2.617180824279785,9.431139945983887,0.6118631958961487
1787774979662594000,18.598593994140625,2.6405022144317627,9.425896644592285,0.5921359062194824
1787774979678633000,18.614633056640624,2.6652286052703857,9.42021656036377,0.5713868141174316
1787774979694650600,18.630650634765626,2.688511610031128,9.415000915527344,0.5477799773216248
1787774979710692600,18.646692626953126,2.7046873569488525,9.41191577911377,0.520474910736084
1787774979726730800,18.662730712890625,2.712113857269287,9.411439895629883,0.4895322620868683
1787774979742753000,18.6787529296875,2.706450939178467,9.414739608764648,0.45625272393226624
1787774979758802200,18.69480224609375,2.68940806388855,9.421399116516113,0.41801199316978455
1787774979774827500,18.71082763671875,2.6708288192749023,9.428335189819336,0.3789078891277313
1787774979790875100,18.726875244140626,2.6573851108551025,9.43358325958252,0.3408714234828949
1787774979806922500,18.742922607421875,2.650667190551758,9.436866760253906,0.2998443841934204
1787774979822946300,18.7589462890625,2.6491997241973877,9.438637733459473,0.2534947395324707
1787774979838993000,18.774992919921875,2.6516547203063965,9.439105987548828,0.2059747725725174
1787774979855024600,18.791024658203124,2.6559789180755615,9.438834190368652,0.1568278819322586
1787774979871081200,18.807081298828123,2.659752130508423,9.438443183898926,0.10924984514713287
1787774979887137000,18.823136962890626,2.6612043380737305,9.438433647155762,0.06620894372463226
1787774979903164200,18.8391640625,2.6586482524871826,9.439340591430664,0.02886880561709404
1787774979919228000,18.855227783203127,2.653191089630127,9.440919876098633,-0.0010982436360791326
1787774979935268000,18.87126806640625,2.6463887691497803,9.442802429199219,-0.022643063217401505
1787774979951330000,18.887330078125,2.639606475830078,9.444657325744629,-0.03636712580919266
1787774979967389200,18.90338916015625,2.630852699279785,9.447078704833984,-0.041680723428726196
1787774979983429400,18.919429443359373,2.621441602706909,9.449685096740723,-0.043616220355033875
1787774979999492600,18.93549267578125,2.6135857105255127,9.451859474182129,-0.043803706765174866
1787774980015535600,18.95153564453125,2.6098830699920654,9.45289134979248,-0.04220591485500336
1787774980031602000,18.967601806640626,2.60113525390625,9.45532512664795,-0.03639284521341324
1787774980047623200,18.983623046875,2.588376998901367,9.458849906921387,-0.029088513925671577
1787774980063675000,18.9996748046875,2.5752036571502686,9.462469100952148,-0.020490853115916252
1787774980079757300,19.01575732421875,2.5621509552001953,9.466022491455078,-0.013796032406389713
1787774980095808500,19.03180859375,2.5467727184295654,9.47018051147461,-0.005488441325724125
1787774980111905500,19.047905517578126,2.536283016204834,9.472992897033691,0.008345584385097027
1787774980127930000,19.06393017578125,2.540118932723999,9.471948623657227,0.020055823028087616
