time,seconds_elapsed,z,y,x
1787774961188181000,0.124180908203125,3.4404678344726562,8.774748802185059,0.4620809257030487
1787774961204192800,0.14019287109375,2.7676970958709717,8.990227699279785,0.1843535304069519
1787774961220246000,0.15624609375,2.2577321529388428,9.167398452758789,0.19153612852096558
1787774961236295700,0.172295654296875,2.2601263523101807,9.129091262817383,0.3495534360408783
1787774961252351700,0.188351806640625,2.9688100814819336,9.045293807983398,0.42377370595932007
1787774961268372000,0.2043720703125,3.9001545906066895,8.947132110595703,0.40701428055763245
1787774961284470300,0.22047021484375,4.273650169372559,8.925583839416504,0.35673606395721436
1787774961300555000,0.236554931640625,4.228160381317139,8.925583839416504,0.38307225704193115
1787774961316565800,0.252565673828125,3.9169139862060547,8.995016098022461,0.5913678407669067
1787774961332607000,0.26860693359375,3.2776620388031006,9.131484985351562,0.49320554733276367
1787774961348646100,0.284646240234375,3.0406360626220703,9.248801231384277,0.1149216815829277
1787774961364653800,0.30065380859375,3.0550012588500977,9.224859237670898,-0.1364694982767105
1787774961380684500,0.3166845703125,2.9544448852539062,9.186552047729492,-0.06464344263076782
1787774961396697600,0.332697509765625,2.7940332889556885,9.284713745117188,0.2059013396501541
1787774961412743000,0.348742919921875,2.580949544906616,9.366117477416992,0.3687070608139038
1787774961428786700,0.36478662109375,2.559401512145996,9.30386734008789,0.23702596127986908
1787774961444793000,0.38079296875,2.9089550971984863,9.275136947631836,0.023942016065120697
1787774961460844300,0.39684423828125,2.959233283996582,9.227252960205078,-0.10055647045373917
1787774961476861400,0.412861328125,2.4827871322631836,9.545681953430176,0.20111294090747833
1787774961492920300,0.42892041015625,2.343923568725586,9.409213066101074,-0.2753331959247589
1787774961508975900,0.444975830078125,2.0590133666992188,9.452308654785156,-0.45010992884635925
1787774961524988000,0.46098779296875,1.9967641830444336,9.720458984375,-0.47405192255973816
1787774961541020200,0.477020263671875,2.2888567447662354,9.619902610778809,-0.4189853072166443
1787774961557029600,0.493029541015625,2.454056739807129,9.720458984375,-0.30885201692581177
1787774961573090800,0.5090908203125,2.5713725090026855,9.720458984375,-0.4141969084739685
1787774961589122800,0.525122802734375,2.7509377002716064,9.706093788146973,-0.43335050344467163
1787774961605132000,0.541132080078125,3.3494882583618164,9.720458984375,-0.35913026332855225
1787774961621184500,0.5571845703125,3.576937437057495,9.615114212036133,-0.20350714027881622
1787774961637200000,0.573199951171875,3.287238836288452,9.591172218322754,-0.31364041566848755
1787774961653275100,0.589275146484375,2.760514497756958,9.612719535827637,-0.49559974670410156
1787774961669299500,0.605299560546875,2.5474305152893066,9.641449928283691,-0.42616790533065796
1787774961685313300,0.621313232421875,2.583343744277954,9.691728591918945,-0.14365209639072418
1787774961701339400,0.63733935546875,2.734178304672241,9.727641105651855,-0.0694318488240242
1787774961717349400,0.653349365234375,2.7724854946136475,9.715670585632324,-0.08140286058187485
1787774961733432600,0.6694326171875,2.7126305103302,9.746794700622559,-0.13168109953403473
1787774961749463800,0.6854638671875,2.6408045291900635,9.636661529541016,-0.3423708379268646
1787774961765475300,0.701475341796875,2.3918075561523438,9.75637149810791,-0.026336219161748886
1787774961781525200,0.717525146484375,2.343923568725586,9.703699111938477,-0.028730420395731926
1787774961797543000,0.73354296875,2.142810583114624,9.667786598205566,0.09576806426048279
1787774961813585700,0.749585693359375,2.31758713722229,9.672574996948242,0.047884032130241394
1787774961829622300,0.765622314453125,2.4899697303771973,9.672574996948242,0.08140286058187485
1787774961845641200,0.78164111328125,2.4396915435791016,9.749189376831055,0.3016694188117981
1787774961861681400,0.797681396484375,2.408566951751709,9.600749015808105,0.2513911724090576
1787774961877706500,0.81370654296875,2.52109432220459,9.581595420837402,0.16998831927776337
1787774961893756400,0.82975634765625,2.5546131134033203,9.545681953430176,0.19153612852096558
1787774961909809400,0.845809326171875,2.2170307636260986,9.48343276977539,-0.047884032130241394
1787774961925839400,0.86183935546875,1.7070658206939697,9.706093788146973,0.22505496442317963
1787774961941912000,0.877912109375,1.5203180313110352,9.658209800720215,0.1412578970193863
1787774961957952500,0.893952392578125,1.6663644313812256,9.696516990661621,-0.05985504388809204
1787774961974018000,0.91001806640625,1.8507179021835327,9.730035781860352,-0.19393034279346466
1787774961990080300,0.926080322265625,1.9728221893310547,9.667786598205566,-0.15801730751991272
1787774962006123300,0.942123291015625,2.097320795059204,9.670180320739746,-0.2753331959247589
1787774962022189800,0.95818994140625,1.9273324012756348,9.672574996948242,-0.2059013396501541
1787774962038239500,0.974239501953125,1.8411411046981812,9.660603523254395,-0.2346317619085312
1787774962054312200,0.990312255859375,1.886630892753601,9.607931137084961,-0.06224924325942993
1787774962070333200,1.006333251953125,1.7405846118927002,9.828198432922363,-0.40940847992897034
1787774962086382000,1.022382080078125,1.558625340461731,9.68933391571045,-0.2298433631658554
1787774962102475300,1.038475341796875,1.5921441316604614,9.66299819946289,-0.2513911724090576
1787774962118532600,1.05453271484375,1.8171991109848022,9.660603523254395,-0.35673606395721436
1787774962134614800,1.07061474609375,2.4875755310058594,9.569623947143555,-0.47884035110473633
1787774962150649300,1.0866494140625,2.5977089405059814,9.636661529541016,-0.6033388376235962
1787774962166712600,1.102712646484375,2.4133553504943848,9.569623947143555,-0.43095630407333374
1787774962182799400,1.11879931640625,2.1547815799713135,9.521739959716797,-0.035913024097681046
1787774962198865400,1.134865478515625,2.1045033931732178,9.550470352172852,0.3495534360408783
1787774962214907400,1.150907470703125,2.013523578643799,9.593565940856934,0.5003881454467773
1787774962230944800,1.16694482421875,2.161964178085327,9.59596061706543,0.3902548849582672
1787774962246962700,1.182962646484375,2.38462495803833,9.5624418258667,0.2537853717803955
1787774962263015400,1.199015380859375,2.298433542251587,9.5408935546875,0.13407529890537262
1787774962279034000,1.2150341796875,2.0805611610412598,9.59596061706543,0.16998831927776337
1787774962295088400,1.23108837890625,1.6879122257232666,9.691728591918945,0.3758896589279175
1787774962311142700,1.247142578125,1.4293384552001953,9.710882186889648,0.5291185975074768
1787774962327159600,1.26315966796875,1.3958195447921753,9.744400978088379,0.6919242739677429
1787774962343198200,1.2791982421875,1.6543933153152466,9.66539192199707,0.790086567401886
1787774962359218700,1.29521875,2.1739351749420166,9.519346237182617,0.6153098344802856
1787774962375280400,1.3112802734375,2.4899697303771973,9.38048267364502,0.4429273009300232
1787774962391340500,1.327340576171875,2.3942017555236816,9.387664794921875,0.2849099934101105
1787774962407359700,1.34335986328125,1.9943699836730957,9.44752025604248,0.24660277366638184
1787774962423414500,1.35941455078125,1.5514427423477173,9.62947940826416,0.33758243918418884
1787774962439432700,1.3754326171875,1.1851298809051514,9.84256362915039,0.4429273009300232
1787774962455502800,1.3915029296875,1.0199298858642578,9.95748519897461,0.5841852426528931
1787774962471522600,1.4075224609375,1.2689268589019775,10.005369186401367,0.3687070608139038
1787774962487541000,1.423541015625,1.2497732639312744,10.271124839782715,0.47405192255973816
1787774962503582000,1.43958203125,1.5418659448623657,10.153809547424316,0.6823474764823914
1787774962519603700,1.455603759765625,2.097320795059204,10.007762908935547,0.6584054827690125
1787774962535682800,1.471682861328125,2.6192567348480225,9.804255485534668,0.6344634294509888
1787774962551701800,1.48770166015625,2.8610711097717285,9.555258750915527,0.6751648783683777
1787774962567765000,1.503764892578125,2.561795711517334,9.404424667358398,0.6607996821403503
1787774962583825000,1.519824951171875,1.8698714971542358,9.394847869873047,0.6129156351089478
1787774962599846700,1.5358466796875,1.314416766166687,9.387664794921875,0.6392518281936646
1787774962615917300,1.551917236328125,1.0103530883789062,9.375694274902344,0.6177040338516235
1787774962631941400,1.56794140625,1.0247182846069336,9.332598686218262,0.5195417404174805
1787774962647953400,1.583953369140625,1.2042834758758545,9.332598686218262,0.4141969084739685
1787774962663983400,1.5999833984375,1.45806884765625,9.378087997436523,0.38307225704193115
1787774962680001800,1.616001708984375,1.6615760326385498,9.442731857299805,0.5099649429321289
1787774962696040700,1.632040771484375,1.7621324062347412,9.526528358459473,0.6919242739677429
1787774962712080100,1.648080078125,1.766920804977417,9.536105155944824,0.8834604024887085
1787774962728100000,1.66410009765625,1.7405846118927002,9.548076629638672,0.8786720037460327
1787774962744163000,1.6801630859375,1.7980455160140991,9.583989143371582,0.8307880163192749
1787774962760189000,1.69618896484375,1.9369091987609863,9.655815124511719,0.751779317855835
1787774962776239600,1.712239501953125,2.0207061767578125,9.684545516967773,0.545877993106842
1787774962792293000,1.728293212890625,1.944091796875,9.835380554199219,0.4620809257030487
1787774962808319700,1.74431982421875,1.8722656965255737,9.99100399017334,0.6488286852836609
1787774962824394800,1.760394775390625,2.006340980529785,10.110713958740234,0.8619126081466675
1787774962840428300,1.77642822265625,2.2146365642547607,10.369287490844727,0.9193734526634216
1787774962856488200,1.79248828125,2.1380221843719482,10.757147789001465,0.811634361743927
1787774962872550100,1.808550048828125,1.7860745191574097,11.018115997314453,0.48602294921875
1787774962888582400,1.82458251953125,1.50355863571167,11.228805541992188,-0.38067805767059326
1787774962904654600,1.840654541015625,1.5466543436050415,11.267112731933594,-1.2521674633026123
1787774962920697000,1.856697021484375,2.7485435009002686,11.128249168395996,-1.3048399686813354
1787774962936766700,1.8727666015625,4.402936935424805,10.668562889099121,-0.7015010714530945
1787774962952877000,1.888876953125,5.652710437774658,10.017339706420898,-0.1412578970193863
1787774962968970200,1.90497021484375,5.868188381195068,9.564835548400879,0.23942017555236816
1787774962985027000,1.921027099609375,5.07570743560791,9.155426979064941,0.002394201699644327
1787774963001079600,1.93707958984375,3.8091750144958496,9.074024200439453,-0.3974374830722809
1787774963017149700,1.953149658203125,2.8155810832977295,9.114726066589355,-0.3758896589279175
1787774963033220600,1.969220703125,1.9823989868164062,9.155426979064941,-0.49799394607543945
1787774963049322200,1.985322265625,1.7190368175506592,9.220070838928223,-0.8810662031173706
1787774963065407700,2.00140771484375,1.6615760326385498,9.241618156433105,-1.2473790645599365
1787774963081468700,2.01746875,2.0374655723571777,9.521739959716797,-1.5610195398330688
1787774963097550000,2.033550048828125,2.4133553504943848,9.622296333312988,-1.4987702369689941
1787774963121624600,2.05762451171875,2.669534921646118,9.536105155944824,-1.2641384601593018
1787774963137706200,2.073706298828125,2.516305923461914,9.349357604980469,-1.2617442607879639
1787774963153792800,2.089792724609375,2.3127987384796143,9.20091724395752,-1.1468225717544556
1787774963169860900,2.10586083984375,2.274491548538208,8.987833023071289,-0.7565677165985107
1787774963185889800,2.121889892578125,2.145204782485962,8.83939266204834,-0.19871874153614044
1787774963201908700,2.13790869140625,1.6831238269805908,8.7484130859375,0.1867477297782898
1787774963217952800,2.153952880859375,1.2713210582733154,8.722076416015625,0.40701428055763245
1787774963234012000,2.170011962890625,1.1037269830703735,8.741230010986328,0.6607996821403503
1787774963250046200,2.186046142578125,1.039083480834961,8.667010307312012,0.6847416758537292
1787774963266110200,2.202110107421875,1.0534487962722778,8.619126319885254,0.4381389021873474
1787774963282136000,2.218135986328125,0.9385270476341248,8.592789649963379,0.15083470940589905
1787774963298180600,2.2341806640625,0.811634361743927,8.65743350982666,-0.21547815203666687
1787774963314219000,2.250218994140625,0.7996633648872375,8.767566680908203,-0.2082955539226532
1787774963330257000,2.2662568359375,0.9193734526634216,8.87291145324707,-0.11252748221158981
1787774963346322400,2.282322509765625,0.9481038451194763,8.999804496765137,-0.0071826050989329815
1787774963362346500,2.298346435546875,1.048660397529602,9.17697525024414,0.12689268589019775
1787774963378393600,2.3143935546875,1.2952631711959839,9.349357604980469,0.17956513166427612
1787774963394453000,2.330452880859375,1.4628572463989258,9.502586364746094,0.2322375625371933
1787774963410504700,2.346504638671875,1.580173134803772,9.751583099365234,0.3687070608139038
1787774963426530600,2.362530517578125,1.867477297782898,10.017339706420898,0.4141969084739685
1787774963442552300,2.37855224609375,2.3104045391082764,10.223240852355957,0.3280056416988373
1787774963458593500,2.394593505859375,2.75812029838562,10.460267066955566,0.047884032130241394
1787774963474633500,2.410633544921875,3.1938650608062744,10.522516250610352,-0.19393034279346466
1787774963490691800,2.42669189453125,3.2968156337738037,10.527304649353027,-0.35673606395721436
1787774963506721800,2.4427216796875,2.7030537128448486,11.099518775939941,-0.4189853072166443
1787774963522747600,2.45874755859375,1.647210717201233,11.848904609680176,-0.090979665517807
1787774963538827800,2.474827880859375,0.9983820915222168,12.306197166442871,0.26096799969673157
1787774963554868000,2.490867919921875,1.6400281190872192,12.42351245880127,0.9792284965515137
1787774963570911700,2.506911865234375,3.5218706130981445,11.918335914611816,2.0638017654418945
1787774963586976800,2.522976806640625,5.884947776794434,11.073183059692383,1.7477672100067139
1787774963603002400,2.53900244140625,7.067683219909668,9.931148529052734,0.9648633003234863
1787774963619083800,2.555083740234375,6.751648902893066,8.87291145324707,-0.016759412363171577
1787774963635118000,2.5711181640625,5.473145008087158,8.434772491455078,-0.4165911078453064
1787774963651171300,2.58717138671875,3.801992416381836,8.355764389038086,-0.2082955539226532
1787774963667258600,2.603258544921875,1.9393033981323242,8.643068313598633,0.4692635238170624
1787774963683286500,2.61928662109375,0.5674257874488831,8.89685344696045,1.1899182796478271
1787774963699372500,2.63537255859375,-0.07182604819536209,9.064447402954102,1.3287819623947144
1787774963715419600,2.651419677734375,0.1364694982767105,9.102754592895508,0.8259995579719543
1787774963731489800,2.66748974609375,0.9720458984375,8.923190116882324,0.3734954595565796
1787774963747550500,2.683550537109375,1.9345149993896484,8.69095230102539,0.2106897532939911
1787774963763583700,2.699583740234375,2.564189910888672,8.633491516113281,0.05027823522686958
1787774963779681300,2.715681396484375,3.2154128551483154,8.62630844116211,-0.08619125932455063
1787774963795717600,2.731717529296875,3.624821424484253,8.547300338745117,-0.11252748221158981
1787774963811743700,2.74774365234375,3.7445313930511475,8.525752067565918,-0.0694318488240242
1787774963827797000,2.763796875,3.5266590118408203,8.51138687133789,0.033518824726343155
1787774963843833600,2.77983349609375,3.0861260890960693,8.559270858764648,0.090979665517807
1787774963859896300,2.795896240234375,2.470816135406494,8.633491516113281,0.05506663769483566
1787774963875976400,2.8119765625,1.920149803161621,8.686163902282715,0.16759411990642548
1787774963892010800,2.8280107421875,1.558625340461731,8.762778282165527,0.3519476354122162
1787774963908122000,2.8441220703125,1.4437036514282227,8.853757858276367,0.6416460275650024
1787774963924170500,2.86017041015625,1.3527239561080933,8.978256225585938,0.8212111592292786
1787774963940245200,2.876245361328125,1.5729905366897583,9.126696586608887,0.8355764150619507
1787774963956320000,2.892320068359375,1.9536685943603516,9.215282440185547,0.5482721924781799
1787774963972371200,2.90837109375,2.2361843585968018,9.32302188873291,0.181959331035614
1787774963988393700,2.924393798828125,2.365471363067627,9.495404243469238,-0.08379705995321274
1787774964004450300,2.9404501953125,2.38462495803833,9.651026725769043,-0.11013327538967133
1787774964020527900,2.95652783203125,2.473210334777832,9.852140426635742,-0.1173158809542656
1787774964036625000,2.972625,2.6623523235321045,10.02691650390625,-0.08140286058187485
1787774964052687400,2.988687255859375,2.801215887069702,10.137049674987793,-0.07661445438861847
1787774964068745200,3.0047451171875,2.8155810832977295,10.199298858642578,-0.17717093229293823
1787774964084806400,3.020806396484375,2.693476915359497,10.223240852355957,-0.28730419278144836
1787774964100895700,3.036895751953125,2.497152328491211,10.223240852355957,-0.45010992884635925
1787774964116980700,3.052980712890625,2.2026655673980713,10.563218116760254,-0.6991068720817566
1787774964133048300,3.06904833984375,1.558625340461731,11.142614364624023,-0.6512228846549988
1787774964149135600,3.085135498046875,0.8403648138046265,11.39161205291748,-0.4572925269603729
1787774964165159400,3.101159423828125,0.8738836050033569,11.63103199005127,-0.2777273952960968
1787774964181250300,3.117250244140625,1.7717092037200928,11.724405288696289,-0.1149216815829277
1787774964197288400,3.133288330078125,2.9927520751953125,11.422736167907715,-0.3998316824436188
1787774964213312000,3.14931201171875,4.039018154144287,11.010933876037598,-0.5099649429321289
1787774964229412900,3.165412841796875,4.63517427444458,10.60391902923584,-0.3998316824436188
1787774964245434000,3.18143408203125,4.774038314819336,10.034099578857422,-0.3064578175544739
1787774964261520400,3.197520263671875,4.477157115936279,9.38048267364502,-0.07900865375995636
1787774964277557800,3.213557861328125,3.6846764087677,8.757989883422852,0.038307227194309235
1787774964293597400,3.229597412109375,2.4468741416931152,8.628703117370605,0.033518824726343155
1787774964309701400,3.245701416015625,1.2425906658172607,8.846575736999512,0.05267243832349777
1787774964325718000,3.261718017578125,0.6512228846549988,9.11233139038086,-0.11013327538967133
1787774964341802500,3.277802490234375,0.7996633648872375,9.279925346374512,-0.2322375625371933
1787774964357845200,3.29384521484375,1.3982137441635132,9.272743225097656,0.05027823522686958
1787774964373896700,3.309896728515625,2.1547815799713135,9.205705642700195,0.38067805767059326
1787774964389959000,3.325958984375,2.8826189041137695,9.002198219299316,0.38546648621559143
1787774964405980200,3.341980224609375,3.4308910369873047,8.887276649475098,0.19632454216480255
1787774964422025700,3.358025634765625,3.555389642715454,8.765172004699707,-0.040701430290937424
1787774964438060000,3.37406005859375,3.3039982318878174,8.645462036132812,-0.08858546614646912
1787774964454126300,3.390126220703125,2.87064790725708,8.53532886505127,-0.019153613597154617
1787774964470153500,3.406153564453125,2.5665841102600098,8.494627952575684,0.031124621629714966
1787774964486177300,3.42217724609375,2.449268341064453,8.429984092712402,0.1388636976480484
1787774964502220500,3.438220458984375,2.4013843536376953,8.396465301513672,0.07422025501728058
1787774964518282200,3.4542822265625,2.3104045391082764,8.406042098999023,0
1787774964534346200,3.47034619140625,2.0398597717285156,8.42040729522705,-0.08140286058187485
1787774964550382000,3.486382080078125,1.778891921043396,8.508993148803711,-0.19871874153614044
1787774964566402800,3.50240283203125,1.6639702320098877,8.667010307312012,-0.2944868206977844
1787774964582444300,3.5184443359375,1.7166426181793213,8.822632789611816,-0.0933738648891449
1787774964598488800,3.53448876953125,2.1595699787139893,8.954314231872559,0.05985504388809204
1787774964614515700,3.550515625,2.7078421115875244,9.011775016784668,0.038307227194309235
1787774964630608600,3.566608642578125,3.2130186557769775,9.224859237670898,-0.002394201699644327
1787774964646638300,3.582638427734375,3.246537446975708,9.533711433410645,0.011971008032560349
1787774964662741500,3.598741455078125,2.8155810832977295,9.938331604003906,-0.011971008032560349
1787774964678810600,3.614810546875,2.470816135406494,10.18493366241455,-0.06224924325942993
1787774964694862300,3.6308623046875,2.185906171798706,10.340557098388672,-0.12689268589019775
1787774964710929200,3.64692919921875,1.946485996246338,10.462661743164062,-0.11252748221158981
1787774964726969300,3.66296923828125,2.054224967956543,10.51054573059082,0.08379705995321274
1787774964743028700,3.67902880859375,2.169146776199341,10.931924819946289,0.20350714027881622
1787774964759086600,3.695086669921875,1.6735470294952393,11.48259162902832,0.22026655077934265
1787774964775130400,3.71113037109375,1.1252747774124146,11.75553035736084,0.08619125932455063
1787774964791228400,3.727228515625,1.5107412338256836,12.126631736755371,-0.06224924325942993
1787774964807279000,3.743279052734375,2.892195701599121,11.954249382019043,0.033518824726343155
1787774964823376400,3.75937646484375,4.8051629066467285,11.190498352050781,0.17956513166427612
1787774964839435000,3.77543505859375,5.916072368621826,10.316615104675293,0.5267243981361389
1787774964855470000,3.791469970703125,5.9088897705078125,9.47146224975586,0.8906430602073669
1787774964871547000,3.807546875,4.513070106506348,8.798690795898438,0.9385270476341248
1787774964887603000,3.82360302734375,2.650381326675415,8.592789649963379,0.524330198764801
1787774964903725000,3.83972509765625,1.0007762908935547,8.580819129943848,0.12210428714752197
1787774964919786500,3.855786376953125,0.1867477297782898,8.671798706054688,0.016759412363171577
1787774964935830800,3.871830810546875,0.14844051003456116,8.975862503051758,0.29209262132644653
1787774964951901400,3.8879013671875,0.629675030708313,9.20091724395752,0.8523358106613159
1787774964967962600,3.903962646484375,1.039083480834961,9.47146224975586,0.9792284965515137
1787774964984047000,3.920047119140625,1.5969325304031372,9.66299819946289,0.9816226959228516
1787774965000142300,3.936142333984375,2.3271639347076416,9.710882186889648,1.05105459690094
1787774965016195600,3.952195556640625,3.375824451446533,9.555258750915527,1.316810965538025
1787774965032280300,3.9682802734375,4.034229755401611,9.299078941345215,1.4772224426269531
1787774965048343600,3.984343505859375,4.137180328369141,9.174580574035645,1.436521053314209
1787774965064477000,4.000476806640625,3.552995204925537,9.030928611755371,1.2114660739898682
1787774965080529700,4.01652978515625,2.7724854946136475,8.887276649475098,0.9576807022094727
1787774965096549400,4.03254931640625,2.0685901641845703,8.798690795898438,0.5937620401382446
1787774965112596500,4.048596435546875,1.678335428237915,8.731653213500977,0.272938996553421
1787774965128620800,4.064620849609375,1.558625340461731,8.678980827331543,0.10295066982507706
1787774965144713000,4.080712890625,1.6735470294952393,8.5903959274292,0.10534487664699554
1787774965160773600,4.096773681640625,1.5083470344543457,8.681375503540039,0.07182604819536209
1787774965176815900,4.11281591796875,1.357512354850769,8.83699893951416,0.07182604819536209
1787774965192883000,4.128883056640625,1.2665326595306396,9.02135181427002,0.08379705995321274
1787774965208909800,4.144909912109375,1.4484920501708984,9.227252960205078,0.028730420395731926
1787774965224956000,4.160955810546875,2.1116859912872314,9.425971984863281,-0.035913024097681046
1787774965240999000,4.1769990234375,2.8179752826690674,9.531316757202148,0.031124621629714966
1787774965257032000,4.193031982421875,3.224989652633667,9.715670585632324,0.028730420395731926
1787774965281123800,4.217123779296875,3.265691041946411,10.012551307678223,-0.1604115068912506
1787774965297170400,4.23317041015625,3.337517261505127,10.036493301391602,-0.05985504388809204
1787774965313232600,4.249232666015625,3.205836057662964,9.9000244140625,0.3711012601852417
1787774965329256200,4.265256103515625,2.8634653091430664,9.751583099365234,0.9840168952941895
1787774965345337900,4.281337890625,2.1116859912872314,9.715670585632324,1.3958195447921753
1787774965361357600,4.297357666015625,0.7541735172271729,10.18493366241455,1.4413094520568848
1787774965377416000,4.313416015625,-0.47884035110473633,10.879252433776855,0.9792284965515137
1787774965393437200,4.329437255859375,-0.8954314589500427,11.511322021484375,0.7015010714530945
1787774965409454800,4.345454833984375,-0.3758896589279175,11.824962615966797,1.1827356815338135
1787774965425517600,4.361517578125,0.5363011956214905,11.848904609680176,1.4053963422775269
1787774965441593000,4.377593017578125,1.7046716213226318,11.367670059204102,1.1324573755264282
1787774965457653000,4.393653076171875,2.940079689025879,10.766724586486816,0.8307880163192749
1787774965473693200,4.409693115234375,4.019864559173584,10.196905136108398,0.45489832758903503
1787774965489709800,4.425709716796875,4.616020679473877,9.643844604492188,-0.040701430290937424
1787774965505795300,4.44179541015625,4.60165548324585,9.114726066589355,-0.4213795065879822
1787774965521831700,4.457831787109375,4.022258758544922,8.681375503540039,-0.4644751250743866
1787774965537850000,4.47385009765625,3.071760892868042,8.38449478149414,-0.15322890877723694
1787774965553882600,4.489882568359375,2.078166961669922,8.312667846679688,0.22266076505184174
1787774965569915000,4.505914794921875,1.0845733880996704,8.44434928894043,0.706289529800415
1787774965586008600,4.522008544921875,0.47165772318840027,8.822632789611816,1.0007762908935547
1787774965602102800,4.538102783203125,0.3064578175544739,9.23682975769043,1.1635819673538208
1787774965618185200,4.554185302734375,0.5793967843055725,9.560047149658203,1.2306196689605713
1787774965634262000,4.570261962890625,1.1061211824417114,9.739612579345703,1.3407529592514038
1787774965650295000,4.586294921875,1.8579005002975464,9.821015357971191,1.4197616577148438
1787774965666345000,4.602344970703125,2.5977089405059814,9.81143856048584,1.3048399686813354
1787774965682398000,4.61839794921875,3.624821424484253,9.684545516967773,1.3335703611373901
1787774965698480400,4.63448046875,4.431667327880859,9.459490776062012,1.1492167711257935
1787774965714525000,4.65052490234375,4.709394931793213,9.246406555175781,1.072602391242981
1787774965730564600,4.666564697265625,4.613626480102539,9.066842079162598,1.1779472827911377
1787774965746617900,4.682617919921875,3.821146011352539,8.901641845703125,1.1779472827911377
1787774965762658000,4.698657958984375,2.7246015071868896,8.834604263305664,1.0534487962722778
1787774965778749200,4.714749267578125,1.8291701078414917,8.765172004699707,1.1540051698684692
1787774965794822700,4.73082275390625,1.3646949529647827,8.829815864562988,1.3479355573654175
1787774965810874400,4.746874267578125,1.4173674583435059,9.004592895507812,1.292868971824646
1787774965826935600,4.762935546875,1.8602946996688843,9.078812599182129,1.0582371950149536
1787774965843001600,4.779001708984375,2.518700122833252,9.184157371520996,0.7996633648872375
1787774965859095800,4.795095703125,3.220201253890991,9.205705642700195,0.6967126727104187
1787774965875155700,4.81115576171875,3.890577793121338,9.27034854888916,0.586579442024231
1787774965891210800,4.827210693359375,4.5609540939331055,9.38048267364502,0.5482721924781799
1787774965907279000,4.843279052734375,5.013458251953125,9.35893440246582,0.6368576288223267
1787774965923297300,4.85929736328125,5.22175407409668,9.409213066101074,0.4668693244457245
1787774965939347000,4.875346923828125,5.070919036865234,9.481039047241211,0.1388636976480484
1787774965955434800,4.891434814453125,4.841075897216797,9.533711433410645,-0.19871874153614044
1787774965971492400,4.907492431640625,4.738125324249268,9.457097053527832,-0.24420857429504395
1787774965987574000,4.923573974609375,4.752490520477295,9.361329078674316,-0.11013327538967133
1787774966003619300,4.939619384765625,4.733336925506592,9.315838813781738,-0.031124621629714966
1787774966019683800,4.955683837890625,4.359841346740723,9.5408935546875,-0.15801730751991272
1787774966035771400,4.971771484375,3.598485231399536,10.019734382629395,0.011971008032560349
1787774966051790300,4.987790283203125,2.8634653091430664,10.412383079528809,0.4118026793003082
1787774966067874800,5.003874755859375,2.782062292098999,10.656591415405273,0.8427590131759644
1787774966083915800,5.019915771484375,3.4141316413879395,10.591948509216309,1.482010841369629
1787774966099930400,5.035930419921875,4.290409564971924,10.24239444732666,1.9728221893310547
1787774966115974400,5.051974365234375,5.082890033721924,9.648633003234863,2.2242133617401123
1787774966131998700,5.067998779296875,5.305551052093506,8.856152534484863,2.1284453868865967
1787774966148040000,5.0840400390625,4.790797710418701,8.38688850402832,2.0254945755004883
1787774966164086800,5.100086669921875,3.6583402156829834,8.425195693969727,1.601720929145813
1787774966180151800,5.11615185546875,2.691082715988159,8.71489429473877,0.9385270476341248
1787774966196179500,5.132179443359375,2.0805611610412598,8.99740982055664,0.3280056416988373
1787774966212204000,5.1482041015625,2.205059766769409,9.311050415039062,-0.043095629662275314
1787774966228262700,5.1642626953125,2.8826189041137695,9.409213066101074,-0.0933738648891449
1787774966244338000,5.180337890625,3.687070608139038,9.41400146484375,-0.031124621629714966
1787774966260408300,5.196408203125,4.141968727111816,9.390059471130371,-0.17956513166427612
1787774966276457500,5.21245751953125,4.3191399574279785,9.3828763961792,-0.1604115068912506
1787774966292476000,5.228475830078125,4.338293552398682,9.289502143859863,-0.07182604819536209
1787774966308548600,5.244548583984375,4.32871675491333,9.244012832641602,0.05985504388809204
1787774966324568600,5.260568603515625,4.129997730255127,9.208099365234375,0.019153613597154617
1787774966340588800,5.2765888671875,3.581725835800171,9.083600997924805,-0.20111294090747833
1787774966356627500,5.29262744140625,2.894589900970459,9.057265281677246,-0.3878606855869293
1787774966372649000,5.30864892578125,2.1045033931732178,9.105149269104004,-0.5602431893348694
1787774966388725200,5.324725341796875,1.4484920501708984,9.210494041442871,-0.5219359993934631
1787774966404754200,5.340754150390625,1.0630255937576294,9.313444137573242,-0.5841852426528931
1787774966420823300,5.3568232421875,1.0055646896362305,9.32541561126709,-0.5626373887062073
1787774966436884700,5.372884765625,1.4532804489135742,9.220070838928223,-0.4405331015586853
1787774966452911600,5.38891162109375,1.987187385559082,9.23443603515625,-0.07422025501728058
1787774966469001200,5.405001220703125,2.3127987384796143,9.313444137573242,0.3495534360408783
1787774966485041000,5.421041015625,2.518700122833252,9.330204010009766,0.5985504388809204
1787774966501060900,5.437060791015625,2.5785553455352783,9.39245319366455,0.545877993106842
1787774966517105400,5.45310546875,2.4396915435791016,9.5624418258667,0.36152446269989014
1787774966533153300,5.4691533203125,2.296039342880249,9.627084732055664,0.1412578970193863
1787774966549202200,5.4852021484375,2.296039342880249,9.667786598205566,-0.05985504388809204
1787774966565246700,5.501246826171875,2.3582887649536133,9.696516990661621,-0.1149216815829277
1787774966581273900,5.51727392578125,2.3989901542663574,9.768342971801758,-0.0933738648891449
1787774966597340000,5.53333984375,2.432508945465088,9.799467086791992,0
1787774966613370400,5.549370361328125,2.389413356781006,9.847352027893066,0.16759411990642548
1787774966629422300,5.56542236328125,2.0853497982025146,9.892841339111328,0.23942017555236816
1787774966645476000,5.58147607421875,1.7357962131500244,9.914389610290527,0.17717093229293823
1787774966661506300,5.59750634765625,1.534683346748352,9.943120002746582,0.14844051003456116
1787774966677568300,5.613568359375,1.5442601442337036,9.943120002746582,0.1388636976480484
1787774966693609200,5.629609130859375,1.7501614093780518,9.931148529052734,0.15562310814857483
1787774966709671400,5.64567138671875,2.1164743900299072,9.840168952941895,0.1867477297782898
1787774966725733000,5.661733154296875,2.4588451385498047,9.744400978088379,0.08858546614646912
1787774966741775400,5.677775390625,2.6455929279327393,9.66539192199707,-0.07422025501728058
1787774966757856500,5.6938564453125,2.4684219360351562,9.653421401977539,-0.1149216815829277
1787774966773901800,5.70990185546875,2.123656988143921,9.653421401977539,-0.1173158809542656
1787774966789974000,5.72597412109375,1.7094600200653076,9.62947940826416,0.033518824726343155
1787774966805994500,5.741994384765625,1.4173674583435059,9.59596061706543,0.2825157940387726
1787774966822036700,5.75803662109375,1.3048399686813354,9.583989143371582,0.5003881454467773
1787774966838100000,5.774099853515625,1.2737152576446533,9.607931137084961,0.5937620401382446
1787774966854151400,5.7901513671875,1.2689268589019775,9.62947940826416,0.6871358752250671
1787774966870230300,5.806230224609375,1.256955862045288,9.643844604492188,0.7086837291717529
1787774966886252000,5.822251953125,1.3120225667953491,9.761159896850586,0.6991068720817566
1787774966902309600,5.8383095703125,1.4484920501708984,9.955090522766113,0.5315127968788147
1787774966918410800,5.85441064453125,1.6089035272598267,10.101137161254883,0.2825157940387726
1787774966934472700,5.87047265625,1.7381904125213623,10.1753568649292,-0.0071826050989329815
1787774966950560500,5.886560546875,1.9273324012756348,10.319009780883789,-0.40701428055763245
1787774966966594300,5.90259423828125,2.3702597618103027,10.563218116760254,-0.608127236366272
1787774966982615800,5.91861572265625,3.157952070236206,10.776301383972168,-0.524330198764801
1787774966998645200,5.934645263671875,3.9264907836914062,10.776301383972168,-0.3208230137825012
1787774967014667300,5.950667236328125,4.438849925994873,10.481815338134766,-0.1412578970193863
1787774967030757600,5.966757568359375,4.824316501617432,10.120290756225586,-0.13407529890537262
1787774967046773000,5.98277294921875,4.831499099731445,9.660603523254395,-0.272938996553421
1787774967062842400,5.99884228515625,4.216189384460449,9.26795482635498,-0.5674257874488831
1787774967078904800,6.01490478515625,3.3016040325164795,9.093177795410156,-0.7565677165985107
1787774967094934300,6.030934326171875,2.425326347351074,8.973467826843262,-0.6009446382522583
1787774967110989600,6.046989501953125,1.7262194156646729,9.014169692993164,-0.4189853072166443
1787774967127102700,6.063102783203125,1.2234370708465576,9.131484985351562,-0.27054479718208313
1787774967143169800,6.079169677734375,1.1085153818130493,9.279925346374512,-0.21787235140800476
1787774967159204000,6.0952041015625,1.3886369466781616,9.385271072387695,-0.2322375625371933
1787774967175231200,6.111231201171875,1.9177556037902832,9.373299598693848,-0.2059013396501541
1787774967191298800,6.127298828125,2.410961151123047,9.342175483703613,-0.10773907601833344
1787774967207312100,6.14331201171875,2.449268341064453,9.272743225097656,0.002394201699644327
1787774967223330800,6.159330810546875,2.212242364883423,9.308655738830566,-0.031124621629714966
1787774967239392800,6.175392822265625,2.056619167327881,9.229647636413574,-0.05985504388809204
1787774967255416800,6.191416748046875,2.006340980529785,9.169792175292969,-0.10534487664699554
1787774967271500500,6.20750048828125,2.0614075660705566,9.083600997924805,-0.11252748221158981
1787774967287542300,6.223542236328125,2.0901381969451904,9.050082206726074,-0.16998831927776337
1787774967303561000,6.23956103515625,1.9345149993896484,8.990227699279785,-0.181959331035614
1787774967319601200,6.25560107421875,1.6376339197158813,8.983044624328613,-0.2059013396501541
1787774967335619600,6.27161962890625,1.357512354850769,8.944737434387207,-0.181959331035614
1787774967351703000,6.287703125,1.2689268589019775,8.93037223815918,-0.2106897532939911
1787774967367733000,6.30373291015625,1.3838485479354858,8.925583839416504,-0.19632454216480255
1787774967383752200,6.319752197265625,1.6855180263519287,8.887276649475098,-0.1604115068912506
1787774967399808000,6.33580810546875,2.0039467811584473,8.846575736999512,-0.05027823522686958
1787774967415829800,6.351829833984375,2.209848165512085,8.860940933227539,0.09576806426048279
1787774967431918000,6.36791796875,2.1116859912872314,8.951920509338379,0.15562310814857483
1787774967447957500,6.38395751953125,1.922544002532959,9.162610054016113,0.090979665517807
1787774967463975700,6.3999755859375,1.5897499322891235,9.418789863586426,-0.08619125932455063
1787774967480013800,6.416013916015625,1.2952631711959839,9.730035781860352,-0.304063618183136
1787774967496035300,6.432035400390625,1.2234370708465576,10.103530883789062,-0.4836287498474121
1787774967512084000,6.448083984375,1.5753847360610962,10.462661743164062,-0.6272808313369751
1787774967528131300,6.46413134765625,2.47560453414917,10.702081680297852,-0.4692635238170624
1787774967544205600,6.48020556640625,3.5434184074401855,10.867281913757324,-0.05985504388809204
1787774967560274200,6.496274169921875,4.2090067863464355,10.986991882324219,0.45250412821769714
1787774967576305400,6.512305419921875,4.1156325340271,11.070788383483887,0.8427590131759644
1787774967592394000,6.52839404296875,3.6296098232269287,11.238382339477539,0.5961562395095825
1787774967608489000,6.544489013671875,3.0190882682800293,11.798625946044922,0.090979665517807
1787774967624566800,6.56056689453125,2.3582887649536133,12.047622680664062,-0.11252748221158981
1787774967640608500,6.5766083984375,1.3215993642807007,11.78665542602539,0.031124621629714966
1787774967656656100,6.59265625,0.9648633003234863,11.805809020996094,0.3016694188117981
1787774967672700400,6.608700439453125,2.4013843536376953,11.374852180480957,1.0438719987869263
1787774967688764400,6.624764404296875,4.896142482757568,10.589553833007812,1.6112977266311646
1787774967704845000,6.640844970703125,6.9695210456848145,9.5624418258667,1.6112977266311646
1787774967720905000,6.656905029296875,7.704541206359863,8.71728801727295,0.8738836050033569
1787774967736951300,6.672951416015625,6.964732646942139,8.245630264282227,0.15801730751991272
1787774967753014300,6.68901416015625,5.2911858558654785,8.161833763122559,-0.2944868206977844
1787774967769047800,6.7050478515625,3.581725835800171,8.283937454223633,-0.4908113479614258
1787774967785142300,6.721142333984375,2.1930887699127197,8.468291282653809,-0.43335050344467163
1787774967801201200,6.737201171875,1.256955862045288,8.643068313598633,-0.038307227194309235
1787774967817263600,6.753263671875,1.0606313943862915,8.588001251220703,0.524330198764801
1787774967833341400,6.769341552734375,1.1803414821624756,8.549694061279297,0.9672574996948242
1787774967849364700,6.78536474609375,1.5634137392044067,8.456320762634277,1.3623007535934448
1787774967865432800,6.801432861328125,1.941697597503662,8.324639320373535,1.678335428237915
1787774967881539000,6.8175390625,2.2577321529388428,8.221688270568848,1.7046716213226318
1787774967897603600,6.833603515625,2.5115175247192383,8.090007781982422,1.580173134803772
1787774967913682400,6.849682373046875,2.6839001178741455,8.003816604614258,1.3311761617660522
1787774967929721900,6.865721923828125,2.7269957065582275,8.092401504516602,0.8690952062606812
1787774967945739800,6.88173974609375,2.7916390895843506,8.250418663024902,0.3974374830722809
1787774967961782800,6.89778271484375,2.786850690841675,8.324639320373535,-0.07661445438861847
1787774967977806800,6.913806884765625,2.7222073078155518,8.516175270080566,-0.38307225704193115
1787774967993868000,6.929867919921875,2.499546527862549,8.69334602355957,-0.4668693244457245
1787774968009927400,6.945927490234375,2.2697031497955322,8.834604263305664,-0.4213795065879822
1787774968025949400,6.961949462890625,1.9943699836730957,8.920795440673828,-0.22266076505184174
1787774968042019800,6.978019775390625,1.6352397203445435,9.038111686706543,0.07422025501728058
1787774968058048800,6.994048828125,1.4197616577148438,9.129091262817383,0.24420857429504395
1787774968074114000,7.010114013671875,1.455674648284912,9.224859237670898,0.181959331035614
1787774968090186200,7.026186279296875,1.764526605606079,9.311050415039062,0.10055647045373917
1787774968106207700,7.042207763671875,2.2385785579681396,9.421183586120605,0.08379705995321274
1787774968122249500,7.05824951171875,2.7102363109588623,9.569623947143555,0.15322890877723694
1787774968138273500,7.0742734375,3.021482467651367,9.739612579345703,0.21787235140800476
1787774968154350300,7.090350341796875,3.287238836288452,9.904812812805176,0.35913026332855225
1787774968170373600,7.10637353515625,3.3231520652770996,10.139444351196289,0.4118026793003082
1787774968186396200,7.122396240234375,3.1914708614349365,10.299856185913086,0.26336219906806946
1787774968202474500,7.138474609375,2.964021682739258,10.484209060668945,-0.1173158809542656
1787774968218500600,7.15450048828125,2.8850131034851074,10.524910926818848,-0.3878606855869293
1787774968234583600,7.17058349609375,3.07415509223938,10.500968933105469,-0.31842881441116333
1787774968250614800,7.18661474609375,3.313575267791748,10.304644584655762,0.05267243832349777
1787774968266638000,7.20263818359375,3.0621838569641113,10.491392135620117,0.21308395266532898
1787774968282683400,7.218683349609375,1.9057846069335938,10.94150161743164,0.17956513166427612
1787774968298711600,7.234711669921875,0.7134721279144287,11.128249168395996,-0.0933738648891449
1787774968314790000,7.250789794921875,0.4644751250743866,11.384428977966309,-0.2106897532939911
1787774968330869000,7.266868896484375,1.721431016921997,11.473014831542969,-0.38546648621559143
1787774968346934000,7.28293408203125,3.406949043273926,11.173739433288574,-0.6751648783683777
1787774968362973200,7.29897314453125,4.881777286529541,10.625467300415039,-0.7661445140838623
1787774968378990300,7.314990234375,5.810727596282959,10.074800491333008,-0.7350199222564697
1787774968395061500,7.3310615234375,5.928043365478516,9.531316757202148,-0.8930372595787048
1787774968411101200,7.34710107421875,4.9583916664123535,9.105149269104004,-1.3215993642807007
1787774968427157200,7.3631572265625,3.6511576175689697,8.937555313110352,-1.434126853942871
1787774968443180500,7.3791806640625,2.3487119674682617,8.848969459533691,-1.2832920551300049
1787774968459197000,7.395197021484375,1.50355863571167,8.892065048217773,-1.0845733880996704
1787774968475273000,7.41127294921875,1.2713210582733154,8.923190116882324,-0.768538773059845
1787774968491356000,7.42735595703125,1.53707754611969,8.978256225585938,-0.2322375625371933
1787774968507423500,7.443423583984375,1.987187385559082,8.939949035644531,0.3711012601852417
1787774968523487000,7.459487060546875,2.4372973442077637,8.829815864562988,0.7948749661445618
1787774968539520800,7.475520751953125,2.7222073078155518,8.765172004699707,0.912190854549408
1787774968555557600,7.4915576171875,3.071760892868042,8.669404029846191,0.9050082564353943
1787774968571604700,7.507604736328125,3.485957622528076,8.49941635131836,0.7637503147125244
1787774968587688400,7.5236884765625,3.9456443786621094,8.279149055480957,0.5003881454467773
1787774968603736800,7.53973681640625,3.845088005065918,8.092401504516602,0.28969839215278625
1787774968619775700,7.555775634765625,3.380612850189209,8.121131896972656,0.1628057211637497
1787774968635842600,7.571842529296875,2.7533318996429443,8.099584579467773,0.10534487664699554
1787774968651906000,7.587906005859375,2.185906171798706,8.17141056060791,0.05267243832349777
1787774968667993000,7.6039931640625,1.7860745191574097,8.267178535461426,-0.1149216815829277
1787774968684065300,7.620065185546875,1.4915876388549805,8.465897560119629,-0.2992752194404602
1787774968700112000,7.63611181640625,1.3503297567367554,8.631096839904785,-0.3495534360408783
1787774968716177400,7.652177490234375,1.4748282432556152,8.832210540771484,-0.2777273952960968
1787774968732207900,7.668207763671875,1.8267759084701538,8.959102630615234,-0.05027823522686958
1787774968748264700,7.6842646484375,2.1715409755706787,9.097966194152832,0.1867477297782898
1787774968764345300,7.700345458984375,2.4157495498657227,9.258378028869629,0.3734954595565796
1787774968780403000,7.71640283203125,2.5067291259765625,9.411606788635254,0.4118026793003082
1787774968796494000,7.732494140625,2.607285737991333,9.615114212036133,0.2777273952960968
1787774968812525800,7.74852587890625,2.911349296569824,9.911994934082031,-0.026336219161748886
1787774968828587800,7.764587890625,3.318363666534424,10.15141487121582,-0.19153612852096558
1787774968844705300,7.780705322265625,3.4787750244140625,10.472238540649414,-0.28730419278144836
1787774968860768300,7.796768310546875,3.308786630630493,10.642226219177246,-0.38067805767059326
1787774968876811300,7.812811279296875,3.1292216777801514,10.733205795288086,-0.43335050344467163
1787774968892863500,7.828863525390625,2.8107926845550537,10.958261489868164,-0.5602431893348694
1787774968908877600,7.844877685546875,2.293645143508911,11.51850414276123,-0.5554547905921936
1787774968924892000,7.860891845703125,1.7357962131500244,11.834539413452148,-0.24420857429504395
1787774968940910800,7.876910888671875,1.9991583824157715,11.815385818481445,0.15801730751991272
1787774968957001700,7.893001708984375,3.134010076522827,11.73398208618164,0.8092401623725891
1787774968973094400,7.909094482421875,4.704606533050537,11.267112731933594,1.460463047027588
1787774968989149700,7.925149658203125,6.0405707359313965,10.498574256896973,1.7836803197860718
1787774969005185800,7.941185791015625,6.782773494720459,9.746794700622559,1.6160861253738403
1787774969021209000,7.957208984375,6.423643112182617,9.124302864074707,1.4101848602294922
1787774969037266200,7.97326611328125,5.372588634490967,8.583212852478027,1.256955862045288
1787774969053283800,7.989283935546875,3.9456443786621094,8.161833763122559,1.1492167711257935
1787774969069304300,8.00530419921875,2.6024973392486572,8.17380428314209,0.7661445140838623
1787774969085335000,8.0213349609375,1.50355863571167,8.283937454223633,0.47884035110473633
1787774969101359600,8.037359619140625,0.9624691009521484,8.556877136230469,0.31364041566848755
1787774969117417000,8.0534169921875,1.0989385843276978,8.698134422302246,0.40701428055763245
1787774969133431300,8.069431396484376,1.778891921043396,8.832210540771484,1.0295066833496094
1787774969149447400,8.085447509765626,2.557007312774658,8.947132110595703,1.6927006244659424
1787774969165504800,8.1015048828125,3.2178070545196533,8.975862503051758,1.9728221893310547
1787774969181526500,8.117526611328126,3.7876269817352295,8.951920509338379,2.0901381969451904
1787774969197593900,8.13359375,4.199429988861084,8.877699851989746,2.0901381969451904
1787774969213620200,8.1496201171875,4.400542736053467,8.707711219787598,1.9991583824157715
1787774969229685800,8.165685791015624,4.367023944854736,8.547300338745117,1.5873557329177856
1787774969245729500,8.1817294921875,4.1180267333984375,8.403648376464844,0.8619126081466675
1787774969261754600,8.197754638671874,3.5913026332855225,8.271966934204102,0.08379705995321274
1787774969277847300,8.213847412109375,3.138798475265503,8.183381080627441,-0.48602294921875
1787774969293883600,8.229883544921876,2.7461493015289307,8.13789176940918,-0.828393816947937
1787774969309952500,8.245952392578126,2.3702597618103027,8.178592681884766,-0.9720458984375
1787774969326002200,8.262002197265625,2.1475989818573,8.4108304977417,-0.9624691009521484
1787774969342028800,8.27802880859375,1.9919757843017578,8.616731643676758,-0.6967126727104187
1787774969358075000,8.294074951171876,1.9057846069335938,8.834604263305664,-0.3663128614425659
1787774969374116600,8.31011669921875,2.0925323963165283,8.995016098022461,0.05506663769483566
1787774969390136000,8.326135986328126,2.4803929328918457,9.114726066589355,0.37828385829925537
1787774969406184200,8.34218408203125,2.980781078338623,9.174580574035645,0.4884171485900879
1787774969422218200,8.35821826171875,3.40216064453125,9.246406555175781,0.5123591423034668
1787774969438263800,8.374263916015625,3.711012601852417,9.332598686218262,0.4596867263317108
1787774969454314500,8.390314453125,3.9240965843200684,9.378087997436523,0.40701428055763245
1787774969470336000,8.4063359375,3.998316764831543,9.5408935546875,0.3423708379268646
1787774969486412500,8.42241259765625,3.8115692138671875,9.658209800720215,0.15562310814857483
1787774969502447600,8.438447509765625,3.404554843902588,9.710882186889648,-0.2944868206977844
1787774969518510300,8.45451025390625,3.1220390796661377,9.883264541625977,-0.667982280254364
1787774969534580200,8.470580322265626,3.0597896575927734,10.007762908935547,-0.7445967197418213
1787774969550619100,8.486619140625,3.3016040325164795,10.110713958740234,-0.6943184733390808
1787774969566674200,8.502674072265625,3.584120035171509,9.995792388916016,-0.5027823448181152
1787774969582711600,8.518711669921874,3.5936968326568604,10.017339706420898,-0.28730419278144836
1787774969598771700,8.534771728515626,3.157952070236206,10.381258964538574,-0.019153613597154617
1787774969614834400,8.55083447265625,2.3558945655822754,10.76193618774414,0.08619125932455063
1787774969630884600,8.566884521484376,1.8315643072128296,11.082759857177734,-0.026336219161748886
1787774969646963200,8.582963134765626,2.205059766769409,11.080365180969238,0.22026655077934265
1787774969663015700,8.599015625,3.134010076522827,10.8505220413208,0.3663128614425659
1787774969679094000,8.615093994140626,3.9240965843200684,10.366893768310547,0.3256114423274994
1787774969695112200,8.6311123046875,4.398148536682129,9.816226959228516,0.13407529890537262
1787774969711218200,8.64721826171875,4.395754337310791,9.402029991149902,-0.19393034279346466
1787774969727295000,8.663294921875,3.7421371936798096,9.191340446472168,-0.4620809257030487
1787774969743361000,8.679361083984375,2.9735984802246094,9.030928611755371,-0.6344634294509888
1787774969759452200,8.6954521484375,2.6216509342193604,8.786720275878906,-0.7326257228851318
1787774969775485200,8.711485107421876,2.3918075561523438,8.683769226074219,-0.7781155705451965
1787774969791592400,8.727592529296874,2.1571757793426514,8.681375503540039,-0.7709329724311829
1787774969807693600,8.743693603515625,1.8531121015548706,8.848969459533691,-0.5315127968788147
1787774969823715600,8.759715576171875,1.5203180313110352,9.136273384094238,-0.29209262132644653
1787774969839762200,8.77576220703125,1.2737152576446533,9.315838813781738,-0.09576806426048279
1787774969855816000,8.79181591796875,1.216254472732544,9.38048267364502,0.08140286058187485
1787774969871837700,8.807837646484375,1.6711528301239014,9.512163162231445,-0.13168109953403473
1787774969887880400,8.82388037109375,2.7940332889556885,9.478644371032715,-0.5099649429321289
1787774969903903500,8.839903564453126,4.513070106506348,9.169792175292969,-0.7565677165985107
1787774969919953000,8.855952880859375,5.8442463874816895,8.820239067077637,-0.6727706789970398
1787774969936054300,8.87205419921875,6.282385349273682,8.396465301513672,-0.5147533416748047
1787774969952117500,8.888117431640625,5.398924827575684,8.190564155578613,-0.4141969084739685
1787774969968162800,8.904162841796875,3.9193081855773926,8.192957878112793,-0.47644615173339844
1787774969984185600,8.920185546875,2.564189910888672,8.212111473083496,-0.6129156351089478
1787774970000243700,8.93624365234375,1.922544002532959,8.128314971923828,-0.7445967197418213
1787774970016351700,8.952351806640625,1.6376339197158813,8.169015884399414,-0.706289529800415
1787774970032418300,8.968418212890626,1.4891934394836426,8.305485725402832,-0.49799394607543945
1787774970048460800,8.984460693359376,1.4245500564575195,8.482656478881836,-0.2992752194404602
1787774970064486400,9.000486328125,1.6112977266311646,8.7484130859375,-0.23702596127986908
1787774970080568300,9.016568359375,2.2002713680267334,9.038111686706543,-0.2944868206977844
1787774970096614700,9.03261474609375,3.134010076522827,9.29189682006836,-0.3878606855869293
1787774970112688600,9.048688720703124,4.055777549743652,9.641449928283691,-0.7110779285430908
1787774970128740900,9.064740966796874,4.757278919219971,9.940725326538086,-1.1468225717544556
1787774970144771600,9.080771484375,5.190629482269287,10.201693534851074,-1.455674648284912
1787774970160852200,9.096852294921876,5.384559631347656,10.311826705932617,-1.3958195447921753
1787774970176888600,9.112888671875,5.398924827575684,10.366893768310547,-1.1659762859344482
1787774970192913700,9.12891357421875,5.135562419891357,10.3549222946167,-0.8978256583213806
1787774970208962000,9.144962158203125,4.776432514190674,10.249577522277832,-0.7709329724311829
1787774970224987000,9.16098681640625,4.410119533538818,10.108319282531738,-0.7924807667732239
1787774970241045000,9.177044921875,4.036623954772949,10.144232749938965,-0.9744400978088379
1787774970257083600,9.193083740234375,3.4739866256713867,10.41956615447998,-1.2018892765045166
1787774970273146600,9.209146728515625,2.894589900970459,10.699687004089355,-1.036689281463623
1787774970289192200,9.225192138671876,2.868253707885742,10.606313705444336,-0.3974374830722809
1787774970305213200,9.241213134765625,3.220201253890991,10.213664054870605,0.5291185975074768
1787774970321266400,9.257266357421875,3.6176388263702393,9.696516990661621,0.8427590131759644
1787774970337314000,9.27331396484375,3.708618402481079,9.265560150146484,0.3998316824436188
1787774970353338600,9.289338623046875,3.536235809326172,8.942343711853027,-0.42616790533065796
1787774970369388800,9.305388916015625,3.5194764137268066,8.793902397155762,-1.0079588890075684
1787774970385417000,9.3214169921875,3.5865142345428467,8.62391471862793,-1.335964560508728
1787774970401480200,9.337480224609376,3.6296098232269287,8.480262756347656,-1.4748282432556152
1787774970417539300,9.353539306640625,3.7158010005950928,8.571242332458496,-1.4676456451416016
1787774970433569800,9.36956982421875,3.529053211212158,8.604761123657227,-1.4413094520568848
1787774970449638700,9.385638671875,3.2537200450897217,8.75080680847168,-1.3742717504501343
1787774970465674800,9.4016748046875,2.832340717315674,8.889671325683594,-1.1420341730117798
1787774970481731800,9.41773193359375,2.367865562438965,9.026140213012695,-0.9050082564353943
1787774970497785000,9.43378515625,2.2385785579681396,9.126696586608887,-0.6512228846549988
1787774970513824000,9.449823974609375,2.5043349266052246,9.090784072875977,-0.4357447028160095
1787774970529887000,9.465886962890625,3.1747114658355713,8.99740982055664,-0.4836287498474121
1787774970545929500,9.481929443359375,3.9456443786621094,8.822632789611816,-0.5578489899635315
1787774970561985800,9.49798583984375,4.63517427444458,8.56884765625,-0.6200982332229614
1787774970578047500,9.514047607421874,4.948814868927002,8.29830265045166,-0.5650315880775452
1787774970594142000,9.530141845703126,4.721365928649902,8.070854187011719,-0.5339069962501526
1787774970610227700,9.546227783203125,4.046200752258301,8.008605003356934,-0.5219359993934631
1787774970626278700,9.562278564453125,3.2369606494903564,8.032546997070312,-0.5027823448181152
1787774970642341400,9.57834130859375,2.6839001178741455,8.121131896972656,-0.5315127968788147
1787774970658359000,9.594359130859376,2.628833532333374,8.185775756835938,-0.47644615173339844
1787774970674454300,9.610454345703126,3.043030261993408,8.250418663024902,-0.48602294921875
1787774970690527000,9.62652685546875,3.5482068061828613,8.348581314086914,-0.569819986820221
1787774970706586600,9.642586669921876,4.223371982574463,8.425195693969727,-0.6272808313369751
1787774970722659000,9.6586591796875,4.855441093444824,8.513781547546387,-0.6991068720817566
1787774970738687200,9.674687255859375,5.214571475982666,8.678980827331543,-0.8164227604866028
1787774970754750000,9.69075,5.509057998657227,8.746018409729004,-0.8667010068893433
1787774970770851800,9.706851806640625,5.671864032745361,8.911218643188477,-0.7613561153411865
1787774970786877000,9.722876953125,5.935225963592529,9.01895809173584,-0.608127236366272
1787774970802972700,9.73897265625,6.13633918762207,9.148244857788086,-0.38546648621559143
1787774970819020300,9.755020263671875,6.222530364990234,9.246406555175781,-0.21547815203666687
1787774970835042600,9.77104248046875,6.086060523986816,9.29189682006836,-0.05985504388809204
1787774970851081500,9.78708154296875,5.7987565994262695,9.430760383605957,-0.10055647045373917
1787774970867103500,9.803103515625,5.540182590484619,9.612719535827637,-0.22505496442317963
1787774970883157000,9.819156982421875,5.394136428833008,9.861717224121094,-0.28969839215278625
1787774970899207700,9.835207763671875,5.303156852722168,10.06043529510498,-0.3495534360408783
1787774970915221800,9.8512216796875,5.1331682205200195,10.062829971313477,-0.5530605912208557
1787774970931279600,9.867279541015625,4.9152960777282715,9.959878921508789,-0.6775590777397156
1787774970947303200,9.88330322265625,4.924872875213623,9.825803756713867,-0.7589619159698486
1787774970963368200,9.8993681640625,5.011064052581787,9.557653427124023,-0.706289529800415
1787774970979436000,9.91543603515625,5.1595048904418945,9.217676162719727,-0.49799394607543945
1787774970995459600,9.93145947265625,5.183446884155273,8.899248123168945,-0.4812345504760742
1787774971011503400,9.94750341796875,4.836287498474121,8.736441612243652,-0.768538773059845
1787774971027527700,9.963527587890624,4.240131378173828,8.5903959274292,-1.2306196689605713
1787774971043614000,9.979614013671876,3.7493197917938232,8.556877136230469,-1.7094600200653076
1787774971059642000,9.99564208984375,3.6367924213409424,8.583212852478027,-2.166752576828003
1787774971075662800,10.011662841796875,3.825934410095215,8.60236644744873,-2.5115175247192383
1787774971091722200,10.02772216796875,4.113238334655762,8.707711219787598,-2.9233202934265137
1787774971107743700,10.04374365234375,4.292803764343262,8.576030731201172,-3.0310592651367188
1787774971123829800,10.059829833984375,4.280832767486572,8.698134422302246,-2.82515811920166
1787774971139862500,10.075862548828125,4.02465295791626,8.676587104797363,-2.1164743900299072
1787774971155884300,10.09188427734375,3.5625722408294678,8.655038833618164,-1.4437036514282227
1787774971171926500,10.107926513671876,3.117250680923462,8.755595207214355,-0.9217676520347595
1787774971187949000,10.123948974609375,2.7724854946136475,8.827422142028809,-0.5746083855628967
1787774971204046300,10.14004638671875,2.5282769203186035,8.980650901794434,-0.5171475410461426
1787774971220094700,10.1560947265625,2.470816135406494,9.0859956741333,-0.6919242739677429
1787774971236118300,10.1721181640625,2.449268341064453,9.071630477905273,-0.8523358106613159
1787774971252182800,10.188182861328125,2.5474305152893066,9.184157371520996,-1.1061211824417114
1787774971268209000,10.204208984375,2.7461493015289307,9.23443603515625,-1.3263877630233765
1787774971284262400,10.220262451171875,2.8826189041137695,9.241618156433105,-1.5466543436050415
1787774971300322000,10.236322021484375,2.935291290283203,9.246406555175781,-1.5873557329177856
1787774971316342800,10.2523427734375,3.155557870864868,9.217676162719727,-1.6136919260025024
1787774971332382200,10.26838232421875,3.6296098232269287,9.050082206726074,-1.5825673341751099
1787774971348408600,10.28440869140625,4.091690540313721,8.882488250732422,-1.455674648284912
1787774971364458800,10.300458740234374,4.28322696685791,8.793902397155762,-1.359906554222107
1787774971380517000,10.31651708984375,4.108449935913086,8.724471092224121,-1.2952631711959839
1787774971396548000,10.332548095703125,3.7421371936798096,8.793902397155762,-1.158793568611145
1787774971412627000,10.348626953125,3.450044631958008,8.793902397155762,-0.8954314589500427
1787774971428668400,10.36466845703125,3.179499864578247,8.765172004699707,-0.6751648783683777
1787774971444734500,10.380734375,2.7940332889556885,8.774748802185059,-0.4405331015586853
1787774971460800300,10.39680029296875,2.4205379486083984,8.755595207214355,-0.2992752194404602
1787774971476867800,10.412867919921876,2.073378562927246,8.765172004699707,-0.3902548849582672
1787774971492931300,10.428931396484375,1.867477297782898,8.877699851989746,-0.49799394607543945
1787774971508974600,10.444974609375,1.968033790588379,9.069235801696777,-0.45489832758903503
1787774971525046800,10.461046875,2.365471363067627,9.196128845214844,-0.35913026332855225
1787774971541064200,10.477064208984375,2.9448680877685547,9.425971984863281,-0.5913678407669067
1787774971557115000,10.493114990234375,3.5194764137268066,9.727641105651855,-0.8164227604866028
1787774971573193700,10.50919384765625,3.9169139862060547,10.043676376342773,-0.6344634294509888
1787774971589252400,10.52525244140625,4.182670593261719,10.194510459899902,-0.6105214357376099
1787774971605332000,10.54133203125,4.41969633102417,10.237606048583984,-0.7230489253997803
1787774971621361200,10.557361083984375,4.627991676330566,10.105925559997559,-0.7206547260284424
1787774971637421600,10.573421630859375,4.774038314819336,9.852140426635742,-0.6009446382522583
1787774971653527600,10.589527587890625,4.5394062995910645,9.742006301879883,-0.4644751250743866
1787774971669597200,10.60559716796875,3.9264907836914062,9.926360130310059,-0.4189853072166443
1787774971685687600,10.6216875,3.1866824626922607,10.129867553710938,-0.016759412363171577
1787774971701721900,10.637721923828124,2.513911724090576,10.283096313476562,0.6416460275650024
1787774971717842200,10.65384228515625,2.1499931812286377,10.333374977111816,1.414973258972168
1787774971733886500,10.669886474609376,2.2888567447662354,10.29746150970459,1.8339585065841675
1787774971749911000,10.6859111328125,2.8371291160583496,10.029311180114746,1.434126853942871
1787774971765965800,10.7019658203125,3.7828385829925537,9.732429504394531,0.45010992884635925
1787774971782016800,10.718016845703126,4.644751071929932,9.481039047241211,-0.2992752194404602
1787774971798084900,10.7340849609375,5.3582234382629395,9.330204010009766,-0.8092401623725891
1787774971814115800,10.75011572265625,6.04775333404541,9.29189682006836,-1.0438719987869263
1787774971830141700,10.7661416015625,6.19379997253418,9.006986618041992,-1.0534487962722778
1787774971846200800,10.782200927734374,5.676652431488037,8.865729331970215,-0.9528923034667969
1787774971862261500,10.798261474609374,4.771644115447998,8.860940933227539,-0.4644751250743866
1787774971878283000,10.814282958984375,3.9480385780334473,8.810662269592285,0.19871874153614044
1787774971894329000,10.8303291015625,3.5434184074401855,8.796297073364258,0.8523358106613159
1787774971910355000,10.84635498046875,3.4332852363586426,8.695740699768066,1.1994950771331787
1787774971926418400,10.86241845703125,3.2800562381744385,8.470685958862305,1.292868971824646
1787774971942485500,10.878485595703125,3.026270866394043,8.403648376464844,1.113303780555725
1787774971958506200,10.89450634765625,2.8443117141723633,8.372523307800293,0.9744400978088379
1787774971974548200,10.91054833984375,2.561795711517334,8.406042098999023,0.9097966551780701
1787774971990569700,10.92656982421875,2.3295583724975586,8.583212852478027,0.727837324142456
1787774972006644500,10.94264453125,2.185906171798706,8.671798706054688,0.6871358752250671
1787774972022664000,10.958663818359375,2.248155355453491,8.738836288452148,0.6200982332229614
1787774972038685400,10.974685546875,2.43011474609375,8.731653213500977,0.6177040338516235
1787774972054738000,10.990738037109375,2.6815059185028076,8.813055992126465,0.6057330369949341
1787774972070759400,11.006759521484375,2.8586769104003906,8.846575736999512,0.7254431247711182
1787774972086849000,11.02284912109375,2.8371291160583496,8.96389102935791,0.9744400978088379
1787774972102881300,11.03888134765625,2.7485435009002686,9.062053680419922,0.9528923034667969
1787774972118903800,11.05490380859375,2.6408045291900635,9.011775016784668,0.7134721279144287
1787774972134959000,11.070958984375,2.5450363159179688,8.990227699279785,0.26096799969673157
1787774972150984200,11.086984130859374,2.6623523235321045,8.987833023071289,0.08619125932455063
1787774972167033000,11.103033203125,2.9257144927978516,8.93037223815918,0.09816227108240128
1787774972183074300,11.11907421875,3.0119056701660156,8.911218643188477,-0.031124621629714966
1787774972199097000,11.13509716796875,2.8562827110290527,8.913613319396973,-0.040701430290937424
1787774972215154000,11.15115380859375,2.7964274883270264,9.009381294250488,0.06464344263076782
1787774972231184100,11.16718408203125,2.896984100341797,9.153033256530762,0.2561795711517334
1787774972247236600,11.183236572265624,2.9281086921691895,9.220070838928223,0.45010992884635925
1787774972263279400,11.199279296875,2.801215887069702,9.35893440246582,0.6368576288223267
1787774972279303400,11.215303466796875,2.537853717803955,9.39245319366455,0.8020575642585754
1787774972295350800,11.231350830078124,2.1787235736846924,9.47146224975586,0.7829039692878723
1787774972311388000,11.247387939453125,1.802833914756775,9.619902610778809,0.751779317855835
1787774972327451600,11.26345166015625,1.8267759084701538,9.835380554199219,0.7398083209991455
1787774972343508500,11.279508544921875,2.0853497982025146,9.983820915222168,0.6847416758537292
1787774972359555000,11.29555517578125,2.5115175247192383,10.146626472473145,0.5219359993934631
1787774972375633400,11.31163330078125,3.1483752727508545,10.196905136108398,0.40462008118629456
1787774972391684900,11.327684814453125,3.869029998779297,10.182539939880371,0.5386953949928284
1787774972407745800,11.343745849609375,4.3861775398254395,10.177751541137695,0.8523358106613159
1787774972423766300,11.359766357421876,4.522646903991699,10.38844108581543,1.1228805780410767
1787774972439812600,11.3758125,3.8738183975219727,10.826580047607422,1.0342950820922852
1787774972455883000,11.391883056640625,2.5330653190612793,11.018115997314453,0.3519476354122162
1787774972471936500,11.4079365234375,1.4939818382263184,11.224017143249512,-0.40701428055763245
1787774972488003300,11.42400341796875,1.558625340461731,11.24795913696289,-0.5171475410461426
1787774972504022300,11.440022216796875,2.9305028915405273,11.006145477294922,-0.6129156351089478
1787774972520127000,11.456126953125,4.69024133682251,10.24000072479248,-0.3447650372982025
1787774972536211700,11.472211669921874,5.96874475479126,9.5408935546875,0.24660277366638184
1787774972552280300,11.4882802734375,6.260837554931641,8.971074104309082,0.586579442024231
1787774972568353300,11.504353271484375,5.2049946784973145,8.908824920654297,0.3902548849582672
1787774972584388600,11.520388671875,3.378218650817871,8.980650901794434,-0.17717093229293823
1787774972600502800,11.536502685546875,2.274491548538208,9.083600997924805,-0.4692635238170624
1787774972616581400,11.552581298828125,2.008735179901123,9.227252960205078,-0.48602294921875
1787774972632649500,11.5686494140625,2.3295583724975586,9.27034854888916,-0.5961562395095825
1787774972648733400,11.5847333984375,2.693476915359497,9.21288776397705,-0.7781155705451965
1787774972664778000,11.600778076171874,3.1100680828094482,9.181763648986816,-0.790086567401886
1787774972680797400,11.61679736328125,3.5170822143554688,9.074024200439453,-0.5961562395095825
1787774972696859100,11.632859130859375,3.8283286094665527,9.026140213012695,-0.17238251864910126
1787774972712885800,11.6488857421875,4.156333923339844,8.844181060791016,0.2944868206977844
1787774972728947000,11.664947021484375,4.307168960571289,8.525752067565918,0.7398083209991455
1787774972745007600,11.681007568359375,4.357447147369385,8.29830265045166,0.9528923034667969
1787774972761026000,11.697026123046875,3.6774938106536865,7.9415669441223145,0.9816226959228516
1787774972777065500,11.7130654296875,2.75812029838562,7.898471355438232,1.015141487121582
1787774972793087700,11.729087646484375,1.742978811264038,7.888894557952881,0.9217676520347595
1787774972809142300,11.745142333984376,1.1516109704971313,7.90086555480957,0.7565677165985107
1787774972825251600,11.76125146484375,0.8786720037460327,7.977479934692383,0.5123591423034668
1787774972841313300,11.777313232421875,0.9696516990661621,8.2312650680542,0.20111294090747833
1787774972857363700,11.79336376953125,1.2330138683319092,8.372523307800293,0.1173158809542656
1787774972873382700,11.809382568359375,1.599326729774475,8.518569946289062,0.1628057211637497
1787774972889454600,11.82545458984375,2.0254945755004883,8.65743350982666,0.3471592366695404
1787774972905470200,11.84147021484375,2.403778553009033,8.743624687194824,0.5889736413955688
1787774972921486000,11.857486083984375,2.499546527862549,8.877699851989746,0.7086837291717529
1787774972937526000,11.873526123046876,2.535459518432617,9.07641887664795,0.8044517636299133
1787774972953550800,11.88955078125,2.6671407222747803,9.241618156433105,0.9026140570640564
1787774972969633500,11.905633544921875,2.8155810832977295,9.543288230895996,0.7805097699165344
1787774972985659000,11.921658935546875,3.00711727142334,9.897629737854004,0.5578489899635315
1787774973001673200,11.937673095703126,3.157952070236206,10.323798179626465,0.24660277366638184
1787774973017737700,11.95373779296875,3.3207578659057617,10.747570991516113,0.023942016065120697
1787774973033755600,11.969755615234375,3.4955344200134277,11.018115997314453,-0.023942016065120697
1787774973049844700,11.9858447265625,3.648763418197632,11.137825965881348,-0.009576806798577309
1787774973065886000,12.001885986328125,3.9001545906066895,11.113883972167969,0.033518824726343155
1787774973081932000,12.01793212890625,3.995922565460205,11.341333389282227,0.10055647045373917
1787774973097940500,12.0339404296875,3.450044631958008,11.769895553588867,0.16519992053508759
1787774973113955600,12.04995556640625,2.7892448902130127,11.84650993347168,0.17477671802043915
1787774973130020900,12.066020751953126,3.093308687210083,11.96861457824707,0.6919242739677429
1787774973146088400,12.08208837890625,4.0294413566589355,11.693281173706055,1.0893617868423462
1787774973162099700,12.098099609375,5.2480902671813965,11.116278648376465,1.0558429956436157
1787774973178122500,12.11412255859375,6.210559368133545,10.285490036010742,1.1180921792984009
1787774973194139600,12.1301396484375,6.665457725524902,9.425971984863281,1.1635819673538208
1787774973210222000,12.14622216796875,6.18182897567749,8.650250434875488,1.039083480834961
1787774973226302500,12.162302490234374,4.944026470184326,8.11634349822998,0.8619126081466675
1787774973242372900,12.178372802734375,3.1914708614349365,7.9415669441223145,0.6320692300796509
1787774973258415600,12.19441552734375,1.702277421951294,8.08282470703125,0.5841852426528931
1787774973274438100,12.210438232421875,0.5937620401382446,8.293514251708984,0.8834604024887085
1787774973290526000,12.22652587890625,0.07182604819536209,8.485051155090332,1.2066776752471924
1787774973306617900,12.242617919921875,0.14844051003456116,8.628703117370605,1.3958195447921753
1787774973322695400,12.2586953125,0.8355764150619507,8.822632789611816,1.5083470344543457
1787774973338761000,12.274760986328126,1.8770540952682495,8.880094528198242,1.5753847360610962
1787774973354798300,12.29079833984375,3.0789434909820557,8.841787338256836,1.6089035272598267
1787774973370844000,12.306843994140625,4.10366153717041,8.573636054992676,1.8746598958969116
1787774973386944800,12.32294482421875,4.750096321105957,8.307879447937012,1.946485996246338
1787774973403031600,12.339031494140626,4.733336925506592,8.130708694458008,1.7310078144073486
1787774973419082200,12.355082275390625,4.2090067863464355,8.044517517089844,1.3192051649093628
1787774973435128300,12.37112841796875,3.5386300086975098,7.929595947265625,0.6488286852836609
1787774973451202000,12.3872021484375,3.138798475265503,7.951143741607666,0.06464344263076782
1787774973467267600,12.403267578125,2.8850131034851074,8.044517517089844,-0.19632454216480255
1787774973483368000,12.419367919921875,2.63362193107605,8.157045364379883,-0.20111294090747833
1787774973499458600,12.43545849609375,2.3247697353363037,8.382100105285645,-0.17477671802043915
1787774973515519000,12.45151904296875,1.8914192914962769,8.597578048706055,-0.043095629662275314
1787774973531591400,12.46759130859375,1.53707754611969,8.736441612243652,0.0694318488240242
1787774973547615200,12.483615234375,1.5203180313110352,8.918401718139648,0.16519992053508759
1787774973563669800,12.499669677734374,1.8842366933822632,9.05247688293457,0.19393034279346466
1787774973579753000,12.5157529296875,2.425326347351074,9.131484985351562,0.17477671802043915
1787774973595815700,12.531815673828126,2.8802247047424316,9.220070838928223,0.12928688526153564
1787774973611908000,12.547908203125,3.160346269607544,9.41400146484375,0.11013327538967133
1787774973627945000,12.563945068359375,3.2800562381744385,9.615114212036133,0.11971008777618408
1787774973643964400,12.57996435546875,3.2130186557769775,9.816226959228516,0.08619125932455063
1787774973660014000,12.59601416015625,2.9448680877685547,10.000580787658691,0.0694318488240242
1787774973676034600,12.61203466796875,2.6192567348480225,10.20648193359375,-0.05746084079146385
1787774973692092200,12.628092041015625,2.4803929328918457,10.383652687072754,-0.2968810200691223
1787774973708154400,12.644154296875,2.540247917175293,10.429142951965332,-0.3208230137825012
1787774973724174600,12.660174560546874,2.9305028915405273,10.486603736877441,-0.08379705995321274
1787774973740216300,12.67621630859375,3.5027170181274414,10.381258964538574,0.22505496442317963
1787774973756235000,12.692235107421874,3.9887399673461914,10.376470565795898,0.3687070608139038
1787774973772301800,12.7083017578125,3.773261785507202,10.733205795288086,0.5674257874488831
1787774973788319700,12.72431982421875,2.6839001178741455,11.176133155822754,0.4118026793003082
1787774973804385300,12.74038525390625,1.7094600200653076,11.654973983764648,-0.20350714027881622
1787774973820415000,12.7564150390625,2.0039467811584473,11.73398208618164,-0.2777273952960968
1787774973836435000,12.77243505859375,3.1052796840667725,11.592724800109863,-0.38546648621559143
1787774973852481500,12.7884814453125,4.532223701477051,10.943896293640137,-0.38546648621559143
1787774973868529700,12.80452978515625,5.389348030090332,10.232817649841309,-0.11252748221158981
1787774973884591600,12.820591552734374,5.578489780426025,9.799467086791992,0.2753331959247589
1787774973900619300,12.836619384765624,5.236119270324707,9.481039047241211,0.48602294921875
1787774973916640500,12.852640625,4.639962673187256,9.205705642700195,0.5291185975074768
1787774973932714800,12.86871484375,4.065354347229004,9.047688484191895,0.19153612852096558
1787774973948763000,12.884762939453125,3.643975019454956,8.983044624328613,-0.14604631066322327
1787774973964778500,12.900778564453125,3.490746021270752,8.848969459533691,-0.5434837937355042
1787774973980826000,12.916826171875,3.4308910369873047,8.78432559967041,-0.7829039692878723
1787774973996844800,12.9328447265625,3.337517261505127,8.695740699768066,-0.5363011956214905
1787774974012932000,12.94893212890625,3.050212860107422,8.588001251220703,0.1412578970193863
1787774974028964400,12.96496435546875,2.7222073078155518,8.53532886505127,0.6631938815116882
1787774974044980000,12.98097998046875,2.470816135406494,8.487444877624512,1.158793568611145
1787774974061023200,12.997023193359375,2.626439332962036,8.49941635131836,1.4676456451416016
1787774974077046000,13.0130458984375,3.0190882682800293,8.334216117858887,1.6089035272598267
1787774974093091600,13.029091552734375,3.3638534545898438,8.061277389526367,1.699883222579956
1787774974109138200,13.04513818359375,3.359065055847168,7.927201747894287,1.7717092037200928
1787774974125159200,13.0611591796875,3.0142998695373535,7.920019149780273,1.6543933153152466
1787774974141218800,13.07721875,2.427720546722412,8.109161376953125,1.3287819623947144
1787774974157248500,13.09324853515625,1.98958158493042,8.315062522888184,1.2306196689605713
1787774974173343700,13.10934375,1.920149803161621,8.580819129943848,1.1468225717544556
1787774974189401000,13.125401123046874,1.98958158493042,8.71489429473877,1.1779472827911377
1787774974205434000,13.14143408203125,1.9393033981323242,8.927978515625,1.338358759880066
1787774974221492200,13.1574921875,1.8579005002975464,9.107542991638184,1.5538369417190552
1787774974237536800,13.173536865234375,1.802833914756775,9.165003776550293,1.6208745241165161
1787774974253598200,13.18959814453125,1.9177556037902832,9.188945770263672,1.6112977266311646
1787774974269664000,13.2056640625,2.032677173614502,9.167398452758789,1.436521053314209
1787774974285708800,13.221708740234375,2.1068975925445557,9.138668060302734,1.137245774269104
1787774974301784600,13.23778466796875,2.2218191623687744,9.050082206726074,0.9672574996948242
1787774974317837800,13.253837890625,2.319981336593628,9.028534889221191,0.8403648138046265
1787774974333914400,13.269914306640626,2.4229321479797363,9.265560150146484,0.18914192914962769
1787774974349934600,13.2859345703125,2.3702597618103027,9.816226959228516,-0.5339069962501526
1787774974365984500,13.301984619140624,2.7676970958709717,10.098742485046387,-0.7206547260284424
1787774974382065000,13.31806494140625,3.6774938106536865,10.230423927307129,-0.4692635238170624
1787774974398124500,13.33412451171875,4.285621166229248,10.536881446838379,0.016759412363171577
1787774974414196200,13.3501962890625,4.54419469833374,11.137825965881348,1.01753568649292
1787774974430280000,13.366280029296876,4.436455726623535,11.75792407989502,1.8100165128707886
1787774974446371000,13.38237109375,4.098873138427734,12.035652160644531,1.4867992401123047
1787774974462438700,13.398438720703124,4.0749311447143555,12.306197166442871,1.316810965538025
1787774974478497000,13.4144970703125,4.496310710906982,12.188880920410156,2.1571757793426514
1787774974494558200,13.43055810546875,5.415684223175049,11.650185585021973,3.3279404640197754
1787774974510620200,13.4466201171875,6.461950302124023,10.716446876525879,4.273650169372559
1787774974526720000,13.462719970703125,6.864176273345947,9.634267807006836,4.63517427444458
1787774974542783700,13.47878369140625,6.335057735443115,8.791508674621582,4.10366153717041
1787774974558848800,13.494848876953125,5.463568210601807,8.20732307434082,3.399766445159912
1787774974574922500,13.510922607421875,4.704606533050537,7.716512203216553,2.7054479122161865
1787774974590965000,13.526965087890625,4.388571739196777,7.558494567871094,1.8698714971542358
1787774974607029200,13.543029296875,4.381389141082764,7.448361396789551,0.9193734526634216
1787774974623071700,13.55907177734375,4.656722068786621,7.450755596160889,0.09816227108240128
1787774974639095600,13.575095458984375,5.2672438621521,7.441178798675537,-0.27054479718208313
1787774974655189800,13.591189697265625,5.75326681137085,7.405265808105469,-0.10055647045373917
1787774974671238400,13.60723828125,5.770026206970215,7.529764175415039,0.2825157940387726
1787774974687254800,13.6232548828125,5.458779811859131,7.692570209503174,0.6607996821403503
1787774974703290000,13.6392900390625,5.212177276611328,7.8314337730407715,0.727837324142456
1787774974719326500,13.655326416015624,5.085284233093262,7.920019149780273,0.7206547260284424
1787774974735389700,13.6713896484375,5.092466831207275,8.099584579467773,0.9385270476341248
1787774974751443000,13.68744287109375,5.082890033721924,8.22887134552002,1.53707754611969
1787774974767458000,13.7034580078125,5.195417881011963,8.324639320373535,2.054224967956543
1787774974783506700,13.719506591796875,5.319916248321533,8.422801971435547,2.3319525718688965
1787774974799527200,13.735527099609374,5.427655220031738,8.485051155090332,2.403778553009033
1787774974815594000,13.751593994140626,5.592854976654053,8.346187591552734,2.408566951751709
1787774974831661600,13.76766162109375,5.66228723526001,8.245630264282227,2.030282974243164
1787774974847683000,13.78368310546875,5.556941986083984,8.327033042907715,1.5969325304031372
1787774974863729000,13.79972900390625,5.298368453979492,8.49941635131836,1.235408067703247
1787774974879750100,13.815750244140625,5.058948040008545,8.688557624816895,0.7972691655158997
1787774974895829000,13.8318291015625,4.977545261383057,8.913613319396973,0.33518823981285095
1787774974911848700,13.8478486328125,5.216965675354004,9.10993766784668,0.028730420395731926
1787774974927869200,13.863869140625,5.540182590484619,9.198522567749023,-0.09816227108240128
1787774974943916800,13.879916748046876,5.767632007598877,9.217676162719727,0.16759411990642548
1787774974959939800,13.89593994140625,5.995080947875977,9.215282440185547,0.3926490843296051
1787774974976031000,13.912031005859374,6.212953567504883,9.097966194152832,0.6129156351089478
1787774974992060700,13.928060791015625,6.311115741729736,9.033323287963867,0.49559974670410156
1787774975008077300,13.944077392578125,6.244078159332275,8.87291145324707,0.19393034279346466
1787774975024110000,13.960110107421874,6.009446144104004,8.69334602355957,-0.1412578970193863
1787774975040128800,13.976128662109375,5.659893035888672,8.542511940002441,-0.22026655077934265
1787774975056175600,13.992175537109375,5.228936672210693,8.508993148803711,0.040701430290937424
1787774975072217900,14.0082177734375,4.69024133682251,8.578424453735352,0.47405192255973816
1787774975088243500,14.024243408203125,4.165910720825195,8.611943244934082,0.7829039692878723
1787774975104292000,14.0402919921875,3.6367924213409424,8.638279914855957,0.828393816947937
1787774975120320800,14.05632080078125,3.272873640060425,8.71489429473877,0.8427590131759644
1787774975136366800,14.072366943359375,3.0861260890960693,8.841787338256836,0.8020575642585754
1787774975152467200,14.08846728515625,3.0621838569641113,8.956708908081055,0.545877993106842
1787774975168502500,14.10450244140625,2.9328970909118652,9.02135181427002,0.31364041566848755
1787774975184547600,14.120547607421875,2.896984100341797,9.188945770263672,-0.26575639843940735
1787774975200577500,14.13657763671875,2.920926094055176,9.332598686218262,-1.0295066833496094
1787774975216634600,14.152634521484375,3.0310592651367188,9.497797966003418,-1.745373010635376
1787774975232692200,14.168692138671876,3.2321722507476807,9.627084732055664,-2.252943754196167
1787774975248729900,14.184729736328125,3.3710360527038574,9.737217903137207,-2.389413356781006
1787774975264799200,14.20079931640625,3.3734302520751953,9.75637149810791,-2.3295583724975586
1787774975280840200,14.216840087890626,3.308786630630493,9.871294021606445,-2.233790159225464
1787774975296908800,14.23290869140625,3.552995204925537,9.99339771270752,-2.011129379272461
1787774975312975400,14.248975341796875,4.146757125854492,10.08198356628418,-1.5514427423477173
1787774975329016300,14.265016357421874,4.800374507904053,10.02452278137207,-1.0797849893569946
1787774975345108000,14.28110791015625,5.106832027435303,9.897629737854004,-0.8140285611152649
1787774975361155600,14.297155517578124,4.697423934936523,9.701305389404297,-0.7326257228851318
1787774975377225500,14.3132255859375,3.708618402481079,9.670180320739746,-0.8475474119186401
1787774975393246700,14.329246826171875,2.4133553504943848,9.885659217834473,-1.0199298858642578
1787774975409345800,14.345345703125,1.2282254695892334,10.11789608001709,-1.235408067703247
1787774975425420800,14.3614208984375,0.3471592366695404,10.256759643554688,-1.5322890281677246
1787774975441481700,14.377481689453125,0.18914192914962769,10.26394271850586,-1.7142484188079834
1787774975457551000,14.393551025390625,0.6871358752250671,10.213664054870605,-1.4245500564575195
1787774975473626600,14.409626708984375,1.86508309841156,10.098742485046387,-0.8355764150619507
1787774975489741300,14.4257412109375,3.0358476638793945,9.749189376831055,-0.19871874153614044
1787774975505772000,14.44177197265625,4.015076160430908,9.306262016296387,0.3208230137825012
1787774975521794800,14.457794921875,4.299986362457275,8.968679428100586,0.45010992884635925
1787774975537880300,14.47388037109375,3.9671921730041504,8.743624687194824,0.26336219906806946
1787774975553931000,14.489930908203124,3.19865345954895,8.712499618530273,0.05506663769483566
1787774975569950200,14.5059501953125,2.4636335372924805,8.769960403442383,-0.06464344263076782
1787774975585989400,14.5219892578125,1.723825216293335,8.844181060791016,-0.08140286058187485
1787774975602009900,14.538009765625,1.2617442607879639,9.040505409240723,-0.009576806798577309
1787774975618059500,14.5540595703125,1.173158884048462,9.2033109664917,0.031124621629714966
1787774975634160600,14.57016064453125,1.3934253454208374,9.397241592407227,0.043095629662275314
1787774975650176500,14.586176513671875,1.6543933153152466,9.569623947143555,0.090979665517807
1787774975666209500,14.60220947265625,2.056619167327881,9.612719535827637,0.21308395266532898
1787774975682225000,14.618224853515626,2.4875755310058594,9.5408935546875,0.33997663855552673
1787774975698294500,14.63429443359375,2.959233283996582,9.375694274902344,0.3902548849582672
1787774975714349300,14.650349365234375,3.2297780513763428,9.138668060302734,0.3878606855869293
1787774975730366500,14.666366455078125,3.2537200450897217,9.01895809173584,0.21547815203666687
1787774975746415900,14.682415771484376,3.203441858291626,8.89445972442627,-0.016759412363171577
1787774975762437400,14.698437255859375,3.090914487838745,8.791508674621582,-0.2322375625371933
1787774975778513400,14.714513427734374,2.853888511657715,8.767566680908203,-0.33039984107017517
1787774975794534000,14.730533935546875,2.6024973392486572,8.810662269592285,-0.40940847992897034
1787774975810548700,14.746548828125,2.3582887649536133,8.908824920654297,-0.524330198764801
1787774975826584800,14.762584716796875,2.1571757793426514,8.98543930053711,-0.6775590777397156
1787774975842601200,14.778601318359375,2.0039467811584473,9.035717010498047,-0.6057330369949341
1787774975858686500,14.7946865234375,1.9752163887023926,9.121908187866211,-0.47405192255973816
1787774975874716400,14.81071630859375,2.142810583114624,9.169792175292969,-0.3471592366695404
1787774975890729200,14.826729248046876,2.5282769203186035,9.20091724395752,-0.22266076505184174
1787774975906774500,14.8427744140625,2.8658595085144043,9.246406555175781,-0.10295066982507706
1787774975922791200,14.858791259765624,2.8993782997131348,9.313444137573242,-0.016759412363171577
1787774975938830600,14.87483056640625,2.7533318996429443,9.38048267364502,0.047884032130241394
1787774975954870500,14.89087060546875,2.652775526046753,9.368511199951172,0.1628057211637497
1787774975970890200,14.90689013671875,2.8586769104003906,9.454702377319336,0.30885201692581177
1787774975986936000,14.92293603515625,3.045424461364746,9.694122314453125,0.19393034279346466
1787774976002957800,14.938957763671874,3.203441858291626,10.043676376342773,-0.05506663769483566
1787774976019006700,14.9550068359375,3.421314239501953,10.29746150970459,-0.11013327538967133
1787774976035060000,14.97106005859375,3.687070608139038,10.551246643066406,-0.1388636976480484
1787774976051083300,14.987083251953125,3.9815573692321777,10.704475402832031,-0.15801730751991272
1787774976067142400,15.003142333984375,4.417302131652832,10.716446876525879,0.08858546614646912
1787774976083173400,15.01917333984375,4.730942726135254,10.733205795288086,0.304063618183136
1787774976099230500,15.03523046875,4.6734819412231445,11.173739433288574,0.3064578175544739
1787774976115314200,15.051314208984374,4.508281707763672,11.370063781738281,0.38067805767059326
1787774976131386600,15.06738671875,4.711789131164551,11.111490249633789,0.7110779285430908
1787774976147426000,15.083426025390626,5.1116204261779785,10.682928085327148,1.5275006294250488
1787774976163469600,15.099469482421876,4.960785865783691,10.36449909210205,1.845929503440857
1787774976179539200,15.115539306640626,4.529829502105713,9.959878921508789,1.2234370708465576
1787774976195606300,15.131606201171875,4.467580318450928,9.440337181091309,0.646434485912323
1787774976211655700,15.14765576171875,4.72376012802124,8.923190116882324,0.1412578970193863
1787774976227737900,15.16373779296875,4.802768707275391,8.588001251220703,0.07182604819536209
1787774976243786200,15.1797861328125,4.32871675491333,8.422801971435547,0.1867477297782898
1787774976259861200,15.195861328125,3.509899616241455,8.463502883911133,0.13407529890537262
1787774976275884500,15.211884521484375,2.6815059185028076,8.56884765625,0.1388636976480484
1787774976291980800,15.227980712890625,2.276885747909546,8.655038833618164,0.4620809257030487
1787774976308040000,15.2440400390625,2.1068975925445557,8.695740699768066,0.9050082564353943
1787774976324091100,15.260091064453125,2.0470423698425293,8.65982723236084,1.525106430053711
1787774976340168400,15.27616845703125,2.1332337856292725,8.616731643676758,2.0231003761291504
1787774976356203000,15.292203125,2.4444799423217773,8.738836288452148,2.229001760482788
1787774976372259600,15.308259521484375,3.1100680828094482,8.698134422302246,2.279279947280884
1787774976388347400,15.324347412109375,3.866635799407959,8.44195556640625,2.1595699787139893
1787774976404436700,15.340436767578124,4.532223701477051,8.142680168151855,1.9249382019042969
1787774976420519400,15.35651953125,4.824316501617432,7.927201747894287,1.8411411046981812
1787774976436602600,15.3726025390625,4.668693542480469,7.733271598815918,1.8339585065841675
1787774976452717600,15.388717529296875,3.8546648025512695,7.694964408874512,1.6400281190872192
1787774976468760300,15.40476025390625,2.8347349166870117,7.778761386871338,1.2545616626739502
1787774976484784400,15.420784423828126,2.2218191623687744,7.94635534286499,0.727837324142456
1787774976500870100,15.4368701171875,2.0231003761291504,8.078036308288574,0.363918662071228
1787774976516967200,15.45296728515625,1.9369091987609863,8.327033042907715,0.05746084079146385
1787774976533032400,15.469032470703125,1.9081788063049316,8.571242332458496,-0.05506663769483566
1787774976549086500,15.48508642578125,2.0638017654418945,8.777143478393555,-0.09816227108240128
1787774976565109500,15.501109619140625,2.4803929328918457,9.030928611755371,-0.23702596127986908
1787774976581173800,15.517173828125,3.021482467651367,9.17697525024414,-0.4644751250743866
1787774976597233700,15.533233642578125,3.5434184074401855,9.184157371520996,-0.6991068720817566
1787774976613299500,15.549299560546874,3.9193081855773926,9.27034854888916,-0.7781155705451965
1787774976629345300,15.56534521484375,4.050989151000977,9.339780807495117,-0.8547300100326538
1787774976645372200,15.5813720703125,3.818751811981201,9.528923034667969,-0.9385270476341248
1787774976661454000,15.5974541015625,3.663128614425659,9.737217903137207,-1.1109095811843872
1787774976677477000,15.61347705078125,3.581725835800171,10.031704902648926,-1.3527239561080933
1787774976693493500,15.629493408203125,3.4979286193847656,10.319009780883789,-1.455674648284912
1787774976709547000,15.645547119140625,3.2537200450897217,10.460267066955566,-1.359906554222107
1787774976725571000,15.661571044921875,3.0597896575927734,10.524910926818848,-1.0342950820922852
1787774976741645800,15.677645751953126,3.201047658920288,10.512939453125,-0.706289529800415
1787774976757665000,15.6936650390625,3.184288263320923,10.879252433776855,-0.6105214357376099
1787774976773683000,15.709682861328124,2.8610711097717285,11.125855445861816,-0.6392518281936646
1787774976789729800,15.725729736328125,2.3558945655822754,11.15697956085205,-1.0223240852355957
1787774976805749500,15.74174951171875,2.6575639247894287,11.36048698425293,-1.4245500564575195
1787774976821841200,15.757841064453125,3.6607344150543213,11.26950740814209,-1.4532804489135742
1787774976837909500,15.773909423828124,5.051765441894531,10.860098838806152,-1.5059528350830078
1787774976853966300,15.78996630859375,6.358999729156494,10.204087257385254,-1.3192051649093628
1787774976869997600,15.80599755859375,6.835445880889893,9.674968719482422,-1.039083480834961
1787774976886019800,15.822019775390626,6.557718276977539,9.217676162719727,-0.9193734526634216
1787774976902104000,15.83810400390625,5.640739440917969,8.767566680908203,-0.9528923034667969
1787774976918135300,15.85413525390625,4.431667327880859,8.561665534973145,-1.139639973640442
1787774976934194700,15.870194580078126,3.2417490482330322,8.47786808013916,-1.1492167711257935
1787774976950220000,15.886219970703126,2.6455929279327393,8.461109161376953,-1.05105459690094
1787774976966247400,15.902247314453126,2.434903144836426,8.559270858764648,-1.2042834758758545
1787774976982341000,15.918341064453125,2.451662540435791,8.60236644744873,-1.3239935636520386
1787774976998386700,15.93438671875,2.695871114730835,8.578424453735352,-1.1635819673538208
1787774977014419700,15.950419677734375,3.177105665206909,8.506598472595215,-0.7565677165985107
1787774977030485800,15.96648583984375,3.8091750144958496,8.418013572692871,-0.35434186458587646
1787774977046517800,15.982517822265624,4.268861770629883,8.183381080627441,-0.011971008032560349
1787774977062571500,15.998571533203124,4.3406877517700195,7.994239330291748,0.2513911724090576
1787774977078624500,16.01462451171875,3.9193081855773926,7.884106159210205,0.3926490843296051
1787774977094666500,16.03066650390625,3.2417490482330322,7.90086555480957,0.3232172429561615
1787774977110732300,16.046732177734373,2.7054479122161865,7.927201747894287,0.19871874153614044
1787774977126779100,16.062779052734374,2.5330653190612793,8.003816604614258,0.18914192914962769
1787774977142842600,16.078842529296875,2.518700122833252,8.018181800842285,0.3663128614425659
1787774977158912000,16.094912109375,2.4803929328918457,8.032546997070312,0.5434837937355042
1787774977174957000,16.11095703125,2.406172752380371,8.075642585754395,0.6847416758537292
1787774977191042800,16.127042724609375,2.322375535964966,8.17380428314209,0.7422025203704834
1787774977207099000,16.143098876953125,2.10210919380188,8.403648376464844,0.6823474764823914
1787774977223180500,16.1591806640625,1.886630892753601,8.609549522399902,0.5554547905921936
1787774977239210800,16.175210693359375,1.9560627937316895,8.822632789611816,0.5099649429321289
1787774977255269000,16.19126904296875,2.31758713722229,9.002198219299316,0.5219359993934631
1787774977271351800,16.207351806640624,2.717418909072876,9.100360870361328,0.5985504388809204
1787774977287418600,16.223418701171877,3.07415509223938,9.20091724395752,0.6272808313369751
1787774977303509800,16.239509765625,3.3016040325164795,9.406818389892578,0.5530605912208557
1787774977319545900,16.2555458984375,3.332728862762451,9.701305389404297,0.3926490843296051
1787774977335614200,16.2716142578125,3.335123062133789,10.041281700134277,0.28969839215278625
1787774977351743200,16.2877431640625,3.4404678344726562,10.319009780883789,0.26575639843940735
1787774977367816000,16.30381591796875,3.531447410583496,10.565611839294434,0.4141969084739685
1787774977383863300,16.31986328125,3.627215623855591,10.723628997802734,0.667982280254364
1787774977399903500,16.335903564453126,3.7277719974517822,10.757147789001465,0.7805097699165344
1787774977415920000,16.351920166015624,3.8522706031799316,11.099518775939941,0.6009446382522583
1787774977431936800,16.367936767578126,3.6559460163116455,11.499350547790527,0.3878606855869293
1787774977447955500,16.38395556640625,3.3686418533325195,11.626243591308594,0.569819986820221
1787774977464040400,16.40004052734375,3.8163576126098633,11.645397186279297,1.1204863786697388
1787774977480121600,16.41612158203125,4.845864295959473,11.439496040344238,1.400607943534851
1787774977496174600,16.432174560546876,6.172252178192139,10.910377502441406,1.2282254695892334
1787774977512199700,16.44819970703125,7.398083209991455,10.189722061157227,0.8475474119186401
1787774977528220000,16.464219970703127,7.898471355438232,9.576807022094727,0.3064578175544739
1787774977544266200,16.480266357421876,7.5968017578125,8.789113998413086,-0.36152446269989014
1787774977560330800,16.496330810546876,6.5696892738342285,8.427590370178223,-0.8475474119186401
1787774977576399400,16.5123994140625,5.140350818634033,8.149862289428711,-0.7805097699165344
1787774977592428800,16.5284287109375,3.6367924213409424,8.123526573181152,-0.4357447028160095
1787774977608449000,16.544448974609374,2.343923568725586,8.233659744262695,-0.06703764945268631
1787774977624506400,16.56050634765625,1.6208745241165161,8.303091049194336,0.363918662071228
1787774977640633000,16.576633056640624,1.647210717201233,8.341399192810059,0.7422025203704834
1787774977656696000,16.592696044921876,2.1571757793426514,8.35097599029541,1.0462661981582642
1787774977672747800,16.608747802734374,2.7006595134735107,8.35336971282959,1.2473790645599365
1787774977688767700,16.624767822265625,3.1962592601776123,8.317456245422363,1.1348515748977661
1787774977704840000,16.64083984375,3.667917013168335,8.183381080627441,0.8834604024887085
1787774977720870000,16.656869873046876,4.165910720825195,8.070854187011719,0.6344634294509888
1787774977736939500,16.672939453125,4.426878929138184,7.9415669441223145,0.49799394607543945
1787774977752970500,16.688970458984375,4.244919776916504,7.8314337730407715,0.2777273952960968
1787774977768993000,16.704992919921875,3.4979286193847656,7.898471355438232,-0.07900865375995636
1787774977785075500,16.721075439453124,2.7102363109588623,8.068459510803223,-0.689530074596405
1787774977801103000,16.73710302734375,2.387019157409668,8.200140953063965,-1.1109095811843872
1787774977817120000,16.7531201171875,2.2673089504241943,8.362946510314941,-1.3311761617660522
1787774977833158000,16.769157958984376,2.231395959854126,8.501810073852539,-1.1635819673538208
1787774977849175800,16.78517578125,2.279279947280884,8.638279914855957,-0.8643068075180054
1787774977865263600,16.801263671875,2.406172752380371,8.829815864562988,-0.7637503147125244
1787774977881302800,16.817302734375,2.5091233253479004,9.030928611755371,-0.8212111592292786
1787774977897322800,16.83332275390625,2.5019407272338867,9.246406555175781,-0.9816226959228516
1787774977913377300,16.849377197265625,2.5234885215759277,9.35654067993164,-1.072602391242981
1787774977929409000,16.865408935546874,2.693476915359497,9.385271072387695,-1.1468225717544556
1787774977945467600,16.881467529296874,2.9305028915405273,9.342175483703613,-1.0031704902648926
1787774977961524000,16.89752392578125,3.19865345954895,9.205705642700195,-0.8379706144332886
1787774977977559800,16.913559814453127,3.224989652633667,9.260771751403809,-0.8044517636299133
1787774977993626400,16.92962646484375,2.8586769104003906,9.402029991149902,-0.768538773059845
1787774978009666300,16.945666259765623,2.363077163696289,9.701305389404297,-1.072602391242981
1787774978025727700,16.961727783203123,2.1140801906585693,10.005369186401367,-1.5514427423477173
1787774978041754000,16.977754150390624,2.229001760482788,10.36449909210205,-1.86508309841156
1787774978057794800,16.993794921875,2.5905263423919678,10.647014617919922,-1.9919757843017578
1787774978073854200,17.009854248046874,3.117250680923462,10.759542465209961,-2.3798365592956543
1787774978089895700,17.025895751953126,3.9169139862060547,10.745177268981934,-2.846705913543701
1787774978105943300,17.041943359375,5.078101634979248,10.618284225463867,-2.889801502227783
1787774978122043600,17.058043701171876,5.655104637145996,10.649409294128418,-2.913743495941162
1787774978138132500,17.074132568359374,5.106832027435303,11.159374237060547,-2.980781078338623
1787774978154190000,17.090190185546874,3.7660791873931885,11.597513198852539,-3.1004912853240967
1787774978170236700,17.106236572265626,3.28963303565979,12.069170951843262,-4.019864559173584
1787774978186287400,17.122287353515624,4.742913722991943,11.860875129699707,-4.398148536682129
1787774978202387500,17.138387451171877,7.070077419281006,11.037269592285156,-3.157952070236206
1787774978218471200,17.15447119140625,8.93037223815918,9.952696800231934,-1.6855180263519287
1787774978234520600,17.1705205078125,8.913613319396973,9.042900085449219,-1.0749965906143188
1787774978250576600,17.18657666015625,7.510610580444336,8.492233276367188,-1.1204863786697388
1787774978266636300,17.20263623046875,5.4659624099731445,8.159439086914062,-1.7621324062347412
1787774978282690600,17.218690673828124,4.333505153656006,7.802703380584717,-2.298433542251587
1787774978298794200,17.234794189453126,4.129997730255127,7.314286231994629,-2.3558945655822754
1787774978314883000,17.250883056640625,4.520252704620361,7.053318023681641,-2.1571757793426514
1787774978330951700,17.26695166015625,5.104437828063965,6.926425457000732,-1.8602946996688843
1787774978347029500,17.283029541015626,5.360617637634277,6.952761650085449,-1.7046716213226318
1787774978363065900,17.29906591796875,5.1810526847839355,7.134721279144287,-1.4867992401123047
1787774978379084500,17.31508447265625,4.862623691558838,7.254431247711182,-1.216254472732544
1787774978395122200,17.3311220703125,4.742913722991943,7.42681360244751,-1.048660397529602
1787774978411146500,17.347146484375,4.855441093444824,7.536946773529053,-0.9002198576927185
1787774978427203600,17.36320361328125,5.006275653839111,7.680599212646484,-0.933738648891449
1787774978443258600,17.379258544921875,5.252878665924072,7.910442352294922,-1.1180921792984009
1787774978459276300,17.3952763671875,5.494692802429199,8.17380428314209,-1.335964560508728
1787774978475331300,17.411331298828124,5.810727596282959,8.520963668823242,-1.7717092037200928
1787774978491349000,17.427348876953126,6.224924564361572,8.7484130859375,-2.1715409755706787
1787774978507409000,17.443408935546874,6.67982292175293,8.829815864562988,-2.1978771686553955
1787774978523466000,17.459466064453125,6.861782073974609,8.884882926940918,-1.9943699836730957
1787774978539482600,17.475482666015626,6.763619899749756,8.999804496765137,-1.766920804977417
1787774978555521000,17.49152099609375,6.411672115325928,9.279925346374512,-1.7717092037200928
1787774978571541200,17.507541259765624,6.100425720214844,9.48343276977539,-1.9105730056762695
1787774978587613000,17.523613037109374,5.9519853591918945,9.5624418258667,-2.1978771686553955
1787774978603631900,17.5396318359375,5.96874475479126,9.526528358459473,-2.2840683460235596
1787774978619652000,17.555652099609375,5.944802761077881,9.493009567260742,-1.9800047874450684
1787774978635704300,17.571704345703125,5.647922039031982,9.500192642211914,-1.4628572463989258
1787774978651723500,17.5877236328125,5.061342239379883,9.493009567260742,-0.7086837291717529
1787774978667797500,17.603797607421875,4.218583583831787,9.488221168518066,0.028730420395731926
1787774978683818500,17.619818603515625,3.339911460876465,9.435548782348633,0.44771572947502136
1787774978699884500,17.635884521484375,2.497152328491211,9.351752281188965,0.5650315880775452
1787774978715911000,17.651910888671875,1.8986018896102905,9.260771751403809,0.4620809257030487
1787774978731930000,17.66793017578125,2.0374655723571777,9.224859237670898,-0.06224924325942993
1787774978748003800,17.68400390625,2.6839001178741455,9.124302864074707,-0.706289529800415
1787774978764025600,17.700025634765623,3.49314022064209,8.860940933227539,-0.8020575642585754
1787774978780087300,17.71608740234375,3.9480385780334473,8.592789649963379,-0.6631938815116882
1787774978796123100,17.732123046875,3.9671921730041504,8.303091049194336,-0.4381389021873474
1787774978812140800,17.748140869140624,3.706224203109741,8.166622161865234,-0.38307225704193115
1787774978828184800,17.764184814453124,3.4404678344726562,8.279149055480957,-0.6153098344802856
1787774978844221200,17.78022119140625,3.5913026332855225,8.425195693969727,-0.9217676520347595
1787774978860235300,17.7962353515625,4.405331134796143,8.518569946289062,-0.9696516990661621
1787774978876294400,17.81229443359375,4.95120906829834,8.374917984008789,-0.6057330369949341
1787774978892317700,17.828317626953126,4.8722004890441895,8.394071578979492,-0.22026655077934265
1787774978908405500,17.844405517578124,4.522646903991699,8.60236644744873,0.12210428714752197
1787774978924449300,17.86044921875,4.1156325340271,8.7484130859375,0.5482721924781799
1787774978940471800,17.876471923828124,3.691859006881714,8.978256225585938,0.6799532771110535
1787774978956518100,17.89251806640625,3.270479440689087,9.138668060302734,0.768538773059845
1787774978972546600,17.908546630859377,2.896984100341797,9.181763648986816,1.0797849893569946
1787774978988597000,17.924596923828126,2.6168625354766846,9.368511199951172,1.4772224426269531
1787774979004691200,17.940691162109374,2.231395959854126,9.548076629638672,1.8411411046981812
1787774979020775000,17.95677490234375,1.9560627937316895,9.6989107131958,1.8626888990402222
1787774979036837600,17.972837646484376,1.845929503440857,9.840168952941895,1.944091796875
1787774979052876000,17.9888759765625,2.0159177780151367,9.852140426635742,2.1068975925445557
1787774979068940000,18.00493994140625,2.3127987384796143,9.835380554199219,2.2816741466522217
1787774979084996900,18.020996826171874,2.585737943649292,9.804255485534668,2.2146365642547607
1787774979101038000,18.0370380859375,2.8443117141723633,9.658209800720215,2.1739351749420166
1787774979117115600,18.05311572265625,3.064578056335449,9.50737476348877,1.944091796875
1787774979133166300,18.069166259765623,3.222595453262329,9.435548782348633,1.778891921043396
1787774979149246700,18.085246826171876,2.918531894683838,9.411606788635254,1.821987509727478
1787774979165274600,18.101274658203124,2.454056739807129,9.543288230895996,1.6903064250946045
1787774979181331000,18.1173310546875,2.140416383743286,9.739612579345703,1.6424223184585571
1787774979197407700,18.13340771484375,1.9536685943603516,9.832986831665039,1.5322890281677246
1787774979213467600,18.149467529296874,2.0159177780151367,9.952696800231934,1.1516109704971313
1787774979229557200,18.16555712890625,2.365471363067627,9.792284965515137,0.9097966551780701
1787774979245594000,18.181593994140623,2.8347349166870117,9.50498104095459,0.9600749015808105
1787774979261655600,18.197655517578124,3.2393548488616943,9.318233489990234,0.9313444495201111
1787774979277698600,18.213698486328123,3.5194764137268066,9.222464561462402,0.8930372595787048
1787774979293723000,18.229722900390627,3.3494882583618164,9.332598686218262,0.7182605266571045
1787774979309775400,18.245775390625,3.1723172664642334,9.536105155944824,1.1540051698684692
1787774979325819600,18.261819580078125,2.7246015071868896,9.509769439697266,1.1348515748977661
1787774979341838600,18.277838623046875,2.63362193107605,9.801861763000488,1.3072341680526733
1787774979357880000,18.293880126953123,2.5929205417633057,9.725247383117676,1.3096283674240112
1787774979373903600,18.309903564453126,2.5665841102600098,9.849745750427246,1.3455413579940796
1787774979389969700,18.3259697265625,2.537853717803955,9.77791976928711,1.2042834758758545
1787774979406035000,18.342034912109376,2.628833532333374,9.57201862335205,0.7038952708244324
1787774979422053600,18.3580537109375,2.8562827110290527,9.430760383605957,0.6057330369949341
1787774979438104600,18.3741044921875,3.4356794357299805,9.081207275390625,0.44771572947502136
1787774979454125600,18.39012548828125,3.6511576175689697,9.150638580322266,0.4405331015586853
1787774979470191600,18.406191650390625,3.5194764137268066,9.050082206726074,0.17717093229293823
1787774979486206000,18.4222060546875,3.0861260890960693,9.097966194152832,-0.043095629662275314
1787774979502221800,18.438221923828124,2.3367409706115723,9.39245319366455,0.1173158809542656
1787774979518248000,18.454248046875,2.032677173614502,9.57201862335205,-0.1867477297782898
1787774979534267100,18.47026708984375,1.7405846118927002,9.701305389404297,-0.2825157940387726
1787774979550330600,18.48633056640625,1.3239935636520386,9.832986831665039,0.17477671802043915
1787774979566336300,18.502336181640626,1.2952631711959839,9.885659217834473,0.20111294090747833
1787774979582350000,18.51835009765625,1.4867992401123047,10.005369186401367,0.2944868206977844
1787774979598402300,18.53440234375,1.824381709098816,9.940725326538086,0.3256114423274994
1787774979614421800,18.550421875,2.4133553504943848,9.830592155456543,0.031124621629714966
1787774979630505200,18.566505126953125,2.8778305053710938,9.816226959228516,0.07661445438861847
1787774979646531600,18.582531494140625,3.157952070236206,9.742006301879883,0.047884032130241394
1787774979662594000,18.598593994140625,3.177105665206909,9.653421401977539,-0.07661445438861847
1787774979678633000,18.614633056640624,3.155557870864868,9.548076629638672,-0.0933738648891449
1787774979694650600,18.630650634765626,3.0813376903533936,9.430760383605957,-0.08619125932455063
1787774979710692600,18.646692626953126,2.8802247047424316,9.366117477416992,-0.05985504388809204
1787774979726730800,18.662730712890625,2.6144683361053467,9.294290542602539,-0.043095629662275314
1787774979742753000,18.6787529296875,2.300827741622925,9.311050415039062,-0.035913024097681046
1787774979758802200,18.69480224609375,1.843535304069519,9.428366661071777,-0.26575639843940735
1787774979774827500,18.71082763671875,1.7190368175506592,9.397241592407227,-0.33997663855552673
1787774979790875100,18.726875244140626,1.9249382019042969,9.437943458557129,-0.23942017555236816
1787774979806922500,18.742922607421875,2.161964178085327,9.53849983215332,-0.4596867263317108
1787774979822946300,18.7589462890625,2.6384103298187256,9.53849983215332,-0.569819986820221
1787774979838993000,18.774992919921875,2.9281086921691895,9.473855972290039,-0.6607996821403503
1787774979855024600,18.791024658203124,2.964021682739258,9.418789863586426,-0.730231523513794
1787774979871081200,18.807081298828123,2.868253707885742,9.435548782348633,-0.7158663272857666
1787774979887137000,18.823136962890626,2.6671407222747803,9.519346237182617,-0.5506663918495178
1787774979903164200,18.8391640625,2.5234885215759277,9.57201862335205,-0.40701428055763245
1787774979919228000,18.855227783203127,2.4875755310058594,9.627084732055664,-0.2346317619085312
1787774979935268000,18.87126806640625,2.5450363159179688,9.648633003234863,-0.15801730751991272
1787774979951330000,18.887330078125,2.583343744277954,9.600749015808105,-0.06464344263076782
1787774979967389200,18.90338916015625,2.43011474609375,9.639056205749512,0.002394201699644327
1787774979983429400,18.919429443359373,2.425326347351074,9.603142738342285,-0.047884032130241394
1787774979999492600,18.93549267578125,2.451662540435791,9.567230224609375,-0.11252748221158981
1787774980015535600,18.95153564453125,2.7054479122161865,9.435548782348633,-0.1604115068912506
1787774980031602000,18.967601806640626,2.669534921646118,9.514557838439941,0.13168109953403473
1787774980047623200,18.983623046875,2.3726539611816406,9.531316757202148,0.1412578970193863
1787774980063675000,18.9996748046875,2.279279947280884,9.552865028381348,0.16519992053508759
1787774980079757300,19.01575732421875,2.1595699787139893,9.622296333312988,0.05027823522686958
1787774980095808500,19.03180859375,2.030282974243164,9.66539192199707,0.11971008777618408
1787774980111905500,19.047905517578126,2.322375535964966,9.751583099365234,0.3926490843296051
1787774980127930000,19.06393017578125,2.875436305999756,9.552865028381348,0.3974374830722809
1787774980143987200,19.0799873046875,2.9712042808532715,9.713275909423828,0.035913024097681046
