time,seconds_elapsed,z,y,x
1788043837793520400,0.087520263671875,0.022602014243602753,-0.006108652334660292,0.17409659922122955
1788043837810533000,0.104533203125,0.05253441259264946,0.014049900695681572,0.14416420459747314
1788043837826401300,0.1204013671875,0.08796459436416626,-0.022602014243602753,0.11362093687057495
1788043837842434800,0.136434814453125,0.09224065393209457,-0.04459316283464432,0.08796459436416626
1788043837858723800,0.152723876953125,0.0757472887635231,-0.03298672288656235,0.07452555745840073
1788043837874725000,0.16872509765625,0.0708603709936142,-0.056810468435287476,0.06414084881544113
1788043837890959600,0.184959716796875,0.054367005825042725,-0.09040805697441101,0.07208210229873657
1788043837906875400,0.20087548828125,0.02871066704392433,-0.05742133408784866,0.10751228034496307
1788043837922901800,0.21690185546875,0.025045474991202354,0.003054326167330146,0.09957103431224823
1788043837939174100,0.233174072265625,0.04764748737215996,0.02321287989616394,0.039095375686883926
1788043837955266300,0.249266357421875,0.04581489413976669,-0.014049900695681572,-0.018325956538319588
1788043837971398700,0.265398681640625,0.018325956538319588,-0.03481931984424591,-0.018325956538319588
1788043837987337700,0.281337646484375,0.009773843921720982,-0.014049900695681572,0.003054326167330146
1788043838003517000,0.297516845703125,0.02687807008624077,-0.04398229718208313,0.014049900695681572
1788043838027645000,0.32164501953125,0.036651913076639175,-0.07269296050071716,0.03420845419168472
1788043838043709000,0.337708984375,0.03481931984424591,-0.06658431142568588,0.06108652427792549
1788043838059815200,0.353815185546875,0.031154127791523933,-0.059864792972803116,0.06902777403593063
1788043838075878400,0.36987841796875,0.029932396486401558,-0.04642575979232788,0.054367005825042725
1788043838092024600,0.386024658203125,0.02626720629632473,-0.036651913076639175,0.02626720629632473
1788043838108040000,0.4020400390625,0.009773843921720982,-0.024434609338641167,0.0024434609804302454
1788043838124109600,0.418109619140625,-0.0012217304902151227,-0.021991148591041565,-0.015271631069481373
1788043838140225300,0.434225341796875,-0.009162978269159794,0.0012217304902151227,-0.03298672288656235
1788043838156294400,0.45029443359375,-0.021380282938480377,0.012828170321881771,-0.0354301854968071
1788043838172451600,0.46645166015625,-0.02932153269648552,0.00855211354792118,-0.013439035043120384
1788043838188467500,0.482467529296875,-0.025656340643763542,-0.0012217304902151227,0.015882495790719986
1788043838204545800,0.4985458984375,-0.01038470957428217,-0.0006108652451075613,0.027488935738801956
1788043838220674800,0.5146748046875,-0.006719517521560192,-0.0006108652451075613,0.01710422709584236
1788043838236761600,0.53076171875,-0.025656340643763542,0.005497787147760391,-0.004886921960860491
1788043838252929800,0.5469296875,-0.03420845419168472,0.010995574295520782,-0.029932396486401558
1788043838268938800,0.562938720703125,-0.02076941914856434,-0.00733038317412138,-0.036041051149368286
1788043838284981000,0.57898095703125,0,-0.00366519158706069,-0.00733038317412138
1788043838301069800,0.59506982421875,0.01710422709584236,0.010995574295520782,0.018325956538319588
1788043838317158100,0.611158203125,0.024434609338641167,-0.005497787147760391,0.02382374368607998
1788043838333240300,0.627240234375,0.018325956538319588,-0.04642575979232788,0.016493361443281174
1788043838349272300,0.643272216796875,0.00733038317412138,-0.04703662544488907,0.018936822190880775
1788043838365317000,0.659317138671875,-0.012217304669320583,-0.012828170321881771,0.025045474991202354
1788043838381413400,0.675413330078125,-0.025045474991202354,0.015271631069481373,0.02626720629632473
1788043838397518000,0.69151806640625,-0.02321287989616394,0.015882495790719986,0.006108652334660292
1788043838413651700,0.707651611328125,-0.016493361443281174,0.005497787147760391,-0.018325956538319588
1788043838429709300,0.723709228515625,-0.014049900695681572,0.001832595793530345,-0.02871066704392433
1788043838445759700,0.739759765625,-0.009773843921720982,-0.019547687843441963,-0.01466076634824276
1788043838461866200,0.7558662109375,-0.010995574295520782,-0.02321287989616394,0.00733038317412138
1788043838477977000,0.77197705078125,-0.015271631069481373,-0.02932153269648552,0.01771509274840355
1788043838494122200,0.788122314453125,-0.016493361443281174,-0.039095375686883926,0.016493361443281174
1788043838510172000,0.804171875,-0.01466076634824276,-0.014049900695681572,0.021991148591041565
1788043838526238700,0.82023876953125,0.003054326167330146,0.01771509274840355,0.028099801391363144
1788043838542352400,0.836352294921875,0.021380282938480377,-0.02076941914856434,0.02321287989616394
1788043838558420000,0.852419921875,0.02932153269648552,-0.04153883829712868,0.01771509274840355
1788043838574527000,0.86852685546875,0.028099801391363144,-0.03237585723400116,0.012828170321881771
1788043838590586600,0.884586669921875,0.03298672288656235,-0.00855211354792118,-0.0006108652451075613
1788043838606656500,0.900656494140625,0.0354301854968071,0.00855211354792118,-0.00427605677396059
1788043838622778000,0.916778076171875,0.039706241339445114,0.03481931984424591,0.012828170321881771
1788043838638851300,0.932851318359375,0.0507018156349659,0.0507018156349659,0.029932396486401558
1788043838655012000,0.94901220703125,0.06902777403593063,0.033597588539123535,0.03726277872920036
1788043838671067000,0.96506689453125,0.048258353024721146,0.02076941914856434,0.051312681287527084
1788043838687160300,0.981160400390625,0.02321287989616394,0.03298672288656235,0.06719517707824707
1788043838703297300,0.99729736328125,0.007941247895359993,0.06108652427792549,0.08246681094169617
1788043838719389200,1.01338916015625,-0.0024434609804302454,0.07147123664617538,0.07880161702632904
1788043838735554800,1.029554931640625,-0.009162978269159794,0.06658431142568588,0.04886921867728233
1788043838751611100,1.045611083984375,-0.006108652334660292,0.05742133408784866,0.02076941914856434
1788043838767658000,1.061657958984375,0.006719517521560192,0.031154127791523933,-0.006108652334660292
1788043838783745800,1.077745849609375,0.012828170321881771,0.0024434609804302454,-0.048258353024721146
1788043838799840300,1.09384033203125,0.013439035043120384,-0.012828170321881771,-0.08429940044879913
1788043838815921700,1.109921630859375,0.012828170321881771,-0.021991148591041565,-0.08491026610136032
1788043838831921000,1.1259208984375,0.006108652334660292,-0.015882495790719986,-0.04642575979232788
1788043838847975000,1.141974853515625,0.00733038317412138,-0.0006108652451075613,-0.00366519158706069
1788043838872088800,1.1660888671875,0.02321287989616394,-0.01771509274840355,-0.009773843921720982
1788043838888100600,1.1821005859375,0.021991148591041565,-0.03726277872920036,-0.025656340643763542
1788043838904238600,1.198238525390625,0.012217304669320583,-0.02687807008624077,-0.016493361443281174
1788043838920281600,1.214281494140625,0.018325956538319588,-0.02015855349600315,0.010995574295520782
1788043838936477700,1.230477783203125,0.03481931984424591,-0.02015855349600315,0.0354301854968071
1788043838952537300,1.246537353515625,0.060475658625364304,0.005497787147760391,0.04398229718208313
1788043838968607000,1.26260693359375,0.07452555745840073,0.016493361443281174,0.025656340643763542
1788043838984627200,1.278627197265625,0.06719517707824707,0.015882495790719986,-0.0006108652451075613
1788043839000743400,1.294743408203125,0.04764748737215996,0.003054326167330146,-0.01038470957428217
1788043839016844800,1.3108447265625,0.018936822190880775,0.00855211354792118,-0.0006108652451075613
1788043839032868900,1.326868896484375,0.001832595793530345,-0.022602014243602753,-0.00366519158706069
1788043839048946000,1.34294580078125,-0.01038470957428217,-0.039095375686883926,-0.01160643994808197
1788043839064972000,1.358971923828125,-0.025045474991202354,-0.030543262138962746,-0.021991148591041565
1788043839081082600,1.37508251953125,-0.02076941914856434,-0.001832595793530345,-0.016493361443281174
1788043839097213200,1.391213134765625,-0.01038470957428217,0.00366519158706069,0.0012217304902151227
1788043839113232400,1.407232421875,-0.007941247895359993,0.0012217304902151227,0.018936822190880775
1788043839129325000,1.423324951171875,-0.007941247895359993,0.0012217304902151227,0.015271631069481373
1788043839145402600,1.439402587890625,-0.014049900695681572,-0.01771509274840355,-0.00366519158706069
1788043839161535200,1.45553515625,-0.02076941914856434,-0.021380282938480377,-0.01466076634824276
1788043839177701600,1.47170166015625,-0.015882495790719986,-0.019547687843441963,-0.014049900695681572
1788043839193738000,1.487738037109375,-0.009773843921720982,-0.00855211354792118,0.006719517521560192
1788043839209779500,1.503779541015625,-0.01160643994808197,-0.0012217304902151227,0.019547687843441963
1788043839225862700,1.519862548828125,-0.01710422709584236,-0.015882495790719986,0.01160643994808197
1788043839241887500,1.535887451171875,-0.01771509274840355,-0.04398229718208313,-0.010995574295520782
1788043839258067000,1.55206689453125,-0.019547687843441963,-0.07024950534105301,-0.022602014243602753
1788043839274078700,1.56807861328125,-0.018325956538319588,-0.0659734457731247,-0.025656340643763542
1788043839290087400,1.58408740234375,-0.018325956538319588,-0.030543262138962746,-0.01038470957428217
1788043839306260500,1.600260498046875,-0.009162978269159794,0.014049900695681572,0.0006108652451075613
1788043839322346500,1.616346435546875,0.006108652334660292,0.015271631069481373,-0.006719517521560192
1788043839338429700,1.6324296875,0.01038470957428217,0,-0.03237585723400116
1788043839354465300,1.64846533203125,0.02015855349600315,-0.02076941914856434,-0.039706241339445114
1788043839370542000,1.6645419921875,0.013439035043120384,-0.001832595793530345,-0.015882495790719986
1788043839386640100,1.68064013671875,0.004886921960860491,-0.006719517521560192,0
1788043839402672600,1.696672607421875,0.00733038317412138,-0.02932153269648552,0.0024434609804302454
1788043839418866400,1.712866455078125,0.028099801391363144,-0.025045474991202354,0.009162978269159794
1788043839434936600,1.7289365234375,0.04581489413976669,-0.022602014243602753,0.016493361443281174
1788043839450987300,1.7449873046875,0.048258353024721146,-0.0403171069920063,0.02015855349600315
1788043839467113500,1.761113525390625,0.03726277872920036,-0.04337143152952194,0.016493361443281174
1788043839483219200,1.77721923828125,0.015271631069481373,-0.02932153269648552,0.00855211354792118
1788043839499365400,1.793365478515625,-0.004886921960860491,-0.01771509274840355,-0.010995574295520782
1788043839515427800,1.809427734375,-0.025656340643763542,-0.009773843921720982,-0.04092797264456749
1788043839531463200,1.825463134765625,-0.05192354694008827,-0.027488935738801956,-0.0757472887635231
1788043839547562500,1.8415625,-0.07269296050071716,-0.04092797264456749,-0.09162978827953339
1788043839563677400,1.857677490234375,-0.0861319974064827,-0.004886921960860491,-0.08307767659425735
1788043839579789300,1.873789306640625,-0.08552113175392151,0.018936822190880775,-0.09285151958465576
1788043839595818500,1.889818603515625,-0.06841690838336945,-0.001832595793530345,-0.11423180252313614
1788043839611906000,1.905906005859375,-0.06169738993048668,-0.01466076634824276,-0.10445795953273773
1788043839628018700,1.922018798828125,-0.02871066704392433,-0.02626720629632473,-0.06352998316287994
1788043839644149500,1.9381494140625,0.039095375686883926,-0.07941248267889023,-0.018936822190880775
1788043839660324900,1.954324951171875,0.08185594528913498,-0.12095131725072861,0.009162978269159794
1788043839676373800,1.970373779296875,0.09224065393209457,-0.13561208546161652,0.004886921960860491
1788043839692470800,1.986470703125,0.05803219974040985,-0.14233160018920898,-0.03237585723400116
1788043839708594200,2.00259423828125,0.00855211354792118,-0.14782938361167908,-0.06658431142568588
1788043839724690000,2.01868994140625,-0.039706241339445114,-0.1514945775270462,-0.08429940044879913
1788043839740822300,2.034822265625,-0.06963863968849182,-0.16982053220272064,-0.07757988572120667
1788043839756876800,2.050876708984375,-0.08002334833145142,-0.14233160018920898,-0.02015855349600315
1788043839772925700,2.06692578125,-0.08918632566928864,-0.09162978827953339,0.02932153269648552
1788043839789058800,2.083058837890625,-0.08735372871160507,-0.03237585723400116,0.042760565876960754
1788043839805117400,2.099117431640625,-0.08124507963657379,0.01710422709584236,0.010995574295520782
1788043839821297200,2.115297119140625,-0.09040805697441101,0.03481931984424591,-0.02382374368607998
1788043839837354000,2.13135400390625,-0.11178833991289139,0.06230825558304787,-0.031154127791523933
1788043839853198000,2.147197998046875,-0.13500121235847473,0.08918632566928864,-0.056810468435287476
1788043839869445000,2.163445068359375,-0.1417207419872284,0.056810468435287476,-0.11301007121801376
1788043839885433900,2.179433837890625,-0.1362229436635971,-0.009162978269159794,-0.16310101747512817
1788043839901744400,2.195744384765625,-0.11239920556545258,-0.0910189226269722,-0.1966986060142517
1788043839917805000,2.21180517578125,-0.0806342139840126,-0.15271630883216858,-0.1973094791173935
1788043839933678000,2.227677978515625,-0.05803219974040985,-0.14966198801994324,-0.1869247704744339
1788043839949940700,2.243940673828125,-0.05803219974040985,-0.09834930300712585,-0.17959438264369965
1788043839965953300,2.259953369140625,-0.059864792972803116,0.029932396486401558,-0.1771509200334549
1788043839982130400,2.27613037109375,-0.05925392732024193,0.14477506279945374,-0.18997909128665924
1788043839998094600,2.292094482421875,-0.05803219974040985,0.20586158335208893,-0.19914206862449646
1788043840014118100,2.3081181640625,-0.05253441259264946,0.2370157092809677,-0.18814650177955627
1788043840030290700,2.324290771484375,-0.04214970022439957,0.1661553531885147,-0.2021963894367218
1788043840046401300,2.3404013671875,-0.05314527451992035,0.01771509274840355,-0.242513507604599
1788043840062553000,2.356552978515625,-0.04398229718208313,-0.09346238523721695,-0.27000242471694946
1788043840078579500,2.372579345703125,-0.02015855349600315,-0.17837265133857727,-0.2791654169559479
1788043840094652000,2.38865185546875,0.009162978269159794,-0.17348572611808777,-0.2583959996700287
1788043840110718500,2.404718505859375,0.016493361443281174,-0.09896016865968704,-0.2015855312347412
1788043840126836000,2.4208359375,-0.005497787147760391,0.048258353024721146,-0.08979719132184982
1788043840142998800,2.436998779296875,-0.036651913076639175,0.08368854224681854,-0.015882495790719986
1788043840159008300,2.45300830078125,-0.05253441259264946,0.001832595793530345,-0.02076941914856434
1788043840175114800,2.46911474609375,-0.06902777403593063,-0.06169738993048668,-0.08124507963657379
1788043840191196700,2.48519677734375,-0.08918632566928864,-0.06108652427792549,-0.15515977144241333
1788043840207274200,2.501274169921875,-0.1014036312699318,0.02076941914856434,-0.19425514340400696
1788043840223397400,2.5173974609375,-0.11301007121801376,0.060475658625364304,-0.20586158335208893
1788043840239419600,2.533419677734375,-0.13439035415649414,0.04337143152952194,-0.19608774781227112
1788043840255478500,2.549478515625,-0.1368338167667389,-0.004886921960860491,-0.14782938361167908
1788043840271564000,2.56556396484375,-0.1160643994808197,-0.04337143152952194,-0.08429940044879913
1788043840287639600,2.5816396484375,-0.09529497474431992,-0.060475658625364304,-0.048258353024721146
1788043840303783000,2.597782958984375,-0.07757988572120667,-0.042760565876960754,-0.03481931984424591
1788043840319839000,2.6138388671875,-0.06108652427792549,-0.031154127791523933,-0.027488935738801956
1788043840335850800,2.629850830078125,-0.042760565876960754,-0.03298672288656235,-0.007941247895359993
1788043840351956200,2.645956298828125,-0.03481931984424591,-0.036041051149368286,0.016493361443281174
1788043840368042000,2.6620419921875,-0.029932396486401558,-0.0555887371301651,0.04398229718208313
1788043840384176000,2.678176025390625,-0.02321287989616394,-0.045204028487205505,0.08552113175392151
1788043840400234500,2.694234375,-0.003054326167330146,0.004886921960860491,0.12522737681865692
1788043840416291600,2.71029150390625,0.024434609338641167,0.07941248267889023,0.1508837193250656
1788043840432426500,2.726426513671875,0.05742133408784866,0.17409659922122955,0.14233160018920898
1788043840448507000,2.7425068359375,0.09040805697441101,0.2376265823841095,0.10690141469240189
1788043840464684300,2.758684326171875,0.10384709388017654,0.1563815027475357,0.031154127791523933
1788043840480662500,2.77466259765625,0.1062905490398407,-0.1319468915462494,-0.04764748737215996
1788043840496780300,2.7907802734375,0.07513642311096191,-0.42149701714515686,-0.10384709388017654
1788043840512849700,2.806849609375,0.06963863968849182,-0.49235737323760986,-0.08918632566928864
1788043840528951000,2.822950927734375,0.09651670604944229,-0.2932153046131134,-0.006108652334660292
1788043840545086500,2.83908642578125,0.10934487730264664,0.042760565876960754,0.0403171069920063
1788043840561096400,2.855096435546875,0.09468411654233932,0.23640485107898712,-0.00427605677396059
1788043840577187000,2.87118701171875,0.05803219974040985,0.3127630054950714,-0.06414084881544113
1788043840593249300,2.887249267578125,0.00733038317412138,0.47708576917648315,-0.015271631069481373
1788043840609378000,2.9033779296875,-0.03298672288656235,0.6505714654922485,0.11178833991289139
1788043840625545200,2.919545166015625,-0.027488935738801956,0.7263187766075134,0.19914206862449646
1788043840641586400,2.93558642578125,0.039095375686883926,0.6230825781822205,0.20097467303276062
1788043840657624300,2.951624267578125,0.1612684279680252,0.3029891550540924,0.09896016865968704
1788043840673748200,2.967748291015625,0.22052235901355743,-0.02626720629632473,-0.006719517521560192
1788043840689828000,2.983828125,0.21013765037059784,-0.26083946228027344,-0.06902777403593063
1788043840705906700,2.99990673828125,0.15943582355976105,-0.29626965522766113,-0.04948008432984352
1788043840721886000,3.015885986328125,0.1160643994808197,-0.16004669666290283,-0.0006108652451075613
1788043840737887200,3.03188720703125,0.09407325088977814,0.0024434609804302454,0.015882495790719986
1788043840754067500,3.0480673828125,0.0659734457731247,0.1215621829032898,-0.02871066704392433
1788043840770168000,3.06416796875,0.039706241339445114,0.1569923609495163,-0.08307767659425735
1788043840786310100,3.08031005859375,0.01710422709584236,0.17104226350784302,-0.11056660860776901
1788043840802372400,3.096372314453125,0.021991148591041565,0.16798794269561768,-0.10751228034496307
1788043840818434000,3.11243408203125,0.05619960278272629,0.14905111491680145,-0.0708603709936142
1788043840834508500,3.128508544921875,0.09224065393209457,0.14233160018920898,-0.016493361443281174
1788043840850611500,3.144611572265625,0.12950342893600464,0.1062905490398407,0.031154127791523933
1788043840866755300,3.16075537109375,0.15515977144241333,0.018325956538319588,0.036651913076639175
1788043840882773000,3.17677294921875,0.16432274878025055,-0.05253441259264946,0.03298672288656235
1788043840898696200,3.1926962890625,0.12828169763088226,-0.07819075137376785,0.0403171069920063
1788043840914917400,3.20891748046875,0.06414084881544113,-0.04214970022439957,0.05253441259264946
1788043840930946800,3.22494677734375,-0.00366519158706069,-0.022602014243602753,0.045204028487205505
1788043840947182000,3.24118212890625,-0.03481931984424591,-0.03176499158143997,0.03848451003432274
1788043840963103700,3.257103759765625,-0.033597588539123535,-0.04642575979232788,0.045204028487205505
1788043840979219500,3.273219482421875,-0.010995574295520782,-0.10262536257505417,0.07635815441608429
1788043840995356200,3.289356201171875,0.00855211354792118,-0.22357667982578278,0.12950342893600464
1788043841011478800,3.305478759765625,0.00855211354792118,-0.3219259977340698,0.17287486791610718
1788043841027631900,3.3216318359375,0.015271631069481373,-0.3738495409488678,0.18814650177955627
1788043841043569000,3.33756884765625,0.014049900695681572,-0.3488040566444397,0.16371189057826996
1788043841059710000,3.3537099609375,-0.010995574295520782,-0.26145032048225403,0.12889257073402405
1788043841075746600,3.36974658203125,-0.06414084881544113,-0.06963863968849182,0.1062905490398407
1788043841091788300,3.385788330078125,-0.08979719132184982,0.20586158335208893,0.09651670604944229
1788043841108016400,3.402016357421875,-0.10873401165008545,0.28955012559890747,-0.009773843921720982
1788043841124051000,3.418051025390625,-0.16493362188339233,0.11545353382825851,-0.21807889640331268
1788043841140092400,3.434092529296875,-0.22907446324825287,-0.056810468435287476,-0.4746423065662384
1788043841156178700,3.4501787109375,-0.26572638750076294,-0.1618792861700058,-0.5827654600143433
1788043841172256300,3.46625634765625,-0.27550023794174194,-0.1514945775270462,-0.48319441080093384
1788043841188361500,3.482361572265625,-0.24495697021484375,0.04337143152952194,-0.2021963894367218
1788043841204388400,3.498388427734375,-0.1508837193250656,0.28099802136421204,0.07635815441608429
1788043841220429000,3.514428955078125,-0.04153883829712868,0.323147714138031,0.19853121042251587
1788043841236509000,3.530509033203125,0.028099801391363144,0.17409659922122955,0.182648703455925
1788043841252576000,3.546575927734375,0.06780604273080826,-0.10873401165008545,0.10567969083786011
1788043841268640500,3.562640625,0.0555887371301651,-0.3194825351238251,0.04459316283464432
1788043841284687400,3.578687255859375,0.013439035043120384,-0.38240164518356323,0.014049900695681572
1788043841300721700,3.5947216796875,-0.030543262138962746,-0.31459560990333557,-0.012828170321881771
1788043841316835800,3.6108359375,-0.04214970022439957,-0.18570303916931152,-0.02382374368607998
1788043841332928000,3.626927978515625,-0.060475658625364304,-0.009162978269159794,-0.013439035043120384
1788043841349021700,3.643021728515625,-0.11972958594560623,0.12522737681865692,-0.02015855349600315
1788043841365081900,3.659081787109375,-0.16065755486488342,0.1722639948129654,-0.06291911751031876
1788043841381137700,3.6751376953125,-0.152105450630188,0.15393804013729095,-0.10506882518529892
1788043841397245700,3.69124560546875,-0.13927727937698364,0.14416420459747314,-0.10934487730264664
1788043841413346300,3.70734619140625,-0.1368338167667389,0.15943582355976105,-0.09285151958465576
1788043841429492500,3.723492431640625,-0.15454891324043274,0.15577064454555511,-0.10262536257505417
1788043841445556000,3.739555908203125,-0.17470745742321014,0.14049901068210602,-0.14844025671482086
1788043841461602300,3.755602294921875,-0.21319197118282318,0.08552113175392151,-0.21441370248794556
1788043841477750500,3.77175048828125,-0.24495697021484375,0.006108652334660292,-0.23579397797584534
1788043841493866000,3.787865966796875,-0.20586158335208893,-0.013439035043120384,-0.18631389737129211
1788043841510022000,3.80402197265625,-0.14049901068210602,-0.04092797264456749,-0.1313360333442688
1788043841526045200,3.820045166015625,-0.05314527451992035,-0.04764748737215996,-0.0959058403968811
1788043841542043100,3.836043212890625,0.01038470957428217,-0.018936822190880775,-0.06841690838336945
1788043841558231300,3.852231201171875,0.0354301854968071,-0.003054326167330146,-0.04764748737215996
1788043841574318800,3.86831884765625,0.031154127791523933,0.03237585723400116,-0.039095375686883926
1788043841590473500,3.884473388671875,0.02015855349600315,0.08124507963657379,-0.04398229718208313
1788043841606483700,3.900483642578125,0.04642575979232788,0.09712757170200348,-0.03481931984424591
1788043841622516700,3.916516845703125,0.11362093687057495,0.08246681094169617,0.010995574295520782
1788043841638721500,3.932721435546875,0.24129177629947662,0.03726277872920036,0.1111774742603302
1788043841654711600,3.948711669921875,0.3640756905078888,-0.039706241339445114,0.23457226157188416
1788043841670907400,3.964907470703125,0.45875978469848633,-0.10751228034496307,0.34086281061172485
1788043841686926000,3.980926025390625,0.48869219422340393,-0.10018189996480942,0.4086688458919525
1788043841702907400,3.996907470703125,0.44654250144958496,0.06230825558304787,0.42088615894317627
1788043841719075000,4.013074951171875,0.3530801236629486,0.41172316670417786,0.3237585723400116
1788043841735162600,4.02916259765625,0.22357667982578278,0.44165557622909546,0.07330382615327835
1788043841751288000,4.0452880859375,0.07330382615327835,0.11728613078594208,-0.3127630054950714
1788043841767340300,4.06134033203125,-0.005497787147760391,-0.20525072515010834,-0.5161811113357544
1788043841783279400,4.077279296875,-0.010995574295520782,-0.3897320330142975,-0.4795292317867279
1788043841799422500,4.09342236328125,0.0659734457731247,-0.27000242471694946,-0.22602014243602753
1788043841815514000,4.10951416015625,0.251676470041275,0.14782938361167908,0.13805554807186127
1788043841831649000,4.12564892578125,0.3995058834552765,0.45265114307403564,0.303600013256073
1788043841847694300,4.1416943359375,0.4453207552433014,0.4795292317867279,0.21868975460529327
1788043841863752200,4.157752197265625,0.4050036668777466,0.32009339332580566,-0.012828170321881771
1788043841879777800,4.17377783203125,0.3084869384765625,0.11301007121801376,-0.21930062770843506
1788043841895874600,4.18987451171875,0.2272418737411499,0.019547687843441963,-0.27977627515792847
1788043841912028700,4.206028564453125,0.17470745742321014,-0.00366519158706069,-0.24862214922904968
1788043841928040400,4.22204052734375,0.17470745742321014,-0.015882495790719986,-0.21319197118282318
1788043841944008700,4.2380087890625,0.19425514340400696,-0.029932396486401558,-0.21563543379306793
1788043841960178700,4.2541787109375,0.2070833146572113,-0.01771509274840355,-0.22113321721553802
1788043841976299800,4.2702998046875,0.18814650177955627,0.030543262138962746,-0.2168571650981903
1788043841992408800,4.286408935546875,0.13927727937698364,0.12095131725072861,-0.18631389737129211
1788043842008436000,4.30243603515625,0.09712757170200348,0.19425514340400696,-0.16065755486488342
1788043842024384500,4.318384521484375,0.0757472887635231,0.23273965716362,-0.1417207419872284
1788043842040575700,4.33457568359375,0.09040805697441101,0.23518311977386475,-0.12400564551353455
1788043842056641500,4.3506416015625,0.13377949595451355,0.21380282938480377,-0.12278391420841217
1788043842072800500,4.366800537109375,0.152105450630188,0.12461651116609573,-0.13377949595451355
1788043842088840700,4.3828408203125,0.10751228034496307,0.00366519158706069,-0.13255776464939117
1788043842104903400,4.3989033203125,0.01466076634824276,-0.08002334833145142,-0.1270599663257599
1788043842121017000,4.41501708984375,-0.05803219974040985,-0.11972958594560623,-0.14294247329235077
1788043842137091800,4.431091796875,-0.13011430203914642,-0.14416420459747314,-0.2076941877603531
1788043842153227300,4.447227294921875,-0.15760323405265808,-0.12889257073402405,-0.2217440903186798
1788043842169255200,4.463255126953125,-0.15027284622192383,-0.1111774742603302,-0.17348572611808777
1788043842185217500,4.479217529296875,-0.13011430203914642,-0.1264491081237793,-0.08979719132184982
1788043842201417700,4.495417724609375,-0.11178833991289139,-0.1765400618314743,-0.0012217304902151227
1788043842217385200,4.51138525390625,-0.07757988572120667,-0.24373523890972137,0.10812314599752426
1788043842233584600,4.527584716796875,-0.04214970022439957,-0.3396410644054413,0.18081611394882202
1788043842249589800,4.54358984375,0.012217304669320583,-0.4349360466003418,0.17592918872833252
1788043842265702000,4.559701904296875,0.02382374368607998,-0.423329621553421,0.08368854224681854
1788043842281806000,4.57580615234375,-0.01771509274840355,-0.34208452701568604,-0.030543262138962746
1788043842297868000,4.591867919921875,-0.07696902006864548,-0.19853121042251587,-0.1215621829032898
1788043842314029800,4.60802978515625,-0.08735372871160507,0.021380282938480377,-0.10690141469240189
1788043842330074400,4.624074462890625,-0.04459316283464432,0.2076941877603531,-0.11239920556545258
1788043842346135800,4.6401357421875,-0.036041051149368286,0.009162978269159794,-0.2669481039047241
1788043842362199600,4.656199462890625,-0.0555887371301651,-0.22846360504627228,-0.494189977645874
1788043842378300200,4.672300048828125,-0.16737708449363708,-0.1508837193250656,-0.5656611919403076
1788043842394422800,4.6884228515625,-0.2919935882091522,0.039706241339445114,-0.48380526900291443
1788043842410470100,4.70447021484375,-0.33292156457901,0.34208452701568604,-0.2987131178379059
1788043842426534100,4.7205341796875,-0.22846360504627228,0.5485569834709167,-0.1270599663257599
1788043842442643500,4.7366435546875,-0.04642575979232788,0.6261368989944458,-0.01771509274840355
1788043842458756900,4.7527568359375,0.0806342139840126,0.46792277693748474,0.025045474991202354
1788043842474906400,4.76890625,0.14905111491680145,0.07941248267889023,0.06963863968849182
1788043842490936600,4.7849365234375,0.1258382350206375,-0.21380282938480377,0.13805554807186127
1788043842506952400,4.800952392578125,0.059864792972803116,-0.2724458873271942,0.16982053220272064
1788043842523129600,4.817129638671875,-0.04642575979232788,-0.19853121042251587,0.1215621829032898
1788043842539244800,4.833244873046875,-0.13439035415649414,-0.07880161702632904,-0.006719517521560192
1788043842555415800,4.849415771484375,-0.17043140530586243,0.07819075137376785,-0.11056660860776901
1788043842571453000,4.865452880859375,-0.18448130786418915,0.20586158335208893,-0.1411098688840866
1788043842587423700,4.881423828125,-0.21930062770843506,0.21074850857257843,-0.1618792861700058
1788043842603567400,4.8975673828125,-0.2370157092809677,0.0959058403968811,-0.16432274878025055
1788043842619635000,4.913635009765625,-0.23640485107898712,0.01038470957428217,-0.13927727937698364
1788043842635789600,4.92978955078125,-0.22113321721553802,-0.031154127791523933,-0.07941248267889023
1788043842651845600,4.945845703125,-0.18875735998153687,-0.051312681287527084,-0.01710422709584236
1788043842667898000,4.961898193359375,-0.17287486791610718,-0.059864792972803116,0.03481931984424591
1788043842683972400,4.977972412109375,-0.17531833052635193,-0.07819075137376785,0.04703662544488907
1788043842700074500,4.994074462890625,-0.15027284622192383,-0.14355333149433136,0.028099801391363144
1788043842716209700,5.010209716796875,-0.09773843735456467,-0.15577064454555511,0.030543262138962746
1788043842732255000,5.0262548828125,-0.05742133408784866,-0.16310101747512817,0.04764748737215996
1788043842748238800,5.04223876953125,-0.01038470957428217,-0.1466076523065567,0.07269296050071716
1788043842764407300,5.0584072265625,0.028099801391363144,-0.08491026610136032,0.08185594528913498
1788043842780338200,5.074338134765625,0.04214970022439957,0.031154127791523933,0.10201449692249298
1788043842796652300,5.09065234375,0.042760565876960754,0.11789698898792267,0.12339477986097336
1788043842812559400,5.106559326171875,0.054367005825042725,0.15943582355976105,0.13500121235847473
1788043842828640500,5.122640625,0.0861319974064827,0.14844025671482086,0.12522737681865692
1788043842844812800,5.138812744140625,0.1270599663257599,0.10201449692249298,0.13011430203914642
1788043842860926500,5.154926513671875,0.1765400618314743,-0.016493361443281174,0.15515977144241333
1788043842877031200,5.17103125,0.22540926933288574,-0.16920967400074005,0.19547687470912933
1788043842893096000,5.187095947265625,0.26572638750076294,-0.22113321721553802,0.24678955972194672
1788043842909162200,5.203162353515625,0.3078760802745819,-0.10751228034496307,0.3286454975605011
1788043842925242600,5.21924267578125,0.33597588539123535,0.3139847218990326,0.39706242084503174
1788043842941372700,5.23537255859375,0.2938261926174164,0.3384193480014801,0.2480112910270691
1788043842957526300,5.2515263671875,0.23090706765651703,-0.0659734457731247,-0.028099801391363144
1788043842973588200,5.267588134765625,0.15760323405265808,-0.5198463201522827,-0.2474004179239273
1788043842989545200,5.283545166015625,0.08735372871160507,-0.6542366743087769,-0.15271630883216858
1788043843005692200,5.299692138671875,0.06780604273080826,-0.2828305959701538,0.18936823308467865
1788043843021760800,5.3157607421875,0.14782938361167908,0.38117989897727966,0.485027015209198
1788043843037858800,5.33185888671875,0.26145032048225403,0.8234463334083557,0.48258355259895325
1788043843053874200,5.347874267578125,0.34758231043815613,0.7562511563301086,0.1459967941045761
1788043843069846000,5.363845947265625,0.3536909818649292,0.46364670991897583,-0.1722639948129654
1788043843085984500,5.379984619140625,0.25534167885780334,0.07941248267889023,-0.3701843321323395
1788043843102049800,5.3960498046875,0.13805554807186127,-0.06108652427792549,-0.33475416898727417
1788043843118189000,5.41218896484375,0.08246681094169617,-0.03237585723400116,-0.23518311977386475
1788043843134224100,5.42822412109375,0.08918632566928864,0.02687807008624077,-0.19058994948863983
1788043843150191600,5.444191650390625,0.11911872029304504,0.07757988572120667,-0.26572638750076294
1788043843166364000,5.460364013671875,0.14355333149433136,0.09346238523721695,-0.375071257352829
1788043843182447400,5.476447265625,0.1612684279680252,0.09162978827953339,-0.41661009192466736
1788043843198578400,5.492578369140625,0.16493362188339233,0.04703662544488907,-0.37629300355911255
1788043843214637800,5.508637939453125,0.15332718193531036,0.04398229718208313,-0.25595253705978394
1788043843230695000,5.52469482421875,0.1417207419872284,0.10995574295520782,-0.11911872029304504
1788043843246802700,5.540802734375,0.1508837193250656,0.22602014243602753,0.024434609338641167
1788043843262900700,5.556900634765625,0.17837265133857727,0.2974913716316223,0.08796459436416626
1788043843279046000,5.5730458984375,0.21502456068992615,0.3023782968521118,0.09346238523721695
1788043843295073000,5.589072998046875,0.22052235901355743,0.2541199326515198,0.07452555745840073
1788043843311077000,5.6050771484375,0.19058994948863983,0.16432274878025055,0.06475171446800232
1788043843327258000,5.621258056640625,0.1417207419872284,0.09529497474431992,0.08368854224681854
1788043843343353300,5.637353271484375,0.09957103431224823,0.04948008432984352,0.1111774742603302
1788043843359458800,5.653458740234375,0.07757988572120667,0.01771509274840355,0.13744467496871948
1788043843375477500,5.6694775390625,0.05803219974040985,-0.016493361443281174,0.14538592100143433
1788043843391519700,5.685519775390625,0.013439035043120384,-0.06963863968849182,0.13011430203914642
1788043843407657000,5.701656982421875,-0.030543262138962746,-0.05009094998240471,0.12278391420841217
1788043843423733000,5.71773291015625,-0.07147123664617538,0.015882495790719986,0.1508837193250656
1788043843439894500,5.73389453125,-0.08185594528913498,-0.0354301854968071,0.16004669666290283
1788043843455932400,5.749932373046875,-0.06963863968849182,-0.1716531366109848,0.12217304855585098
1788043843471974700,5.765974609375,-0.07208210229873657,-0.33169981837272644,0.03237585723400116
1788043843488035300,5.782035400390625,-0.13072516024112701,-0.4043927788734436,-0.0555887371301651
1788043843504112600,5.798112548828125,-0.2028072625398636,-0.33475416898727417,-0.09224065393209457
1788043843520231400,5.8142314453125,-0.18631389737129211,-0.05253441259264946,-0.07269296050071716
1788043843536254700,5.830254638671875,-0.08124507963657379,0.04764748737215996,-0.1258382350206375
1788043843552284700,5.84628466796875,-0.039095375686883926,-0.2968805134296417,-0.3628539443016052
1788043843568347400,5.862347412109375,-0.04398229718208313,-0.3738495409488678,-0.5076290369033813
1788043843584430800,5.878430908203125,-0.1618792861700058,-0.22052235901355743,-0.4715879559516907
1788043843600492300,5.8944921875,-0.2773328125476837,0.10934487730264664,-0.2816088795661926
1788043843616533500,5.910533447265625,-0.26939156651496887,0.42149701714515686,-0.09651670604944229
1788043843632539000,5.926538818359375,-0.14294247329235077,0.5479460954666138,0.06841690838336945
1788043843648648200,5.942648193359375,0.010995574295520782,0.3591887652873993,0.1362229436635971
1788043843664720000,5.958719970703125,0.15332718193531036,-0.07635815441608429,0.1667662113904953
1788043843680820000,5.974820068359375,0.23457226157188416,-0.36224308609962463,0.22296582162380219
1788043843696830700,5.990830810546875,0.2382374405860901,-0.46670106053352356,0.304210901260376
1788043843712898300,6.006898193359375,0.1472185254096985,-0.44837507605552673,0.3084869384765625
1788043843728972500,6.02297265625,0.04398229718208313,-0.3732386529445648,0.2076941877603531
1788043843745087700,6.039087646484375,-0.07452555745840073,-0.2370157092809677,0.006108652334660292
1788043843761241900,6.055241943359375,-0.15393804013729095,-0.02321287989616394,-0.14049901068210602
1788043843777265400,6.071265380859375,-0.192422553896904,0.20586158335208893,-0.14355333149433136
1788043843793281500,6.087281494140625,-0.19547687470912933,0.2993239760398865,-0.06902777403593063
1788043843809416000,6.103416015625,-0.19608774781227112,0.29077184200286865,0.015271631069481373
1788043843825501000,6.1195009765625,-0.2064724564552307,0.16371189057826996,0.06536258012056351
1788043843841694700,6.13569482421875,-0.21563543379306793,0.06475171446800232,0.08491026610136032
1788043843857697800,6.15169775390625,-0.20341812074184418,-0.01466076634824276,0.08735372871160507
1788043843873792800,6.167792724609375,-0.17959438264369965,-0.05803219974040985,0.06658431142568588
1788043843889875500,6.18387548828125,-0.16920967400074005,-0.14905111491680145,0.004886921960860491
1788043843905988600,6.199988525390625,-0.15027284622192383,-0.22907446324825287,-0.042760565876960754
1788043843922145500,6.2161455078125,-0.10506882518529892,-0.23457226157188416,-0.05375614017248154
1788043843938173700,6.232173583984375,-0.0507018156349659,-0.17043140530586243,-0.019547687843441963
1788043843954253300,6.24825341796875,-0.03176499158143997,-0.056810468435287476,0.0403171069920063
1788043843970334500,6.26433447265625,-0.0507018156349659,0.07391469180583954,0.09896016865968704
1788043843986463700,6.280463623046875,-0.06780604273080826,0.19058994948863983,0.11056660860776901
1788043844002582000,6.29658203125,-0.059864792972803116,0.2993239760398865,0.06963863968849182
1788043844018620000,6.312619873046875,-0.0403171069920063,0.3445279896259308,0.031154127791523933
1788043844034599200,6.32859912109375,0.003054326167330146,0.3121521472930908,0.01466076634824276
1788043844050757400,6.34475732421875,0.0708603709936142,0.24373523890972137,0.025656340643763542
1788043844066713300,6.36071337890625,0.13561208546161652,0.15393804013729095,0.0708603709936142
1788043844082976500,6.3769765625,0.2119702398777008,0.005497787147760391,0.1362229436635971
1788043844098852000,6.39285205078125,0.2889392673969269,-0.08857546001672745,0.2028072625398636
1788043844114871600,6.40887158203125,0.3439171314239502,-0.07024950534105301,0.25961771607398987
1788043844131099400,6.425099365234375,0.36224308609962463,0.15271630883216858,0.26939156651496887
1788043844147264300,6.44126416015625,0.31031954288482666,0.2816088795661926,0.1417207419872284
1788043844163390700,6.457390625,0.17409659922122955,0.018325956538319588,-0.15271630883216858
1788043844179443200,6.473443115234375,0.07452555745840073,-0.19914206862449646,-0.342695415019989
1788043844195348700,6.4893486328125,0.039095375686883926,-0.30054569244384766,-0.31154128909111023
1788043844211583200,6.505583251953125,0.045204028487205505,-0.19853121042251587,-0.0507018156349659
1788043844227667500,6.52166748046875,0.09040805697441101,0.10567969083786011,0.2669481039047241
1788043844243785000,6.537784912109375,0.152105450630188,0.2871066629886627,0.41233405470848083
1788043844259817000,6.55381689453125,0.20341812074184418,0.2883284091949463,0.35735616087913513
1788043844275705300,6.569705322265625,0.2021963894367218,0.11972958594560623,0.14477506279945374
1788043844291967200,6.58596728515625,0.15943582355976105,-0.01038470957428217,-0.028099801391363144
1788043844307975400,6.601975341796875,0.07452555745840073,0.004886921960860491,-0.10812314599752426
1788043844324194800,6.61819482421875,-0.0024434609804302454,0.0006108652451075613,-0.11911872029304504
1788043844340218400,6.63421826171875,-0.003054326167330146,-0.05619960278272629,-0.1215621829032898
1788043844356293400,6.65029345703125,0.05925392732024193,-0.1472185254096985,-0.1111774742603302
1788043844372344800,6.6663447265625,0.11789698898792267,-0.2278527319431305,-0.07941248267889023
1788043844388420600,6.682420654296875,0.13377949595451355,-0.21013765037059784,-0.01771509274840355
1788043844404617700,6.69861767578125,0.13805554807186127,-0.09224065393209457,0.05619960278272629
1788043844420645000,6.71464501953125,0.15393804013729095,0.06230825558304787,0.11178833991289139
1788043844436588300,6.73058837890625,0.1765400618314743,0.16249015927314758,0.10567969083786011
1788043844452851200,6.746851318359375,0.2021963894367218,0.22418753802776337,0.07147123664617538
1788043844468889900,6.762889892578125,0.20952677726745605,0.21441370248794556,0.018936822190880775
1788043844484999700,6.778999755859375,0.2015855312347412,0.08368854224681854,-0.021380282938480377
1788043844501037800,6.795037841796875,0.2028072625398636,-0.05314527451992035,-0.021991148591041565
1788043844517059600,6.8110595703125,0.20830504596233368,-0.10323622822761536,0.019547687843441963
1788043844533133800,6.8271337890625,0.18997909128665924,-0.11239920556545258,0.06902777403593063
1788043844549169400,6.84316943359375,0.15515977144241333,-0.060475658625364304,0.09957103431224823
1788043844565344800,6.8593447265625,0.12522737681865692,0.00366519158706069,0.09712757170200348
1788043844581390000,6.87539013671875,0.10262536257505417,0.05619960278272629,0.08185594528913498
1788043844597413600,6.89141357421875,0.06719517707824707,0.029932396486401558,0.08429940044879913
1788043844613451800,6.90745166015625,0.04092797264456749,0.006108652334660292,0.14049901068210602
1788043844629512400,6.923512451171875,0.028099801391363144,-0.04703662544488907,0.20586158335208893
1788043844645689300,6.939689453125,0.045204028487205505,-0.12461651116609573,0.2638937830924988
1788043844661746000,6.955745849609375,0.06169738993048668,-0.17959438264369965,0.3023782968521118
1788043844677676300,6.97167626953125,0.045204028487205505,-0.19425514340400696,0.31031954288482666
1788043844693834800,6.987834716796875,0.01466076634824276,-0.17837265133857727,0.2730567753314972
1788043844709971000,7.003970947265625,-0.028099801391363144,-0.12217304855585098,0.21013765037059784
1788043844726103800,7.020103759765625,-0.10445795953273773,-0.06719517707824707,0.1411098688840866
1788043844742035500,7.036035400390625,-0.1514945775270462,-0.04581489413976669,0.08429940044879913
1788043844758059300,7.052059326171875,-0.13377949595451355,-0.018936822190880775,0.0403171069920063
1788043844774236200,7.068236083984375,-0.11728613078594208,-0.29626965522766113,-0.06841690838336945
1788043844790337500,7.084337646484375,-0.1362229436635971,-0.4899139404296875,-0.19364428520202637
1788043844806486000,7.100486083984375,-0.21502456068992615,-0.49357911944389343,-0.3017674386501312
1788043844822500400,7.116500244140625,-0.33597588539123535,-0.42149701714515686,-0.32620203495025635
1788043844838563600,7.1325634765625,-0.4031710624694824,-0.18631389737129211,-0.2626720666885376
1788043844854633200,7.14863330078125,-0.3854559659957886,0.16493362188339233,-0.12034045159816742
1788043844870729500,7.1647294921875,-0.2730567753314972,0.26633724570274353,0.006108652334660292
1788043844886894000,7.18089404296875,-0.14233160018920898,0.015271631069481373,0.056810468435287476
1788043844902928000,7.196927978515625,-0.03787364438176155,-0.27000242471694946,0.09957103431224823
1788043844919017500,7.213017578125,0.005497787147760391,-0.4612032473087311,0.17409659922122955
1788043844935095600,7.229095458984375,-0.04337143152952194,-0.484416127204895,0.2076941877603531
1788043844951169300,7.245169189453125,-0.1264491081237793,-0.41111230850219727,0.1514945775270462
1788043844967288800,7.261288818359375,-0.23335053026676178,-0.22907446324825287,0.0024434609804302454
1788043844983277600,7.277277587890625,-0.3170390725135803,-0.015271631069481373,-0.1618792861700058
1788043844999274500,7.2932744140625,-0.35674530267715454,0.06169738993048668,-0.2938261926174164
1788043845015457500,7.30945751953125,-0.3585779070854187,0.06291911751031876,-0.3384193480014801
1788043845031522800,7.325522705078125,-0.34697145223617554,0.1014036312699318,-0.294437050819397
1788043845047648000,7.34164794921875,-0.3286454975605011,0.11850785464048386,-0.21502456068992615
1788043845063701800,7.35770166015625,-0.2974913716316223,0.13316862285137177,-0.1612684279680252
1788043845079628800,7.37362890625,-0.25045475363731384,0.12095131725072861,-0.12278391420841217
1788043845095831300,7.389831298828125,-0.1918116807937622,0.07452555745840073,-0.10690141469240189
1788043845111818200,7.405818359375,-0.12217304855585098,-0.04337143152952194,-0.09346238523721695
1788043845128077000,7.4220771484375,-0.08246681094169617,-0.08246681094169617,-0.07147123664617538
1788043845144014300,7.438014404296875,-0.06719517707824707,-0.012828170321881771,-0.048258353024721146
1788043845160091600,7.454091552734375,-0.048258353024721146,0.09896016865968704,-0.06719517707824707
1788043845176292600,7.470292724609375,-0.03420845419168472,0.15882496535778046,-0.10506882518529892
1788043845192329000,7.486328857421875,-0.02687807008624077,0.15515977144241333,-0.16432274878025055
1788043845208535600,7.50253564453125,0.0024434609804302454,0.12339477986097336,-0.18875735998153687
1788043845224590600,7.518590576171875,0.05803219974040985,0.11056660860776901,-0.1472185254096985
1788043845240570000,7.534570068359375,0.1111774742603302,0.1466076523065567,-0.07941248267889023
1788043845256767000,7.55076708984375,0.15882496535778046,0.24556782841682434,0.0006108652451075613
1788043845272875000,7.566875,0.20830504596233368,0.32681289315223694,0.05314527451992035
1788043845288985600,7.582985595703125,0.2669481039047241,0.38117989897727966,0.06108652427792549
1788043845305015600,7.599015625,0.33292156457901,0.3579670190811157,0.045204028487205505
1788043845321099000,7.61509912109375,0.3885102868080139,0.2223549485206604,0.04703662544488907
1788043845337181200,7.63118115234375,0.44165557622909546,0.10018189996480942,0.11056660860776901
1788043845353326600,7.64732666015625,0.455705463886261,0.03176499158143997,0.18936823308467865
1788043845369449000,7.663448974609375,0.4544837474822998,0.06169738993048668,0.2577851414680481
1788043845385443600,7.679443603515625,0.40744712948799133,0.21563543379306793,0.2816088795661926
1788043845401529300,7.695529296875,0.3323107063770294,0.4294382631778717,0.26633724570274353
1788043845417645800,7.711645751953125,0.23884831368923187,0.6133087277412415,0.14844025671482086
1788043845433726200,7.727726318359375,0.17409659922122955,0.4440990388393402,-0.09407325088977814
1788043845449843700,7.74384375,0.20463985204696655,0.27061331272125244,-0.2168571650981903
1788043845465884200,7.75988427734375,0.2070833146572113,0.1258382350206375,-0.182648703455925
1788043845481814800,7.775814697265625,0.16065755486488342,-0.04092797264456749,-0.07208210229873657
1788043845498033200,7.792033203125,0.1160643994808197,-0.06352998316287994,0.04153883829712868
1788043845514118400,7.808118408203125,0.10201449692249298,0.05497787147760391,0.06108652427792549
1788043845530247000,7.824246826171875,0.12461651116609573,0.2724458873271942,-0.012217304669320583
1788043845546300700,7.84030078125,0.14905111491680145,0.37262779474258423,-0.10323622822761536
1788043845562357200,7.856357177734375,0.16065755486488342,0.29077184200286865,-0.1466076523065567
1788043845578427600,7.872427734375,0.1661553531885147,0.15027284622192383,-0.11301007121801376
1788043845594512600,7.8885126953125,0.16859880089759827,0.039095375686883926,-0.028099801391363144
1788043845610653000,7.90465283203125,0.18081611394882202,0.0006108652451075613,0.030543262138962746
1788043845626706200,7.9207060546875,0.20097467303276062,-0.012828170321881771,0.012828170321881771
1788043845642731800,7.936731689453125,0.23884831368923187,-0.0861319974064827,-0.07269296050071716
1788043845658848500,7.9528486328125,0.2687807083129883,-0.19608774781227112,-0.16004669666290283
1788043845674930200,7.96893017578125,0.2583959996700287,-0.23518311977386475,-0.19120082259178162
1788043845691090000,7.98508984375,0.17776179313659668,-0.1313360333442688,-0.15515977144241333
1788043845707109000,8.001109130859374,0.06414084881544113,0.1014036312699318,-0.08918632566928864
1788043845723186000,8.01718603515625,-0.006719517521560192,0.29565876722335815,-0.08368854224681854
1788043845739247000,8.0332470703125,-0.021380282938480377,0.3292563557624817,-0.13500121235847473
1788043845755336700,8.049336669921875,-0.013439035043120384,0.24678955972194672,-0.18325957655906677
1788043845771513000,8.06551318359375,-0.018936822190880775,0.0861319974064827,-0.13377949595451355
1788043845787533300,8.081533203125,-0.02871066704392433,-0.042760565876960754,-0.04948008432984352
1788043845803579600,8.09757958984375,-0.048258353024721146,-0.14966198801994324,0.03298672288656235
1788043845819661000,8.1136611328125,-0.08368854224681854,-0.1875356286764145,0.0708603709936142
1788043845835739000,8.12973876953125,-0.11667526513338089,-0.18081611394882202,0.0708603709936142
1788043845851853800,8.145853759765625,-0.13561208546161652,-0.15515977144241333,0.0555887371301651
1788043845867888600,8.161888671875,-0.16859880089759827,-0.1508837193250656,0.028099801391363144
1788043845883928300,8.17792822265625,-0.20891591906547546,-0.17470745742321014,0.018936822190880775
1788043845900012500,8.194012451171876,-0.24862214922904968,-0.19975294172763824,0.027488935738801956
1788043845916094000,8.210093994140625,-0.28649580478668213,-0.22479841113090515,0.0354301854968071
1788043845932217000,8.226217041015625,-0.2981022298336029,-0.304210901260376,0.03420845419168472
1788043845948267800,8.242267822265624,-0.294437050819397,-0.3952298164367676,0.05375614017248154
1788043845964319000,8.258319091796874,-0.28466320037841797,-0.4758640229701996,0.09224065393209457
1788043845980413400,8.274413330078126,-0.2828305959701538,-0.49785518646240234,0.15454891324043274
1788043845996502300,8.290502197265624,-0.29993483424186707,-0.46792277693748474,0.2070833146572113
1788043846012634400,8.30663427734375,-0.30115658044815063,-0.3781255781650543,0.2382374405860901
1788043846028688600,8.322688720703125,-0.2681698501110077,-0.19486601650714874,0.2718350291252136
1788043846044744700,8.33874462890625,-0.24373523890972137,-0.07330382615327835,0.27122417092323303
1788043846060838100,8.354838134765625,-0.20830504596233368,0.028099801391363144,0.252287358045578
1788043846076923000,8.3709228515625,-0.16982053220272064,-0.04764748737215996,0.2070833146572113
1788043846093048000,8.387048095703125,-0.20463985204696655,-0.5198463201522827,0.006108652334660292
1788043846109091600,8.403091552734375,-0.27611109614372253,-0.7037167549133301,-0.18875735998153687
1788043846125155000,8.419155029296874,-0.3591887652873993,-0.7086036801338196,-0.27550023794174194
1788043846141262600,8.4352626953125,-0.4178318381309509,-0.5626068711280823,-0.2590068578720093
1788043846157324000,8.451323974609375,-0.4251621961593628,-0.16798794269561768,-0.18875735998153687
1788043846173435100,8.46743505859375,-0.38606682419776917,0.14416420459747314,-0.1966986060142517
1788043846197473500,8.4914736328125,-0.32681289315223694,0.20463985204696655,-0.26145032048225403
1788043846213620700,8.507620849609374,-0.3225368559360504,0.1270599663257599,-0.21135938167572021
1788043846229677600,8.523677490234375,-0.3188716471195221,0.10018189996480942,-0.05375614017248154
1788043846245756700,8.539756591796875,-0.2840523421764374,0.09468411654233932,0.11056660860776901
1788043846261832400,8.55583251953125,-0.22357667982578278,0.009773843921720982,0.1771509200334549
1788043846277917700,8.571917724609374,-0.11178833991289139,-0.17837265133857727,0.14966198801994324
1788043846294078700,8.58807861328125,0.006108652334660292,-0.3072652220726013,0.08491026610136032
1788043846310128600,8.604128662109375,0.03420845419168472,-0.30970868468284607,0.0403171069920063
1788043846326220000,8.620219970703126,-0.027488935738801956,-0.23884831368923187,0.01710422709584236
1788043846342346200,8.63634619140625,-0.13805554807186127,-0.12889257073402405,-0.031154127791523933
1788043846358435800,8.652435791015625,-0.24617868661880493,0.006719517521560192,-0.08246681094169617
1788043846374511000,8.668510986328124,-0.3066543638706207,0.07513642311096191,-0.13927727937698364
1788043846390568400,8.684568359375,-0.2968805134296417,0.1007927656173706,-0.21624629199504852
1788043846406620200,8.7006201171875,-0.22968533635139465,0.05925392732024193,-0.23884831368923187
1788043846422709500,8.71670947265625,-0.17531833052635193,-0.0507018156349659,-0.18875735998153687
1788043846438807800,8.732807861328125,-0.1618792861700058,-0.13988813757896423,-0.10751228034496307
1788043846454942500,8.7489423828125,-0.17287486791610718,-0.22357667982578278,-0.03176499158143997
1788043846470960600,8.764960693359376,-0.18997909128665924,-0.27000242471694946,0
1788043846487018800,8.781018798828125,-0.18325957655906677,-0.242513507604599,-0.001832595793530345
1788043846503118800,8.797118896484376,-0.17409659922122955,-0.1514945775270462,-0.042760565876960754
1788043846519230000,8.81322998046875,-0.15515977144241333,-0.059864792972803116,-0.09162978827953339
1788043846535373300,8.829373291015624,-0.14355333149433136,-0.005497787147760391,-0.11178833991289139
1788043846551392500,8.845392578125,-0.13255776464939117,0.018325956538319588,-0.08429940044879913
1788043846567462700,8.861462646484375,-0.10934487730264664,0.031154127791523933,-0.025656340643763542
1788043846583573800,8.87757373046875,-0.07757988572120667,0.03787364438176155,-0.0012217304902151227
1788043846599636200,8.89363623046875,-0.04581489413976669,0.042760565876960754,-0.012828170321881771
1788043846615736000,8.909736083984376,0.00733038317412138,0.05925392732024193,-0.03848451003432274
1788043846631751400,8.92575146484375,0.07024950534105301,0.08124507963657379,-0.05375614017248154
1788043846647818000,8.94181787109375,0.12278391420841217,0.1007927656173706,-0.056810468435287476
1788043846663927300,8.95792724609375,0.17531833052635193,0.12278391420841217,-0.033597588539123535
1788043846680001000,8.9740009765625,0.21319197118282318,0.11789698898792267,0.013439035043120384
1788043846696107000,8.99010693359375,0.24678955972194672,0.04459316283464432,0.06108652427792549
1788043846712121900,9.006121826171874,0.26939156651496887,0.0024434609804302454,0.10201449692249298
1788043846728209400,9.02220947265625,0.2632829248905182,-0.0012217304902151227,0.11972958594560623
1788043846744288800,9.038288818359375,0.23884831368923187,-0.003054326167330146,0.07819075137376785
1788043846760369400,9.054369384765625,0.20586158335208893,0.00427605677396059,0.02076941914856434
1788043846776484000,9.070484130859375,0.1514945775270462,0.04214970022439957,-0.015882495790719986
1788043846792508400,9.08650830078125,0.09957103431224823,0.06841690838336945,-0.012217304669320583
1788043846808599800,9.102599853515626,0.05742133408784866,0.10323622822761536,0.03420845419168472
1788043846824639500,9.118639404296875,0.05253441259264946,0.13377949595451355,0.09162978827953339
1788043846840740900,9.134740966796874,0.07819075137376785,0.16920967400074005,0.13927727937698364
1788043846856815400,9.1508154296875,0.11484266817569733,0.15577064454555511,0.16004669666290283
1788043846872849200,9.16684912109375,0.14477506279945374,0.1270599663257599,0.1618792861700058
1788043846888894500,9.18289453125,0.1563815027475357,0.11545353382825851,0.15027284622192383
1788043846904983300,9.1989833984375,0.13561208546161652,0.08918632566928864,0.10934487730264664
1788043846921080000,9.215080078125,0.10873401165008545,0.08185594528913498,0.04398229718208313
1788043846937211000,9.2312109375,0.08491026610136032,0.07391469180583954,-0.01160643994808197
1788043846953254400,9.24725439453125,0.05619960278272629,0.0861319974064827,-0.054367005825042725
1788043846969308700,9.26330859375,0.030543262138962746,0.12278391420841217,-0.07819075137376785
1788043846985410800,9.279410888671874,0.018325956538319588,0.11667526513338089,-0.09773843735456467
1788043847001521400,9.295521484375,0.019547687843441963,0.07880161702632904,-0.11301007121801376
1788043847017659100,9.3116591796875,0.028099801391363144,0.05009094998240471,-0.09896016865968704
1788043847033696500,9.327696533203126,0.03726277872920036,0.036041051149368286,-0.06169738993048668
1788043847049757000,9.3437568359375,0.04948008432984352,0.03481931984424591,-0.03298672288656235
1788043847065869300,9.359869384765625,0.05864306539297104,0.028099801391363144,-0.024434609338641167
1788043847081936600,9.3759365234375,0.060475658625364304,0.04459316283464432,-0.02076941914856434
1788043847098090800,9.3920908203125,0.05314527451992035,0.08735372871160507,-0.01038470957428217
1788043847122051000,9.416051025390624,0.0555887371301651,0.12461651116609573,-0.010995574295520782
1788043847138328800,9.432328857421876,0.05192354694008827,0.07513642311096191,-0.02687807008624077
1788043847154261800,9.44826171875,0.060475658625364304,0.029932396486401558,-0.02871066704392433
1788043847170334200,9.464334228515625,0.07208210229873657,0.04398229718208313,0.005497787147760391
1788043847186533600,9.48053369140625,0.07819075137376785,0.04886921867728233,0.030543262138962746
1788043847202596900,9.496596923828125,0.08491026610136032,0.045204028487205505,0.03787364438176155
1788043847218829000,9.5128291015625,0.08002334833145142,0.048258353024721146,0.03176499158143997
1788043847234853600,9.528853515625,0.0708603709936142,0.04459316283464432,0.029932396486401558
1788043847250926300,9.54492626953125,0.04642575979232788,0.029932396486401558,0.03787364438176155
1788043847267079000,9.561078857421874,0.036041051149368286,-0.007941247895359993,0.025656340643763542
1788043847283167000,9.5771669921875,0.04092797264456749,-0.03237585723400116,0.004886921960860491
1788043847299340000,9.593340087890626,0.031154127791523933,-0.015882495790719986,0.003054326167330146
1788043847315365600,9.60936572265625,0.0024434609804302454,0.025045474991202354,0.02015855349600315
1788043847331431200,9.62543115234375,-0.02382374368607998,0.03848451003432274,0.02321287989616394
1788043847347509200,9.64150927734375,-0.03787364438176155,0.036651913076639175,0.003054326167330146
1788043847363601000,9.657600830078126,-0.04886921867728233,0.039706241339445114,-0.02626720629632473
1788043847379682300,9.673682373046875,-0.07147123664617538,0.042760565876960754,-0.039706241339445114
1788043847395721700,9.6897216796875,-0.08674286305904388,0.030543262138962746,-0.03176499158143997
1788043847411727600,9.7057275390625,-0.08735372871160507,0.016493361443281174,-0.01771509274840355
1788043847427813000,9.721813232421875,-0.045204028487205505,-0.006719517521560192,0
1788043847443916800,9.737916748046874,-0.01160643994808197,0.005497787147760391,0.00855211354792118
1788043847460050400,9.754050537109375,-0.0012217304902151227,0.004886921960860491,0.00366519158706069
1788043847476115200,9.770115234375,-0.028099801391363144,0.005497787147760391,-0.01771509274840355
1788043847492181500,9.786181396484375,-0.0708603709936142,0.009162978269159794,-0.03481931984424591
1788043847508205300,9.802205322265625,-0.09834930300712585,0.0354301854968071,-0.042760565876960754
1788043847524314000,9.818314208984376,-0.10995574295520782,0.04398229718208313,-0.05253441259264946
1788043847540466200,9.834466064453125,-0.11178833991289139,0.051312681287527084,-0.0659734457731247
1788043847556488000,9.850488037109375,-0.10262536257505417,0.05314527451992035,-0.07391469180583954
1788043847572564500,9.866564453125,-0.09407325088977814,0.05864306539297104,-0.07269296050071716
1788043847588637400,9.882637451171876,-0.06536258012056351,0.056810468435287476,-0.04337143152952194
1788043847604724000,9.898723876953126,-0.03420845419168472,0.0354301854968071,-0.00733038317412138
1788043847620864000,9.914864013671876,-0.004886921960860491,0.013439035043120384,0.03726277872920036
1788043847636891400,9.930891357421874,0.00366519158706069,-0.00733038317412138,0.06108652427792549
1788043847652979700,9.946979736328124,0.012217304669320583,-0.02321287989616394,0.06963863968849182
1788043847669062100,9.963062255859375,0.02076941914856434,-0.018936822190880775,0.05192354694008827
1788043847685187300,9.979187255859374,0.02626720629632473,-0.012217304669320583,0.027488935738801956
1788043847701360400,9.9953603515625,0.009773843921720982,-0.010995574295520782,0.01160643994808197
1788043847717370600,10.01137060546875,-0.014049900695681572,-0.009773843921720982,0.02687807008624077
1788043847733405200,10.0274052734375,-0.021380282938480377,0.007941247895359993,0.04459316283464432
1788043847749565400,10.0435654296875,-0.019547687843441963,0.012217304669320583,0.04214970022439957
1788043847765646300,10.059646240234375,-0.025656340643763542,-0.007941247895359993,0.01038470957428217
1788043847781767200,10.07576708984375,-0.031154127791523933,-0.04337143152952194,-0.025656340643763542
1788043847797768400,10.0917685546875,-0.027488935738801956,-0.039706241339445114,-0.025656340643763542
1788043847813850600,10.1078505859375,-0.03298672288656235,-0.02626720629632473,-0.015271631069481373
1788043847829958400,10.12395849609375,-0.04153883829712868,-0.022602014243602753,0.001832595793530345
1788043847846005200,10.140005126953126,-0.04459316283464432,-0.02932153269648552,0.009162978269159794
1788043847862182700,10.1561826171875,-0.03848451003432274,-0.028099801391363144,0.01160643994808197
1788043847878189000,10.17218896484375,-0.021991148591041565,-0.01160643994808197,0.0024434609804302454
1788043847894283500,10.188283447265626,-0.016493361443281174,-0.014049900695681572,-0.013439035043120384
1788043847910406000,10.204406005859376,-0.02687807008624077,-0.01038470957428217,-0.018325956538319588
1788043847926505700,10.220505615234375,-0.04214970022439957,0.005497787147760391,-0.013439035043120384
1788043847942649600,10.236649658203126,-0.036651913076639175,0.015271631069481373,-0.006719517521560192
1788043847958699000,10.252698974609375,-0.028099801391363144,0.013439035043120384,-0.01038470957428217
1788043847974653400,10.2686533203125,-0.025045474991202354,0.006719517521560192,-0.019547687843441963
1788043847990884600,10.284884521484376,-0.029932396486401558,0.009773843921720982,-0.025045474991202354
1788043848006958800,10.300958740234375,-0.03726277872920036,0.009162978269159794,-0.02015855349600315
1788043848023129900,10.3171298828125,-0.03787364438176155,0.021380282938480377,-0.018936822190880775
1788043848039145200,10.333145263671875,-0.02626720629632473,0.012217304669320583,-0.025656340643763542
1788043848055119400,10.349119384765626,-0.018936822190880775,-0.01466076634824276,-0.028099801391363144
1788043848071330300,10.365330322265624,-0.025045474991202354,-0.021991148591041565,-0.015271631069481373
1788043848087430700,10.3814306640625,-0.029932396486401558,-0.019547687843441963,0.0012217304902151227
1788043848103587300,10.39758740234375,-0.025656340643763542,-0.01160643994808197,0.006719517521560192
1788043848119609300,10.413609375,-0.021380282938480377,-0.004886921960860491,0.00366519158706069
1788043848135605200,10.429605224609375,-0.02015855349600315,-0.01710422709584236,-0.00733038317412138
1788043848151793200,10.445793212890624,-0.03176499158143997,-0.05619960278272629,-0.01710422709584236
1788043848167919400,10.46191943359375,-0.05742133408784866,-0.09407325088977814,-0.012828170321881771
1788043848184081200,10.4780810546875,-0.08185594528913498,-0.12339477986097336,0.0012217304902151227
1788043848200017400,10.494017333984376,-0.09040805697441101,-0.09407325088977814,0.018325956538319588
1788043848216040000,10.5100400390625,-0.09407325088977814,-0.030543262138962746,0.02015855349600315
1788043848232300800,10.52630078125,-0.08674286305904388,-0.015882495790719986,0.0012217304902151227
1788043848248269000,10.54226904296875,-0.08429940044879913,-0.04337143152952194,-0.015882495790719986
1788043848264515300,10.558515380859374,-0.1062905490398407,-0.08552113175392151,-0.024434609338641167
1788043848280563200,10.574563232421875,-0.13866640627384186,-0.11239920556545258,-0.01160643994808197
1788043848296429000,10.590428955078124,-0.16371189057826996,-0.08491026610136032,0.005497787147760391
1788043848312693800,10.60669384765625,-0.16554448008537292,-0.07330382615327835,-0.004886921960860491
1788043848328786200,10.6227861328125,-0.17104226350784302,-0.09834930300712585,-0.056810468435287476
1788043848344918300,10.638918212890625,-0.19425514340400696,-0.11789698898792267,-0.08124507963657379
1788043848360947500,10.654947509765625,-0.23273965716362,-0.12278391420841217,-0.07513642311096191
1788043848377028400,10.6710283203125,-0.27122417092323303,-0.12461651116609573,-0.04764748737215996
1788043848393059800,10.687059814453125,-0.30543261766433716,-0.13011430203914642,-0.025656340643763542
1788043848409151500,10.7031513671875,-0.34636059403419495,-0.10690141469240189,-0.016493361443281174
1788043848425299200,10.71929931640625,-0.38667771220207214,-0.11972958594560623,-0.03787364438176155
1788043848441323000,10.735322998046875,-0.4239404797554016,-0.16249015927314758,-0.07269296050071716
1788043848457421800,10.751421875,-0.4599815309047699,-0.1966986060142517,-0.07757988572120667
1788043848473472300,10.76747216796875,-0.4948008358478546,-0.17592918872833252,-0.05497787147760391
1788043848489570300,10.7835703125,-0.5412266254425049,-0.16371189057826996,-0.05009094998240471
1788043848505714000,10.7997138671875,-0.5552765130996704,-0.14844025671482086,-0.06352998316287994
1788043848521694200,10.815694091796875,-0.5552765130996704,-0.17531833052635193,-0.1007927656173706
1788043848537713700,10.831713623046875,-0.5564982295036316,-0.22357667982578278,-0.11972958594560623
1788043848553863700,10.84786376953125,-0.5619960427284241,-0.29565876722335815,-0.10934487730264664
1788043848569980400,10.86398046875,-0.5760459303855896,-0.36713001132011414,-0.07635815441608429
1788043848586131200,10.880131103515625,-0.5937610268592834,-0.40194934606552124,-0.039706241339445114
1788043848602151700,10.896151611328126,-0.6065891981124878,-0.4147774875164032,0.0024434609804302454
1788043848618226000,10.912225830078125,-0.6126978397369385,-0.4508185386657715,0.024434609338641167
1788043848634247000,10.928246826171875,-0.6224716901779175,-0.49724429845809937,0.02015855349600315
1788043848650366200,10.9443662109375,-0.6615670323371887,-0.5607742667198181,0.00427605677396059
1788043848666526500,10.9605263671875,-0.7275404930114746,-0.6188064813613892,-0.010995574295520782
1788043848682554600,10.9765546875,-0.8148942589759827,-0.6047565937042236,-0.01466076634824276
1788043848698637800,10.992637939453125,-0.8900306820869446,-0.5748242139816284,-0.029932396486401558
1788043848714713300,11.00871337890625,-0.9547823667526245,-0.5528330206871033,-0.07452555745840073
1788043848730837000,11.0248369140625,-0.9841039180755615,-0.5564982295036316,-0.10018189996480942
1788043848746998800,11.040998779296874,-1.0012081861495972,-0.5760459303855896,-0.09346238523721695
1788043848763030000,11.057030029296875,-1.0256427526474,-0.6029239892959595,-0.08429940044879913
1788043848779022000,11.07302197265625,-1.0586295127868652,-0.636521577835083,-0.0910189226269722
1788043848795153700,11.089153564453126,-1.0867292881011963,-0.6487388610839844,-0.10384709388017654
1788043848811226000,11.10522607421875,-1.0995573997497559,-0.6591235995292664,-0.12095131725072861
1788043848827297300,11.12129736328125,-1.0995573997497559,-0.6536257863044739,-0.12095131725072861
1788043848843340300,11.13734033203125,-1.084285855293274,-0.6236934065818787,-0.0708603709936142
1788043848859387100,11.15338720703125,-1.0604621171951294,-0.6218608021736145,-0.00855211354792118
1788043848875480800,11.169480712890625,-1.016479730606079,-0.6316346526145935,0.05375614017248154
1788043848891571500,11.185571533203126,-1.0054842233657837,-0.646906316280365,0.07330382615327835
1788043848907706400,11.201706298828125,-1.0323622226715088,-0.6957755088806152,0.02687807008624077
1788043848923761000,11.217760986328125,-1.0677924156188965,-0.7110471725463867,-0.028099801391363144
1788043848939749400,11.233749267578125,-1.1166616678237915,-0.7012733221054077,-0.06475171446800232
1788043848955925000,11.249925048828125,-1.1557570695877075,-0.6976081132888794,-0.054367005825042725
1788043848972025900,11.26602587890625,-1.1832460165023804,-0.6780604124069214,-0.022602014243602753
1788043848988170000,11.282169921875,-1.2101240158081055,-0.6230825781822205,0.02687807008624077
1788043849004237600,11.298237548828125,-1.2272282838821411,-0.588263213634491,0.04886921867728233
1788043849020238300,11.31423828125,-1.2345587015151978,-0.5613851547241211,0.03787364438176155
1788043849036414500,11.33041455078125,-1.2424999475479126,-0.5467243790626526,0.015271631069481373
1788043849052523300,11.346523193359374,-1.2455542087554932,-0.5241223573684692,-0.003054326167330146
1788043849068673300,11.36267333984375,-1.244943380355835,-0.48808133602142334,0.03237585723400116
1788043849084700200,11.3787001953125,-1.2345587015151978,-0.44593164324760437,0.07880161702632904
1788043849100777700,11.39477783203125,-1.2015719413757324,-0.43249258399009705,0.09285151958465576
1788043849116879600,11.410879638671876,-1.1606439352035522,-0.4129449129104614,0.06475171446800232
1788043849132999700,11.426999755859375,-1.1355985403060913,-0.4905247986316681,0.009162978269159794
1788043849149157600,11.44315771484375,-1.1203268766403198,-0.6401867866516113,-0.033597588539123535
1788043849165184000,11.45918408203125,-1.1154398918151855,-0.7550294399261475,-0.04459316283464432
1788043849181271000,11.47527099609375,-1.1215485334396362,-0.7904596328735352,-0.01160643994808197
1788043849197379600,11.491379638671875,-1.13926362991333,-0.7183775305747986,0.027488935738801956
1788043849213456000,11.507455810546874,-1.1331549882888794,-0.48747047781944275,0.07147123664617538
1788043849229622300,11.523622314453124,-1.1007791757583618,-0.36713001132011414,0.06169738993048668
1788043849245661400,11.539661376953125,-1.037249207496643,-0.39156460762023926,0.04642575979232788
1788043849261668400,11.55566845703125,-0.9761626720428467,-0.46853363513946533,0.06780604273080826
1788043849277816300,11.57181640625,-0.9187413454055786,-0.6059783101081848,0.11728613078594208
1788043849293836500,11.58783642578125,-0.8845328688621521,-0.7605272531509399,0.15943582355976105
1788043849310031600,11.604031494140624,-0.8808676600456238,-0.8637634515762329,0.16554448008537292
1788043849326029600,11.620029541015626,-0.8875871896743774,-0.8973610401153564,0.13805554807186127
1788043849342091800,11.636091796875,-0.9175195693969727,-0.9071348905563354,0.07391469180583954
1788043849358161700,11.65216162109375,-0.969443142414093,-0.8955284357070923,-0.00366519158706069
1788043849374262300,11.66826220703125,-1.016479730606079,-0.8576548099517822,-0.06352998316287994
1788043849390355200,11.684355224609375,-1.054964303970337,-0.759305477142334,-0.09224065393209457
1788043849406371300,11.700371337890624,-1.0946705341339111,-0.6322455406188965,-0.08796459436416626
1788043849422352600,11.7163525390625,-1.1288789510726929,-0.5265658497810364,-0.06475171446800232
1788043849438519600,11.73251953125,-1.151481032371521,-0.4086688458919525,-0.048258353024721146
1788043849454628000,11.748628173828125,-1.171028733253479,-0.35185837745666504,-0.06536258012056351
1788043849470778600,11.764778564453126,-1.1844676733016968,-0.34086281061172485,-0.09468411654233932
1788043849486795000,11.780794921875,-1.1917980909347534,-0.34574973583221436,-0.1062905490398407
1788043849502823400,11.796823486328124,-1.176526427268982,-0.33536502718925476,-0.08735372871160507
1788043849518949600,11.81294970703125,-1.1429288387298584,-0.3335324227809906,-0.05253441259264946
1788043849535067100,11.829067138671874,-1.1044443845748901,-0.3439171314239502,-0.028099801391363144
1788043849551175000,11.8451748046875,-1.0512990951538086,-0.37262779474258423,-0.013439035043120384
1788043849567182600,11.8611826171875,-1.0170906782150269,-0.4178318381309509,-0.018936822190880775
1788043849583196000,11.87719580078125,-1.004873275756836,-0.48258355259895325,-0.036041051149368286
1788043849599306000,11.893305908203125,-0.9975429177284241,-0.5363397002220154,-0.04948008432984352
1788043849615429600,11.9094296875,-0.9926560521125793,-0.543059229850769,-0.048258353024721146
1788043849631543800,11.925543701171875,-0.9865473508834839,-0.49846604466438293,-0.03848451003432274
1788043849647577000,11.9415771484375,-0.9749409556388855,-0.4489859640598297,-0.04642575979232788
1788043849663616800,11.95761669921875,-0.9590584635734558,-0.39706242084503174,-0.06841690838336945
1788043849679695400,11.9736953125,-0.9437867999076843,-0.3384193480014801,-0.09285151958465576
1788043849695758800,11.9897587890625,-0.9352346658706665,-0.3084869384765625,-0.07880161702632904
1788043849711896800,12.005896728515625,-0.8985827565193176,-0.3182607889175415,-0.02626720629632473
1788043849727933700,12.02193359375,-0.8429940342903137,-0.37751471996307373,0.036651913076639175
1788043849743979800,12.037979736328126,-0.7812966704368591,-0.40256020426750183,0.1062905490398407
1788043849760069400,12.0540693359375,-0.7440338730812073,-0.40683624148368835,0.1508837193250656
1788043849776153000,12.070153076171875,-0.7159340381622314,-0.4288274049758911,0.14477506279945374
1788043849792277000,12.086277099609376,-0.6908885836601257,-0.43127086758613586,0.09651670604944229
1788043849808324600,12.10232470703125,-0.6676757335662842,-0.4105014503002167,0.06719517707824707
1788043849824274000,12.11827392578125,-0.6401867866516113,-0.3738495409488678,0.07696902006864548
1788043849840454100,12.1344541015625,-0.6200281977653503,-0.3219259977340698,0.12950342893600464
1788043849856533800,12.15053369140625,-0.6041457056999207,-0.3072652220726013,0.1508837193250656
1788043849872681700,12.166681640625,-0.5809328556060791,-0.33475416898727417,0.11789698898792267
1788043849888741000,12.1827412109375,-0.5473352670669556,-0.3952298164367676,0.05253441259264946
1788043849904742700,12.19874267578125,-0.5418374538421631,-0.4190535545349121,-0.015271631069481373
1788043849920916200,12.214916259765625,-0.5479460954666138,-0.375071257352829,-0.06169738993048668
1788043849936999400,12.23099951171875,-0.5393940210342407,-0.304210901260376,-0.09651670604944229
1788043849953158100,12.247158203125,-0.5002986192703247,-0.20952677726745605,-0.10934487730264664
1788043849969176800,12.2631767578125,-0.4337143301963806,-0.08185594528913498,-0.08552113175392151
1788043849985250000,12.27925,-0.37140607833862305,-0.007941247895359993,-0.060475658625364304
1788043850001368600,12.29536865234375,-0.2981022298336029,0.018325956538319588,-0.06963863968849182
1788043850017456600,12.31145654296875,-0.23335053026676178,-0.025656340643763542,-0.09346238523721695
1788043850033596400,12.327596435546875,-0.19914206862449646,-0.09224065393209457,-0.09224065393209457
1788043850049628400,12.34362841796875,-0.1618792861700058,-0.14416420459747314,-0.06841690838336945
1788043850065654300,12.359654296875,-0.12339477986097336,-0.16920967400074005,-0.04153883829712868
1788043850081828400,12.375828369140624,-0.09773843735456467,-0.14782938361167908,-0.039706241339445114
1788043850097887000,12.391886962890625,-0.0806342139840126,-0.1160643994808197,-0.06169738993048668
1788043850114085000,12.408085205078125,-0.07819075137376785,-0.05314527451992035,-0.08185594528913498
1788043850129998300,12.423998291015625,-0.09834930300712585,0.01710422709584236,-0.09285151958465576
1788043850146032000,12.4400322265625,-0.12400564551353455,0.04886921867728233,-0.09834930300712585
1788043850162244900,12.456244873046876,-0.13988813757896423,0.04153883829712868,-0.09712757170200348
1788043850178343700,12.47234375,-0.11972958594560623,0.042760565876960754,-0.08246681094169617
1788043850194510600,12.488510498046875,-0.07757988572120667,-0.024434609338641167,-0.07452555745840073
1788043850210538200,12.504538330078125,-0.051312681287527084,-0.0757472887635231,-0.059864792972803116
1788043850226611500,12.520611572265626,-0.04764748737215996,-0.12278391420841217,-0.04398229718208313
1788043850242684000,12.536683837890624,-0.05619960278272629,-0.11850785464048386,-0.04398229718208313
1788043850258707200,12.552707275390626,-0.05925392732024193,-0.08979719132184982,-0.05742133408784866
1788043850274913300,12.568913330078125,-0.059864792972803116,-0.05253441259264946,-0.07819075137376785
1788043850290963200,12.584963134765625,-0.04337143152952194,-0.021380282938480377,-0.08857546001672745
1788043850306986000,12.600986083984376,-0.03176499158143997,-0.01160643994808197,-0.07024950534105301
1788043850323088000,12.617087890625,-0.024434609338641167,-0.004886921960860491,-0.02687807008624077
1788043850339208700,12.633208740234375,-0.01771509274840355,-0.0024434609804302454,0.02321287989616394
1788043850355305000,12.649304931640625,-0.02382374368607998,0.00366519158706069,0.0555887371301651
1788043850371266300,12.665266357421874,-0.04092797264456749,0.009773843921720982,0.05803219974040985
1788043850387278800,12.68127880859375,-0.06291911751031876,0.004886921960860491,0.03787364438176155
1788043850403410000,12.697409912109375,-0.07696902006864548,0.006719517521560192,0.007941247895359993
1788043850419487500,12.713487548828125,-0.07635815441608429,0.028099801391363144,0.005497787147760391
1788043850435627000,12.729626953125,-0.06780604273080826,0.06169738993048668,0.015882495790719986
1788043850451647500,12.7456474609375,-0.05253441259264946,0.0555887371301651,0.00855211354792118
1788043850467592000,12.761592041015625,-0.03481931984424591,0.04764748737215996,0.0012217304902151227
1788043850483796200,12.777796142578126,-0.01466076634824276,0.04581489413976669,0.004886921960860491
1788043850499912200,12.793912109375,0.015271631069481373,0.051312681287527084,0.01466076634824276
1788043850516022800,12.810022705078126,0.042760565876960754,0.05497787147760391,0.01466076634824276
1788043850532055800,12.826055908203125,0.05742133408784866,0.03420845419168472,0.004886921960860491
1788043850548142300,12.842142333984375,0.06719517707824707,0.014049900695681572,-0.00733038317412138
1788043850564224800,12.858224853515624,0.07208210229873657,0.00855211354792118,-0.001832595793530345
1788043850580308200,12.87430810546875,0.07635815441608429,0.00427605677396059,0.004886921960860491
1788043850596478000,12.89047802734375,0.07941248267889023,0.021380282938480377,0.021380282938480377
1788043850612515800,12.906515869140625,0.08307767659425735,0.04459316283464432,0.0403171069920063
1788043850628501500,12.92250146484375,0.08368854224681854,0.04642575979232788,0.048258353024721146
1788043850644598000,12.938597900390626,0.08307767659425735,0.03787364438176155,0.06841690838336945
1788043850660682800,12.954682861328125,0.06841690838336945,0.030543262138962746,0.10323622822761536
1788043850676810800,12.970810791015625,0.05619960278272629,0.016493361443281174,0.11545353382825851
1788043850692863500,12.986863525390625,0.039706241339445114,-0.015271631069481373,0.08491026610136032
1788043850708916200,13.002916259765625,0.015271631069481373,-0.04642575979232788,0.03481931984424591
1788043850725016600,13.0190166015625,-0.015882495790719986,-0.05803219974040985,-0.00366519158706069
1788043850741114000,13.035114013671874,-0.04703662544488907,-0.05742133408784866,-0.02076941914856434
1788043850757248000,13.051248046875,-0.05742133408784866,-0.036651913076639175,-0.012217304669320583
1788043850773303000,13.067302978515626,-0.0507018156349659,0.021991148591041565,0.019547687843441963
1788043850789315000,13.083315185546875,-0.0354301854968071,0.06414084881544113,0.04642575979232788
1788043850805470500,13.099470458984374,-0.00366519158706069,0.056810468435287476,0.04703662544488907
1788043850821571600,13.115571533203125,0.013439035043120384,0.04153883829712868,0.03176499158143997
1788043850837716000,13.131716064453125,0.013439035043120384,0.00366519158706069,-0.0012217304902151227
1788043850853728300,13.147728271484375,0.007941247895359993,-0.05192354694008827,-0.031154127791523933
1788043850869574000,13.163573974609376,0.010995574295520782,-0.08185594528913498,-0.029932396486401558
1788043850885913300,13.179913330078126,0.02321287989616394,-0.07513642311096191,-0.015882495790719986
1788043850902020900,13.196020751953125,0.039706241339445114,-0.06780604273080826,-0.00855211354792118
1788043850918179000,13.212178955078125,0.048258353024721146,-0.06841690838336945,-0.016493361443281174
1788043850934206500,13.22820654296875,0.03787364438176155,-0.07269296050071716,-0.02382374368607998
1788043850950286000,13.2442861328125,0.009773843921720982,-0.05742133408784866,-0.036651913076639175
1788043850966405400,13.2604052734375,-0.015882495790719986,-0.048258353024721146,-0.05192354694008827
1788043850982499800,13.276499755859374,-0.0354301854968071,-0.04764748737215996,-0.051312681287527084
1788043850998698500,13.292698486328124,-0.06352998316287994,-0.05314527451992035,-0.04214970022439957
1788043851014732300,13.308732177734376,-0.06963863968849182,-0.07635815441608429,-0.04153883829712868
1788043851030813400,13.3248134765625,-0.06414084881544113,-0.08796459436416626,-0.03481931984424591
1788043851046929000,13.340928955078125,-0.05864306539297104,-0.06719517707824707,-0.01466076634824276
1788043851063019800,13.357019775390626,-0.04642575979232788,-0.042760565876960754,0.009162978269159794
1788043851079172900,13.3731728515625,-0.04398229718208313,-0.0910189226269722,0.00733038317412138
1788043851095189000,13.38918896484375,-0.048258353024721146,-0.1313360333442688,-0.00855211354792118
1788043851111262700,13.4052626953125,-0.051312681287527084,-0.1459967941045761,-0.015271631069481373
1788043851127389400,13.421389404296875,-0.05009094998240471,-0.036041051149368286,0.018936822190880775
1788043851143481600,13.437481689453126,-0.04948008432984352,0.08307767659425735,0.07330382615327835
1788043851159642600,13.453642578125,-0.03237585723400116,0.1014036312699318,0.09407325088977814
1788043851175679200,13.46967919921875,0.015882495790719986,0.048258353024721146,0.06963863968849182
1788043851191758000,13.485758056640625,0.03481931984424591,-0.036651913076639175,0.006719517521560192
1788043851207836400,13.50183642578125,0.014049900695681572,-0.10934487730264664,-0.059864792972803116
1788043851223940400,13.5179404296875,-0.02932153269648552,-0.1313360333442688,-0.1319468915462494
1788043851240080600,13.53408056640625,-0.05619960278272629,-0.06475171446800232,-0.16493362188339233
1788043851256140500,13.550140625,-0.04764748737215996,0.021991148591041565,-0.17470745742321014
1788043851272208100,13.5662080078125,-0.02871066704392433,0.056810468435287476,-0.18570303916931152
1788043851288238300,13.58223828125,-0.012828170321881771,0.04764748737215996,-0.1820378452539444
1788043851304346000,13.59834619140625,-0.02382374368607998,0.01160643994808197,-0.15393804013729095
1788043851320507100,13.614507080078125,-0.04764748737215996,-0.018325956538319588,-0.12522737681865692
1788043851336449500,13.630449462890626,-0.05619960278272629,-0.009773843921720982,-0.0959058403968811
1788043851352570000,13.646570068359376,-0.05009094998240471,-0.012217304669320583,-0.09896016865968704
1788043851368627000,13.662626953125,-0.04581489413976669,-0.0006108652451075613,-0.10934487730264664
1788043851384739000,13.678739013671875,-0.04092797264456749,0.00366519158706069,-0.11545353382825851
1788043851400843500,13.694843505859374,-0.042760565876960754,-0.01771509274840355,-0.10384709388017654
1788043851416861400,13.710861328125,-0.06291911751031876,-0.02626720629632473,-0.07269296050071716
1788043851432940000,13.72693994140625,-0.0861319974064827,-0.018325956538319588,-0.03420845419168472
1788043851448966100,13.742966064453125,-0.09162978827953339,-0.015271631069481373,-0.015271631069481373
1788043851465091000,13.759091064453125,-0.06902777403593063,0.01710422709584236,-0.013439035043120384
1788043851481251800,13.775251953125,-0.03848451003432274,0.09162978827953339,0.006108652334660292
1788043851497205200,13.791205322265625,-0.019547687843441963,0.13927727937698364,0.01771509274840355
1788043851513328400,13.807328369140626,0.006719517521560192,0.13988813757896423,0.02932153269648552
1788043851529397800,13.823397705078126,0.016493361443281174,0.12034045159816742,0.036041051149368286
1788043851545475600,13.8394755859375,0.01160643994808197,0.11972958594560623,0.04886921867728233
1788043851561638700,13.855638671875,0.009162978269159794,0.12522737681865692,0.05803219974040985
1788043851577681200,13.87168115234375,0.02382374368607998,0.14294247329235077,0.08307767659425735
1788043851593728300,13.887728271484375,0.05375614017248154,0.1918116807937622,0.13255776464939117
1788043851609818600,13.903818603515624,0.0861319974064827,0.21380282938480377,0.18081611394882202
1788043851625867800,13.91986767578125,0.1062905490398407,0.2021963894367218,0.19914206862449646
1788043851641969400,13.935969482421875,0.12217304855585098,0.25473082065582275,0.20952677726745605
1788043851658013400,13.952013427734375,0.1368338167667389,0.34636059403419495,0.19058994948863983
1788043851673985000,13.967985107421875,0.12889257073402405,0.24068090319633484,0.048258353024721146
1788043851690147600,13.984147705078126,0.1569923609495163,0.031154127791523933,-0.11789698898792267
1788043851706206700,14.000206787109375,0.16920967400074005,-0.1215621829032898,-0.21807889640331268
1788043851722365400,14.016365478515626,0.1569923609495163,-0.27611109614372253,-0.2528982162475586
1788043851738363100,14.032363037109375,0.16004669666290283,-0.2015855312347412,-0.18936823308467865
1788043851754395400,14.0483955078125,0.18020524084568024,0.02382374368607998,-0.08124507963657379
1788043851770493700,14.06449365234375,0.18631389737129211,0.2932153046131134,0.015271631069481373
1788043851786585000,14.080585205078124,0.192422553896904,0.4813618063926697,0.11056660860776901
1788043851802716000,14.0967158203125,0.21441370248794556,0.5412266254425049,0.17409659922122955
1788043851818774800,14.11277490234375,0.24373523890972137,0.43737950921058655,0.20830504596233368
1788043851834793700,14.128793701171874,0.2785545587539673,0.20830504596233368,0.22296582162380219
1788043851850951200,14.144951171875,0.28099802136421204,-0.0659734457731247,0.192422553896904
1788043851867062500,14.1610625,0.251676470041275,-0.2681698501110077,0.14049901068210602
1788043851883217000,14.177216796875,0.21380282938480377,-0.31154128909111023,0.09773843735456467
1788043851899206400,14.193206298828125,0.17776179313659668,-0.2278527319431305,0.04337143152952194
1788043851915311900,14.209311767578125,0.1411098688840866,-0.11545353382825851,-0.01466076634824276
1788043851931419000,14.2254189453125,0.11728613078594208,-0.05009094998240471,-0.05314527451992035
1788043851947491300,14.2414912109375,0.08368854224681854,-0.022602014243602753,-0.06963863968849182
1788043851963709000,14.257708984375,0.04581489413976669,-0.018325956538319588,-0.07208210229873657
1788043851979743500,14.273743408203124,0.01160643994808197,0.012217304669320583,-0.05864306539297104
1788043851995829800,14.289829833984374,-0.01160643994808197,0.042760565876960754,-0.05314527451992035
1788043852011940600,14.305940673828125,-0.02015855349600315,0.07208210229873657,-0.06108652427792549
1788043852028020500,14.3220205078125,-0.014049900695681572,0.06780604273080826,-0.07208210229873657
1788043852044190500,14.3381904296875,-0.004886921960860491,0.027488935738801956,-0.08368854224681854
1788043852060240100,14.354240234375,-0.0024434609804302454,-0.056810468435287476,-0.08124507963657379
1788043852076284200,14.3702841796875,-0.031154127791523933,-0.08857546001672745,-0.06963863968849182
1788043852092397800,14.386397705078124,-0.0659734457731247,-0.1313360333442688,-0.06475171446800232
1788043852108486100,14.402486083984375,-0.09040805697441101,-0.1362229436635971,-0.07330382615327835
1788043852124614100,14.4186142578125,-0.11362093687057495,-0.12889257073402405,-0.08185594528913498
1788043852140664600,14.43466455078125,-0.15027284622192383,-0.1459967941045761,-0.09040805697441101
1788043852156723200,14.45072314453125,-0.1966986060142517,-0.18814650177955627,-0.10262536257505417
1788043852172744000,14.466743896484376,-0.25473082065582275,-0.23029619455337524,-0.1007927656173706
1788043852188839400,14.48283935546875,-0.3090978264808655,-0.2376265823841095,-0.09773843735456467
1788043852204980500,14.49898046875,-0.3549126982688904,-0.19058994948863983,-0.08246681094169617
1788043852220988700,14.51498876953125,-0.3799581825733185,-0.14416420459747314,-0.06291911751031876
1788043852236971000,14.530970947265626,-0.384845107793808,-0.1569923609495163,-0.0507018156349659
1788043852253139200,14.54713916015625,-0.35674530267715454,-0.21868975460529327,-0.054367005825042725
1788043852269250300,14.563250244140624,-0.33108896017074585,-0.24129177629947662,-0.05375614017248154
1788043852285398800,14.579398681640624,-0.3194825351238251,-0.18814650177955627,-0.0354301854968071
1788043852301415400,14.59541552734375,-0.31520646810531616,-0.08185594528913498,-0.0012217304902151227
1788043852317419000,14.6114189453125,-0.27061331272125244,0.06230825558304787,0.051312681287527084
1788043852333554000,14.627553955078126,-0.2168571650981903,0.1313360333442688,0.07696902006864548
1788043852349652200,14.64365234375,-0.18997909128665924,-0.16493362188339233,-0.03726277872920036
1788043852365838600,14.659838623046875,-0.19058994948863983,-0.4856378734111786,-0.2474004179239273
1788043852381765400,14.675765380859374,-0.26083946228027344,-0.5345070958137512,-0.36163222789764404
1788043852397751600,14.69175146484375,-0.3836233615875244,-0.39156460762023926,-0.3549126982688904
1788043852413938700,14.707938720703124,-0.4153883755207062,0.03787364438176155,-0.19853121042251587
1788043852430054100,14.72405419921875,-0.32620203495025635,0.4098905920982361,0.01466076634824276
1788043852446205400,14.740205322265625,-0.19425514340400696,0.5265658497810364,0.16798794269561768
1788043852462238200,14.75623828125,-0.07147123664617538,0.3982841372489929,0.2791654169559479
1788043852478335500,14.77233544921875,-0.006719517521560192,0.11178833991289139,0.32681289315223694
1788043852494434000,14.78843408203125,-0.006719517521560192,-0.15393804013729095,0.31154128909111023
1788043852510547000,14.804546875,-0.04948008432984352,-0.41172316670417786,0.22663100063800812
1788043852526697500,14.820697509765624,-0.10812314599752426,-0.4709770977497101,0.12217304855585098
1788043852542734800,14.83673486328125,-0.18509216606616974,-0.3677408695220947,0.009773843921720982
1788043852558819800,14.85281982421875,-0.2431243658065796,-0.21930062770843506,-0.09224065393209457
1788043852574904600,14.868904541015626,-0.2822197377681732,-0.004886921960860491,-0.1722639948129654
1788043852590981400,14.8849814453125,-0.3023782968521118,0.07635815441608429,-0.19120082259178162
1788043852607107000,14.901107177734374,-0.3029891550540924,0.0555887371301651,-0.17104226350784302
1788043852623155500,14.917155517578125,-0.3023782968521118,-0.018325956538319588,-0.13927727937698364
1788043852639061800,14.933061767578126,-0.3066543638706207,-0.08918632566928864,-0.11911872029304504
1788043852655245300,14.949245361328124,-0.3188716471195221,-0.14416420459747314,-0.10018189996480942
1788043852671334000,14.965333984375,-0.32986724376678467,-0.1368338167667389,-0.07635815441608429
1788043852687416000,14.981416015625,-0.35552358627319336,-0.12950342893600464,-0.06902777403593063
1788043852703467500,14.997467529296875,-0.3689626157283783,-0.14905111491680145,-0.07880161702632904
1788043852719525000,15.013525146484374,-0.3597996234893799,-0.13805554807186127,-0.08307767659425735
1788043852735628800,15.02962890625,-0.34697145223617554,-0.07757988572120667,-0.08246681094169617
1788043852751731000,15.04573095703125,-0.3292563557624817,-0.018325956538319588,-0.08918632566928864
1788043852767822600,15.061822509765625,-0.2981022298336029,0,-0.10384709388017654
1788043852783887000,15.07788720703125,-0.2687807083129883,0.006719517521560192,-0.11972958594560623
1788043852799886300,15.09388623046875,-0.26939156651496887,-0.00366519158706069,-0.12400564551353455
1788043852816062500,15.1100625,-0.26939156651496887,0.018325956538319588,-0.09651670604944229
1788043852832171800,15.126171875,-0.23273965716362,0.048258353024721146,-0.04642575979232788
1788043852848281300,15.14228125,-0.13439035415649414,0.09285151958465576,0.021380282938480377
1788043852864292000,15.1582919921875,-0.014049900695681572,0.09407325088977814,0.08246681094169617
1788043852880327400,15.174327392578125,0.09040805697441101,0.05375614017248154,0.1459967941045761
1788043852896522000,15.19052197265625,0.18509216606616974,-0.019547687843441963,0.2223549485206604
1788043852912650800,15.206650634765625,0.23579397797584534,-0.10690141469240189,0.2773328125476837
1788043852928822000,15.222822021484374,0.2370157092809677,-0.11911872029304504,0.2932153046131134
1788043852944861400,15.238861328125,0.21319197118282318,-0.03726277872920036,0.2822197377681732
1788043852960952600,15.25495263671875,0.1918116807937622,0.26939156651496887,0.29016098380088806
1788043852977073700,15.27107373046875,0.17776179313659668,0.5345070958137512,0.24495697021484375
1788043852993159200,15.2871591796875,0.15760323405265808,0.43188172578811646,0.048258353024721146
1788043853009237000,15.303237060546875,0.17043140530586243,0.26145032048225403,-0.11423180252313614
1788043853025265700,15.319265625,0.11789698898792267,0.018325956538319588,-0.18631389737129211
1788043853041251000,15.3352509765625,0.051312681287527084,-0.1417207419872284,-0.11728613078594208
1788043853057388300,15.35138818359375,0.06169738993048668,-0.12522737681865692,0.0024434609804302454
1788043853073476600,15.3674765625,0.18448130786418915,0.09468411654233932,0.1563815027475357
1788043853089593000,15.383593017578125,0.3988949954509735,0.3439171314239502,0.294437050819397
1788043853105620500,15.399620361328125,0.5564982295036316,0.4709770977497101,0.3494149148464203
1788043853121601300,15.415601318359375,0.6310238242149353,0.39706242084503174,0.3274237811565399
1788043853137747200,15.431747314453125,0.5907067060470581,0.12461651116609573,0.25045475363731384
1788043853153838600,15.447838623046875,0.47342056035995483,-0.15821409225463867,0.1466076523065567
1788043853169984500,15.463984619140625,0.3597996234893799,-0.3219259977340698,0.06230825558304787
1788043853186006500,15.480006591796876,0.2791654169559479,-0.35185837745666504,0.005497787147760391
1788043853202120700,15.49612060546875,0.24495697021484375,-0.2828305959701538,-0.04703662544488907
1788043853218197200,15.512197265625,0.2321287989616394,-0.19303341209888458,-0.11362093687057495
1788043853234246400,15.528246337890625,0.20341812074184418,-0.09773843735456467,-0.20097467303276062
1788043853250457600,15.54445751953125,0.16982053220272064,-0.025656340643763542,-0.24129177629947662
1788043853266471200,15.56047119140625,0.13927727937698364,0.06902777403593063,-0.20830504596233368
1788043853282518300,15.576518310546875,0.1215621829032898,0.1514945775270462,-0.14477506279945374
1788043853298626300,15.592626220703124,0.11789698898792267,0.17287486791610718,-0.08185594528913498
1788043853314750200,15.608750244140625,0.12095131725072861,0.1160643994808197,-0.05742133408784866
1788043853330907400,15.624907470703125,0.11423180252313614,0.029932396486401558,-0.0507018156349659
1788043853346940200,15.640940185546874,0.09651670604944229,-0.08429940044879913,-0.054367005825042725
1788043853362892000,15.65689208984375,0.07269296050071716,-0.16310101747512817,-0.05497787147760391
1788043853379104000,15.67310400390625,0.03787364438176155,-0.20341812074184418,-0.04153883829712868
1788043853395211500,15.68921142578125,0.003054326167330146,-0.20463985204696655,-0.018325956538319588
1788043853411356400,15.7053564453125,-0.033597588539123535,-0.20402899384498596,-0.005497787147760391
1788043853427396400,15.721396240234375,-0.06841690838336945,-0.23457226157188416,-0.018936822190880775
1788043853443490600,15.737490478515625,-0.09834930300712585,-0.26511552929878235,-0.021380282938480377
1788043853459574800,15.75357470703125,-0.13439035415649414,-0.27977627515792847,0.00427605677396059
1788043853475657500,15.769657470703125,-0.17592918872833252,-0.2993239760398865,0.05497787147760391
1788043853491837400,15.78583740234375,-0.21319197118282318,-0.304210901260376,0.08918632566928864
1788043853507884800,15.801884765625,-0.22540926933288574,-0.2779437005519867,0.11056660860776901
1788043853523932700,15.8179326171875,-0.23640485107898712,-0.2474004179239273,0.10751228034496307
1788043853540019500,15.83401953125,-0.242513507604599,-0.24862214922904968,0.06658431142568588
1788043853556107000,15.85010693359375,-0.24373523890972137,-0.26633724570274353,0.01771509274840355
1788043853572234000,15.86623388671875,-0.25534167885780334,-0.2528982162475586,-0.0012217304902151227
1788043853588272600,15.882272705078124,-0.2541199326515198,-0.21624629199504852,0.02871066704392433
1788043853604348200,15.89834814453125,-0.1820378452539444,-0.14233160018920898,0.09834930300712585
1788043853620450800,15.914450927734375,-0.06902777403593063,-0.0861319974064827,0.15393804013729095
1788043853636520200,15.930520263671875,0.018936822190880775,-0.30054569244384766,0.08246681094169617
1788043853652642000,15.94664208984375,0.02076941914856434,-0.5247332453727722,-0.08674286305904388
1788043853668708600,15.96270849609375,-0.07208210229873657,-0.5088507533073425,-0.20830504596233368
1788043853684780500,15.978780517578125,-0.24434609711170197,-0.40194934606552124,-0.313373863697052
1788043853700893000,15.994892822265625,-0.34697145223617554,-0.1569923609495163,-0.3335324227809906
1788043853716992000,16.010991943359375,-0.30970868468284607,0.1618792861700058,-0.20402899384498596
1788043853733131500,16.027131591796874,-0.2174680233001709,0.33169981837272644,-0.033597588539123535
1788043853749201000,16.043200927734375,-0.11056660860776901,0.28649580478668213,0.13744467496871948
1788043853765275400,16.059275390625,-0.04886921867728233,0.0555887371301651,0.25534167885780334
1788043853781371600,16.07537158203125,-0.051312681287527084,-0.18814650177955627,0.3090978264808655
1788043853797437200,16.091437255859375,-0.10567969083786011,-0.4300491213798523,0.2974913716316223
1788043853813678300,16.10767822265625,-0.1820378452539444,-0.5259549617767334,0.22113321721553802
1788043853829636600,16.12363671875,-0.2681698501110077,-0.5009095072746277,0.08918632566928864
1788043853845739300,16.1397392578125,-0.34208452701568604,-0.36102136969566345,-0.022602014243602753
1788043853861803500,16.155803466796876,-0.4178318381309509,-0.11667526513338089,-0.10995574295520782
1788043853877942800,16.17194287109375,-0.4599815309047699,0.10567969083786011,-0.14477506279945374
1788043853894107000,16.18810693359375,-0.4447098970413208,0.23151792585849762,-0.1362229436635971
1788043853910051600,16.204051513671875,-0.413555771112442,0.242513507604599,-0.11423180252313614
1788043853926189600,16.220189453125,-0.38117989897727966,0.21991148591041565,-0.08246681094169617
1788043853942364700,16.23636474609375,-0.36529740691185,0.182648703455925,-0.05742133408784866
1788043853958452500,16.252452392578125,-0.3689626157283783,0.10506882518529892,-0.06230825558304787
1788043853974579000,16.268578857421875,-0.36529740691185,0.010995574295520782,-0.08979719132184982
1788043853990625000,16.284625,-0.34574973583221436,0.01160643994808197,-0.11056660860776901
1788043854006618000,16.3006181640625,-0.3121521472930908,0.04214970022439957,-0.14416420459747314
1788043854022713900,16.3167138671875,-0.2382374405860901,0.0757472887635231,-0.1814269721508026
1788043854038815500,16.3328154296875,-0.15027284622192383,0.0959058403968811,-0.1869247704744339
1788043854054951200,16.348951171875,-0.09407325088977814,0.1111774742603302,-0.16432274878025055
1788043854071008300,16.36500830078125,-0.08368854224681854,0.06658431142568588,-0.16065755486488342
1788043854087068700,16.381068603515626,-0.08002334833145142,0.01771509274840355,-0.17470745742321014
1788043854103151000,16.397151123046875,-0.06230825558304787,0.030543262138962746,-0.17287486791610718
1788043854119262200,16.41326220703125,-0.03420845419168472,0.09285151958465576,-0.14538592100143433
1788043854135410200,16.42941015625,0.02932153269648552,0.20525072515010834,-0.08491026610136032
1788043854151400200,16.445400146484374,0.12828169763088226,0.29077184200286865,-0.004886921960860491
1788043854167501000,16.4615009765625,0.24373523890972137,0.31031954288482666,0.07391469180583954
1788043854183580400,16.477580322265624,0.3292563557624817,0.252287358045578,0.13866640627384186
1788043854199696400,16.4936962890625,0.3878994286060333,0.15271630883216858,0.1966986060142517
1788043854215849200,16.50984912109375,0.3878994286060333,0.06169738993048668,0.21441370248794556
1788043854231869000,16.525868896484376,0.3488040566444397,0.03481931984424591,0.1918116807937622
1788043854247948300,16.5419482421875,0.2968805134296417,0.08002334833145142,0.1508837193250656
1788043854264024000,16.558024169921875,0.2675589919090271,0.22602014243602753,0.13072516024112701
1788043854280146700,16.574146728515625,0.23945917189121246,0.4001167416572571,0.13255776464939117
1788043854296309800,16.590309814453125,0.21135938167572021,0.5583308339118958,0.12950342893600464
1788043854312343300,16.60634326171875,0.16004669666290283,0.49357911944389343,0.06719517707824707
1788043854328395300,16.622395263671876,0.12095131725072861,0.2767219543457031,-0.019547687843441963
1788043854344514600,16.6385146484375,0.10995574295520782,0.15943582355976105,-0.02687807008624077
1788043854360631300,16.65463134765625,0.09162978827953339,0.05192354694008827,0.02015855349600315
1788043854376810000,16.67081005859375,0.13500121235847473,0.015882495790719986,0.09162978827953339
1788043854392839200,16.686839111328126,0.2541199326515198,0.05864306539297104,0.1417207419872284
1788043854408933400,16.702933349609374,0.3536909818649292,0.13439035415649414,0.1508837193250656
1788043854424976600,16.7189765625,0.3891211748123169,0.1973094791173935,0.14844025671482086
1788043854441060400,16.735060302734375,0.37568211555480957,0.25045475363731384,0.19058994948863983
1788043854457138200,16.75113818359375,0.35063666105270386,0.33169981837272644,0.25045475363731384
1788043854473184500,16.7671845703125,0.32620203495025635,0.3695734739303589,0.27000242471694946
1788043854489144300,16.783144287109376,0.313373863697052,0.2828305959701538,0.1869247704744339
1788043854505299200,16.79929931640625,0.3280346393585205,0.11423180252313614,0.07330382615327835
1788043854521411800,16.815411865234374,0.3701843321323395,-0.016493361443281174,-0.010995574295520782
1788043854537553700,16.8315537109375,0.43799036741256714,-0.13255776464939117,-0.08246681094169617
1788043854553516300,16.847516357421874,0.49846604466438293,-0.182648703455925,-0.13439035415649414
1788043854569547300,16.86354736328125,0.5015203952789307,-0.19914206862449646,-0.16310101747512817
1788043854585775900,16.87977587890625,0.4593706727027893,-0.17837265133857727,-0.17776179313659668
1788043854601831000,16.895830810546876,0.40194934606552124,-0.09346238523721695,-0.18325957655906677
1788043854618003200,16.912003173828126,0.3683517575263977,0.05192354694008827,-0.16554448008537292
1788043854634064000,16.92806396484375,0.3549126982688904,0.17104226350784302,-0.1319468915462494
1788043854650099200,16.94409912109375,0.35674530267715454,0.251676470041275,-0.10262536257505417
1788043854666201600,16.96020166015625,0.35185837745666504,0.24129177629947662,-0.09529497474431992
1788043854682308600,16.97630859375,0.34086281061172485,0.18997909128665924,-0.1007927656173706
1788043854698455600,16.99245556640625,0.30054569244384766,0.05803219974040985,-0.12400564551353455
1788043854714476500,17.0084765625,0.2687807083129883,-0.12339477986097336,-0.13500121235847473
1788043854730493200,17.0244931640625,0.24617868661880493,-0.24923302233219147,-0.09468411654233932
1788043854746670300,17.04067041015625,0.2076941877603531,-0.2779437005519867,-0.04153883829712868
1788043854762786000,17.0567861328125,0.1618792861700058,-0.27550023794174194,0.004886921960860491
1788043854778947600,17.072947509765626,0.13072516024112701,-0.27977627515792847,0.04337143152952194
1788043854794978000,17.08897802734375,0.10018189996480942,-0.30115658044815063,0.06658431142568588
1788043854810996000,17.104995849609374,0.051312681287527084,-0.3090978264808655,0.10445795953273773
1788043854827179000,17.121178955078125,-0.0012217304902151227,-0.22663100063800812,0.18448130786418915
1788043854843265800,17.137265869140624,-0.07635815441608429,-0.1313360333442688,0.2583959996700287
1788043854859439000,17.153439208984373,-0.13377949595451355,-0.12217304855585098,0.26572638750076294
1788043854875369200,17.169369140625,-0.17348572611808777,-0.18509216606616974,0.2125810980796814
1788043854891508000,17.185508056640625,-0.20463985204696655,-0.2064724564552307,0.15271630883216858
1788043854907612400,17.2016123046875,-0.22907446324825287,-0.16554448008537292,0.13377949595451355
1788043854923758300,17.21775830078125,-0.25595253705978394,-0.11667526513338089,0.12889257073402405
1788043854939893800,17.233893798828124,-0.2571742534637451,-0.06780604273080826,0.14477506279945374
1788043854955954200,17.2499541015625,-0.21930062770843506,-0.00733038317412138,0.1814269721508026
1788043854971812600,17.2658125,-0.1716531366109848,-0.02321287989616394,0.18509216606616974
1788043854988039000,17.282038818359375,-0.16249015927314758,-0.375071257352829,0.03176499158143997
1788043855004032500,17.298032470703124,-0.19914206862449646,-0.617584764957428,-0.16371189057826996
1788043855020339700,17.314339599609376,-0.34208452701568604,-0.720820963382721,-0.3280346393585205
1788043855036409000,17.3304091796875,-0.45875978469848633,-0.5803219676017761,-0.41599923372268677
1788043855052241400,17.346241455078125,-0.5180137157440186,-0.15454891324043274,-0.40744712948799133
1788043855068536600,17.36253662109375,-0.44165557622909546,0.3219259977340698,-0.3017674386501312
1788043855084480300,17.378480224609376,-0.304210901260376,0.4990769028663635,-0.1820378452539444
1788043855100722200,17.39472216796875,-0.14966198801994324,0.4447098970413208,-0.03176499158143997
1788043855116656000,17.41065625,-0.060475658625364304,0.26633724570274353,0.15332718193531036
1788043855132710000,17.4267099609375,-0.04948008432984352,0.12095131725072861,0.31031954288482666
1788043855148931600,17.442931640625,-0.07635815441608429,-0.06658431142568588,0.4001167416572571
1788043855165037300,17.459037353515626,-0.1111774742603302,-0.2730567753314972,0.31520646810531616
1788043855181150500,17.475150390625,-0.11362093687057495,-0.4031710624694824,0.10384709388017654
1788043855197172000,17.491171875,-0.12034045159816742,-0.42638394236564636,-0.07819075137376785
1788043855213198800,17.50719873046875,-0.15943582355976105,-0.33292156457901,-0.18875735998153687
1788043855229329200,17.5233291015625,-0.2223549485206604,-0.1765400618314743,-0.20097467303276062
1788043855245450800,17.53945068359375,-0.2767219543457031,-0.06291911751031876,-0.16554448008537292
1788043855261613800,17.55561376953125,-0.33658674359321594,-0.00427605677396059,-0.11972958594560623
1788043855277615000,17.571614990234377,-0.34025195240974426,-0.005497787147760391,-0.08491026610136032
1788043855293723100,17.58772314453125,-0.30604347586631775,0.00427605677396059,-0.06291911751031876
1788043855309801500,17.603801513671876,-0.2675589919090271,0.05192354694008827,-0.04337143152952194
1788043855325855200,17.619855224609374,-0.2376265823841095,0.1111774742603302,-0.021991148591041565
1788043855342060500,17.636060546875,-0.22357667982578278,0.11239920556545258,-0.04764748737215996
1788043855358100700,17.652100830078126,-0.20036379992961884,0.08429940044879913,-0.0757472887635231
1788043855374147300,17.668147216796875,-0.1820378452539444,0.08185594528913498,-0.09407325088977814
1788043855390240800,17.68424072265625,-0.16310101747512817,0.09529497474431992,-0.1007927656173706
1788043855406332700,17.700332763671874,-0.12522737681865692,0.12889257073402405,-0.10567969083786011
1788043855422421000,17.7164208984375,-0.10506882518529892,0.15393804013729095,-0.11667526513338089
1788043855438474800,17.732474853515626,-0.08307767659425735,0.1514945775270462,-0.14844025671482086
1788043855454455000,17.748455078125,-0.048258353024721146,0.18387043476104736,-0.17837265133857727
1788043855470588000,17.764587890625,-0.02321287989616394,0.2528982162475586,-0.182648703455925
1788043855486683000,17.780682861328124,0.027488935738801956,0.3219259977340698,-0.15027284622192383
1788043855502825200,17.7968251953125,0.10384709388017654,0.32681289315223694,-0.09957103431224823
1788043855518887700,17.8128876953125,0.18631389737129211,0.29626965522766113,-0.03787364438176155
1788043855534953700,17.82895361328125,0.26572638750076294,0.24495697021484375,0.030543262138962746
1788043855551066400,17.84506640625,0.3604104816913605,0.18814650177955627,0.10873401165008545
1788043855567152000,17.861152099609374,0.44104471802711487,0.15943582355976105,0.16920967400074005
1788043855583325400,17.877325439453124,0.4862487316131592,0.17959438264369965,0.20097467303276062
1788043855599392800,17.893392822265625,0.5155702829360962,0.20525072515010834,0.1814269721508026
1788043855615470800,17.909470947265625,0.5491678714752197,0.21013765037059784,0.11850785464048386
1788043855631587800,17.925587890625,0.5626068711280823,0.1618792861700058,0.05803219974040985
1788043855647661600,17.94166162109375,0.5485569834709167,0.08246681094169617,0.027488935738801956
1788043855663803000,17.957802978515623,0.5253441333770752,0.04581489413976669,0.02382374368607998
1788043855679811300,17.973811279296875,0.5021312236785889,0.04092797264456749,0.025656340643763542
1788043855695901200,17.989901123046874,0.503963828086853,0.06902777403593063,0.024434609338641167
1788043855712023800,18.00602392578125,0.5076290369033813,0.1062905490398407,0.010995574295520782
1788043855728147200,18.022147216796874,0.4966334402561188,0.15027284622192383,-0.0006108652451075613
1788043855744265700,18.038265625,0.4489859640598297,0.16065755486488342,-0.009162978269159794
1788043855760243200,18.0542431640625,0.3903428912162781,0.1667662113904953,-0.001832595793530345
1788043855776392400,18.070392333984376,0.31642818450927734,0.16554448008537292,0.005497787147760391
1788043855792505600,18.086505615234376,0.26083946228027344,0.15393804013729095,-0.021991148591041565
1788043855808642600,18.102642578125,0.22540926933288574,0.13072516024112701,-0.06352998316287994
1788043855824810000,18.11881005859375,0.1918116807937622,0.09834930300712585,-0.09468411654233932
1788043855840856000,18.13485595703125,0.15393804013729095,0.10384709388017654,-0.0861319974064827
1788043855856951800,18.150951904296875,0.13927727937698364,0.10873401165008545,-0.05864306539297104
1788043855873074000,18.167073974609377,0.14416420459747314,0.1014036312699318,-0.04092797264456749
1788043855889118200,18.1831181640625,0.1667662113904953,0.09040805697441101,-0.025045474991202354
1788043855905291300,18.199291259765626,0.18325957655906677,0.0708603709936142,-0.02015855349600315
1788043855921347000,18.21534716796875,0.1875356286764145,0.05864306539297104,-0.01466076634824276
1788043855937405700,18.23140576171875,0.17348572611808777,0.05497787147760391,0
1788043855953438700,18.247438720703126,0.16310101747512817,0.03481931984424591,0.0012217304902151227
1788043855969535000,18.263534912109375,0.16737708449363708,-0.0024434609804302454,-0.018936822190880775
1788043855985672200,18.279672119140624,0.1716531366109848,-0.018325956538319588,-0.028099801391363144
1788043856001735200,18.295735107421876,0.1716531366109848,0.00855211354792118,-0.01466076634824276
1788043856017799700,18.311799560546874,0.17898350954055786,0.036041051149368286,-0.006719517521560192
1788043856033880000,18.327880126953126,0.1722639948129654,0.04337143152952194,-0.009773843921720982
1788043856049994000,18.343993896484374,0.15332718193531036,0.05192354694008827,-0.012828170321881771
1788043856066095900,18.360095947265624,0.13072516024112701,0.09529497474431992,-0.01771509274840355
1788043856082113800,18.37611376953125,0.11667526513338089,0.12339477986097336,-0.01466076634824276
1788043856098123300,18.392123291015626,0.10445795953273773,0.11484266817569733,-0.00855211354792118
1788043856114217500,18.408217529296873,0.09651670604944229,0.10201449692249298,0.00366519158706069
1788043856130333700,18.424333740234374,0.08674286305904388,0.08246681094169617,0.022602014243602753
1788043856146491600,18.44049169921875,0.07452555745840073,0.0708603709936142,0.031154127791523933
1788043856162516000,18.456515869140624,0.06169738993048668,0.05803219974040985,0.03726277872920036
1788043856178531800,18.47253173828125,0.04642575979232788,0.06230825558304787,0.029932396486401558
1788043856194679600,18.488679443359374,0.03298672288656235,0.06902777403593063,0.013439035043120384
1788043856210811000,18.504810791015625,0.010995574295520782,0.0757472887635231,-0.0012217304902151227
1788043856226978600,18.520978515625,-0.012828170321881771,0.0806342139840126,0.01038470957428217
1788043856243012400,18.537012451171876,-0.031154127791523933,0.07452555745840073,0.014049900695681572
1788043856259051800,18.5530517578125,-0.03298672288656235,0.04398229718208313,0.005497787147760391
1788043856275199700,18.56919970703125,-0.0403171069920063,0.0403171069920063,-0.001832595793530345
1788043856291330000,18.585330078125,-0.04642575979232788,0.06963863968849182,0.009773843921720982
1788043856307460600,18.601460693359375,-0.04764748737215996,0.07757988572120667,0.030543262138962746
1788043856323495400,18.617495361328125,-0.048258353024721146,0.0757472887635231,0.03420845419168472
1788043856339558100,18.63355810546875,-0.04886921867728233,0.07635815441608429,0.031154127791523933
1788043856355653600,18.649653564453125,-0.05009094998240471,0.05864306539297104,0.022602014243602753
1788043856371723500,18.6657236328125,-0.04153883829712868,0.028099801391363144,0.006108652334660292
1788043856387881200,18.681881103515625,-0.036651913076639175,0.00733038317412138,-0.00733038317412138
1788043856403935000,18.69793505859375,-0.03787364438176155,0.007941247895359993,-0.010995574295520782
1788043856419957800,18.713957763671875,-0.03481931984424591,0.031154127791523933,-0.00733038317412138
1788043856436053500,18.730053466796875,-0.0354301854968071,0.02687807008624077,-0.007941247895359993
1788043856452107000,18.74610693359375,-0.033597588539123535,0.010995574295520782,-0.00855211354792118
1788043856468303400,18.762303466796876,-0.029932396486401558,-0.004886921960860491,-0.003054326167330146
1788043856484370400,18.778370361328125,-0.02871066704392433,-0.009773843921720982,0.00366519158706069
1788043856500441300,18.79444140625,-0.03481931984424591,-0.007941247895359993,0.00427605677396059
1788043856516576500,18.810576416015625,-0.0507018156349659,-0.01038470957428217,-0.006719517521560192
1788043856532691200,18.826691162109373,-0.06108652427792549,-0.01038470957428217,-0.01466076634824276
1788043856548844300,18.84284423828125,-0.0659734457731247,-0.01160643994808197,-0.02626720629632473
1788043856564839700,18.858839599609375,-0.06841690838336945,-0.021991148591041565,-0.0403171069920063
1788043856580851700,18.874851806640624,-0.08246681094169617,-0.016493361443281174,-0.04153883829712868
1788043856597078000,18.891078125,-0.09468411654233932,0.010995574295520782,-0.018325956538319588
1788043856613193700,18.90719384765625,-0.1014036312699318,0.0006108652451075613,-0.01466076634824276
1788043856629359400,18.923359375,-0.10018189996480942,-0.016493361443281174,-0.02076941914856434
1788043856645329000,18.939328857421874,-0.09896016865968704,0,-0.009773843921720982
1788043856661326800,18.955326904296875,-0.1007927656173706,0.030543262138962746,0.004886921960860491
1788043856677538300,18.971538330078126,-0.0910189226269722,0.039095375686883926,0.006719517521560192
1788043856693687800,18.987687744140626,-0.06108652427792549,0.04214970022439957,-0.009162978269159794
1788043856709864200,19.0038642578125,-0.039706241339445114,0.03481931984424591,-0.033597588539123535
1788043856725843200,19.01984326171875,-0.025656340643763542,0.02871066704392433,-0.0354301854968071
1788043856741831700,19.035831787109377,-0.02321287989616394,0.01466076634824276,-0.018936822190880775
1788043856758084900,19.0520849609375,-0.02382374368607998,-0.015882495790719986,-0.012828170321881771
1788043856774135600,19.068135498046875,-0.012828170321881771,-0.021991148591041565,-0.013439035043120384
1788043856790312400,19.0843125,-0.0012217304902151227,-0.00855211354792118,-0.01771509274840355
1788043856806363600,19.10036376953125,0.01710422709584236,0.02382374368607998,-0.00366519158706069
1788043856822413600,19.11641357421875,0.028099801391363144,0.016493361443281174,0
1788043856838534400,19.132534423828126,0.029932396486401558,0,-0.006719517521560192
1788043856854614300,19.1486142578125,0.018936822190880775,0.006719517521560192,-0.006719517521560192
1788043856870752000,19.164751953125,-0.003054326167330146,0.027488935738801956,-0.009162978269159794
1788043856886808300,19.180808349609375,-0.005497787147760391,0.00366519158706069,-0.02015855349600315
1788043856902822100,19.196822265625,-0.004886921960860491,-0.0012217304902151227,-0.02687807008624077
1788043856918944000,19.212944091796874,-0.009773843921720982,0.033597588539123535,-0.036651913076639175
1788043856935047000,19.229046875,-0.013439035043120384,0.05253441259264946,-0.05375614017248154
1788043856951144400,19.24514453125,-0.018325956538319588,0.0507018156349659,-0.06108652427792549
1788043856967164200,19.2611640625,-0.025656340643763542,0.03481931984424591,-0.08368854224681854
1788043856983175000,19.2771748046875,-0.02382374368607998,-0.01710422709584236,-0.11667526513338089
1788043856999315000,19.29331494140625,-0.025656340643763542,-0.028099801391363144,-0.10934487730264664
1788043857015433500,19.30943359375,-0.025656340643763542,-0.016493361443281174,-0.07819075137376785
1788043857031541200,19.325541259765625,0.001832595793530345,0.006108652334660292,-0.06108652427792549
1788043857047566600,19.341566650390625,0.03176499158143997,0.01160643994808197,-0.048258353024721146
1788043857063643100,19.35764306640625,0.04398229718208313,0.015271631069481373,-0.03848451003432274
1788043857079725600,19.3737255859375,0.06352998316287994,0.012828170321881771,-0.02687807008624077
1788043857095845600,19.389845703125,0.07330382615327835,0.025045474991202354,-0.003054326167330146
1788043857111960800,19.4059609375,0.07635815441608429,0.03726277872920036,0.01160643994808197
1788043857127990300,19.421990234375,0.09162978827953339,0.05192354694008827,0.010995574295520782
1788043857144010800,19.4380107421875,0.10812314599752426,0.06169738993048668,0.004886921960860491
1788043857160158700,19.45415869140625,0.1160643994808197,0.0555887371301651,-0.004886921960860491
1788043857176283100,19.470283203125,0.12461651116609573,0.04337143152952194,-0.015882495790719986
1788043857192419300,19.48641943359375,0.13988813757896423,0.056810468435287476,-0.019547687843441963
1788043857208468500,19.502468505859376,0.1472185254096985,0.11301007121801376,-0.022602014243602753
1788043857224485600,19.518485595703126,0.1508837193250656,0.13316862285137177,-0.05009094998240471
1788043857240667100,19.534667236328126,0.15821409225463867,0.10445795953273773,-0.11178833991289139
1788043857256754700,19.550754638671876,0.1771509200334549,0.07391469180583954,-0.152105450630188
1788043857272887000,19.566886962890624,0.2064724564552307,0.08796459436416626,-0.13866640627384186
1788043857288938000,19.58293798828125,0.23335053026676178,0.13011430203914642,-0.10690141469240189
1788043857304974800,19.598974853515625,0.26450464129447937,0.13561208546161652,-0.08429940044879913
