time,seconds_elapsed,z,y,x
1788043837802239500,0.096239501953125,7.441178798675537,6.110002517700195,-0.26575639843940735
1788043837818319400,0.1123193359375,7.429207801818848,6.145915985107422,-0.40701428055763245
1788043837834404000,0.128404052734375,7.493851184844971,6.2201361656188965,-0.2585737705230713
1788043837850495200,0.1444951171875,7.529764175415039,6.229712963104248,-0.10295066982507706
1788043837866615600,0.160615478515625,7.539340972900391,6.275202751159668,-0.08858546614646912
1788043837882657500,0.176657470703125,7.759607791900635,6.27280855178833,-0.10534487664699554
1788043837898746400,0.192746337890625,7.905653953552246,6.18182897567749,-0.05267243832349777
1788043837914843600,0.20884375,7.577648162841797,6.157886981964111,-0.09576806426048279
1788043837930901000,0.22490087890625,7.314286231994629,6.256049156188965,-0.1867477297782898
1788043837947033000,0.241033203125,7.350199222564697,6.320692539215088,-0.12689268589019775
1788043837963086600,0.257086669921875,7.661445617675781,6.289567947387695,-0.031124621629714966
1788043837979187000,0.27318701171875,7.773972988128662,6.236895561218262,-0.07661445438861847
1788043837995294700,0.289294677734375,7.7213006019592285,6.229712963104248,-0.15322890877723694
1788043838027454000,0.321453857421875,7.723694801330566,6.200982570648193,-0.1364694982767105
1788043838043518000,0.33751806640625,7.740454196929932,6.224924564361572,-0.11252748221158981
1788043838059624200,0.353624267578125,7.618350028991699,6.289567947387695,-0.05267243832349777
1788043838075687400,0.3696875,7.536946773529053,6.358999729156494,-0.004788403399288654
1788043838091763200,0.38576318359375,7.524975776672363,6.358999729156494,0.004788403399288654
1788043838107849700,0.401849609375,7.491456985473633,6.349422931671143,0.08619125932455063
1788043838123918600,0.417918701171875,7.5201873779296875,6.36378812789917,0.06703764945268631
1788043838140034800,0.434034912109375,7.594407558441162,6.3949127197265625,0.08858546614646912
1788043838156103700,0.450103759765625,7.694964408874512,6.385335922241211,0.06224924325942993
1788043838172191500,0.46619140625,7.824251174926758,6.335057735443115,0
1788043838188277000,0.482277099609375,7.7763671875,6.294356346130371,-0.07182604819536209
1788043838204355000,0.49835498046875,7.592013359069824,6.332663536071777,-0.043095629662275314
1788043838220483800,0.51448388671875,7.524975776672363,6.378153324127197,0.07661445438861847
1788043838236571000,0.53057080078125,7.479485988616943,6.380547523498535,0.06224924325942993
1788043838252668200,0.546668212890625,7.577648162841797,6.370970726013184,-0.047884032130241394
1788043838268747800,0.562747802734375,7.795520782470703,6.3063273429870605,-0.14844051003456116
1788043838284790300,0.578790283203125,7.845798969268799,6.2847795486450195,-0.1388636976480484
1788043838300878800,0.59487890625,7.723694801330566,6.308721542358398,-0.06703764945268631
1788043838316967200,0.61096728515625,7.577648162841797,6.375759124755859,-0.031124621629714966
1788043838332979000,0.62697900390625,7.630321025848389,6.390124320983887,-0.004788403399288654
1788043838349081600,0.64308154296875,7.623138427734375,6.36378812789917,0.08140286058187485
1788043838365126700,0.659126708984375,7.671022415161133,6.323086738586426,0.11252748221158981
1788043838381222400,0.675222412109375,7.534552574157715,6.320692539215088,-0.0071826050989329815
1788043838397326800,0.691326904296875,7.4100542068481445,6.303933143615723,-0.06703764945268631
1788043838413390300,0.707390380859375,7.445967197418213,6.299144744873047,-0.11013327538967133
1788043838429518000,0.72351806640625,7.608773231506348,6.287173748016357,-0.10773907601833344
1788043838445569000,0.739569091796875,7.718906402587891,6.299144744873047,-0.13168109953403473
1788043838461675800,0.75567578125,7.687781810760498,6.265625953674316,-0.13407529890537262
1788043838477786000,0.7717861328125,7.642292022705078,6.277596950531006,-0.10055647045373917
1788043838493860900,0.78786083984375,7.654263019561768,6.27280855178833,-0.10773907601833344
1788043838509981400,0.8039814453125,7.702147006988525,6.2632317543029785,-0.14604631066322327
1788043838526048000,0.820048095703125,7.649474620819092,6.299144744873047,-0.21308395266532898
1788043838542161700,0.83616162109375,7.601590633392334,6.3063273429870605,-0.19153612852096558
1788043838558229200,0.852229248046875,7.6351094245910645,6.303933143615723,-0.08379705995321274
1788043838574265300,0.868265380859375,7.613561630249023,6.311115741729736,0.004788403399288654
1788043838590396200,0.884396240234375,7.682993412017822,6.349422931671143,0.028730420395731926
1788043838606465800,0.9004658203125,7.829039573669434,6.327875137329102,0.019153613597154617
1788043838622587600,0.916587646484375,7.819462776184082,6.320692539215088,0.026336219161748886
1788043838638660600,0.93266064453125,7.723694801330566,6.378153324127197,-0.040701430290937424
1788043838654750700,0.948750732421875,7.6351094245910645,6.404489517211914,0.021547814831137657
1788043838670876200,0.964876220703125,7.747636795043945,6.3949127197265625,0.2298433631658554
1788043838686969600,0.980969482421875,7.68538761138916,6.426037311553955,0.22505496442317963
1788043838703106300,0.997106201171875,7.592013359069824,6.402095317840576,0.16998831927776337
1788043838719198200,1.0131982421875,7.393294811248779,6.378153324127197,0.12449848651885986
1788043838735293700,1.029293701171875,7.33583402633667,6.3973069190979,0.05506663769483566
1788043838751420400,1.04542041015625,7.268796443939209,6.344634532928467,-0.0071826050989329815
1788043838767467000,1.061467041015625,7.2137298583984375,6.339846134185791,-0.07900865375995636
1788043838783554800,1.077554931640625,7.184999465942383,6.392518520355225,-0.023942016065120697
1788043838799649500,1.0936494140625,7.333439826965332,6.390124320983887,-0.023942016065120697
1788043838815660500,1.10966064453125,7.63989782333374,6.387730121612549,-0.031124621629714966
1788043838831730400,1.12573046875,7.845798969268799,6.332663536071777,-0.05985504388809204
1788043838847784000,1.141783935546875,7.812280178070068,6.3302693367004395,-0.10534487664699554
1788043838871967000,1.165967041015625,7.536946773529053,6.418854713439941,-0.09576806426048279
1788043838888027000,1.18202685546875,7.627926826477051,6.411672115325928,-0.021547814831137657
1788043838904048600,1.198048583984375,7.745242595672607,6.3302693367004395,-0.028730420395731926
1788043838920149800,1.214149658203125,7.819462776184082,6.289567947387695,-0.1412578970193863
1788043838936216600,1.230216552734375,7.750030994415283,6.268020153045654,-0.19153612852096558
1788043838952346400,1.246346435546875,7.560888767242432,6.287173748016357,-0.1388636976480484
1788043838968415700,1.262415771484375,7.450755596160889,6.347028732299805,-0.004788403399288654
1788043838984436500,1.2784365234375,7.42681360244751,6.399701118469238,0.14604631066322327
1788043839000552400,1.294552490234375,7.594407558441162,6.45476770401001,0.2322375625371933
1788043839016583400,1.31058349609375,7.560888767242432,6.452373504638672,0.22744916379451752
1788043839032678100,1.32667822265625,7.548917770385742,6.466738700866699,0.15322890877723694
1788043839048755200,1.342755126953125,7.565677165985107,6.426037311553955,0.17956513166427612
1788043839064781000,1.358781005859375,7.620744228363037,6.404489517211914,0.12928688526153564
1788043839080891600,1.3748916015625,7.783549785614014,6.358999729156494,0.019153613597154617
1788043839096951800,1.390951904296875,7.7643961906433105,6.3733649253845215,0.0071826050989329815
1788043839113048600,1.407048583984375,7.575253963470459,6.3949127197265625,0.021547814831137657
1788043839129134000,1.423134033203125,7.445967197418213,6.411672115325928,-0.002394201699644327
1788043839145212000,1.4392119140625,7.390900611877441,6.433219909667969,0.009576806798577309
1788043839161344300,1.45534423828125,7.433996200561523,6.385335922241211,-0.023942016065120697
1788043839177440500,1.4714404296875,7.582436561584473,6.375759124755859,-0.031124621629714966
1788043839193546800,1.487546630859375,7.592013359069824,6.406883716583252,-0.038307227194309235
1788043839209588500,1.50358837890625,7.4986395835876465,6.428431510925293,-0.05267243832349777
1788043839225672000,1.519671875,7.390900611877441,6.490680694580078,-0.043095629662275314
1788043839241751800,1.535751708984375,7.386112213134766,6.473921298980713,-0.08379705995321274
1788043839257805600,1.5518056640625,7.47230339050293,6.44279670715332,-0.07661445438861847
1788043839273923600,1.567923583984375,7.627926826477051,6.4595561027526855,-0.05027823522686958
1788043839289973500,1.583973388671875,7.6782050132751465,6.469132900238037,-0.0454898327589035
1788043839306069500,1.600069580078125,7.572859764099121,6.512228488922119,-0.08379705995321274
1788043839322155500,1.616155517578125,7.493851184844971,6.593631267547607,-0.11971008777618408
1788043839338168300,1.632168212890625,7.445967197418213,6.600813865661621,-0.08619125932455063
1788043839354292500,1.64829248046875,7.630321025848389,6.588842868804932,-0.019153613597154617
1788043839370351400,1.664351318359375,7.6351094245910645,6.5481414794921875,0.035913024097681046
1788043839386449400,1.680449462890625,7.565677165985107,6.540958881378174,-0.033518824726343155
1788043839402532400,1.696532470703125,7.4986395835876465,6.485892295837402,-0.15322890877723694
1788043839418605600,1.71260546875,7.513004779815674,6.4380083084106445,-0.20111294090747833
1788043839434745600,1.72874560546875,7.4555439949035645,6.423643112182617,-0.15801730751991272
1788043839450811000,1.744810791015625,7.38132381439209,6.445190906524658,-0.08858546614646912
1788043839466922200,1.760922119140625,7.340622425079346,6.404489517211914,0.031124621629714966
1788043839483028200,1.7770283203125,7.254431247711182,6.414066314697266,0.08379705995321274
1788043839499104000,1.79310400390625,7.15387487411499,6.481103897094727,0.028730420395731926
1788043839515236900,1.80923681640625,7.089231014251709,6.464344501495361,-0.011971008032560349
1788043839531308500,1.82530859375,7.173028469085693,6.440402507781982,-0.047884032130241394
1788043839547371500,1.84137158203125,7.398083209991455,6.390124320983887,-0.06224924325942993
1788043839563486500,1.857486572265625,7.424419403076172,6.335057735443115,-0.07661445438861847
1788043839579528000,1.87352783203125,7.338228225708008,6.375759124755859,-0.181959331035614
1788043839595627500,1.88962744140625,7.405265808105469,6.392518520355225,-0.2537853717803955
1788043839611715000,1.905715087890625,7.625532627105713,6.375759124755859,-0.24899697303771973
1788043839627828000,1.921827880859375,7.63989782333374,6.447585105895996,-0.3280056416988373
1788043839643959000,1.937958984375,7.548917770385742,6.57926607131958,-0.21547815203666687
1788043839660063500,1.9540634765625,7.264008045196533,6.710947513580322,0.0694318488240242
1788043839676183000,1.97018310546875,6.995857238769531,6.8593878746032715,0.3902548849582672
1788043839692280000,1.986280029296875,6.993463039398193,6.976703643798828,0.47405192255973816
1788043839708403200,2.0024033203125,7.1921820640563965,6.995857238769531,0.5674257874488831
1788043839724499200,2.018499267578125,7.489062786102295,6.904877662658691,0.49799394607543945
1788043839740561400,2.0345615234375,7.90086555480957,6.746860504150391,0.3519476354122162
1788043839756685800,2.050685791015625,8.078036308288574,6.531382083892822,0.28730419278144836
1788043839772741400,2.066741455078125,7.843404769897461,6.40927791595459,0.2322375625371933
1788043839788868000,2.0828681640625,7.422025203704834,6.342240333557129,0.1628057211637497
1788043839804971500,2.098971435546875,7.058106422424316,6.313509941101074,0.1628057211637497
1788043839821035500,2.115035400390625,7.067683219909668,6.313509941101074,0.24420857429504395
1788043839837163300,2.131163330078125,6.94079065322876,6.337451934814453,0.23942017555236816
1788043839853163300,2.147163330078125,6.751648902893066,6.382941722869873,0.12689268589019775
1788043839869299700,2.1632998046875,6.780379295349121,6.476315498352051,-0.06224924325942993
1788043839885403400,2.1794033203125,7.029376029968262,6.519411087036133,-0.19393034279346466
1788043839901483000,2.19548291015625,7.3693528175354,6.50025749206543,-0.17238251864910126
1788043839917614300,2.2116142578125,7.623138427734375,6.464344501495361,-0.08858546614646912
1788043839933635300,2.22763525390625,7.785943984985352,6.447585105895996,0.09576806426048279
1788043839949750300,2.243750244140625,7.783549785614014,6.476315498352051,0.2298433631658554
1788043839965842400,2.259842529296875,7.527369976043701,6.5050458908081055,0.24420857429504395
1788043839981868800,2.275868896484375,7.347805023193359,6.629544734954834,0.16998831927776337
1788043839997959400,2.29195947265625,7.275979042053223,6.751648902893066,0.047884032130241394
1788043840014029800,2.30802978515625,7.084442615509033,6.847416877746582,-0.05027823522686958
1788043840030099700,2.324099609375,6.806715488433838,6.878541469573975,-0.009576806798577309
1788043840046210300,2.340210205078125,6.856993675231934,6.907271862030029,-0.07182604819536209
1788043840062292200,2.356292236328125,7.072471618652344,6.833051681518555,-0.1843535304069519
1788043840078388500,2.372388427734375,7.249642848968506,6.655880928039551,-0.14604631066322327
1788043840094461400,2.38846142578125,7.481880187988281,6.593631267547607,0.05985504388809204
1788043840110528000,2.404528076171875,7.735665798187256,6.62236213684082,0.3064578175544739
1788043840126645000,2.42064501953125,7.620744228363037,6.629544734954834,0.49559974670410156
1788043840142738000,2.436738037109375,7.2352776527404785,6.7492547035217285,0.395043283700943
1788043840158839800,2.45283984375,6.787561893463135,6.8809356689453125,0.28730419278144836
1788043840174923800,2.468923828125,6.5265936851501465,6.866570472717285,0.40940847992897034
1788043840191005700,2.485005615234375,6.562506675720215,6.818686485290527,0.47165772318840027
1788043840207083500,2.50108349609375,6.651092529296875,6.730101108551025,0.45010992884635925
1788043840223135500,2.517135498046875,6.773196697235107,6.739677906036377,0.42377370595932007
1788043840239244300,2.533244384765625,7.038952827453613,6.718130111694336,0.28969839215278625
1788043840255287800,2.549287841796875,7.319074630737305,6.703764915466309,0.10773907601833344
1788043840271373300,2.565373291015625,7.445967197418213,6.6846113204956055,0.07900865375995636
1788043840287459300,2.581459228515625,7.395689010620117,6.670246124267578,0.12449848651885986
1788043840303521000,2.59752099609375,7.371747016906738,6.643909931182861,0.11252748221158981
1788043840319648000,2.61364794921875,7.548917770385742,6.6127848625183105,0.07900865375995636
1788043840335709000,2.629708984375,7.714118003845215,6.619967937469482,0.11971008777618408
1788043840351766000,2.64576611328125,7.86734676361084,6.576871871948242,0.21787235140800476
1788043840367851300,2.661851318359375,8.08282470703125,6.521805286407471,0.181959331035614
1788043840383915000,2.6779150390625,8.324639320373535,6.423643112182617,0.2059013396501541
1788043840400044000,2.6940439453125,8.33182144165039,6.392518520355225,0.17717093229293823
1788043840416100600,2.7101005859375,8.20732307434082,6.507440090179443,0.14844051003456116
1788043840432213500,2.726213623046875,7.908048152923584,6.734889507293701,-0.06703764945268631
1788043840448341800,2.742341796875,7.733271598815918,7.01979923248291,-0.2968810200691223
1788043840464422700,2.758422607421875,7.910442352294922,7.16584587097168,-0.304063618183136
1788043840480513000,2.774512939453125,8.418013572692871,7.161057472229004,-0.10773907601833344
1788043840496589600,2.790589599609375,9.390059471130371,7.079654216766357,0.07182604819536209
1788043840512659000,2.806658935546875,10.278307914733887,6.830657482147217,0.12449848651885986
1788043840528760000,2.822760009765625,10.520122528076172,6.528987884521484,0.40222588181495667
1788043840544825300,2.838825439453125,9.885659217834473,6.31829833984375,0.667982280254364
1788043840560919300,2.854919189453125,9.459490776062012,6.258443355560303,0.6655880808830261
1788043840576996600,2.87099658203125,9.354146003723145,6.057330131530762,0.5171475410461426
1788043840593058000,2.88705810546875,9.167398452758789,5.729324817657471,0.21308395266532898
1788043840609186800,2.903186767578125,8.62630844116211,5.4875102043151855,-0.38546648621559143
1788043840625283800,2.919283935546875,7.702147006988525,5.3582234382629395,-1.036689281463623
1788043840641395200,2.935395263671875,6.921637058258057,5.556941986083984,-1.7764976024627686
1788043840657433600,2.95143359375,6.607996463775635,5.655104637145996,-1.9321208000183105
1788043840673557200,2.96755712890625,6.94079065322876,5.609614372253418,-1.5155296325683594
1788043840689637000,2.98363720703125,7.649474620819092,5.363011837005615,-0.8834604024887085
1788043840705645300,2.999645263671875,8.214506149291992,5.12119722366333,-0.45010992884635925
1788043840721761500,3.015761474609375,8.29830265045166,4.9583916664123535,-0.18914192914962769
1788043840737804800,3.0318046875,7.922413349151611,4.841075897216797,-0.07182604819536209
1788043840753876700,3.047876708984375,7.5848307609558105,4.908113479614258,-0.16759411990642548
1788043840769977300,3.063977294921875,7.364564418792725,4.881777286529541,-0.363918662071228
1788043840786048800,3.080048828125,7.297526836395264,4.786009311676025,-0.48602294921875
1788043840802181400,3.096181396484375,7.283161640167236,4.802768707275391,-0.646434485912323
1788043840818243300,3.112243408203125,7.364564418792725,4.867412090301514,-0.7805097699165344
1788043840834317600,3.128317626953125,7.230489253997803,4.932055473327637,-0.8092401623725891
1788043840850420200,3.144420166015625,6.952761650085449,5.147533416748047,-0.7445967197418213
1788043840866494000,3.160493896484375,6.828263282775879,5.413290023803711,-0.6177040338516235
1788043840882581800,3.176581787109375,6.833051681518555,5.60722017288208,-0.31124621629714966
1788043840898635800,3.1926357421875,6.938396453857422,5.748478412628174,-0.026336219161748886
1788043840914726400,3.208726318359375,6.89530086517334,5.880159378051758,0.0454898327589035
1788043840930840300,3.22484033203125,7.058106422424316,6.081272125244141,-0.19871874153614044
1788043840946921000,3.2409208984375,7.254431247711182,6.186617374420166,-0.44771572947502136
1788043840963013400,3.257013427734375,7.46033239364624,6.256049156188965,-0.6224924325942993
1788043840979092000,3.273092041015625,7.773972988128662,6.3973069190979,-0.7876923680305481
1788043840995165400,3.28916552734375,8.063671112060547,6.524199485778809,-0.7493851184844971
1788043841011287600,3.30528759765625,8.221688270568848,6.67982292175293,-0.6607996821403503
1788043841027370800,3.321370849609375,8.40843677520752,6.8162922859191895,-0.5530605912208557
1788043841043463700,3.337463623046875,8.59997272491455,6.947973251342773,-0.2753331959247589
1788043841059533800,3.353533935546875,8.887276649475098,7.079654216766357,0.12689268589019775
1788043841075555800,3.369555908203125,8.920795440673828,7.225700855255127,0.18914192914962769
1788043841091664100,3.3856640625,8.367734909057617,7.65186882019043,-0.3471592366695404
1788043841107755300,3.40175537109375,7.666234016418457,7.438784599304199,-0.011971008032560349
1788043841123860200,3.417860107421875,7.41484260559082,7.117961883544922,0.33518823981285095
1788043841139901400,3.4339013671875,8.099584579467773,6.964732646942139,0.2537853717803955
1788043841155988000,3.449988037109375,9.651026725769043,6.337451934814453,0.33279404044151306
1788043841172065300,3.466065185546875,10.776301383972168,5.623979568481445,0.42856210470199585
1788043841188100000,3.48210009765625,10.706870079040527,5.109226226806641,0.19393034279346466
1788043841204198000,3.498197998046875,9.576807022094727,5.03021764755249,-0.181959331035614
1788043841220238000,3.514238037109375,8.307879447937012,5.245696067810059,-0.4620809257030487
1788043841236318200,3.530318115234375,7.448361396789551,5.501875400543213,-0.49320554733276367
1788043841252385000,3.546385009765625,7.340622425079346,5.5545477867126465,-0.2537853717803955
1788043841268379600,3.562379638671875,7.649474620819092,5.3342814445495605,0.22266076505184174
1788043841284496600,3.57849658203125,8.030152320861816,5.125985622406006,0.5099649429321289
1788043841300548400,3.59454833984375,8.219294548034668,4.95120906829834,0.6105214357376099
1788043841316644600,3.61064453125,8.281543731689453,4.908113479614258,0.7757213711738586
1788043841332737000,3.626737060546875,8.015787124633789,4.946420669555664,0.7996633648872375
1788043841348760000,3.642760009765625,7.553706169128418,5.027823448181152,0.5770025849342346
1788043841364891400,3.658891357421875,7.048529624938965,5.080495834350586,0.2346317619085312
1788043841380947000,3.674947021484375,6.8593878746032715,5.109226226806641,0.002394201699644327
1788043841397054500,3.691054443359375,6.7492547035217285,5.1810526847839355,-0.08140286058187485
1788043841413155300,3.7071552734375,6.557718276977539,5.284003257751465,-0.0694318488240242
1788043841429231600,3.723231689453125,6.174646377563477,5.420472621917725,-0.014365210197865963
1788043841445369300,3.739369384765625,6.074089527130127,5.580883979797363,0.07422025501728058
1788043841461439500,3.755439453125,6.390124320983887,5.652710437774658,0.16998831927776337
1788043841477560000,3.77156005859375,6.885724067687988,5.60722017288208,-0.05985504388809204
1788043841493675000,3.787675048828125,7.271190643310547,5.52821159362793,-0.33279404044151306
1788043841509760300,3.80376025390625,7.3693528175354,5.588066577911377,-0.363918662071228
1788043841525855500,3.81985546875,7.429207801818848,5.743690013885498,-0.3232172429561615
1788043841541934800,3.835934814453125,7.484274387359619,5.863399982452393,-0.11252748221158981
1788043841558040600,3.85204052734375,7.632715225219727,6.023811340332031,0.0454898327589035
1788043841574164200,3.868164306640625,7.728483200073242,6.162675380706787,0.07661445438861847
1788043841590212400,3.88421240234375,8.022970199584961,6.172252178192139,-0.10055647045373917
1788043841606321200,3.900321044921875,8.542511940002441,6.117185115814209,-0.49559974670410156
1788043841622413600,3.91641357421875,9.093177795410156,6.090848922729492,-0.9026140570640564
1788043841638530800,3.93253076171875,9.533711433410645,6.1315507888793945,-1.0438719987869263
1788043841654598400,3.948598388671875,9.77791976928711,6.150704383850098,-0.8667010068893433
1788043841670646000,3.96464599609375,9.720458984375,6.191405773162842,-0.395043283700943
1788043841686757600,3.980757568359375,9.378087997436523,6.270414352416992,0.3495534360408783
1788043841702807800,3.996807861328125,8.578424453735352,6.584054470062256,0.6775590777397156
1788043841718884400,4.01288427734375,7.326257228851318,7.184999465942383,0.3232172429561615
1788043841734972000,4.028971923828125,6.835445880889893,7.275979042053223,0.047884032130241394
1788043841751026700,4.045026611328125,7.6566572189331055,7.146692276000977,-0.5434837937355042
1788043841767150000,4.061150146484375,9.909601211547852,6.5050458908081055,-0.950498104095459
1788043841783164200,4.0771640625,11.681309700012207,5.710171222686768,-1.0414776802062988
1788043841799232000,4.09323193359375,12.265495300292969,5.1331682205200195,-1.1994950771331787
1788043841815332400,4.109332275390625,11.298237800598145,4.850652694702148,-1.0271124839782715
1788043841831387600,4.1253876953125,9.030928611755371,5.080495834350586,-0.7829039692878723
1788043841847503600,4.141503662109375,7.3023152351379395,5.542576789855957,-0.6488286852836609
1788043841863561500,4.1575615234375,6.603208065032959,5.659893035888672,-0.5267243981361389
1788043841879587000,4.173587158203125,6.909666061401367,5.614402770996094,-0.4812345504760742
1788043841895683600,4.18968359375,7.627926826477051,5.322310447692871,-0.5099649429321289
1788043841911767300,4.205767333984375,8.075642585754395,4.932055473327637,-0.5554547905921936
1788043841927850000,4.22185009765625,8.11634349822998,4.707000732421875,-0.5913678407669067
1788043841943913500,4.23791357421875,8.015787124633789,4.6471452713012695,-0.507570743560791
1788043841959987700,4.25398779296875,8.042123794555664,4.553771495819092,-0.19153612852096558
1788043841976108800,4.27010888671875,8.027758598327637,4.469974517822266,0.20350714027881622
1788043841992147700,4.286147705078125,7.850587368011475,4.4077253341674805,0.3998316824436188
1788043842008245000,4.302244873046875,7.479485988616943,4.345476150512695,0.33039984107017517
1788043842024336400,4.31833642578125,7.110779285430908,4.280832767486572,0.15562310814857483
1788043842040423400,4.33442333984375,6.720524311065674,4.316745758056641,-0.0071826050989329815
1788043842056508200,4.350508056640625,6.4595561027526855,4.441244125366211,0.0694318488240242
1788043842072539400,4.366539306640625,6.347028732299805,4.6255974769592285,0.3256114423274994
1788043842088649700,4.382649658203125,6.433219909667969,4.841075897216797,0.5267243981361389
1788043842104733700,4.398733642578125,6.50025749206543,5.058948040008545,0.40222588181495667
1788043842120825900,4.414825927734375,6.593631267547607,5.214571475982666,0.20111294090747833
1788043842136911000,4.4309111328125,7.053318023681641,5.2911858558654785,-0.17717093229293823
1788043842152966000,4.4469658203125,7.812280178070068,5.307945251464844,-0.5386953949928284
1788043842169077500,4.463077392578125,8.427590370178223,5.284003257751465,-0.6943184733390808
1788043842185128200,4.479128173828125,8.81784439086914,5.389348030090332,-0.849941611289978
1788043842201227000,4.49522705078125,9.196128845214844,5.65031623840332,-1.139639973640442
1788043842217304800,4.511304931640625,9.411606788635254,5.839457988739014,-1.3455413579940796
1788043842233323500,4.527323486328125,9.294290542602539,5.983109951019287,-1.3670891523361206
1788043842249457700,4.543457763671875,9.102754592895508,6.174646377563477,-1.2186486721038818
1788043842265511200,4.55951123046875,9.107542991638184,6.380547523498535,-0.7374141216278076
1788043842281615000,4.575614990234375,9.394847869873047,6.447585105895996,-0.2992752194404602
1788043842297714200,4.591714111328125,10.041281700134277,6.344634532928467,-0.17717093229293823
1788043842313768400,4.6077685546875,10.093954086303711,6.629544734954834,-0.7493851184844971
1788043842329883400,4.62388330078125,9.502586364746094,6.92881965637207,-0.9097966551780701
1788043842345945300,4.6399453125,9.306262016296387,6.600813865661621,-0.028730420395731926
1788043842362008600,4.656008544921875,9.746794700622559,6.380547523498535,0.7015010714530945
1788043842378109000,4.67210888671875,10.83855152130127,5.784391403198242,1.2832920551300049
1788043842394161700,4.68816162109375,11.305420875549316,5.044582843780518,1.139639973640442
1788043842410279400,4.704279541015625,10.84094524383545,4.405331134796143,0.4429273009300232
1788043842426343400,4.720343505859375,9.971850395202637,4.134786128997803,-0.11013327538967133
1788043842442453000,4.736452880859375,8.841787338256836,4.1874589920043945,-0.4189853072166443
1788043842458566000,4.75256591796875,8.401253700256348,4.405331134796143,-0.3471592366695404
1788043842474645800,4.768645751953125,8.360552787780762,4.5154643058776855,0.0933738648891449
1788043842490745600,4.78474560546875,8.365341186523438,4.46518611907959,0.7398083209991455
1788043842506830000,4.800830078125,8.1139497756958,4.414907932281494,1.1348515748977661
1788043842522938600,4.816938720703125,7.642292022705078,4.32871675491333,1.1516109704971313
1788043842539064300,4.833064208984375,7.436390399932861,4.201824188232422,0.9002198576927185
1788043842555154700,4.84915478515625,7.424419403076172,4.137180328369141,0.49559974670410156
1788043842571262000,4.865261962890625,7.314286231994629,4.165910720825195,0.22266076505184174
1788043842587306500,4.881306396484375,7.237671852111816,4.230554580688477,0
1788043842603377000,4.897376953125,7.273584842681885,4.261679172515869,-0.2561795711517334
1788043842619466200,4.91346630859375,7.393294811248779,4.2951979637146,-0.35913026332855225
1788043842635528000,4.92952783203125,7.4316020011901855,4.335899353027344,-0.4644751250743866
1788043842651654700,4.945654541015625,7.386112213134766,4.489128112792969,-0.45489832758903503
1788043842667707000,4.961706787109375,7.292738437652588,4.671087741851807,-0.30885201692581177
1788043842683781600,4.97778173828125,7.240066051483154,4.793191909790039,-0.2968810200691223
1788043842699883300,4.99388330078125,7.412448406219482,4.982333660125732,-0.40701428055763245
1788043842715948500,5.009948486328125,7.728483200073242,5.070919036865234,-0.3447650372982025
1788043842732077300,5.026077392578125,7.960720539093018,5.20978307723999,-0.22505496442317963
1788043842748141300,5.042141357421875,8.087613105773926,5.353435039520264,-0.033518824726343155
1788043842764216300,5.05821630859375,8.209717750549316,5.439626216888428,0.13168109953403473
1788043842780305700,5.0743056640625,8.29590892791748,5.556941986083984,0.21787235140800476
1788043842796391000,5.090390869140625,8.303091049194336,5.700594425201416,0.1149216815829277
1788043842812476200,5.10647607421875,8.252813339233398,5.856217384338379,-0.12928688526153564
1788043842828546600,5.122546630859375,8.44195556640625,5.990292549133301,-0.35673606395721436
1788043842844621800,5.138621826171875,8.858546257019043,6.088454723358154,-0.45250412821769714
1788043842860735500,5.154735595703125,9.425971984863281,6.1052141189575195,-0.4908113479614258
1788043842876769500,5.17076953125,9.911994934082031,6.023811340332031,-0.23702596127986908
1788043842892905200,5.1869052734375,10.402806282043457,5.940014362335205,0.0694318488240242
1788043842908971800,5.2029716796875,10.453084945678711,6.045359134674072,0.13168109953403473
1788043842925051600,5.2190517578125,9.481039047241211,6.600813865661621,-0.2537853717803955
1788043842941182000,5.235181884765625,8.640673637390137,6.691793918609619,-0.3902548849582672
1788043842957265200,5.25126513671875,9.210494041442871,6.555324077606201,-0.33758243918418884
1788043842973397200,5.267397216796875,11.432312965393066,6.066906929016113,-0.26575639843940735
1788043842989416200,5.283416259765625,13.218387603759766,4.999093055725098,0.16519992053508759
1788043843005501200,5.299501220703125,13.103466033935547,4.23773717880249,0.10534487664699554
1788043843021569500,5.315569580078125,10.572794914245605,3.931279182434082,-0.24660277366638184
1788043843037598200,5.33159814453125,7.692570209503174,4.259284973144531,-0.730231523513794
1788043843053688800,5.347688720703125,6.054935932159424,4.8051629066467285,-1.015141487121582
1788043843069705700,5.363705810546875,6.172252178192139,5.008669853210449,-0.9074024558067322
1788043843085793800,5.379793701171875,7.33583402633667,4.824316501617432,-0.5961562395095825
1788043843101859000,5.395859130859375,8.233659744262695,4.343081951141357,-0.4596867263317108
1788043843117928200,5.41192822265625,8.398859977722168,4.015076160430908,-0.5626373887062073
1788043843134033700,5.42803369140625,7.99184513092041,3.9671921730041504,-0.730231523513794
1788043843150079700,5.444079833984375,7.6111674308776855,3.9624037742614746,-0.7374141216278076
1788043843166173400,5.46017333984375,7.783549785614014,3.914519786834717,-0.6919242739677429
1788043843182256400,5.47625634765625,8.243236541748047,3.8738183975219727,-0.5602431893348694
1788043843198317300,5.4923173828125,8.762778282165527,3.907337188720703,-0.43095630407333374
1788043843214447400,5.508447265625,9.040505409240723,3.9025487899780273,-0.33758243918418884
1788043843230506800,5.5245068359375,8.947132110595703,3.84269380569458,-0.33039984107017517
1788043843246611700,5.54061181640625,8.33182144165039,3.8522706031799316,-0.4405331015586853
1788043843262710500,5.55671044921875,7.649474620819092,3.9887399673461914,-0.5650315880775452
1788043843278784500,5.572784423828125,7.101202011108398,4.2090067863464355,-0.5817909836769104
1788043843294901000,5.58890087890625,6.921637058258057,4.398148536682129,-0.4357447028160095
1788043843310955500,5.60495556640625,7.010222434997559,4.671087741851807,-0.26096799969673157
1788043843327067100,5.621067138671875,7.283161640167236,4.879383087158203,-0.26096799969673157
1788043843343162600,5.63716259765625,7.5201873779296875,5.037400245666504,-0.2753331959247589
1788043843359197400,5.653197509765625,7.694964408874512,5.216965675354004,-0.35673606395721436
1788043843375286500,5.66928662109375,7.862558364868164,5.343858242034912,-0.24899697303771973
1788043843391364600,5.685364501953125,8.195352554321289,5.47075080871582,-0.06703764945268631
1788043843407465700,5.7014658203125,8.56884765625,5.669469833374023,-0.15083470940589905
1788043843423542300,5.717542236328125,8.853757858276367,5.861005783081055,-0.4572925269603729
1788043843439633400,5.73363330078125,8.860940933227539,6.016628742218018,-0.6847416758537292
1788043843455741400,5.749741455078125,8.829815864562988,6.078877925872803,-0.6224924325942993
1788043843471784000,5.765783935546875,9.07641887664795,6.129156112670898,-0.2801215946674347
1788043843487844900,5.781844970703125,9.607931137084961,6.026205539703369,0.09576806426048279
1788043843503922000,5.797921875,10.223240852355957,5.75326681137085,0.19393034279346466
1788043843519970000,5.813969970703125,9.964667320251465,6.119579315185547,-0.7781155705451965
1788043843536087000,5.830087158203125,9.41400146484375,6.14831018447876,-0.7589619159698486
1788043843552135200,5.84613525390625,9.313444137573242,5.7556610107421875,0.19632454216480255
1788043843568157200,5.8621572265625,10.338163375854492,5.6191911697387695,0.7589619159698486
1788043843584239600,5.878239501953125,11.48259162902832,4.9368438720703125,1.278503656387329
1788043843600231000,5.89423095703125,11.42752456665039,4.218583583831787,0.8858546018600464
1788043843616342800,5.9103427734375,10.615890502929688,3.861847400665283,-0.026336219161748886
1788043843632384800,5.926384765625,9.41400146484375,3.8953661918640137,-0.7326257228851318
1788043843648457500,5.94245751953125,8.793902397155762,4.010287761688232,-1.0103530883789062
1788043843664541200,5.958541259765625,8.791508674621582,4.177882194519043,-0.811634361743927
1788043843680558800,5.974558837890625,8.98543930053711,4.220977783203125,-0.0694318488240242
1788043843696640000,5.990639892578125,8.877699851989746,4.256890773773193,0.8044517636299133
1788043843712707300,6.006707275390625,8.293514251708984,4.441244125366211,1.2042834758758545
1788043843728781600,6.022781494140625,7.7643961906433105,4.477157115936279,1.3479355573654175
1788043843744897000,6.03889697265625,7.615955829620361,4.4077253341674805,1.314416766166687
1788043843760980500,6.05498046875,7.943961143493652,4.2975921630859375,1.0055646896362305
1788043843777074400,6.071074462890625,8.185775756835938,4.182670593261719,0.6392518281936646
1788043843793149000,6.08714892578125,7.91283655166626,4.165910720825195,0.304063618183136
1788043843809225200,6.10322509765625,7.378929615020752,4.256890773773193,0.13168109953403473
1788043843825346000,6.119345947265625,6.947973251342773,4.4077253341674805,-0.05506663769483566
1788043843841433300,6.135433349609375,6.646304130554199,4.520252704620361,-0.26096799969673157
1788043843857526800,6.15152685546875,6.528987884521484,4.618414878845215,-0.4429273009300232
1788043843873602000,6.16760205078125,6.45476770401001,4.73573112487793,-0.4213795065879822
1788043843889684500,6.1836845703125,6.71334171295166,4.862623691558838,-0.3064578175544739
1788043843905798000,6.1997978515625,7.311892032623291,4.955997467041016,-0.26815059781074524
1788043843921884200,6.21588427734375,7.888894557952881,5.061342239379883,-0.17238251864910126
1788043843937983200,6.231983154296875,8.415618896484375,5.216965675354004,0.0933738648891449
1788043843954062800,6.248062744140625,8.578424453735352,5.2911858558654785,0.40940847992897034
1788043843970143200,6.264143310546875,8.398859977722168,5.413290023803711,0.5626373887062073
1788043843986272800,6.280272705078125,8.054094314575195,5.5545477867126465,0.3902548849582672
1788043844002321000,6.29632080078125,7.807491779327393,5.6670756340026855,0.13407529890537262
1788043844018429000,6.312428955078125,7.903259754180908,5.722142219543457,-0.2537853717803955
1788043844034477300,6.328477294921875,8.159439086914062,5.743690013885498,-0.5123591423034668
1788043844050566400,6.34456640625,8.609549522399902,5.7772088050842285,-0.7015010714530945
1788043844066654200,6.360654296875,9.066842079162598,5.758055210113525,-0.7948749661445618
1788043844082715400,6.37671533203125,9.536105155944824,5.655104637145996,-0.6200982332229614
1788043844098827500,6.39282763671875,9.785101890563965,5.542576789855957,-0.22026655077934265
1788043844114837200,6.408837158203125,9.720458984375,5.623979568481445,0.19632454216480255
1788043844130983700,6.424983642578125,8.951920509338379,6.3063273429870605,0.10295066982507706
1788043844147073800,6.44107373046875,8.35097599029541,6.497863292694092,0.26096799969673157
1788043844163129300,6.45712939453125,8.635885238647461,6.358999729156494,0.40701428055763245
1788043844179252500,6.47325244140625,10.280701637268066,6.095637321472168,0.12689268589019775
1788043844195279600,6.489279541015625,12.155362129211426,5.492298603057861,0.014365210197865963
1788043844211392300,6.505392333984375,12.677297592163086,4.824316501617432,0.05985504388809204
1788043844227476500,6.5214765625,11.674127578735352,4.405331134796143,-0.023942016065120697
1788043844243523800,6.53752392578125,9.646238327026367,4.4939165115356445,-0.38546648621559143
1788043844259626500,6.55362646484375,7.967903137207031,4.742913722991943,-0.5961562395095825
1788043844275657000,6.569656982421875,7.273584842681885,4.855441093444824,-0.3974374830722809
1788043844291776500,6.585776611328125,7.513004779815674,4.910507678985596,-0.24899697303771973
1788043844307858700,6.601858642578125,8.008605003356934,4.766855716705322,-0.2106897532939911
1788043844323933700,6.61793359375,8.360552787780762,4.592078685760498,-0.507570743560791
1788043844340027100,6.634027099609375,8.53293514251709,4.436455726623535,-0.8475474119186401
1788043844356102700,6.6501025390625,8.820239067077637,4.307168960571289,-0.912190854549408
1788043844372154400,6.666154296875,9.05247688293457,4.194641590118408,-0.6368576288223267
1788043844388271900,6.68227197265625,9.196128845214844,4.0964789390563965,-0.3663128614425659
1788043844404356600,6.698356689453125,8.942343711853027,3.993528366088867,-0.28730419278144836
1788043844420454400,6.714454345703125,8.29590892791748,3.9815573692321777,-0.3256114423274994
1788043844436520400,6.7305205078125,7.481880187988281,4.084507942199707,-0.47884035110473633
1788043844452638500,6.746638427734375,6.976703643798828,4.206612586975098,-0.4884171485900879
1788043844468699000,6.762698974609375,6.698976516723633,4.376600742340088,-0.5793967843055725
1788043844484738600,6.778738525390625,6.868964672088623,4.448426723480225,-0.6105214357376099
1788043844500847400,6.794847412109375,7.2352776527404785,4.496310710906982,-0.5770025849342346
1788043844516888000,6.81088818359375,7.601590633392334,4.5609540939331055,-0.4381389021873474
1788043844532950500,6.826950439453125,7.8529815673828125,4.711789131164551,-0.3016694188117981
1788043844549032400,6.843032470703125,7.879317760467529,4.881777286529541,-0.1843535304069519
1788043844565084000,6.859083984375,7.924807548522949,5.082890033721924,-0.1867477297782898
1788043844581199000,6.87519921875,8.006210327148438,5.279214859008789,-0.1604115068912506
1788043844597241600,6.89124169921875,8.439560890197754,5.463568210601807,-0.15083470940589905
1788043844613261600,6.907261474609375,8.75080680847168,5.588066577911377,-0.26336219906806946
1788043844629357600,6.923357666015625,8.882488250732422,5.69580602645874,-0.33039984107017517
1788043844645428000,6.939427978515625,8.904036521911621,5.841852188110352,-0.3447650372982025
1788043844661555200,6.95555517578125,8.939949035644531,6.026205539703369,-0.19153612852096558
1788043844677611300,6.971611328125,8.860940933227539,6.124367713928223,0.13407529890537262
1788043844693679000,6.98767919921875,8.767566680908203,6.217741966247559,0.44771572947502136
1788043844709780000,7.003780029296875,8.698134422302246,6.368576526641846,0.6248866319656372
1788043844725842700,7.0198427734375,8.683769226074219,6.387730121612549,0.6727706789970398
1788043844741918200,7.035918212890625,8.62391471862793,6.560112476348877,0.22266076505184174
1788043844757979600,7.051979736328125,8.501810073852539,6.823474884033203,-0.2777273952960968
1788043844774045400,7.06804541015625,8.470685958862305,6.473921298980713,0.3447650372982025
1788043844790151000,7.08415087890625,8.69095230102539,6.258443355560303,0.9481038451194763
1788043844806224600,7.100224609375,9.41400146484375,5.983109951019287,1.3742717504501343
1788043844822309400,7.116309326171875,10.108319282531738,5.372588634490967,1.5682021379470825
1788043844838373000,7.132373046875,10.285490036010742,4.824316501617432,1.2521674633026123
1788043844854442200,7.148442138671875,9.904812812805176,4.558559894561768,0.49799394607543945
1788043844870544100,7.164544189453125,9.167398452758789,4.584896087646484,-0.06464344263076782
1788043844886632700,7.1806328125,8.743624687194824,4.651933670043945,-0.2561795711517334
1788043844902737700,7.196737548828125,8.731653213500977,4.714183330535889,0.021547814831137657
1788043844918826500,7.212826416015625,8.753201484680176,4.742913722991943,0.727837324142456
1788043844934904800,7.22890478515625,8.556877136230469,4.69024133682251,1.3455413579940796
1788043844950979000,7.24497900390625,8.106766700744629,4.599261283874512,1.680729627609253
1788043844967027500,7.26102734375,7.687781810760498,4.522646903991699,1.5682021379470825
1788043844983135200,7.27713525390625,7.527369976043701,4.438849925994873,1.0223240852355957
1788043844999181300,7.293181396484375,7.690176010131836,4.367023944854736,0.4884171485900879
1788043845015266800,7.309266845703125,8.01339340209961,4.242525577545166,0.1364694982767105
1788043845031332000,7.32533203125,8.078036308288574,4.110844135284424,-0.002394201699644327
1788043845047386600,7.34138671875,7.819462776184082,4.168305397033691,-0.3423708379268646
1788043845063510800,7.3575107421875,7.465120792388916,4.240131378173828,-0.608127236366272
1788043845079558000,7.373557861328125,7.206547260284424,4.37420654296875,-0.7781155705451965
1788043845095662600,7.38966259765625,7.187393665313721,4.541800498962402,-0.8523358106613159
1788043845111748600,7.40574853515625,7.422025203704834,4.704606533050537,-0.689530074596405
1788043845127816700,7.421816650390625,7.553706169128418,4.857835292816162,-0.43095630407333374
1788043845143944000,7.43794384765625,7.539340972900391,5.0254292488098145,-0.24660277366638184
1788043845159998700,7.453998779296875,7.484274387359619,5.200206279754639,-0.17956513166427612
1788043845176102000,7.470101806640625,7.374141216278076,5.281609058380127,-0.15801730751991272
1788043845192203300,7.486203369140625,7.527369976043701,5.322310447692871,-0.14844051003456116
1788043845208274400,7.5022744140625,7.915230751037598,5.322310447692871,-0.2777273952960968
1788043845224399600,7.518399658203125,8.418013572692871,5.284003257751465,-0.26096799969673157
1788043845240463000,7.534463134765625,8.5903959274292,5.307945251464844,-0.19632454216480255
1788043845256576300,7.550576171875,8.520963668823242,5.382165431976318,-0.2346317619085312
1788043845272684000,7.56668408203125,8.252813339233398,5.499481201171875,-0.43335050344467163
1788043845288724200,7.58272412109375,8.032546997070312,5.640739440917969,-0.5937620401382446
1788043845304824600,7.598824462890625,8.14028549194336,5.7987565994262695,-0.667982280254364
1788043845320908300,7.614908203125,8.731653213500977,5.841852188110352,-0.6033388376235962
1788043845337012000,7.631011962890625,9.332598686218262,5.779603004455566,-0.2513911724090576
1788043845353135000,7.647135009765625,9.648633003234863,5.7125654220581055,0.2537853717803955
1788043845369187600,7.6631875,9.610325813293457,5.774814605712891,0.727837324142456
1788043845385293000,7.67929296875,9.406818389892578,5.95677375793457,1.0462661981582642
1788043845401338000,7.695338134765625,8.81784439086914,6.291962146759033,0.689530074596405
1788043845417454800,7.711454833984375,8.157045364379883,6.399701118469238,0.26575639843940735
1788043845433536300,7.727536376953125,8.396465301513672,6.378153324127197,-0.2059013396501541
1788043845449582600,7.74358251953125,9.361329078674316,6.215347766876221,-0.44771572947502136
1788043845465693400,7.759693359375,10.259154319763184,5.743690013885498,0.11971008777618408
1788043845481719600,7.775719482421875,10.560823440551758,5.30076265335083,0.4596867263317108
1788043845497842000,7.791842041015625,10.156203269958496,4.850652694702148,0.524330198764801
1788043845513927700,7.807927734375,9.318233489990234,4.580107688903809,0.38546648621559143
1788043845529985500,7.823985595703125,8.552088737487793,4.505887508392334,0.05506663769483566
1788043845546110500,7.8401103515625,8.343792915344238,4.455609321594238,-0.181959331035614
1788043845562166500,7.85616650390625,8.573636054992676,4.4077253341674805,-0.4213795065879822
1788043845578237000,7.87223681640625,8.89445972442627,4.264073371887207,-0.4908113479614258
1788043845594321400,7.8883212890625,9.004592895507812,4.165910720825195,-0.5506663918495178
1788043845610392300,7.904392333984375,8.734047889709473,4.156333923339844,-0.6536170840263367
1788043845626520000,7.92052001953125,8.434772491455078,4.120420932769775,-0.6392518281936646
1788043845642587100,7.936587158203125,8.432378768920898,4.062960147857666,-0.43335050344467163
1788043845658657800,7.95265771484375,8.904036521911621,4.048594951629639,-0.016759412363171577
1788043845674756900,7.9687568359375,9.50498104095459,4.041412353515625,0.5722141861915588
1788043845690828500,7.98482861328125,9.715670585632324,4.003105163574219,0.9481038451194763
1788043845706918700,8.000918701171875,9.301473617553711,3.9456443786621094,0.8259995579719543
1788043845722995000,8.016994873046874,8.398859977722168,4.017470359802246,0.3926490843296051
1788043845739056600,8.033056640625,7.762001991271973,4.065354347229004,-0.004788403399288654
1788043845755167700,8.049167724609376,7.8098859786987305,4.106055736541748,-0.22266076505184174
1788043845771252200,8.065252197265625,8.051700592041016,4.10366153717041,-0.27054479718208313
1788043845787342600,8.081342529296874,8.068459510803223,4.173093795776367,-0.181959331035614
1788043845803389200,8.09738916015625,7.965508937835693,4.278438568115234,-0.10534487664699554
1788043845819470000,8.113469970703125,7.891288757324219,4.299986362457275,-0.033518824726343155
1788043845835548200,8.129548095703125,7.841010570526123,4.343081951141357,-0.033518824726343155
1788043845851592400,8.145592529296875,7.833827972412109,4.438849925994873,-0.014365210197865963
1788043845867698400,8.161698486328126,7.9176249504089355,4.563348293304443,-0.033518824726343155
1788043845883737300,8.1777373046875,8.106766700744629,4.661510944366455,-0.038307227194309235
1788043845899821600,8.193821533203124,8.250418663024902,4.73573112487793,-0.08140286058187485
1788043845915903200,8.2099033203125,8.415618896484375,4.841075897216797,-0.26575639843940735
1788043845931955500,8.22595556640625,8.765172004699707,4.924872875213623,-0.4596867263317108
1788043845948077000,8.2420771484375,9.191340446472168,4.917690277099609,-0.4884171485900879
1788043845964128500,8.25812841796875,9.684545516967773,4.9799394607543945,-0.38307225704193115
1788043845980222700,8.27422265625,9.909601211547852,4.982333660125732,-0.13168109953403473
1788043845996311300,8.290311279296875,10.02452278137207,4.934449672698975,0.0071826050989329815
1788043846012373200,8.306373291015625,9.938331604003906,4.927267074584961,0.014365210197865963
1788043846028498200,8.322498291015625,9.548076629638672,5.0014872550964355,0.0071826050989329815
1788043846044554000,8.338553955078124,9.02135181427002,5.240907669067383,-0.019153613597154617
1788043846060647400,8.3546474609375,8.463502883911133,5.841852188110352,-0.5578489899635315
1788043846076732200,8.370732177734375,8.04691219329834,6.260837554931641,-0.5291185975074768
1788043846092786700,8.38678662109375,8.075642585754395,6.145915985107422,0.2082955539226532
1788043846108900900,8.40290087890625,8.810662269592285,5.92325496673584,0.6488286852836609
1788043846124964600,8.418964599609374,9.892841339111328,5.475539207458496,0.9481038451194763
1788043846141072000,8.43507177734375,10.448296546936035,4.934449672698975,0.9720458984375
1788043846157162500,8.45116259765625,10.0580415725708,4.537012100219727,0.9169792532920837
1788043846173173800,8.467173828125,9.23682975769043,4.563348293304443,0.5817909836769104
1788043846197282800,8.49128271484375,8.877699851989746,4.505887508392334,0.33758243918418884
1788043846213359900,8.50735986328125,9.169792175292969,4.314351558685303,0.3734954595565796
1788043846229486800,8.52348681640625,9.239224433898926,4.137180328369141,0.26096799969673157
1788043846245565700,8.539565673828125,8.83699893951416,4.034229755401611,0.019153613597154617
1788043846261641500,8.555641357421875,8.360552787780762,4.048594951629639,-0.23702596127986908
1788043846277727200,8.571727294921875,8.20492935180664,4.065354347229004,-0.1604115068912506
1788043846293817600,8.587817626953125,8.427590370178223,3.97916316986084,0.49799394607543945
1788043846309938200,8.603938232421875,8.78193187713623,3.993528366088867,1.4173674583435059
1788043846326029000,8.620029052734376,8.810662269592285,4.086902141571045,1.9105730056762695
1788043846342155500,8.636155517578125,8.724471092224121,4.113238334655762,1.9536685943603516
1788043846358245600,8.65224560546875,8.451532363891602,4.079719543457031,1.558625340461731
1788043846374250200,8.668250244140625,8.212111473083496,4.019864559173584,0.9145850539207458
1788043846390378000,8.6843779296875,8.190564155578613,3.995922565460205,0.29209262132644653
1788043846406429200,8.70042919921875,8.465897560119629,3.9863457679748535,0.06464344263076782
1788043846422518800,8.716518798828124,8.707711219787598,4.039018154144287,0.08379705995321274
1788043846438617000,8.7326171875,8.803479194641113,4.134786128997803,0.26096799969673157
1788043846454681000,8.74868115234375,8.769960403442383,4.242525577545166,0.3974374830722809
1788043846470769700,8.764769775390626,8.743624687194824,4.256890773773193,0.40222588181495667
1788043846486827800,8.780827880859375,8.705317497253418,4.264073371887207,0.43095630407333374
1788043846502928000,8.796927978515624,8.678980827331543,4.273650169372559,0.4141969084739685
1788043846519038700,8.813038818359376,8.851364135742188,4.271255970001221,0.4118026793003082
1788043846535112200,8.8291123046875,9.097966194152832,4.19224739074707,0.42377370595932007
1788043846551202000,8.8452021484375,9.368511199951172,4.089296340942383,0.31364041566848755
1788043846567271700,8.861271728515625,9.289502143859863,4.072536945343018,0.2537853717803955
1788043846583382800,8.8773828125,8.968679428100586,4.0533833503723145,0.1867477297782898
1788043846599445800,8.89344580078125,8.774748802185059,4.062960147857666,0.08379705995321274
1788043846615475000,8.909474853515626,8.705317497253418,4.062960147857666,-0.033518824726343155
1788043846631561000,8.92556103515625,8.772355079650879,4.101267337799072,-0.0694318488240242
1788043846647627300,8.941627197265625,8.913613319396973,4.256890773773193,-0.035913024097681046
1788043846663736600,8.957736572265626,8.975862503051758,4.393360137939453,0.023942016065120697
1788043846679810300,8.973810302734375,8.942343711853027,4.51067590713501,0.06224924325942993
1788043846695846000,8.989845947265625,8.995016098022461,4.656722068786621,0.06703764945268631
1788043846711931000,9.005930908203124,8.899248123168945,4.786009311676025,0.2082955539226532
1788043846728018400,9.022018310546875,8.664615631103516,4.941632270812988,0.38546648621559143
1788043846744098000,9.03809814453125,8.542511940002441,5.051765441894531,0.507570743560791
1788043846760178400,9.054178466796875,8.724471092224121,5.056553840637207,0.608127236366272
1788043846776222700,9.07022265625,8.992621421813965,4.924872875213623,0.6560112833976746
1788043846792318000,9.08631787109375,9.385271072387695,4.786009311676025,0.7613561153411865
1788043846808409000,9.1024091796875,9.583989143371582,4.60165548324585,0.6344634294509888
1788043846824448500,9.118448486328125,9.452308654785156,4.486733913421631,0.3734954595565796
1788043846840550000,9.1345498046875,9.14585018157959,4.426878929138184,0.19871874153614044
1788043846856554000,9.150553955078125,8.832210540771484,4.424484729766846,0.13407529890537262
1788043846872659000,9.166658935546875,8.580819129943848,4.505887508392334,0.11971008777618408
1788043846888703500,9.182703369140626,8.307879447937012,4.639962673187256,0.28969839215278625
1788043846904792600,9.19879248046875,8.133103370666504,4.7836151123046875,0.3280056416988373
1788043846920888800,9.214888916015624,8.030152320861816,4.843470096588135,0.3687070608139038
1788043846936949800,9.23094970703125,8.111555099487305,4.879383087158203,0.3711012601852417
1788043846953063400,9.2470634765625,8.243236541748047,4.874594688415527,0.31364041566848755
1788043846969117700,9.26311767578125,8.283937454223633,4.8602294921875,0.19153612852096558
1788043846985220000,9.27922021484375,8.300697326660156,4.898536682128906,0.05027823522686958
1788043847001330700,9.29533056640625,8.506598472595215,4.8482584953308105,-0.05985504388809204
1788043847017397500,9.3113974609375,8.793902397155762,4.836287498474121,-0.07661445438861847
1788043847033505500,9.327505615234376,8.923190116882324,4.845864295959473,-0.08858546614646912
1788043847049566200,9.343566162109376,8.832210540771484,4.8937482833862305,-0.08140286058187485
1788043847065678300,9.35967822265625,8.83939266204834,4.972756862640381,-0.021547814831137657
1788043847081746200,9.37574609375,8.901641845703125,5.006275653839111,0.05027823522686958
1788043847097829600,9.39182958984375,8.844181060791016,5.008669853210449,0.0454898327589035
1788043847122014700,9.4160146484375,8.62630844116211,5.12119722366333,-0.0933738648891449
1788043847138067700,9.432067626953126,8.611943244934082,5.0900726318359375,-0.16998831927776337
1788043847154154800,9.44815478515625,8.719682693481445,5.0469770431518555,-0.22026655077934265
1788043847170234600,9.464234619140624,8.772355079650879,4.963180065155029,-0.1843535304069519
1788043847186342700,9.4803427734375,8.645462036132812,4.99669885635376,-0.19153612852096558
1788043847202467800,9.4964677734375,8.542511940002441,4.99669885635376,-0.15801730751991272
1788043847218567400,9.5125673828125,8.473079681396484,5.027823448181152,-0.033518824726343155
1788043847234678500,9.528678466796874,8.47547435760498,5.023035049438477,-0.031124621629714966
1788043847250766800,9.544766845703125,8.38688850402832,4.972756862640381,-0.0454898327589035
1788043847266888200,9.56088818359375,8.322244644165039,4.963180065155029,-0.08858546614646912
1788043847282976000,9.57697607421875,8.485051155090332,4.963180065155029,-0.009576806798577309
1788043847299078700,9.59307861328125,8.650250434875488,4.955997467041016,0.12928688526153564
1788043847315192000,9.609192138671874,8.710105895996094,4.967968463897705,0.1173158809542656
1788043847331240400,9.625240478515625,8.53532886505127,4.9583916664123535,0.090979665517807
1788043847347318300,9.641318359375,8.372523307800293,4.917690277099609,-0.0071826050989329815
1788043847363409700,9.65740966796875,8.358158111572266,4.874594688415527,0.016759412363171577
1788043847379421400,9.67342138671875,8.365341186523438,4.850652694702148,0.002394201699644327
1788043847395541500,9.68954150390625,8.429984092712402,4.817133903503418,-0.08379705995321274
1788043847411598800,9.705598876953125,8.480262756347656,4.8267107009887695,-0.2849099934101105
1788043847427622100,9.7216220703125,8.456320762634277,4.8602294921875,-0.3423708379268646
1788043847443726000,9.73772607421875,8.456320762634277,4.967968463897705,-0.19632454216480255
1788043847459789000,9.7537890625,8.439560890197754,5.114014625549316,0.043095629662275314
1788043847475924500,9.769924560546874,8.489839553833008,5.193023681640625,0.22266076505184174
1788043847491990800,9.78599072265625,8.62391471862793,5.202600479125977,0.21308395266532898
1788043847508014600,9.8020146484375,8.640673637390137,5.193023681640625,0.15562310814857483
1788043847524123400,9.818123291015626,8.640673637390137,5.195417881011963,0.035913024097681046
1788043847540204500,9.83420458984375,8.62391471862793,5.157110691070557,-0.07182604819536209
1788043847556297200,9.850297119140626,8.643068313598633,5.157110691070557,-0.08379705995321274
1788043847572373200,9.866373291015625,8.75080680847168,5.102043628692627,-0.2082955539226532
1788043847588446500,9.882446533203124,8.846575736999512,5.082890033721924,-0.2992752194404602
1788043847604564000,9.89856396484375,8.860940933227539,5.054159641265869,-0.31124621629714966
1788043847620603000,9.914602783203126,8.777143478393555,5.073313236236572,-0.22505496442317963
1788043847636700700,9.93070068359375,8.633491516113281,5.07570743560791,-0.16759411990642548
1788043847652788700,9.946788818359375,8.489839553833008,5.092466831207275,-0.15562310814857483
1788043847668871200,9.96287109375,8.377311706542969,5.114014625549316,-0.11971008777618408
1788043847685000200,9.979000244140625,8.370129585266113,5.116408824920654,-0.016759412363171577
1788043847701099000,9.99509912109375,8.537723541259766,5.106832027435303,0.09576806426048279
1788043847717203700,10.01120361328125,8.62391471862793,5.044582843780518,0.05267243832349777
1788043847733291300,10.027291259765626,8.53293514251709,5.018246650695801,-0.023942016065120697
1788043847749374500,10.04337451171875,8.274360656738281,5.011064052581787,-0.11252748221158981
1788043847765456000,10.059455810546876,8.192957878112793,4.970362663269043,-0.12449848651885986
1788043847781506000,10.075506103515625,8.339004516601562,4.95120906829834,-0.19632454216480255
1788043847797617000,10.091616943359375,8.542511940002441,4.8722004890441895,-0.15083470940589905
1788043847813668000,10.107668212890625,8.604761123657227,4.838681697845459,-0.13407529890537262
1788043847829768000,10.123767822265625,8.583212852478027,4.8482584953308105,-0.20111294090747833
1788043847845857500,10.139857421875,8.609549522399902,4.865017890930176,-0.26096799969673157
1788043847861921000,10.155921142578125,8.544905662536621,4.903325080871582,-0.3064578175544739
1788043847878050300,10.17205029296875,8.525752067565918,4.9368438720703125,-0.2944868206977844
1788043847894109200,10.188109130859376,8.530540466308594,4.982333660125732,-0.2346317619085312
1788043847910215200,10.204215087890624,8.588001251220703,4.977545261383057,-0.1173158809542656
1788043847926314500,10.220314453125,8.62391471862793,4.965574264526367,-0.17717093229293823
1788043847942388500,10.236388427734376,8.585607528686523,4.982333660125732,-0.2346317619085312
1788043847958522600,10.252522705078125,8.520963668823242,5.015852451324463,-0.2082955539226532
1788043847974589400,10.26858935546875,8.518569946289062,5.023035049438477,-0.15083470940589905
1788043847990694000,10.28469384765625,8.56884765625,5.054159641265869,-0.07182604819536209
1788043848006797600,10.300797607421876,8.614337921142578,5.03021764755249,-0.10534487664699554
1788043848022868200,10.3168681640625,8.571242332458496,5.008669853210449,-0.15801730751991272
1788043848038954500,10.33295458984375,8.528146743774414,5.006275653839111,-0.17717093229293823
1788043848055029200,10.349029296875,8.643068313598633,5.0014872550964355,-0.10055647045373917
1788043848071139600,10.3651396484375,8.722076416015625,4.991910457611084,-0.06703764945268631
1788043848087240200,10.381240234375,8.731653213500977,4.982333660125732,-0.0454898327589035
1788043848103326200,10.397326171875,8.621520042419434,4.9583916664123535,-0.09816227108240128
1788043848119418400,10.41341845703125,8.482656478881836,5.011064052581787,-0.14604631066322327
1788043848135501300,10.429501220703125,8.418013572692871,5.063736438751221,-0.11971008777618408
1788043848151602700,10.445602783203125,8.482656478881836,5.078101634979248,-0.05746084079146385
1788043848167728600,10.461728759765625,8.607154846191406,5.04218864440918,-0.06703764945268631
1788043848183820300,10.4778203125,8.815450668334961,5.013458251953125,-0.10295066982507706
1788043848199923700,10.493923828125,8.789113998413086,4.886565685272217,-0.07900865375995636
1788043848215991000,10.509990966796876,8.609549522399902,4.8482584953308105,-0.10295066982507706
1788043848232119800,10.526119873046875,8.47786808013916,4.912901878356934,-0.14365209639072418
1788043848248198400,10.542198486328125,8.418013572692871,4.932055473327637,-0.031124621629714966
1788043848264254500,10.55825439453125,8.53293514251709,4.924872875213623,0.12928688526153564
1788043848280372500,10.57437255859375,8.607154846191406,4.924872875213623,0.19632454216480255
1788043848296381400,10.59038134765625,8.485051155090332,4.891354084014893,0.1388636976480484
1788043848312502800,10.606502685546875,8.257601737976074,4.912901878356934,0.08619125932455063
1788043848328595500,10.622595458984375,8.324639320373535,4.95120906829834,0.1628057211637497
1788043848344657000,10.638656982421875,8.489839553833008,4.955997467041016,0.3519476354122162
1788043848360778800,10.65477880859375,8.757989883422852,5.008669853210449,0.37828385829925537
1788043848376837600,10.670837646484374,8.767566680908203,4.9799394607543945,0.3519476354122162
1788043848392869000,10.686869140625,8.731653213500977,5.003881454467773,0.3878606855869293
1788043848408967700,10.7029677734375,8.556877136230469,4.987122058868408,0.43095630407333374
1788043848425037800,10.719037841796874,8.432378768920898,5.023035049438477,0.38067805767059326
1788043848441167400,10.73516748046875,8.547300338745117,4.98472785949707,0.35673606395721436
1788043848457230800,10.75123095703125,8.810662269592285,4.95120906829834,0.38307225704193115
1788043848473259000,10.767259033203125,8.846575736999512,4.912901878356934,0.4572925269603729
1788043848489379600,10.783379638671875,8.755595207214355,4.93923807144165,0.3495534360408783
1788043848505452300,10.799452392578125,8.5903959274292,4.929661273956299,0.21547815203666687
1788043848521537000,10.815537109375,8.561665534973145,4.920084476470947,0.14844051003456116
1788043848537601000,10.83160107421875,8.695740699768066,4.891354084014893,0.19153612852096558
1788043848553673000,10.8476728515625,8.860940933227539,4.81473970413208,0.24660277366638184
1788043848569789200,10.8637890625,9.02135181427002,4.776432514190674,0.3423708379268646
1788043848585870000,10.8798701171875,9.074024200439453,4.687847137451172,0.4620809257030487
1788043848601960700,10.895960693359376,8.99740982055664,4.639962673187256,0.5003881454467773
1788043848618035200,10.91203515625,8.820239067077637,4.6040496826171875,0.5889736413955688
1788043848634056000,10.928055908203126,8.655038833618164,4.671087741851807,0.7757213711738586
1788043848650175500,10.944175537109375,8.69095230102539,4.651933670043945,1.113303780555725
1788043848666264800,10.960264892578126,8.803479194641113,4.60165548324585,1.3910311460494995
1788043848682363600,10.97636376953125,8.880094528198242,4.462791919708252,1.5921441316604614
1788043848698446800,10.99244677734375,8.801085472106934,4.376600742340088,1.5945383310317993
1788043848714522600,11.008522705078125,8.801085472106934,4.28322696685791,1.4221558570861816
1788043848730646500,11.024646484375,8.959102630615234,4.182670593261719,1.2952631711959839
1788043848746738200,11.04073828125,8.99740982055664,4.108449935913086,1.3096283674240112
1788043848762839600,11.056839599609376,8.925583839416504,4.1180267333984375,1.3096283674240112
1788043848778880500,11.072880615234375,8.875306129455566,4.129997730255127,1.3072341680526733
1788043848794963000,11.088962890625,8.789113998413086,4.072536945343018,1.2042834758758545
1788043848811035400,11.105035400390625,8.904036521911621,4.05817174911499,1.072602391242981
1788043848827036200,11.1210361328125,9.20091724395752,4.036623954772949,0.9959878921508789
1788043848843149600,11.137149658203125,9.411606788635254,3.9600095748901367,0.849941611289978
1788043848859196700,11.15319677734375,9.35893440246582,4.010287761688232,0.6488286852836609
1788043848875289900,11.169289794921875,8.99740982055664,4.129997730255127,0.5913678407669067
1788043848891380200,11.185380126953126,8.549694061279297,4.2544965744018555,0.768538773059845
1788043848907445000,11.201445068359375,8.339004516601562,4.378994941711426,0.8451532125473022
1788043848923570200,11.217570068359375,8.480262756347656,4.410119533538818,0.9409212470054626
1788043848939628300,11.233628173828125,8.829815864562988,4.314351558685303,1.0031704902648926
1788043848955734000,11.249734130859375,9.272743225097656,4.259284973144531,0.9624691009521484
1788043848971835100,11.265835205078124,9.476250648498535,4.211400985717773,0.9768342971801758
1788043848987908400,11.281908447265625,9.461885452270508,4.156333923339844,0.9433154463768005
1788043849004046800,11.298046875,9.299078941345215,4.14915132522583,0.8451532125473022
1788043849020114200,11.3141142578125,9.081207275390625,4.146757125854492,0.7972691655158997
1788043849036224000,11.33022412109375,9.074024200439453,4.132391929626465,0.7852981686592102
1788043849052332300,11.346332275390624,9.229647636413574,4.10366153717041,0.7733271718025208
1788043849068412400,11.362412353515625,9.370905876159668,4.050989151000977,0.6943184733390808
1788043849084509200,11.37850927734375,9.097966194152832,4.050989151000977,0.5315127968788147
1788043849100586800,11.394586669921875,8.69334602355957,4.173093795776367,0.3064578175544739
1788043849116688600,11.410688720703124,8.446743965148926,4.376600742340088,0.08619125932455063
1788043849132809000,11.42680908203125,8.544905662536621,4.558559894561768,-0.009576806798577309
1788043849148896300,11.442896240234376,8.892065048217773,4.46518611907959,0.10295066982507706
1788043849164993800,11.458993896484374,9.390059471130371,4.1395745277404785,0.33039984107017517
1788043849181079800,11.475079833984376,9.655815124511719,3.9839515686035156,0.3064578175544739
1788043849197189000,11.491189208984375,9.694122314453125,3.8067808151245117,0.17956513166427612
1788043849213265400,11.507265380859375,9.224859237670898,3.60566782951355,-0.0933738648891449
1788043849229361000,11.52336083984375,8.808267593383789,3.6798880100250244,-0.6488286852836609
1788043849245470500,11.539470458984376,8.702922821044922,3.7421371936798096,-1.1013327836990356
1788043849261511400,11.555511474609375,8.702922821044922,3.7493197917938232,-1.2880805730819702
1788043849277625900,11.5716259765625,8.75080680847168,3.8738183975219727,-1.3287819623947144
1788043849293714000,11.5877138671875,8.760383605957031,4.048594951629639,-1.2449848651885986
1788043849309770500,11.6037705078125,8.81784439086914,4.163516521453857,-1.0558429956436157
1788043849325890300,11.619890380859376,8.937555313110352,4.213795185089111,-0.811634361743927
1788043849341945900,11.63594580078125,9.114726066589355,4.242525577545166,-0.48602294921875
1788043849357970400,11.651970458984374,9.435548782348633,4.235342979431152,-0.2849099934101105
1788043849374071300,11.6680712890625,9.703699111938477,4.199429988861084,-0.22505496442317963
1788043849390093800,11.68409375,10.02691650390625,4.14915132522583,-0.17956513166427612
1788043849406180600,11.7001806640625,10.110713958740234,4.153939723968506,-0.10773907601833344
1788043849422252500,11.71625244140625,9.871294021606445,4.146757125854492,-0.1867477297782898
1788043849438328800,11.732328857421875,9.370905876159668,4.1874589920043945,-0.363918662071228
1788043849454437000,11.74843701171875,8.992621421813965,4.220977783203125,-0.47165772318840027
1788043849470517000,11.76451708984375,8.774748802185059,4.19224739074707,-0.5315127968788147
1788043849486604500,11.7806044921875,8.729259490966797,4.146757125854492,-0.768538773059845
1788043849502683000,11.796682861328126,8.671798706054688,4.07014274597168,-0.933738648891449
1788043849518759000,11.812759033203125,8.638279914855957,4.077325344085693,-1.0845733880996704
1788043849534876000,11.8288759765625,8.487444877624512,4.141968727111816,-1.2018892765045166
1788043849550913800,11.844913818359375,8.348581314086914,4.218583583831787,-1.2521674633026123
1788043849567010300,11.86101025390625,8.315062522888184,4.32871675491333,-1.1851298809051514
1788043849583090400,11.87709033203125,8.492233276367188,4.343081951141357,-1.1037269830703735
1788043849599115300,11.893115234375,8.904036521911621,4.311957359313965,-0.950498104095459
1788043849615239000,11.909239013671876,9.20091724395752,4.230554580688477,-0.8020575642585754
1788043849631283000,11.925282958984376,9.32541561126709,4.168305397033691,-0.730231523513794
1788043849647386400,11.941386474609375,9.313444137573242,4.1395745277404785,-0.7230489253997803
1788043849663426000,11.957426025390625,9.30386734008789,4.0964789390563965,-0.6847416758537292
1788043849679505000,11.9735048828125,9.370905876159668,4.05817174911499,-0.6967126727104187
1788043849695584500,11.98958447265625,9.502586364746094,4.010287761688232,-0.8307880163192749
1788043849711635700,12.0056357421875,9.500192642211914,3.974374771118164,-1.015141487121582
1788043849727742700,12.02174267578125,9.495404243469238,4.005499362945557,-1.139639973640442
1788043849743789000,12.0377890625,9.3828763961792,4.039018154144287,-1.173158884048462
1788043849759878700,12.053878662109375,9.121908187866211,4.122815132141113,-1.0989385843276978
1788043849775961900,12.0699619140625,8.87291145324707,4.256890773773193,-1.1516109704971313
1788043849792015000,12.08601513671875,8.813055992126465,4.2760443687438965,-1.1085153818130493
1788043849808134000,12.1021337890625,9.028534889221191,4.2760443687438965,-1.113303780555725
1788043849824161000,12.1181611328125,9.284713745117188,4.3191399574279785,-1.1420341730117798
1788043849840263400,12.134263427734375,9.169792175292969,4.398148536682129,-1.1851298809051514
1788043849856355300,12.150355224609376,8.813055992126465,4.508281707763672,-1.316810965538025
1788043849872420000,12.166420166015625,8.492233276367188,4.630385875701904,-1.4508862495422363
1788043849888550100,12.182550048828125,8.44195556640625,4.663905143737793,-1.3623007535934448
1788043849904618800,12.19861865234375,8.576030731201172,4.644751071929932,-1.2114660739898682
1788043849920725200,12.214725341796875,8.755595207214355,4.546588897705078,-1.1013327836990356
1788043849936823300,12.2308232421875,8.913613319396973,4.405331134796143,-1.1180921792984009
1788043849952896800,12.246896728515624,9.057265281677246,4.307168960571289,-1.194706678390503
1788043849968986000,12.262986083984375,8.942343711853027,4.268861770629883,-1.2641384601593018
1788043849985059000,12.27905908203125,8.53532886505127,4.3406877517700195,-1.37906014919281
1788043850001178400,12.295178466796875,8.17380428314209,4.4723687171936035,-1.3239935636520386
1788043850017293000,12.31129296875,8.212111473083496,4.513070106506348,-1.216254472732544
1788043850033334800,12.327334716796875,8.42040729522705,4.58968448638916,-1.0630255937576294
1788043850049437400,12.3434375,8.580819129943848,4.565742492675781,-0.8475474119186401
1788043850065524000,12.35952392578125,8.643068313598633,4.570530891418457,-0.7015010714530945
1788043850081637400,12.375637451171874,8.638279914855957,4.6040496826171875,-0.4572925269603729
1788043850097723100,12.39172314453125,8.686163902282715,4.637568473815918,-0.1867477297782898
1788043850113823700,12.40782373046875,8.767566680908203,4.654327869415283,0.05267243832349777
1788043850129937200,12.423937255859375,8.707711219787598,4.683058738708496,0.2322375625371933
1788043850145976000,12.43997607421875,8.669404029846191,4.714183330535889,0.11971008777618408
1788043850162102800,12.456102783203125,8.69334602355957,4.6471452713012695,-0.011971008032560349
1788043850178191400,12.47219140625,8.611943244934082,4.639962673187256,-0.14365209639072418
1788043850194249200,12.488249267578125,8.65743350982666,4.687847137451172,-0.19632454216480255
1788043850210369000,12.504369140625,8.705317497253418,4.707000732421875,-0.1149216815829277
1788043850226420500,12.52042041015625,8.755595207214355,4.697423934936523,0.06703764945268631
1788043850242493200,12.5364931640625,8.798690795898438,4.752490520477295,0.11971008777618408
1788043850258587100,12.552587158203124,8.827422142028809,4.757278919219971,0.12210428714752197
1788043850274651600,12.568651611328125,8.908824920654297,4.716577529907227,0.10534487664699554
1788043850290772200,12.584772216796875,9.004592895507812,4.714183330535889,0.0933738648891449
1788043850306834400,12.60083447265625,9.102754592895508,4.7405195236206055,0.12449848651885986
1788043850322909700,12.61690966796875,9.083600997924805,4.790797710418701,0.17477671802043915
1788043850339017500,12.633017578125,8.949525833129883,4.817133903503418,0.2106897532939911
1788043850355043800,12.6490439453125,8.678980827331543,4.833893299102783,0.30885201692581177
1788043850371126000,12.6651259765625,8.47786808013916,4.898536682128906,0.31842881441116333
1788043850387194400,12.6811943359375,8.339004516601562,4.8937482833862305,0.272938996553421
1788043850403219200,12.69721923828125,8.40843677520752,4.821922302246094,0.17477671802043915
1788043850419333000,12.7133330078125,8.547300338745117,4.730942726135254,0.06703764945268631
1788043850435366100,12.7293662109375,8.585607528686523,4.707000732421875,-0.05267243832349777
1788043850451456500,12.74545654296875,8.520963668823242,4.730942726135254,-0.11971008777618408
1788043850467529500,12.761529541015625,8.564059257507324,4.663905143737793,-0.21787235140800476
1788043850483605500,12.77760546875,8.722076416015625,4.618414878845215,-0.31124621629714966
1788043850499721000,12.793720947265625,8.712499618530273,4.623203277587891,-0.3495534360408783
1788043850515761700,12.80976171875,8.662221908569336,4.654327869415283,-0.2992752194404602
1788043850531864600,12.825864501953125,8.722076416015625,4.642356872558594,-0.3016694188117981
1788043850555990300,12.849990234375,8.983044624328613,4.570530891418457,-0.2059013396501541
1788043850572085500,12.86608544921875,9.07641887664795,4.558559894561768,-0.13407529890537262
1788043850588131000,12.882131103515626,9.217676162719727,4.534617900848389,-0.1364694982767105
1788043850604265200,12.89826513671875,9.174580574035645,4.4723687171936035,-0.043095629662275314
1788043850620354600,12.9143544921875,9.07641887664795,4.467580318450928,-0.016759412363171577
1788043850636357600,12.930357666015626,9.040505409240723,4.522646903991699,-0.035913024097681046
1788043850652457700,12.946457763671875,8.96149730682373,4.5609540939331055,-0.0071826050989329815
1788043850668502000,12.962501953125,8.69334602355957,4.642356872558594,-0.011971008032560349
1788043850684599600,12.978599609375,8.4108304977417,4.738125324249268,-0.019153613597154617
1788043850700704300,12.994704345703125,8.291120529174805,4.829104900360107,0.002394201699644327
1788043850716765400,13.010765380859375,8.439560890197754,4.867412090301514,-0.040701430290937424
1788043850732877300,13.026877197265625,8.702922821044922,4.8051629066467285,-0.023942016065120697
1788043850748935400,13.042935302734374,8.918401718139648,4.747702121734619,-0.13168109953403473
1788043850765036500,13.05903662109375,9.01895809173584,4.683058738708496,-0.2322375625371933
1788043850781142300,13.075142333984376,8.851364135742188,4.63517427444458,-0.40940847992897034
1788043850797214200,13.091214111328124,8.580819129943848,4.692635536193848,-0.5626373887062073
1788043850813329400,13.107329345703125,8.324639320373535,4.821922302246094,-0.5985504388809204
1788043850829392100,13.12339208984375,8.152256965637207,4.967968463897705,-0.629675030708313
1788043850845503000,13.1395029296875,8.219294548034668,5.054159641265869,-0.6536170840263367
1788043850861568500,13.155568603515626,8.456320762634277,5.0254292488098145,-0.6919242739677429
1788043850877645300,13.171645263671875,8.616731643676758,5.003881454467773,-0.706289529800415
1788043850893771800,13.187771728515624,8.619126319885254,5.039794445037842,-0.6919242739677429
1788043850909842400,13.203842529296875,8.56884765625,5.1116204261779785,-0.5913678407669067
1788043850925969200,13.21996923828125,8.56645393371582,5.200206279754639,-0.4812345504760742
1788043850942045700,13.236045654296875,8.556877136230469,5.214571475982666,-0.36152446269989014
1788043850958132200,13.25213232421875,8.547300338745117,5.233725070953369,-0.3423708379268646
1788043850974266400,13.268266357421876,8.65982723236084,5.2265424728393555,-0.33039984107017517
1788043850990354000,13.28435400390625,8.645462036132812,5.152322292327881,-0.3687070608139038
1788043851006486300,13.300486328125,8.635885238647461,5.128379821777344,-0.5027823448181152
1788043851022570800,13.31657080078125,8.683769226074219,5.0254292488098145,-0.45489832758903503
1788043851038661400,13.332661376953125,8.762778282165527,4.920084476470947,-0.4429273009300232
1788043851054785800,13.348785888671875,8.647856712341309,4.946420669555664,-0.47884035110473633
1788043851070872000,13.3648720703125,8.480262756347656,4.912901878356934,-0.4213795065879822
1788043851086957600,13.38095751953125,8.47547435760498,4.843470096588135,-0.23702596127986908
1788043851103053600,13.397053466796875,8.669404029846191,4.759673118591309,-0.07900865375995636
1788043851119112200,13.4131123046875,8.71489429473877,4.759673118591309,0.019153613597154617
1788043851135250000,13.42925,8.719682693481445,4.759673118591309,0.043095629662275314
1788043851151306000,13.445305908203125,8.401253700256348,4.838681697845459,-0.181959331035614
1788043851167432400,13.461432373046875,7.9176249504089355,5.0469770431518555,-0.35673606395721436
1788043851183538000,13.477537841796876,7.632715225219727,5.169081687927246,-0.21787235140800476
1788043851199608600,13.493608642578126,7.661445617675781,5.276820659637451,0.014365210197865963
1788043851215699200,13.50969921875,7.886500358581543,5.303156852722168,0.2346317619085312
1788043851231762400,13.525762451171875,8.288725852966309,5.276820659637451,0.22505496442317963
1788043851247871200,13.541871337890624,8.49941635131836,5.264849662780762,0.10295066982507706
1788043851263981800,13.55798193359375,8.485051155090332,5.2672438621521,0.038307227194309235
1788043851280008700,13.5740087890625,8.432378768920898,5.386953830718994,0.019153613597154617
1788043851296099800,13.590099853515625,8.382100105285645,5.451597213745117,0.05027823522686958
1788043851312175900,13.60617578125,8.255207061767578,5.480327606201172,0.014365210197865963
1788043851328297700,13.622297607421874,7.999027729034424,5.494692802429199,-0.12449848651885986
1788043851344367400,13.638367431640624,7.790732383728027,5.4875102043151855,-0.26336219906806946
1788043851360403200,13.6544033203125,7.671022415161133,5.51624059677124,-0.2777273952960968
1788043851376481300,13.670481201171874,7.714118003845215,5.501875400543213,-0.26575639843940735
1788043851392558800,13.686558837890624,7.910442352294922,5.485116004943848,-0.19632454216480255
1788043851408631000,13.702631103515625,8.147468566894531,5.477933406829834,-0.047884032130241394
1788043851424702000,13.718701904296875,8.279149055480957,5.413290023803711,0.016759412363171577
1788043851440739300,13.7347392578125,8.310274124145508,5.410895824432373,-0.05746084079146385
1788043851456825300,13.750825439453125,8.377311706542969,5.34625244140625,-0.14604631066322327
1788043851472911400,13.766911376953125,8.540117263793945,5.295974254608154,-0.1388636976480484
1788043851489043500,13.78304345703125,8.559270858764648,5.307945251464844,-0.12928688526153564
1788043851505125000,13.799125,8.482656478881836,5.420472621917725,-0.1388636976480484
1788043851521165600,13.81516552734375,8.473079681396484,5.439626216888428,-0.07661445438861847
1788043851537255000,13.8312548828125,8.537723541259766,5.453991413116455,0.019153613597154617
1788043851553294600,13.847294677734375,8.5903959274292,5.418078422546387,-0.014365210197865963
1788043851569427000,13.863427001953125,8.815450668334961,5.39174222946167,-0.17717093229293823
1788043851585522200,13.879522216796875,9.047688484191895,5.348646640777588,-0.2513911724090576
1788043851601577700,13.89557763671875,9.124302864074707,5.322310447692871,-0.33518823981285095
1788043851617677000,13.911677001953125,9.006986618041992,5.355829238891602,-0.22744916379451752
1788043851633716700,13.927716796875,8.990227699279785,5.396530628204346,-0.33279404044151306
1788043851649753300,13.94375341796875,8.561665534973145,5.616796970367432,-0.6799532771110535
1788043851665849600,13.959849609375,8.054094314575195,5.595249176025391,-0.8092401623725891
1788043851681902800,13.97590283203125,8.214506149291992,5.475539207458496,-0.9600749015808105
1788043851698004000,13.99200390625,9.033323287963867,5.240907669067383,-0.6392518281936646
1788043851714048300,14.00804833984375,10.247182846069336,4.977545261383057,-0.30885201692581177
1788043851730150000,14.02414990234375,11.224017143249512,4.687847137451172,-0.019153613597154617
1788043851746233300,14.0402333984375,11.662156105041504,4.359841346740723,0.38067805767059326
1788043851762232800,14.05623291015625,11.259930610656738,4.1874589920043945,0.47165772318840027
1788043851778342000,14.072341796875,10.524910926818848,4.156333923339844,0.3471592366695404
1788043851794394000,14.08839404296875,9.473855972290039,4.235342979431152,-0.14365209639072418
1788043851810506000,14.104506103515625,8.722076416015625,4.288015365600586,-0.6512228846549988
1788043851826618400,14.120618408203125,8.04930591583252,4.3622355461120605,-0.9217676520347595
1788043851842683400,14.136683349609376,7.745242595672607,4.474762916564941,-0.9002198576927185
1788043851858814700,14.152814697265624,7.838616371154785,4.496310710906982,-0.7637503147125244
1788043851874884000,14.168884033203126,8.128314971923828,4.405331134796143,-0.5147533416748047
1788043851891008300,14.18500830078125,8.4108304977417,4.259284973144531,-0.2753331959247589
1788043851907080200,14.201080078125,8.549694061279297,4.132391929626465,-0.12689268589019775
1788043851923159800,14.217159912109375,8.640673637390137,4.077325344085693,-0.06224924325942993
1788043851939278300,14.2332783203125,8.686163902282715,4.036623954772949,-0.0454898327589035
1788043851955367200,14.2493671875,8.611943244934082,4.01268196105957,-0.002394201699644327
1788043851971497000,14.2654970703125,8.425195693969727,3.9647979736328125,-0.028730420395731926
1788043851987584000,14.281583984375,8.159439086914062,3.950432777404785,-0.1173158809542656
1788043852003678700,14.2976787109375,7.797914981842041,3.9839515686035156,-0.31364041566848755
1788043852019799000,14.313799072265626,7.50582218170166,4.022258758544922,-0.4429273009300232
1788043852035842600,14.329842529296876,7.29034423828125,4.106055736541748,-0.5315127968788147
1788043852051977700,14.345977783203125,7.287950038909912,4.261679172515869,-0.5051765441894531
1788043852068079900,14.362079833984374,7.2568254470825195,4.352658748626709,-0.3687070608139038
1788043852084130000,14.378130126953126,7.354987621307373,4.448426723480225,-0.3280056416988373
1788043852100254700,14.394254638671875,7.376535415649414,4.565742492675781,-0.2968810200691223
1788043852116305700,14.4103056640625,7.524975776672363,4.709394931793213,-0.31364041566848755
1788043852132400600,14.426400634765624,7.6782050132751465,4.862623691558838,-0.28969839215278625
1788043852148503000,14.4425029296875,7.9846625328063965,5.020640850067139,-0.26336219906806946
1788043852164521200,14.458521240234376,8.403648376464844,5.1331682205200195,-0.26336219906806946
1788043852180601300,14.474601318359374,8.710105895996094,5.16429328918457,-0.19153612852096558
1788043852196659000,14.490658935546875,9.131484985351562,5.195417881011963,-0.2944868206977844
1788043852212769500,14.50676953125,9.334992408752441,5.231330871582031,-0.42856210470199585
1788043852228837400,14.52283740234375,9.557653427124023,5.272032260894775,-0.6488286852836609
1788043852244911900,14.538911865234375,9.734824180603027,5.279214859008789,-0.7924807667732239
1788043852261001500,14.55500146484375,10.043676376342773,5.252878665924072,-0.7015010714530945
1788043852277072100,14.571072021484374,10.302249908447266,5.195417881011963,-0.4692635238170624
1788043852293187600,14.5871875,10.38604736328125,5.149928092956543,-0.3064578175544739
1788043852309259300,14.60325927734375,10.261548042297363,5.197812080383301,-0.5051765441894531
1788043852325340700,14.619340576171876,9.68933391571045,5.638344764709473,-1.1228805780410767
1788043852341430800,14.6354306640625,9.121908187866211,5.669469833374023,-1.048660397529602
1788043852357504800,14.6515048828125,9.167398452758789,5.475539207458496,-0.44771572947502136
1788043852373624600,14.66762451171875,10.072406768798828,5.188235282897949,0.2849099934101105
1788043852389694000,14.68369384765625,11.39161205291748,4.441244125366211,0.8595184087753296
1788043852405712400,14.69971240234375,11.918335914611816,3.667917013168335,0.8786720037460327
1788043852421789700,14.715789794921875,11.623848915100098,3.157952070236206,0.20111294090747833
1788043852437866800,14.73186669921875,10.565611839294434,3.090914487838745,-0.3711012601852417
1788043852453994800,14.747994873046874,9.399636268615723,3.1962592601776123,-0.47644615173339844
1788043852470105600,14.764105712890625,8.53532886505127,3.4548330307006836,-0.38546648621559143
1788043852486183400,14.780183349609375,7.915230751037598,3.648763418197632,0.002394201699644327
1788043852502279000,14.79627880859375,7.68538761138916,3.6990416049957275,0.5650315880775452
1788043852518355200,14.812355224609375,7.7883381843566895,3.7205893993377686,0.9193734526634216
1788043852534485000,14.828485107421875,7.9176249504089355,3.6966474056243896,1.1540051698684692
1788043852550573600,14.844573486328125,8.109161376953125,3.6798880100250244,1.1540051698684692
1788043852566668000,14.86066796875,8.226476669311523,3.667917013168335,0.9983820915222168
1788043852582762000,14.876761962890624,8.279149055480957,3.691859006881714,0.6751648783683777
1788043852598801700,14.8928017578125,8.152256965637207,3.8163576126098633,0.2849099934101105
1788043852614895600,14.9088955078125,7.929595947265625,3.952826976776123,0.1149216815829277
1788043852630994700,14.92499462890625,7.752425193786621,4.0533833503723145,0.08379705995321274
1788043852647000800,14.941000732421875,7.757213592529297,4.199429988861084,0.05506663769483566
1788043852663105300,14.957105224609375,7.745242595672607,4.2951979637146,0.06224924325942993
1788043852679155700,14.97315576171875,7.649474620819092,4.314351558685303,0.10055647045373917
1788043852695204000,14.9892041015625,7.659051418304443,4.414907932281494,0.040701430290937424
1788043852711308000,15.00530810546875,7.814674377441406,4.4532151222229,-0.05027823522686958
1788043852727372300,15.021372314453124,7.936778545379639,4.455609321594238,0.011971008032560349
1788043852743488500,15.037488525390625,7.975085735321045,4.496310710906982,0.016759412363171577
1788043852759552300,15.05355224609375,7.99184513092041,4.572925090789795,-0.06224924325942993
1788043852775614200,15.0696142578125,8.044517517089844,4.649539470672607,-0.0454898327589035
1788043852791728000,15.08572802734375,8.317456245422363,4.69024133682251,0.033518824726343155
1788043852807803100,15.10180322265625,8.662221908569336,4.6471452713012695,-0.047884032130241394
1788043852823924700,15.1179248046875,8.999804496765137,4.553771495819092,-0.40462008118629456
1788043852839997400,15.13399755859375,9.244012832641602,4.503493309020996,-0.8810662031173706
1788043852856074500,15.150074462890625,9.394847869873047,4.527435302734375,-1.1516109704971313
1788043852872156000,15.166156005859374,9.634267807006836,4.656722068786621,-1.314416766166687
1788043852888249000,15.1822490234375,9.816226959228516,4.726154327392578,-1.1803414821624756
1788043852904385800,15.1983857421875,10.012551307678223,4.833893299102783,-0.8786720037460327
1788043852920474400,15.214474365234375,10.089165687561035,4.867412090301514,-0.37828385829925537
1788043852936611300,15.230611328125,10.211270332336426,4.90571928024292,-0.05985504388809204
1788043852952702500,15.246702392578126,10.228029251098633,5.066130638122559,-0.13407529890537262
1788043852968800800,15.26280078125,9.641449928283691,5.367800235748291,-0.5506663918495178
1788043852984935000,15.278934814453125,8.944737434387207,5.542576789855957,-0.9744400978088379
1788043853000981800,15.294981689453126,9.071630477905273,5.564124584197998,-1.280897855758667
1788043853017025800,15.31102587890625,10.043676376342773,5.327098846435547,-1.1085153818130493
1788043853033122000,15.3271220703125,11.3269681930542,4.824316501617432,-0.9600749015808105
1788043853049161000,15.343160888671875,11.997344970703125,4.197035789489746,-1.0031704902648926
1788043853065239600,15.359239501953125,11.918335914611816,3.713406801223755,-1.3263877630233765
1788043853081277400,15.37527734375,11.298237800598145,3.469198226928711,-1.53707754611969
1788043853097380400,15.39138037109375,9.895236015319824,3.584120035171509,-1.3431471586227417
1788043853113462500,15.407462646484374,8.662221908569336,3.907337188720703,-1.0319008827209473
1788043853129518300,15.423518310546875,7.819462776184082,4.206612586975098,-0.6560112833976746
1788043853145592600,15.439592529296876,7.417236804962158,4.331110954284668,-0.15801730751991272
1788043853161660700,15.45566064453125,7.570465564727783,4.228160381317139,0.12928688526153564
1788043853177773600,15.471773681640625,8.042123794555664,3.9384617805480957,0.1412578970193863
1788043853193889500,15.4878896484375,8.303091049194336,3.6583402156829834,0.1173158809542656
1788043853209969400,15.503969482421875,8.379706382751465,3.4979286193847656,0.2106897532939911
1788043853226057500,15.520057373046875,8.437167167663574,3.399766445159912,0.363918662071228
1788043853242130200,15.536130126953125,8.614337921142578,3.315969467163086,0.4596867263317108
1788043853258245400,15.552245361328126,8.808267593383789,3.248931646347046,0.4213795065879822
1788043853274313200,15.568313232421875,8.652645111083984,3.268085241317749,0.23702596127986908
1788043853290398000,15.58439794921875,8.097189903259277,3.383007049560547,-0.028730420395731926
1788043853306488600,15.600488525390626,7.5968017578125,3.445256233215332,-0.16519992053508759
1788043853322573300,15.6165732421875,7.259219646453857,3.5745432376861572,-0.21547815203666687
1788043853338698800,15.63269873046875,7.16584587097168,3.73016619682312,-0.2346317619085312
1788043853354780400,15.648780517578125,7.268796443939209,3.9025487899780273,-0.24420857429504395
1788043853370874000,15.6648740234375,7.556100368499756,4.005499362945557,-0.1173158809542656
1788043853386966500,15.680966552734375,7.793126583099365,4.125209331512451,-0.040701430290937424
1788043853403056000,15.69705615234375,7.970297336578369,4.316745758056641,-0.08858546614646912
1788043853419146200,15.713146240234375,8.118738174438477,4.469974517822266,-0.0933738648891449
1788043853435237000,15.729237060546875,8.47547435760498,4.529829502105713,-0.05027823522686958
1788043853451338000,15.745337890625,8.93037223815918,4.608838081359863,0
1788043853467436000,15.76143603515625,9.406818389892578,4.685452938079834,0.019153613597154617
1788043853483532800,15.77753271484375,9.696516990661621,4.683058738708496,0.05506663769483566
1788043853499629800,15.7936298828125,9.861717224121094,4.821922302246094,-0.021547814831137657
1788043853515722500,15.809722412109375,9.837775230407715,4.891354084014893,-0.11971008777618408
1788043853531779300,15.825779296875,9.746794700622559,4.900930881500244,-0.0933738648891449
1788043853547880700,15.841880615234375,9.825803756713867,4.876988887786865,-0.016759412363171577
1788043853563926300,15.85792626953125,10.113107681274414,4.874594688415527,0.004788403399288654
1788043853580021000,15.87402099609375,10.319009780883789,4.778826713562012,-0.038307227194309235
1788043853596131800,15.8901318359375,10.35252857208252,4.7405195236206055,-0.38546648621559143
1788043853612199000,15.906198974609374,9.99100399017334,5.125985622406006,-0.9672574996948242
1788043853628311000,15.92231103515625,9.272743225097656,5.4228668212890625,-0.790086567401886
1788043853644371000,15.938370849609376,9.059659004211426,5.370194435119629,0.13168109953403473
1788043853660434700,15.9544345703125,9.404424667358398,5.4444146156311035,0.9816226959228516
1788043853676550400,15.97055029296875,9.90241813659668,5.200206279754639,1.3527239561080933
1788043853692630500,15.986630615234375,10.374075889587402,4.608838081359863,1.359906554222107
1788043853708746500,16.00274658203125,10.730812072753906,4.034229755401611,0.7326257228851318
1788043853724808000,16.018807861328124,10.3549222946167,3.8067808151245117,0.14604631066322327
1788043853740923100,16.034923095703125,9.485827445983887,3.821146011352539,-0.09816227108240128
1788043853757044000,16.0510439453125,8.724471092224121,3.9624037742614746,-0.031124621629714966
1788043853773128400,16.06712841796875,8.20492935180664,4.1180267333984375,0.19632454216480255
1788043853789268500,16.0832685546875,7.987056732177734,4.153939723968506,0.5554547905921936
1788043853805344800,16.0993447265625,8.090007781982422,4.005499362945557,1.0630255937576294
1788043853821468200,16.11546826171875,8.432378768920898,3.758896589279175,1.522712230682373
1788043853837525200,16.131525146484375,8.772355079650879,3.6511576175689697,1.6065093278884888
1788043853853569000,16.147569091796875,9.14585018157959,3.4787750244140625,1.5418659448623657
1788043853869682200,16.16368212890625,9.241618156433105,3.308786630630493,1.2737152576446533
1788043853885765000,16.17976513671875,9.047688484191895,3.2561142444610596,0.730231523513794
1788043853901900000,16.195900146484377,8.664615631103516,3.2800562381744385,0.3711012601852417
1788043853917990400,16.211990478515624,8.190564155578613,3.3710360527038574,0.16519992053508759
1788043853934094000,16.228093994140625,7.723694801330566,3.514688014984131,0.033518824726343155
1788043853950228000,16.24422802734375,7.328651428222656,3.646369218826294,-0.06703764945268631
1788043853966276000,16.260276123046875,7.189787864685059,3.8091750144958496,-0.2561795711517334
1788043853982370300,16.276370361328127,7.266402244567871,3.8977603912353516,-0.3711012601852417
1788043853998468900,16.29246875,7.309497833251953,3.9049429893493652,-0.4572925269603729
1788043854014482000,16.30848193359375,7.443572998046875,4.022258758544922,-0.608127236366272
1788043854030579000,16.324578857421876,7.740454196929932,4.122815132141113,-0.608127236366272
1788043854046639600,16.3406396484375,7.955932140350342,4.2951979637146,-0.3974374830722809
1788043854062742000,16.356741943359374,8.02536392211914,4.4532151222229,-0.22744916379451752
1788043854078851300,16.372851318359373,8.20492935180664,4.55616569519043,-0.1173158809542656
1788043854094920000,16.388919921875,8.607154846191406,4.572925090789795,-0.10773907601833344
1788043854111012600,16.4050126953125,9.08838939666748,4.537012100219727,-0.16519992053508759
1788043854127085600,16.42108544921875,9.354146003723145,4.481945514678955,-0.30885201692581177
1788043854143201500,16.437201416015625,9.495404243469238,4.4939165115356445,-0.5410895943641663
1788043854159274200,16.453274169921876,9.481039047241211,4.6040496826171875,-0.751779317855835
1788043854175352000,16.46935205078125,9.397241592407227,4.778826713562012,-0.751779317855835
1788043854191441400,16.48544140625,9.289502143859863,5.003881454467773,-0.5267243981361389
1788043854207520300,16.501520263671875,9.160215377807617,5.154716491699219,-0.14365209639072418
1788043854223639000,16.51763916015625,9.136273384094238,5.2049946784973145,0.33279404044151306
1788043854239711000,16.5337109375,9.294290542602539,5.185841083526611,0.4884171485900879
1788043854255796500,16.54979638671875,9.445125579833984,5.169081687927246,0.5171475410461426
1788043854271884800,16.565884765625,9.528923034667969,5.1595048904418945,0.4836287498474121
1788043854287970800,16.581970703125,9.244012832641602,5.4444146156311035,0.13407529890537262
1788043854304100400,16.598100341796876,8.911218643188477,5.7125654220581055,-0.3447650372982025
1788043854320183300,16.614183349609377,9.030928611755371,5.659893035888672,-0.6272808313369751
1788043854336279300,16.630279296875,9.694122314453125,5.475539207458496,-0.9289502501487732
1788043854352377300,16.64637744140625,10.350133895874023,5.166687488555908,-1.1013327836990356
1788043854368467500,16.662467529296876,10.685321807861328,4.764461517333984,-1.235408067703247
1788043854384597500,16.678597412109376,10.596736907958984,4.400542736053467,-1.2330138683319092
1788043854400679400,16.694679443359377,10.316615104675293,4.2975921630859375,-1.0079588890075684
1788043854416738000,16.710738037109376,10.072406768798828,4.3406877517700195,-0.49559974670410156
1788043854432837000,16.726837158203125,9.895236015319824,4.266467571258545,-0.13407529890537262
1788043854448883200,16.74288330078125,9.402029991149902,4.264073371887207,-0.17477671802043915
1788043854464927000,16.758927001953126,8.595184326171875,4.180276393890381,-0.40222588181495667
1788043854481026000,16.775026123046874,7.850587368011475,4.129997730255127,-0.646434485912323
1788043854497085400,16.79108544921875,7.647080421447754,4.108449935913086,-1.0127472877502441
1788043854513194200,16.8071943359375,7.757213592529297,3.936067581176758,-1.2952631711959839
1788043854529244400,16.823244384765626,8.188169479370117,3.687070608139038,-1.290474772453308
1788043854545343000,16.839343017578123,8.621520042419434,3.5721490383148193,-0.9217676520347595
1788043854561449000,16.855448974609374,9.08838939666748,3.4787750244140625,-0.31124621629714966
1788043854577518000,16.87151806640625,9.430760383605957,3.375824451446533,0.2346317619085312
1788043854593621500,16.88762158203125,9.560047149658203,3.2345664501190186,0.569819986820221
1788043854609683500,16.903683349609373,9.548076629638672,3.155557870864868,0.6248866319656372
1788043854625796000,16.919796142578125,9.32541561126709,3.095702886581421,0.4812345504760742
1788043854641908200,16.935908203125,8.7268648147583,3.1244332790374756,0.3758896589279175
1788043854657943600,16.951943603515623,8.157045364379883,3.24414324760437,0.2944868206977844
1788043854674063600,16.968063720703125,7.666234016418457,3.442862033843994,0.20350714027881622
1788043854690132000,16.984132080078126,7.390900611877441,3.6296098232269287,0.20111294090747833
1788043854706245600,17.00024560546875,7.546523571014404,3.754108190536499,0.06703764945268631
1788043854722320100,17.016320068359374,8.094796180725098,3.8331170082092285,0.07900865375995636
1788043854738402600,17.032402587890626,8.487444877624512,3.8546648025512695,0.2849099934101105
1788043854754532600,17.04853271484375,8.760383605957031,3.9647979736328125,0.35913026332855225
1788043854770610200,17.064610107421874,8.992621421813965,4.065354347229004,0.33518823981285095
1788043854786736400,17.080736328125,9.210494041442871,4.132391929626465,0.47884035110473633
1788043854802819600,17.096819580078126,9.502586364746094,4.220977783203125,0.6272808313369751
1788043854818913000,17.1129130859375,9.787496566772461,4.321534156799316,0.6536170840263367
1788043854835041500,17.12904150390625,9.715670585632324,4.352658748626709,0.7565677165985107
1788043854851090000,17.14508984375,9.311050415039062,4.431667327880859,0.6224924325942993
1788043854867229000,17.16122900390625,8.923190116882324,4.479551315307617,0.3974374830722809
1788043854883322400,17.177322265625,8.947132110595703,4.462791919708252,0.363918662071228
1788043854899385000,17.193385009765624,9.150638580322266,4.4292731285095215,0.43095630407333374
1788043854915527000,17.20952685546875,9.26795482635498,4.405331134796143,0.4429273009300232
1788043854931583500,17.22558349609375,9.27034854888916,4.412513732910156,0.3519476354122162
1788043854947685000,17.24168505859375,9.169792175292969,4.517858505249023,0.090979665517807
1788043854963797800,17.2577978515625,8.71489429473877,4.965574264526367,-0.4165911078453064
1788043854979865300,17.273865234375,8.274360656738281,5.257667064666748,-0.1604115068912506
1788043854995958300,17.289958251953124,8.556877136230469,5.319916248321533,0.42856210470199585
1788043855012021500,17.306021484375,9.627084732055664,5.145139217376709,1.3000515699386597
1788043855028132400,17.32213232421875,10.529699325561523,4.6734819412231445,1.6184803247451782
1788043855044255200,17.338255126953126,11.291055679321289,3.998316764831543,1.5969325304031372
1788043855060304100,17.35430419921875,11.417947769165039,3.485957622528076,0.8930372595787048
1788043855076389400,17.370389404296876,10.915165901184082,3.177105665206909,0.28969839215278625
1788043855092446500,17.386446533203124,10.065223693847656,3.1699230670928955,0.06464344263076782
1788043855108512300,17.40251220703125,9.404424667358398,3.3063924312591553,0.16759411990642548
1788043855124620300,17.418620361328124,8.621520042419434,3.5266590118408203,0.26815059781074524
1788043855140702700,17.43470263671875,7.781155586242676,3.799597978591919,0.26096799969673157
1788043855156780500,17.450780517578124,7.103596210479736,4.0964789390563965,0.19393034279346466
1788043855172845800,17.466845703125,6.8593878746032715,4.0964789390563965,0.3926490843296051
1788043855188941000,17.482941162109373,7.41484260559082,4.050989151000977,0.7852981686592102
1788043855205013800,17.499013671875,8.42040729522705,3.9647979736328125,1.1037269830703735
1788043855221098200,17.51509814453125,9.2033109664917,3.8546648025512695,1.37906014919281
1788043855237193200,17.531193115234377,9.624691009521484,3.754108190536499,1.4293384552001953
1788043855253276000,17.54727587890625,9.72285270690918,3.7493197917938232,1.1755530834197998
1788043855269403000,17.56340283203125,9.648633003234863,3.7205893993377686,0.7110779285430908
1788043855285479400,17.5794794921875,9.461885452270508,3.6511576175689697,0.42856210470199585
1788043855301572400,17.595572265625,9.253589630126953,3.6822822093963623,0.26815059781074524
1788043855317662000,17.611661865234375,8.927978515625,3.7445313930511475,0.24181437492370605
1788043855333708500,17.62770849609375,8.523358345031738,3.821146011352539,0.2968810200691223
1788043855349848300,17.643848388671874,8.346187591552734,3.928884983062744,0.23702596127986908
1788043855365942300,17.6599423828125,8.418013572692871,3.9695863723754883,0.24660277366638184
1788043855381997300,17.675997314453124,8.508993148803711,3.955221176147461,0.27054479718208313
1788043855398104600,17.6921044921875,8.597578048706055,4.017470359802246,0.24660277366638184
1788043855414157600,17.708157470703124,8.571242332458496,4.046200752258301,0.21547815203666687
1788043855430210600,17.72421044921875,8.635885238647461,4.015076160430908,0.181959331035614
1788043855446318300,17.740318359375,8.827422142028809,4.062960147857666,0.11971008777618408
1788043855462338300,17.75633837890625,9.095572471618652,4.05817174911499,0.05985504388809204
1788043855478450000,17.772449951171875,9.349357604980469,3.97916316986084,-0.14844051003456116
1788043855494509000,17.788509033203123,9.437943458557129,3.912125587463379,-0.31603461503982544
1788043855510619400,17.804619384765626,9.466673851013184,3.9193081855773926,-0.5770025849342346
1788043855526732000,17.82073193359375,9.555258750915527,3.885789394378662,-0.7613561153411865
1788043855542804000,17.836803955078125,9.524134635925293,3.847482204437256,-0.7637503147125244
1788043855558931000,17.852930908203124,9.454702377319336,3.8355112075805664,-0.6799532771110535
1788043855575003600,17.869003662109375,9.311050415039062,3.8594532012939453,-0.5027823448181152
1788043855591118600,17.88511865234375,9.014169692993164,3.93367338180542,-0.3447650372982025
1788043855607237400,17.9012373046875,8.808267593383789,4.046200752258301,-0.3663128614425659
1788043855623320000,17.917320068359373,8.81784439086914,4.180276393890381,-0.30885201692581177
1788043855639449000,17.933448974609377,9.105149269104004,4.185064792633057,-0.181959331035614
1788043855655522800,17.949522705078124,9.41639518737793,4.10366153717041,0.016759412363171577
1788043855671594800,17.9655947265625,9.646238327026367,4.046200752258301,0.07661445438861847
1788043855687669200,17.981669189453125,9.674968719482422,4.036623954772949,0.043095629662275314
1788043855703751700,17.997751708984374,9.655815124511719,4.027047157287598,0.090979665517807
1788043855719884300,18.01388427734375,9.526528358459473,4.113238334655762,0.23702596127986908
1788043855735971000,18.02997119140625,9.402029991149902,4.23773717880249,0.45010992884635925
1788043855752058400,18.046058349609375,9.277531623840332,4.323928356170654,0.5841852426528931
1788043855768146200,18.062146240234377,9.035717010498047,4.347870349884033,0.6200982332229614
1788043855784242700,18.07824267578125,8.695740699768066,4.333505153656006,0.5195417404174805
1788043855800369000,18.094368896484376,8.47786808013916,4.316745758056641,0.4165911078453064
1788043855816465700,18.110465576171876,8.5903959274292,4.247313976287842,0.363918662071228
1788043855832600800,18.126600830078125,8.808267593383789,4.177882194519043,0.3256114423274994
1788043855848699100,18.14269921875,8.951920509338379,4.079719543457031,0.19393034279346466
1788043855864802800,18.158802734375,8.990227699279785,4.041412353515625,0.002394201699644327
1788043855880933000,18.17493310546875,8.918401718139648,4.022258758544922,-0.15322890877723694
1788043855896988000,18.19098779296875,8.858546257019043,4.017470359802246,-0.12928688526153564
1788043855913083000,18.207082763671874,8.87051773071289,4.084507942199707,-0.11252748221158981
1788043855929190400,18.2231904296875,8.93037223815918,4.101267337799072,-0.05027823522686958
1788043855945208800,18.239208740234375,8.858546257019043,4.1156325340271,-0.06703764945268631
1788043855961300200,18.25530029296875,8.865729331970215,4.1395745277404785,-0.10534487664699554
1788043855977360400,18.2713603515625,9.016563415527344,4.151545524597168,-0.10295066982507706
1788043855993463800,18.2874638671875,9.208099365234375,4.120420932769775,-0.10055647045373917
1788043856009577500,18.303577392578124,9.246406555175781,4.158728122711182,-0.0694318488240242
1788043856025651000,18.31965087890625,9.174580574035645,4.1874589920043945,-0.009576806798577309
1788043856041742600,18.33574267578125,9.174580574035645,4.2544965744018555,0.07661445438861847
1788043856057816600,18.351816650390624,9.10993766784668,4.292803764343262,0.1388636976480484
1788043856073884200,18.36788427734375,9.083600997924805,4.302380561828613,0.10534487664699554
1788043856089955800,18.383955810546876,9.002198219299316,4.2951979637146,0.06224924325942993
1788043856105990100,18.399990234375,8.925583839416504,4.309563159942627,0.05985504388809204
1788043856122078000,18.416077880859376,8.927978515625,4.323928356170654,0.06464344263076782
1788043856138155500,18.432155517578124,8.892065048217773,4.371812343597412,0.09576806426048279
1788043856154281700,18.44828173828125,8.83939266204834,4.376600742340088,0.13168109953403473
1788043856170358000,18.46435791015625,8.815450668334961,4.3861775398254395,0.181959331035614
1788043856186451000,18.480450927734374,8.779537200927734,4.398148536682129,0.22744916379451752
1788043856202541600,18.49654150390625,8.822632789611816,4.436455726623535,0.2753331959247589
1788043856218635500,18.512635498046876,8.949525833129883,4.424484729766846,0.3064578175544739
1788043856234770200,18.528770263671873,8.925583839416504,4.4077253341674805,0.2537853717803955
1788043856250856200,18.544856201171875,8.882488250732422,4.443638324737549,0.17717093229293823
1788043856266961700,18.560961669921873,8.916007041931152,4.400542736053467,0.16519992053508759
1788043856283062500,18.5770625,9.033323287963867,4.388571739196777,0.12449848651885986
1788043856299156200,18.59315625,9.062053680419922,4.383783340454102,0.10295066982507706
1788043856315252000,18.609251953125,8.949525833129883,4.369418144226074,0.011971008032560349
1788043856331349200,18.625349365234374,8.832210540771484,4.3622355461120605,-0.014365210197865963
1788043856347411500,18.641411376953126,8.757989883422852,4.352658748626709,-0.047884032130241394
1788043856363519000,18.65751904296875,8.69095230102539,4.381389141082764,-0.08858546614646912
1788043856379574500,18.673574462890624,8.719682693481445,4.350264549255371,-0.0694318488240242
1788043856395672300,18.68967236328125,8.83939266204834,4.32871675491333,-0.043095629662275314
1788043856411776300,18.7057763671875,8.863334655761719,4.321534156799316,-0.0454898327589035
1788043856427799000,18.721799072265625,8.851364135742188,4.304774761199951,-0.014365210197865963
1788043856443915000,18.7379150390625,8.846575736999512,4.335899353027344,-0.07900865375995636
1788043856459980000,18.75397998046875,8.875306129455566,4.304774761199951,-0.047884032130241394
1788043856476094700,18.7700947265625,8.882488250732422,4.311957359313965,0
1788043856492212700,18.786212646484376,8.813055992126465,4.357447147369385,0.040701430290937424
1788043856508291800,18.802291748046876,8.753201484680176,4.400542736053467,0.10295066982507706
1788043856524444000,18.81844384765625,8.796297073364258,4.4077253341674805,0.07182604819536209
1788043856540514300,18.834514404296876,8.765172004699707,4.376600742340088,0.040701430290937424
1788043856556636700,18.85063671875,8.78432559967041,4.376600742340088,0.08379705995321274
1788043856572713700,18.866713623046873,8.916007041931152,4.388571739196777,0.0933738648891449
1788043856588802000,18.882802001953124,9.069235801696777,4.393360137939453,0.031124621629714966
1788043856604941800,18.89894189453125,9.009381294250488,4.378994941711426,-0.040701430290937424
1788043856621019100,18.91501904296875,9.026140213012695,4.414907932281494,-0.1412578970193863
1788043856637152500,18.931152587890626,9.174580574035645,4.371812343597412,-0.15083470940589905
1788043856653240300,18.947240234375,9.188945770263672,4.367023944854736,-0.13407529890537262
1788043856669287400,18.963287353515625,9.05247688293457,4.338293552398682,-0.31603461503982544
1788043856685415400,18.97941552734375,8.841787338256836,4.345476150512695,-0.40701428055763245
1788043856701515500,18.995515625,8.762778282165527,4.390965938568115,-0.40222588181495667
1788043856717656600,19.011656494140624,8.808267593383789,4.390965938568115,-0.3280056416988373
1788043856733753000,19.027753173828124,8.853757858276367,4.3861775398254395,-0.24420857429504395
1788043856749814800,19.043814697265624,8.841787338256836,4.376600742340088,-0.2298433631658554
1788043856765948000,19.059947998046876,8.846575736999512,4.343081951141357,-0.2298433631658554
1788043856782003500,19.07600341796875,8.913613319396973,4.321534156799316,-0.19153612852096558
1788043856798100700,19.092100830078124,9.009381294250488,4.261679172515869,-0.2298433631658554
1788043856814204700,19.10820458984375,8.973467826843262,4.299986362457275,-0.1604115068912506
1788043856830262500,19.124262451171877,8.882488250732422,4.347870349884033,-0.08379705995321274
1788043856846378800,19.140378662109374,8.875306129455566,4.378994941711426,0.047884032130241394
1788043856862436400,19.156436279296877,8.801085472106934,4.357447147369385,0.08379705995321274
1788043856878540300,19.172540283203126,8.779537200927734,4.2975921630859375,0.0933738648891449
1788043856894649300,19.1886494140625,8.815450668334961,4.285621166229248,0.07182604819536209
1788043856910715100,19.204715087890627,8.767566680908203,4.24970817565918,0.15562310814857483
1788043856926805000,19.220804931640625,8.678980827331543,4.309563159942627,0.07422025501728058
1788043856942870300,19.236870361328126,8.633491516113281,4.345476150512695,0.026336219161748886
1788043856958934800,19.252934814453123,8.497021675109863,4.381389141082764,-0.0454898327589035
1788043856975008500,19.269008544921874,8.60236644744873,4.426878929138184,-0.13407529890537262
1788043856991085600,19.28508544921875,8.89445972442627,4.458003520965576,-0.20111294090747833
1788043857007177700,19.301177734375,9.11233139038086,4.376600742340088,-0.26336219906806946
1788043857023256800,19.3172568359375,9.136273384094238,4.381389141082764,-0.42377370595932007
1788043857039332000,19.33333203125,9.148244857788086,4.381389141082764,-0.47405192255973816
1788043857055409200,19.3494091796875,9.119514465332031,4.37420654296875,-0.4118026793003082
1788043857071494100,19.365494140625,9.167398452758789,4.405331134796143,-0.40940847992897034
1788043857087586300,19.38158642578125,9.2033109664917,4.378994941711426,-0.33758243918418884
1788043857103669500,19.39766943359375,9.157821655273438,4.37420654296875,-0.33039984107017517
1788043857119749600,19.41374951171875,9.05487060546875,4.383783340454102,-0.38067805767059326
1788043857135831600,19.42983154296875,8.978256225585938,4.388571739196777,-0.4141969084739685
1788043857151926800,19.4459267578125,8.9064302444458,4.304774761199951,-0.31364041566848755
1788043857168021200,19.462021240234375,8.87291145324707,4.24970817565918,-0.272938996553421
1788043857184116000,19.478115966796874,8.951920509338379,4.211400985717773,-0.22026655077934265
1788043857200213800,19.4942138671875,8.89685344696045,4.218583583831787,-0.22266076505184174
1788043857216313300,19.510313232421876,8.667010307312012,4.28322696685791,-0.2849099934101105
1788043857232424200,19.526424072265623,8.49941635131836,4.364629745483398,-0.43095630407333374
1788043857248530200,19.5425302734375,8.662221908569336,4.400542736053467,-0.5674257874488831
1788043857264580000,19.558580078125,9.045293807983398,4.393360137939453,-0.7015010714530945
1788043857280677400,19.574677490234375,9.2033109664917,4.381389141082764,-0.849941611289978
1788043857296781000,19.590781005859377,9.20091724395752,4.438849925994873,-1.1037269830703735
1788043857312793900,19.6067939453125,9.220070838928223,4.4292731285095215,-1.400607943534851
1788043857328893200,19.62289306640625,9.2033109664917,4.335899353027344,-1.5179238319396973
1788043857344949000,19.638948974609374,9.097966194152832,4.335899353027344,-1.6496049165725708
1788043857361053200,19.65505322265625,8.935160636901855,4.3191399574279785,-1.7381904125213623
1788043857377161700,19.67116162109375,8.951920509338379,4.218583583831787,-1.778891921043396
1788043857393179600,19.6871796875,8.937555313110352,4.10366153717041,-1.867477297782898
1788043857409293600,19.70329345703125,9.014169692993164,4.000710964202881,-2.0470423698425293
1788043857425354200,19.719354248046876,9.114726066589355,3.914519786834717,-2.212242364883423
1788043857441410000,19.73541015625,9.215282440185547,3.8355112075805664,-2.2577321529388428
1788043857457522200,19.751522216796875,9.301473617553711,3.7924153804779053,-2.252943754196167
1788043857473590800,19.7675908203125,9.220070838928223,3.7469255924224854,-2.164358377456665
1788043857489709300,19.783709228515626,9.136273384094238,3.713406801223755,-2.1164743900299072
1788043857505773000,19.79977294921875,9.050082206726074,3.6798880100250244,-2.094926595687866
1788043857521888000,19.815887939453123,9.038111686706543,3.6750996112823486,-2.0853497982025146
1788043857537960400,19.83196044921875,9.136273384094238,3.6942532062530518,-2.073378562927246
1788043857554040800,19.848040771484374,9.32541561126709,3.6750996112823486,-2.0015525817871094
1788043857570170000,19.864170166015626,9.409213066101074,3.643975019454956,-1.9560627937316895
1788043857586251500,19.88025146484375,9.445125579833984,3.5673606395721436,-1.8746598958969116
1788043857602371600,19.89637158203125,9.461885452270508,3.555389642715454,-1.7860745191574097
1788043857618452500,19.912452392578125,9.50498104095459,3.512293815612793,-1.580173134803772
1788043857634544600,19.928544677734376,9.548076629638672,3.44765043258667,-1.4053963422775269
1788043857650665700,19.944665771484374,9.495404243469238,3.3901896476745605,-1.290474772453308
1788043857666763800,19.960763671875,9.502586364746094,3.3638534545898438,-1.1420341730117798
1788043857682857200,19.976857177734374,9.610325813293457,3.339911460876465,-0.9385270476341248
1788043857698953700,19.99295361328125,9.775525093078613,3.3446998596191406,-0.7637503147125244
1788043857715060500,20.009060546875,9.859322547912598,3.383007049560547,-0.6607996821403503
1788043857731186700,20.025186767578123,9.603142738342285,3.399766445159912,-0.6320692300796509
1788043857747291600,20.041291748046874,9.251194953918457,3.4811692237854004,-0.7852981686592102
1788043857763339300,20.05733935546875,9.030928611755371,3.555389642715454,-0.9097966551780701
1788043857779442400,20.0734423828125,8.949525833129883,3.600879430770874,-0.7996633648872375
1788043857795507700,20.0895078125,8.829815864562988,3.6966474056243896,-0.7613561153411865
1788043857811649800,20.10564990234375,8.638279914855957,3.8283286094665527,-0.7781155705451965
1788043857827709000,20.121708984375,8.456320762634277,4.072536945343018,-1.0271124839782715
1788043857843812900,20.137812744140625,8.248024940490723,4.2544965744018555,-1.0965443849563599
1788043857859895600,20.1538955078125,8.286332130432129,4.252102375030518,-0.7206547260284424
1788043857875964200,20.169964111328124,8.83699893951416,4.106055736541748,-0.272938996553421
1788043857892057600,20.1860576171875,9.715670585632324,3.8977603912353516,0.05506663769483566
1788043857908112100,20.202112060546874,10.551246643066406,3.5649664402008057,0.14604631066322327
1788043857924171300,20.218171142578125,10.845733642578125,3.2393548488616943,0.06464344263076782
1788043857940284200,20.2342841796875,10.323798179626465,3.1675288677215576,-0.07661445438861847
1788043857956366300,20.250366455078126,9.677363395690918,3.2848446369171143,-0.10534487664699554
1788043857972444400,20.2664443359375,9.093177795410156,3.361459255218506,0.11013327538967133
1788043857988523000,20.28252294921875,8.547300338745117,3.4165258407592773,0.272938996553421
1788043858004646100,20.298646240234376,7.970297336578369,3.533841609954834,0.05985504388809204
1788043858020723000,20.314722900390624,7.395689010620117,3.6774938106536865,-0.2082955539226532
1788043858036814800,20.33081494140625,7.347805023193359,3.754108190536499,-0.36152446269989014
1788043858052920300,20.34692041015625,7.905653953552246,3.6990416049957275,-0.26336219906806946
1788043858069008100,20.363008056640624,8.712499618530273,3.584120035171509,0.090979665517807
1788043858085088500,20.379088623046876,9.3828763961792,3.4548330307006836,0.3734954595565796
1788043858101172200,20.395172119140625,9.854534149169922,3.2824504375457764,0.40940847992897034
1788043858117269500,20.41126953125,10.127472877502441,3.117250680923462,0.27054479718208313
1788043858133354500,20.4273544921875,10.314221382141113,3.0190882682800293,0.009576806798577309
1788043858149437200,20.443437255859376,10.405200958251953,3.0166940689086914,-0.0933738648891449
1788043858165566200,20.459566162109375,10.278307914733887,3.0550012588500977,0.0071826050989329815
1788043858181645300,20.475645263671876,9.909601211547852,3.2082302570343018,0.13168109953403473
1788043858197738200,20.49173828125,9.375694274902344,3.3518824577331543,0.24899697303771973
1788043858213820700,20.507820556640624,9.004592895507812,3.485957622528076,0.28730419278144836
1788043858229913000,20.5239130859375,8.825027465820312,3.509899616241455,0.3663128614425659
1788043858246050300,20.54005029296875,8.880094528198242,3.5051112174987793,0.44532153010368347
1788043858262145300,20.556145263671876,9.05247688293457,3.4787750244140625,0.40701428055763245
1788043858278197800,20.57219775390625,9.263166427612305,3.397372245788574,0.3998316824436188
1788043858294292200,20.588292236328126,9.488221168518066,3.31118106842041,0.27054479718208313
1788043858310337800,20.604337890625,9.78989028930664,3.1938650608062744,0.15083470940589905
1788043858326426000,20.620426025390625,10.02452278137207,3.071760892868042,0.021547814831137657
1788043858342514700,20.6365146484375,10.153809547424316,2.9017724990844727,-0.05267243832349777
1788043858358568200,20.652568115234374,10.292673110961914,2.7078421115875244,-0.15322890877723694
1788043858374668500,20.66866845703125,10.192116737365723,2.542642116546631,-0.1388636976480484
1788043858390714600,20.684714599609375,9.919178009033203,2.4875755310058594,-0.15801730751991272
1788043858406814500,20.700814453125,9.57201862335205,2.535459518432617,-0.2346317619085312
1788043858422916600,20.71691650390625,9.229647636413574,2.6192567348480225,-0.2753331959247589
1788043858438930700,20.7329306640625,9.150638580322266,2.827552318572998,-0.33518823981285095
