time,seconds_elapsed,z,y,x
1788654131659687700,0.128687744140625,9.16705322265625,3.424504280090332,0.6389790177345276
1788654131675822800,0.14482275390625,9.16923999786377,3.415762186050415,0.6542154550552368
1788654131691881500,0.160881591796875,9.169920921325684,3.41211199760437,0.6636511087417603
1788654131707890400,0.176890380859375,9.163711547851562,3.4353270530700684,0.6287398934364319
1788654131723928300,0.19292822265625,9.145276069641113,3.493354320526123,0.5751474499702454
1788654131739990000,0.208989990234375,9.124222755432129,3.5486528873443604,0.5709823966026306
1788654131755988700,0.22498876953125,9.10899543762207,3.5781216621398926,0.627402126789093
1788654131772060000,0.241059814453125,9.103814125061035,3.58032488822937,0.6871776580810547
1788654131788062200,0.257062255859375,9.107776641845703,3.561046838760376,0.7333084344863892
1788654131804112100,0.273112060546875,9.098678588867188,3.5723860263824463,0.7889858484268188
1788654131820140000,0.28914013671875,9.077237129211426,3.621833324432373,0.8102337121963501
1788654131836137200,0.30513720703125,9.090928077697754,3.5776493549346924,0.851963460445404
1788654131852193300,0.321193359375,9.114065170288086,3.528538227081299,0.8084720969200134
1788654131868201500,0.337201416015625,9.126755714416504,3.505314588546753,0.7651684880256653
1788654131884262100,0.35326220703125,9.148308753967285,3.4537160396575928,0.742082417011261
1788654131900300000,0.369300048828125,9.179338455200195,3.3725287914276123,0.732244610786438
1788654131916299000,0.385299072265625,9.193602561950684,3.3356189727783203,0.7222934365272522
1788654131932338000,0.401337890625,9.200318336486816,3.321382522583008,0.7021037340164185
1788654131948345000,0.417344970703125,9.203560829162598,3.316897392272949,0.6804771423339844
1788654131964409300,0.433409423828125,9.209070205688477,3.3022587299346924,0.6771194934844971
1788654131988452600,0.45745263671875,9.218889236450195,3.2779479026794434,0.66145920753479
1788654132004498000,0.473497802734375,9.22591495513916,3.2625110149383545,0.6394544839859009
1788654132020548000,0.489548095703125,9.230161666870117,3.257719039916992,0.6014734506607056
1788654132036607500,0.505607421875,9.230010032653809,3.2653579711914062,0.5610182285308838
1788654132060686800,0.529686767578125,9.232142448425293,3.2693660259246826,0.49917489290237427
1788654132076718800,0.54571875,9.237174987792969,3.2602171897888184,0.46473392844200134
1788654132100817700,0.569817626953125,9.244720458984375,3.245115041732788,0.41804251074790955
1788654132116829200,0.5858291015625,9.249156951904297,3.235429525375366,0.3943060636520386
1788654132132885000,0.601885009765625,9.254602432250977,3.2227327823638916,0.3697492182254791
1788654132148912600,0.61791259765625,9.260294914245605,3.2093842029571533,0.3423013985157013
1788654132164980500,0.63398046875,9.264464378356934,3.200312852859497,0.3131735324859619
1788654132181043200,0.650043212890625,9.267181396484375,3.1947543621063232,0.28857919573783875
1788654132197067300,0.6660673828125,9.270785331726074,3.1852779388427734,0.27737119793891907
1788654132213084000,0.682083984375,9.278116226196289,3.1639814376831055,0.2759874165058136
1788654132229119500,0.698119384765625,9.289020538330078,3.131819248199463,0.2760493755340576
1788654132245192000,0.71419189453125,9.300481796264648,3.0977659225463867,0.2743745744228363
1788654132261263600,0.730263671875,9.310466766357422,3.068427562713623,0.2652357518672943
1788654132277294000,0.746294189453125,9.318620681762695,3.0446155071258545,0.2530122697353363
1788654132293315300,0.7623154296875,9.324252128601074,3.0282535552978516,0.24165502190589905
1788654132309365500,0.778365478515625,9.325652122497559,3.0241165161132812,0.2394152730703354
1788654132325398000,0.79439794921875,9.324112892150879,3.02897047996521,0.2379942089319229
1788654132341484800,0.81048486328125,9.321843147277832,3.036315679550171,0.23325274884700775
1788654132357527000,0.826527099609375,9.321587562561035,3.0369794368743896,0.23483338952064514
1788654132373560800,0.842560791015625,9.324898719787598,3.026313304901123,0.2409955859184265
1788654132389564700,0.858564697265625,9.330843925476074,3.0075762271881104,0.24540871381759644
1788654132405591800,0.874591796875,9.336594581604004,2.989513874053955,0.2473660260438919
1788654132421629000,0.89062890625,9.339883804321289,2.979180335998535,0.247888445854187
1788654132437632000,0.906632080078125,9.340468406677246,2.9772541522979736,0.2489616423845291
1788654132453685200,0.922685302734375,9.339540481567383,2.9802563190460205,0.24790790677070618
1788654132469692700,0.938692626953125,9.338558197021484,2.983219623565674,0.24921324849128723
1788654132485746400,0.954746337890625,9.33855152130127,2.983039140701294,0.251627117395401
1788654132501785300,0.970785400390625,9.33975601196289,2.9790327548980713,0.25438132882118225
1788654132517805000,0.98680517578125,9.342188835144043,2.9711289405822754,0.2574884593486786
1788654132533864700,1.00286474609375,9.344943046569824,2.962679862976074,0.2548710107803345
1788654132549868500,1.01886865234375,9.346803665161133,2.957495927810669,0.24673810601234436
1788654132565920300,1.034920166015625,9.34713363647461,2.9571170806884766,0.23862461745738983
1788654132581959200,1.050959228515625,9.346972465515137,2.9581775665283203,0.231683149933815
1788654132597985500,1.066985595703125,9.346039772033691,2.9612982273101807,0.22946254909038544
1788654132613999600,1.08299951171875,9.341364860534668,2.9754183292388916,0.23701773583889008
1788654132630007300,1.09900732421875,9.330439567565918,3.011192560195923,0.2144966423511505
1788654132646083000,1.1150830078125,9.31270980834961,3.069572925567627,0.14675042033195496
1788654132662129400,1.13112939453125,9.298197746276855,3.116201877593994,0.05650005117058754
1788654132678166000,1.147166015625,9.294682502746582,3.127103090286255,-0.022153964266180992
1788654132694182700,1.1631826171875,9.302699089050293,3.102022171020508,-0.08743935823440552
1788654132710189600,1.179189453125,9.317276000976562,3.0559284687042236,-0.14159487187862396
1788654132726261800,1.19526171875,9.330004692077637,3.014814615249634,-0.17968714237213135
1788654132742301700,1.2113017578125,9.339460372924805,2.9843966960906982,-0.19558461010456085
1788654132758335200,1.227335205078125,9.344467163085938,2.9689979553222656,-0.1907009333372116
1788654132774365200,1.243365234375,9.344940185546875,2.9686641693115234,-0.17178715765476227
1788654132790370800,1.259370849609375,9.343746185302734,2.9737017154693604,-0.14794574677944183
1788654132806403600,1.275403564453125,9.344462394714355,2.973004102706909,-0.11243424564599991
1788654132822443500,1.291443603515625,9.350058555603027,2.9569835662841797,-0.055155012756586075
1788654132838492000,1.307491943359375,9.360442161560059,2.9244484901428223,0.010311806574463844
1788654132862547500,1.33154736328125,9.379870414733887,2.860750675201416,0.06720445305109024
1788654132878555100,1.34755517578125,9.39199447631836,2.8205718994140625,0.07213429361581802
1788654132894593000,1.363593017578125,9.400364875793457,2.793240785598755,0.03651983290910721
1788654132910602200,1.379602294921875,9.401905059814453,2.7879858016967773,-0.0413275808095932
1788654132926674200,1.395674072265625,9.394754409790039,2.8087708950042725,-0.14063063263893127
1788654132942725400,1.411725341796875,9.381905555725098,2.8466718196868896,-0.2160833328962326
1788654132958731300,1.427731201171875,9.365302085876465,2.8993213176727295,-0.23547321557998657
1788654132974782500,1.443782470703125,9.344876289367676,2.96651554107666,-0.20845331251621246
1788654132990809300,1.459809326171875,9.322014808654785,3.040834426879883,-0.15413658320903778
1788654133006839800,1.47583984375,9.300956726074219,3.1073615550994873,-0.08308512717485428
1788654133022905600,1.491905517578125,9.281822204589844,3.1650140285491943,-0.02934153750538826
1788654133038938400,1.5079384765625,9.265836715698242,3.2116403579711914,0.005093140061944723
1788654133055020300,1.524020263671875,9.255504608154297,3.241063356399536,0.03909900039434433
1788654133071050200,1.54005029296875,9.249177932739258,3.258742570877075,0.0606871098279953
1788654133087096300,1.556096435546875,9.24673080444336,3.265608787536621,0.06444653868675232
1788654133103165200,1.572165283203125,9.248610496520996,3.260418176651001,0.05711107701063156
1788654133119194600,1.588194580078125,9.253658294677734,3.2463130950927734,0.04051810875535011
1788654133135267300,1.604267333984375,9.260383605957031,3.227271556854248,0.020096849650144577
1788654133151308000,1.62030810546875,9.267148971557617,3.2078466415405273,0.0067604342475533485
1788654133167364900,1.63636474609375,9.26905632019043,3.2023379802703857,0.003769654780626297
1788654133183427600,1.652427490234375,9.27180004119873,3.1943881511688232,-0.000680639233905822
1788654133199476200,1.668476318359375,9.273270606994629,3.190101146697998,-0.009689327329397202
1788654133215549700,1.6845498046875,9.274456024169922,3.186633586883545,-0.015185952186584473
1788654133231604500,1.7006044921875,9.274768829345703,3.185716152191162,-0.016302717849612236
1788654133247667700,1.716667724609375,9.273365020751953,3.189805746078491,-0.014970117248594761
1788654133263704300,1.732704345703125,9.270844459533691,3.1971211433410645,-0.01586991548538208
1788654133279747800,1.748747802734375,9.269314765930176,3.2015161514282227,-0.022225897759199142
1788654133295787800,1.764787841796875,9.269978523254395,3.199500560760498,-0.032705388963222504
1788654133311843300,1.78084326171875,9.272836685180664,3.1910994052886963,-0.0420868918299675
1788654133327917800,1.796917724609375,9.275808334350586,3.182360887527466,-0.04852474480867386
1788654133343971300,1.812971435546875,9.27778148651123,3.1765739917755127,-0.050457097589969635
1788654133359976400,1.8289765625,9.27863597869873,3.174114465713501,-0.04803166165947914
1788654133376036900,1.845036865234375,9.278928756713867,3.173307418823242,-0.04464421048760414
1788654133392051700,1.8610517578125,9.279627799987793,3.1712474822998047,-0.04556450620293617
1788654133408098800,1.877098876953125,9.280699729919434,3.1680216789245605,-0.051379911601543427
1788654133424162800,1.893162841796875,9.281054496765137,3.1668570041656494,-0.05861830338835716
1788654133440169500,1.90916943359375,9.281172752380371,3.1663644313812256,-0.0659150704741478
1788654133456240600,1.92524072265625,9.282121658325195,3.163454055786133,-0.07191354781389236
1788654133472259300,1.94125927734375,9.283666610717773,3.158829927444458,-0.07558975368738174
1788654133488314600,1.957314697265625,9.284891128540039,3.155137777328491,-0.0792597085237503
1788654133504388400,1.973388427734375,9.285720825195312,3.1525707244873047,-0.0841807946562767
1788654133520395300,1.989395263671875,9.286625862121582,3.149651288986206,-0.09312643110752106
1788654133536467500,2.005467529296875,9.288451194763184,3.143976926803589,-0.10234489291906357
1788654133552485400,2.0214853515625,9.29081916809082,3.1365456581115723,-0.11466224491596222
1788654133568531200,2.03753125,9.294458389282227,3.1255946159362793,-0.11871157586574554
1788654133584559000,2.05355908203125,9.298274040222168,3.114225387573242,-0.11867433041334152
1788654133600578000,2.069578125,9.300689697265625,3.1070592403411865,-0.1172313466668129
1788654133616659000,2.085658935546875,9.301319122314453,3.1052653789520264,-0.11483882367610931
1788654133632675300,2.10167529296875,9.300466537475586,3.108046770095825,-0.10845568031072617
1788654133648736000,2.117736083984375,9.298958778381348,3.112957000732422,-0.09617922455072403
1788654133664778200,2.1337783203125,9.297233581542969,3.118534564971924,-0.08112964779138565
1788654133680799000,2.149799072265625,9.295553207397461,3.123939037322998,-0.06391151249408722
1788654133696903400,2.1659033203125,9.292539596557617,3.1332335472106934,-0.04422331973910332
1788654133712923400,2.18192333984375,9.287516593933105,3.14833402633667,-0.020319843664765358
1788654133729001000,2.1980009765625,9.281003952026367,3.1675350666046143,0.008726637810468674
1788654133745050400,2.21405029296875,9.275679588317871,3.182819366455078,0.042672235518693924
1788654133761059600,2.2300595703125,9.272531509399414,3.1913676261901855,0.07558845728635788
1788654133777108200,2.246108154296875,9.271037101745605,3.1947643756866455,0.10832984745502472
1788654133793126100,2.262126220703125,9.270844459533691,3.194094181060791,0.13999788463115692
1788654133809202200,2.2782021484375,9.272059440612793,3.1891913414001465,0.16841518878936768
1788654133825260800,2.2942607421875,9.27505874633789,3.1790153980255127,0.1937396228313446
1788654133841272000,2.31027197265625,9.279678344726562,3.1641879081726074,0.2142029106616974
1788654133857334300,2.326334228515625,9.284321784973145,3.1500802040100098,0.2208160012960434
1788654133873355800,2.342355712890625,9.287334442138672,3.1418912410736084,0.21054384112358093
1788654133889390000,2.35839013671875,9.287510871887207,3.142897605895996,0.18632350862026215
1788654133905451500,2.374451416015625,9.292585372924805,3.1295597553253174,0.15523652732372284
1788654133921470500,2.390470458984375,9.29216194152832,3.1321005821228027,0.1267499476671219
1788654133937538000,2.4065380859375,9.285816192626953,3.1514737606048584,0.11053736507892609
1788654133953572900,2.42257275390625,9.278075218200684,3.1745262145996094,0.10044506192207336
1788654133969616400,2.438616455078125,9.27114200592041,3.1948928833007812,0.0946754664182663
1788654133985691400,2.45469140625,9.2664155960083,3.208639621734619,0.09257398545742035
1788654134001719800,2.4707197265625,9.264448165893555,3.214207410812378,0.09622432291507721
1788654134017795300,2.48679541015625,9.263599395751953,3.216320037841797,0.10682304203510284
1788654134033838600,2.502838623046875,9.262508392333984,3.2188549041748047,0.12368335574865341
1788654134049891600,2.5188916015625,9.259908676147461,3.2256782054901123,0.1395454853773117
1788654134065920800,2.534920654296875,9.255906105041504,3.2365944385528564,0.15182840824127197
1788654134081959700,2.550959716796875,9.251599311828613,3.2484521865844727,0.16082610189914703
1788654134098040000,2.5670400390625,9.247145652770996,3.2606637477874756,0.1695946753025055
1788654134114086100,2.583086181640625,9.24183177947998,3.275285482406616,0.17729578912258148
1788654134130139400,2.599139404296875,9.235628128051758,3.292360782623291,0.18418700993061066
1788654134146180000,2.61518017578125,9.229768753051758,3.3085081577301025,0.18849384784698486
1788654134162225400,2.631225341796875,9.225409507751465,3.32061505317688,0.1889987587928772
1788654134178311000,2.647310791015625,9.222310066223145,3.3292975425720215,0.18751801550388336
1788654134194365700,2.66336572265625,9.218973159790039,3.338606119155884,0.18610921502113342
1788654134210435600,2.679435546875,9.21390151977539,3.352532386779785,0.18690989911556244
1788654134226484000,2.69548388671875,9.207391738891602,3.3701601028442383,0.19065450131893158
1788654134242553300,2.71155322265625,9.200484275817871,3.3886618614196777,0.19607655704021454
1788654134258604000,2.72760400390625,9.193235397338867,3.4077374935150146,0.2052532583475113
1788654134274625300,2.743625244140625,9.184094429016113,3.431769847869873,0.2139309197664261
1788654134290673200,2.759673095703125,9.172310829162598,3.462864398956299,0.21833105385303497
1788654134306735000,2.775735107421875,9.159079551696777,3.49739408493042,0.2233285754919052
1788654134322742000,2.791741943359375,9.150208473205566,3.520192861557007,0.22873686254024506
1788654134338803000,2.807802978515625,9.149829864501953,3.5212182998657227,0.2280811369419098
1788654134354822700,2.82382275390625,9.158914566040039,3.4982242584228516,0.21703273057937622
1788654134370872800,2.839872802734375,9.17400074005127,3.4596364498138428,0.19753271341323853
1788654134386932000,2.855931884765625,9.189103126525879,3.4203128814697266,0.17949245870113373
1788654134402937000,2.87193701171875,9.197924613952637,3.3970303535461426,0.16960547864437103
1788654134419000000,2.888,9.19887638092041,3.3944993019104004,0.16865825653076172
1788654134435012000,2.90401220703125,9.1923246383667,3.412034034729004,0.17197710275650024
1788654134451057200,2.92005712890625,9.18078899383545,3.4430267810821533,0.17049822211265564
1788654134467130000,2.936130126953125,9.166563987731934,3.481048583984375,0.16369886696338654
1788654134483144200,2.952144287109375,9.152535438537598,3.518281936645508,0.15226686000823975
1788654134499218400,2.968218505859375,9.141993522644043,3.545954704284668,0.1433267742395401
1788654134515257000,2.984257080078125,9.154595375061035,3.514477014541626,0.11056966334581375
1788654134531302400,3.000302490234375,9.163570404052734,3.491229295730591,0.10342313349246979
1788654134547370200,3.016370361328125,9.170341491699219,3.4731409549713135,0.11189392954111099
1788654134563382000,3.032382080078125,9.179286003112793,3.4493134021759033,0.11546728014945984
1788654134579462700,3.048462646484375,9.18730640411377,3.4280059337615967,0.11211559176445007
1788654134595476700,3.064476806640625,9.20234203338623,3.388270378112793,0.08312533050775528
1788654134611533000,3.080532958984375,9.222551345825195,3.3337037563323975,0.03694445267319679
1788654134627588900,3.0965888671875,9.234976768493652,3.299329996109009,-0.0015672858571633697
1788654134643600000,3.112599853515625,9.241290092468262,3.281456470489502,-0.03152889385819435
1788654134659649800,3.12864990234375,9.24501895904541,3.2706615924835205,-0.05281560868024826
1788654134675664600,3.14466455078125,9.249211311340332,3.2585361003875732,-0.06654916703701019
1788654134691741000,3.160740966796875,9.25467300415039,3.242893934249878,-0.07116342335939407
1788654134707785700,3.17678564453125,9.259944915771484,3.227821111679077,-0.0706297904253006
1788654134723807000,3.192806884765625,9.264164924621582,3.2157022953033447,-0.06998930126428604
1788654134739855000,3.208855224609375,9.267510414123535,3.205991744995117,-0.07258523255586624
1788654134755873300,3.224873291015625,9.270838737487793,3.1962778568267822,-0.07579959183931351
1788654134771948800,3.24094873046875,9.274694442749023,3.1850883960723877,-0.07513934373855591
1788654134787999200,3.256999267578125,9.278980255126953,3.172701358795166,-0.06993658095598221
1788654134804019000,3.27301904296875,9.283403396606445,3.159945249557495,-0.05962371826171875
1788654134820077300,3.289077392578125,9.287583351135254,3.147794485092163,-0.050826407968997955
1788654134836102700,3.3051025390625,9.29043197631836,3.1394073963165283,-0.048900991678237915
1788654134852136200,3.32113623046875,9.290255546569824,3.139890432357788,-0.05133768171072006
1788654134868202500,3.337202392578125,9.286079406738281,3.152167797088623,-0.05442165583372116
1788654134884221700,3.3532216796875,9.27723217010498,3.178063154220581,-0.05726414918899536
1788654134900288500,3.36928857421875,9.264503479003906,3.2149078845977783,-0.060980577021837234
1788654134916322300,3.385322265625,9.250779151916504,3.254157543182373,-0.06269936263561249
1788654134932366800,3.401366943359375,9.2382173538208,3.289689302444458,-0.06048285588622093
1788654134948444400,3.4174443359375,9.22729778289795,3.320328712463379,-0.05277019739151001
1788654134964475400,3.433475341796875,9.217453002929688,3.347750186920166,-0.039003025740385056
1788654134980558600,3.44955859375,9.208646774291992,3.3720543384552,-0.021437376737594604
1788654134996607200,3.465607177734375,9.20162582397461,3.3912301063537598,-0.005472842138260603
1788654135012664000,3.4816640625,9.196369171142578,3.405463457107544,0.0014131182106211782
1788654135028697300,3.497697265625,9.190974235534668,3.4199917316436768,-0.006807744037359953
1788654135044735200,3.5137353515625,9.187468528747559,3.4293482303619385,-0.019395861774683
1788654135060823000,3.529822998046875,9.193467140197754,3.413156747817993,-0.030154353007674217
1788654135076878800,3.54587890625,9.212775230407715,3.3606109619140625,-0.03799940273165703
1788654135092946400,3.561946533203125,9.2396240234375,3.2859158515930176,-0.04993289336562157
1788654135108967200,3.57796728515625,9.263092994689941,3.218827486038208,-0.0681532770395279
1788654135125015300,3.594015380859375,9.274687767028809,3.1848316192626953,-0.08598123490810394
1788654135141089500,3.610089599609375,9.274151802062988,3.185816526412964,-0.10521207749843597
1788654135157153800,3.62615380859375,9.26452922821045,3.212959051132202,-0.12566855549812317
1788654135173208300,3.642208251953125,9.249832153320312,3.25431227684021,-0.1429499387741089
1788654135189251000,3.6582509765625,9.232678413391113,3.3021767139434814,-0.15380623936653137
1788654135205310200,3.674310302734375,9.21756649017334,3.3444461822509766,-0.14676029980182648
1788654135221359600,3.690359619140625,9.206764221191406,3.375427484512329,-0.11115776002407074
1788654135237376500,3.70637646484375,9.19931697845459,3.3969521522521973,-0.060636475682258606
1788654135253405200,3.7224052734375,9.195952415466309,3.406583309173584,-0.005494378041476011
1788654135269460200,3.738460205078125,9.195638656616211,3.4071617126464844,0.04328130930662155
1788654135285477600,3.7544775390625,9.196303367614746,3.404808282852173,0.0753149539232254
1788654135301535000,3.770534912109375,9.19740104675293,3.4017114639282227,0.08096463233232498
1788654135317553000,3.786552978515625,9.199984550476074,3.3950982093811035,0.06304159760475159
1788654135333586200,3.802586181640625,9.204333305358887,3.383702039718628,0.03459549322724342
1788654135349643300,3.818643310546875,9.208789825439453,3.3717315196990967,0.0033252902794629335
1788654135365649400,3.8346494140625,9.211655616760254,3.36378812789917,-0.026706969365477562
1788654135381717500,3.850717529296875,9.212586402893066,3.3609120845794678,-0.054062340408563614
1788654135397737700,3.86673779296875,9.218878746032715,3.343289375305176,-0.07131260633468628
1788654135413784300,3.882784423828125,9.223380088806152,3.3304569721221924,-0.08777684718370438
1788654135429877200,3.898877197265625,9.228243827819824,3.316534996032715,-0.10253050923347473
1788654135445884000,3.9148837890625,9.233879089355469,3.30047607421875,-0.11280662566423416
1788654135461959000,3.930958984375,9.240849494934082,3.2806546688079834,-0.11997485160827637
1788654135477975600,3.9469755859375,9.248282432556152,3.2594106197357178,-0.12608429789543152
1788654135494034700,3.96303466796875,9.255732536315918,3.237870693206787,-0.13412337005138397
1788654135510084000,3.979083984375,9.263096809387207,3.2163960933685303,-0.14218354225158691
1788654135526102300,3.995102294921875,9.27026081085205,3.1955440044403076,-0.14544016122817993
1788654135542194700,4.011194580078125,9.276963233947754,3.176201343536377,-0.14173075556755066
1788654135558210800,4.0272109375,9.281932830810547,3.162019968032837,-0.1332368552684784
1788654135574269700,4.043269775390625,9.28315544128418,3.1587626934051514,-0.1249786913394928
1788654135590312200,4.059312255859375,9.278751373291016,3.171934127807617,-0.1182771846652031
1788654135606320400,4.0753203125,9.270397186279297,3.1961350440979004,-0.1217963695526123
1788654135622371000,4.09137109375,9.259492874145508,3.227017641067505,-0.13616690039634705
1788654135638389200,4.10738916015625,9.246103286743164,3.2643494606018066,-0.1548953801393509
1788654135654471700,4.1234716796875,9.230290412902832,3.3080432415008545,-0.17020896077156067
1788654135670525200,4.139525146484375,9.213891983032227,3.352825880050659,-0.18204542994499207
1788654135686537200,4.155537109375,9.197714805603027,3.3967161178588867,-0.1864166259765625
1788654135702602200,4.171602294921875,9.1792631149292,3.4468352794647217,-0.17563287913799286
1788654135718622700,4.187622802734375,9.15939712524414,3.5003199577331543,-0.15358996391296387
1788654135734661000,4.2036611328125,9.141180038452148,3.5486037731170654,-0.12897764146327972
1788654135750729500,4.2197294921875,9.128422737121582,3.5821218490600586,-0.10345599055290222
1788654135766746000,4.23574609375,9.121415138244629,3.600576877593994,-0.07759235799312592
1788654135782811600,4.251811767578125,9.119117736816406,3.6068665981292725,-0.05090533569455147
1788654135798841000,4.267841064453125,9.1221342086792,3.59955096244812,-0.01699082739651203
1788654135814884400,4.28388427734375,9.129338264465332,3.581184148788452,0.026286881417036057
1788654135830929000,4.299928955078125,9.137269973754883,3.560257911682129,0.07250206917524338
1788654135846963500,4.31596337890625,9.139578819274902,3.5534660816192627,0.1065760999917984
1788654135863051500,4.332051513671875,9.13428020477295,3.5665676593780518,0.12211144715547562
1788654135879082800,4.348082763671875,9.123668670654297,3.5934832096099854,0.12619905173778534
1788654135895115800,4.36411572265625,9.113832473754883,3.6184256076812744,0.12424898892641068
1788654135911172000,4.380172119140625,9.107218742370605,3.6352880001068115,0.11674555391073227
1788654135927190300,4.396190185546875,9.106569290161133,3.63722825050354,0.10660082846879959
1788654135943261200,4.41226123046875,9.108726501464844,3.6320302486419678,0.09918518364429474
1788654135959297300,4.42829736328125,9.11178970336914,3.6241745948791504,0.10502510517835617
1788654135975345000,4.444344970703125,9.117972373962402,3.6082241535186768,0.11701693385839462
1788654135991378700,4.460378662109375,9.125106811523438,3.5893285274505615,0.1397772580385208
1788654136007419400,4.47641943359375,9.13516616821289,3.5630130767822266,0.15509748458862305
1788654136023490300,4.492490234375,9.15202522277832,3.519652843475342,0.1512402445077896
1788654136039535600,4.50853564453125,9.17723560333252,3.4543375968933105,0.12758783996105194
1788654136055593500,4.524593505859375,9.204547882080078,3.3817262649536133,0.10304620862007141
1788654136071628800,4.54062890625,9.22956657409668,3.3134453296661377,0.08107548952102661
1788654136087686700,4.556686767578125,9.2477445602417,3.2627556324005127,0.06348532438278198
1788654136103729000,4.57272900390625,9.257457733154297,3.2353224754333496,0.050535716116428375
1788654136119791600,4.58879150390625,9.261144638061523,3.2249531745910645,0.03537263348698616
1788654136135826000,4.604825927734375,9.263772964477539,3.217550754547119,0.016402998939156532
1788654136151876000,4.6208759765625,9.267670631408691,3.206346273422241,-0.0036138431169092655
1788654136167928800,4.6369287109375,9.27150821685791,3.1951868534088135,-0.01753770373761654
1788654136183981600,4.652981689453125,9.273174285888672,3.190321683883667,-0.021724049001932144
1788654136199991600,4.668991455078125,9.271738052368164,3.194525957107544,-0.01642853580415249
1788654136216022800,4.685022705078125,9.267621040344238,3.2064898014068604,-0.0011305384105071425
1788654136232082000,4.70108203125,9.261815071105957,3.223172903060913,0.01803414523601532
1788654136248088800,4.7170888671875,9.254767417907715,3.243194580078125,0.036899443715810776
1788654136264151000,4.733151123046875,9.24592399597168,3.268151044845581,0.04973525181412697
1788654136280168000,4.74916796875,9.235038757324219,3.2987561225891113,0.05155263841152191
1788654136296212000,4.7652119140625,9.221790313720703,3.3357150554656982,0.044552769511938095
1788654136312285400,4.781285400390625,9.206793785095215,3.3769967555999756,0.0351451113820076
1788654136328297700,4.797297607421875,9.191110610961914,3.4194483757019043,0.035212840884923935
1788654136344373800,4.813373779296875,9.174271583557129,3.4642221927642822,0.0480072945356369
1788654136360395000,4.82939501953125,9.157675743103027,3.507474899291992,0.0705736055970192
1788654136376446500,4.845446533203125,9.145133018493652,3.5393216609954834,0.10068442672491074
1788654136392498400,4.86149853515625,9.134870529174805,3.5647315979003906,0.13123834133148193
1788654136408506400,4.87750634765625,9.126070022583008,3.586378812789917,0.15206095576286316
1788654136424585500,4.89358544921875,9.115386962890625,3.6127867698669434,0.1669946014881134
1788654136440610800,4.90961083984375,9.10275650024414,3.6440789699554443,0.17579025030136108
1788654136456669700,4.925669677734375,9.091761589050293,3.6709792613983154,0.18483470380306244
1788654136472709000,4.941709228515625,9.089000701904297,3.6777045726776123,0.1869335025548935
1788654136488719400,4.95771923828125,9.100540161132812,3.6496384143829346,0.17517854273319244
1788654136504808000,4.973807861328125,9.122952461242676,3.5942301750183105,0.15372206270694733
1788654136520826000,4.989826171875,9.14681625366211,3.5340752601623535,0.12824401259422302
1788654136536874200,5.005874267578125,9.161043167114258,3.4978373050689697,0.10399504750967026
1788654136552899000,5.021899169921875,9.160453796386719,3.4999454021453857,0.08275197446346283
1788654136568900900,5.03790087890625,9.145511627197266,3.5391886234283447,0.06444217264652252
1788654136584935000,5.053934814453125,9.120823860168457,3.602546453475952,0.05117664486169815
1788654136600948000,5.069947998046875,9.097484588623047,3.661087989807129,0.05098077654838562
1788654136617007400,5.08600732421875,9.080787658691406,3.702103614807129,0.06414837390184402
1788654136633052000,5.102052001953125,9.072254180908203,3.7225184440612793,0.086249440908432
1788654136649057800,5.118057861328125,9.07172679901123,3.7229745388031006,0.11666715890169144
1788654136665113300,5.13411328125,9.075733184814453,3.7119932174682617,0.15024620294570923
1788654136681132800,5.1501328125,9.082231521606445,3.6942973136901855,0.18876484036445618
1788654136697169000,5.1661689453125,9.089020729064941,3.675227403640747,0.22980141639709473
1788654136713229300,5.182229248046875,9.10340690612793,3.636139392852783,0.27724161744117737
1788654136729259300,5.19825927734375,9.126687049865723,3.5742416381835938,0.31427064538002014
1788654136745321500,5.214321533203125,9.14915943145752,3.51550555229187,0.3232431411743164
1788654136761353500,5.230353515625,9.154521942138672,3.502855062484741,0.30842235684394836
1788654136777393400,5.246393310546875,9.159782409667969,3.491091012954712,0.28473132848739624
1788654136793461200,5.262461181640625,9.1634521484375,3.483182430267334,0.26263561844825745
1788654136809489700,5.27848974609375,9.165695190429688,3.4782259464263916,0.24971842765808105
1788654136825560000,5.29456005859375,9.16818904876709,3.47169828414917,0.24901534616947174
1788654136841596400,5.310596435546875,9.173713684082031,3.4563825130462646,0.2584429085254669
1788654136857669400,5.32666943359375,9.184609413146973,3.426105260848999,0.2741115689277649
1788654136873751800,5.342751708984375,9.197929382324219,3.3888416290283203,0.2902268171310425
1788654136889787400,5.358787353515625,9.209211349487305,3.3568713665008545,0.30370035767555237
1788654136905869800,5.374869873046875,9.215359687805176,3.3387207984924316,0.3169843256473541
1788654136921921500,5.390921630859375,9.216242790222168,3.3348565101623535,0.33165764808654785
1788654136937984500,5.406984619140625,9.21338939666748,3.3411977291107178,0.3467601239681244
1788654136954026500,5.423026611328125,9.209627151489258,3.350412368774414,0.35761114954948425
1788654136970070300,5.4390703125,9.205535888671875,3.361032724380493,0.3632475435733795
1788654136986160400,5.455160400390625,9.195768356323242,3.3866844177246094,0.3723037838935852
1788654137002213000,5.471213134765625,9.180736541748047,3.425854206085205,0.3846929967403412
1788654137018276400,5.4872763671875,9.165620803833008,3.4655373096466064,0.38966041803359985
1788654137034316000,5.50331591796875,9.151596069335938,3.5025432109832764,0.3884047269821167
1788654137050368000,5.519367919921875,9.139117240905762,3.5354573726654053,0.3840273916721344
1788654137066412000,5.535412109375,9.128617286682129,3.562610626220703,0.3828039765357971
1788654137082467800,5.5514677734375,9.118375778198242,3.5879948139190674,0.3897591531276703
1788654137098539800,5.567539794921875,9.106931686401367,3.6154463291168213,0.4033927619457245
1788654137114588000,5.583587890625,9.09406566619873,3.6464779376983643,0.4141848683357239
1788654137130593300,5.59959326171875,9.080629348754883,3.679905652999878,0.4133574366569519
1788654137146647600,5.6156474609375,9.067877769470215,3.711308002471924,0.4125104248523712
1788654137162665700,5.631665771484375,9.059714317321777,3.731428861618042,0.4103594720363617
1788654137178704000,5.647703857421875,9.060253143310547,3.731078624725342,0.40157148241996765
1788654137194783700,5.66378369140625,9.069930076599121,3.7091221809387207,0.3862239420413971
1788654137210783700,5.67978369140625,9.082329750061035,3.6798622608184814,0.3745650053024292
1788654137226820400,5.6958203125,9.090664863586426,3.6599297523498535,0.36757779121398926
1788654137242834400,5.71183447265625,9.092583656311035,3.6561334133148193,0.35778555274009705
1788654137258866400,5.727866455078125,9.088839530944824,3.666363000869751,0.34808310866355896
1788654137274929400,5.743929443359375,9.080604553222656,3.687189817428589,0.3429799973964691
1788654137290937000,5.75993701171875,9.07060432434082,3.7117531299591064,0.34266170859336853
1788654137306992400,5.775992431640625,9.061967849731445,3.732339382171631,0.3475162386894226
1788654137323004200,5.792004150390625,9.066736221313477,3.7206625938415527,0.34834063053131104
1788654137339052800,5.808052734375,9.065376281738281,3.721187114715576,0.37697073817253113
1788654137355087000,5.824087158203125,9.069928169250488,3.7070870399475098,0.40533626079559326
1788654137371104300,5.840104248046875,9.080439567565918,3.678727626800537,0.4277436137199402
1788654137387182600,5.8561826171875,9.09375,3.6437160968780518,0.4443400800228119
1788654137403199200,5.87219921875,9.10594654083252,3.6115896701812744,0.45667922496795654
1788654137419257600,5.888257568359375,9.126145362854004,3.560628890991211,0.453641414642334
1788654137435286300,5.904286376953125,9.151671409606934,3.4958550930023193,0.44304001331329346
1788654137451303700,5.9203037109375,9.165488243103027,3.458777904510498,0.44839969277381897
1788654137467398700,5.936398681640625,9.172857284545898,3.437910795211792,0.45807188749313354
1788654137483414800,5.952414794921875,9.180603981018066,3.417755126953125,0.45370590686798096
1788654137499487500,5.968487548828125,9.190482139587402,3.3930110931396484,0.4392055571079254
1788654137515536400,5.984536376953125,9.199845314025879,3.3688712120056152,0.4288792014122009
1788654137531543800,6.000543701171875,9.206568717956543,3.3498952388763428,0.433217316865921
1788654137547638000,6.016637939453125,9.210908889770508,3.335066795349121,0.4548341631889343
1788654137563655700,6.03265576171875,9.216476440429688,3.3150553703308105,0.4871966242790222
1788654137579730200,6.048730224609375,9.227931022644043,3.279003620147705,0.5136311054229736
1788654137595788800,6.064788818359375,9.245805740356445,3.2272098064422607,0.5201704502105713
1788654137611802000,6.080802001953125,9.264676094055176,3.1748900413513184,0.5061983466148376
1788654137627852500,6.0968525390625,9.280292510986328,3.1334102153778076,0.4777945876121521
1788654137643873800,6.112873779296875,9.289302825927734,3.111123561859131,0.447380006313324
1788654137659903000,6.128903076171875,9.292521476745605,3.1048552989959717,0.4234473407268524
1788654137675958000,6.1449580078125,9.291879653930664,3.1088902950286865,0.40762820839881897
1788654137691968800,6.16096875,9.289377212524414,3.1173691749572754,0.3998335897922516
1788654137708052200,6.17705224609375,9.285419464111328,3.1297788619995117,0.3947921097278595
1788654137724084700,6.193084716796875,9.275521278381348,3.160384178161621,0.3834940493106842
1788654137740129800,6.2091298828125,9.260209083557129,3.2060909271240234,0.37403741478919983
1788654137756199400,6.225199462890625,9.244736671447754,3.2500112056732178,0.37769636511802673
1788654137772214800,6.24121484375,9.229473114013672,3.2912745475769043,0.3933666944503784
1788654137788288800,6.257288818359375,9.214311599731445,3.3310389518737793,0.4135487377643585
1788654137804326100,6.273326171875,9.200082778930664,3.367549419403076,0.43415123224258423
1788654137820373200,6.289373291015625,9.187071800231934,3.4007272720336914,0.45073261857032776
1788654137836403700,6.30540380859375,9.174073219299316,3.435157060623169,0.4543848931789398
1788654137852432600,6.3214326171875,9.161425590515137,3.4699974060058594,0.444728285074234
1788654137868521000,6.33752099609375,9.153180122375488,3.4925875663757324,0.4376401901245117
1788654137884569000,6.353569091796875,9.16379451751709,3.4647085666656494,0.43710267543792725
1788654137900629800,6.369629638671875,9.18838119506836,3.3991754055023193,0.43547382950782776
1788654137916658400,6.385658447265625,9.220263481140137,3.3144583702087402,0.4141121506690979
1788654137932691700,6.401691650390625,9.248762130737305,3.2391774654388428,0.3721739649772644
1788654137948759300,6.41775927734375,9.264276504516602,3.199723243713379,0.3245828151702881
1788654137964807400,6.433807373046875,9.264771461486816,3.2017178535461426,0.2888006865978241
1788654137980851500,6.4498515625,9.255258560180664,3.2310101985931396,0.26674601435661316
1788654137996881000,6.465880859375,9.240642547607422,3.2736618518829346,0.2530577480792999
1788654138012932900,6.481932861328125,9.226183891296387,3.314690351486206,0.24643757939338684
1788654138028967400,6.497967529296875,9.213518142700195,3.3496696949005127,0.2473829835653305
1788654138045032400,6.514032470703125,9.203696250915527,3.375701665878296,0.25884702801704407
1788654138061101800,6.530101806640625,9.199990272521973,3.3831534385681152,0.2912716865539551
1788654138077163800,6.546163818359375,9.200613021850586,3.3781542778015137,0.3273765444755554
1788654138093171200,6.562171142578125,9.205163955688477,3.3611128330230713,0.371831476688385
1788654138109223700,6.5782236328125,9.212068557739258,3.3350670337677,0.43070486187934875
1788654138125240000,6.594239990234375,9.219562530517578,3.306230068206787,0.4887791872024536
1788654138141270800,6.610270751953125,9.23314380645752,3.2606706619262695,0.5361635684967041
1788654138157332000,6.62633203125,9.24026870727539,3.2412078380584717,0.5314011573791504
1788654138173346300,6.64234619140625,9.246944427490234,3.227483034133911,0.49774816632270813
1788654138189410300,6.658410400390625,9.252395629882812,3.218327045440674,0.4538075625896454
1788654138205430000,6.674429931640625,9.255849838256836,3.2143771648406982,0.409165620803833
1788654138221473300,6.690473388671875,9.25800895690918,3.212797164916992,0.37093934416770935
1788654138237568300,6.706568359375,9.26042366027832,3.209216833114624,0.3404105305671692
1788654138253579000,6.7225791015625,9.262539863586426,3.2053518295288086,0.3185362219810486
1788654138269651000,6.73865087890625,9.265446662902832,3.1982319355010986,0.30527979135513306
1788654138285670400,6.75467041015625,9.269453048706055,3.1873390674591064,0.2974737286567688
1788654138301730800,6.770730712890625,9.274497985839844,3.173229217529297,0.2910108268260956
1788654138317812500,6.7868125,9.279950141906738,3.1578426361083984,0.2845022976398468
1788654138333821700,6.80282177734375,9.28499698638916,3.143317699432373,0.2806779444217682
1788654138349903600,6.818903564453125,9.288727760314941,3.131939172744751,0.28439071774482727
1788654138365922000,6.834922119140625,9.290327072143555,3.1258504390716553,0.2987668514251709
1788654138381986600,6.850986572265625,9.288616180419922,3.128957986831665,0.3187834620475769
1788654138398026800,6.86702685546875,9.282966613769531,3.1432087421417236,0.3422946333885193
1788654138414034000,6.883033935546875,9.272229194641113,3.1724231243133545,0.36317166686058044
1788654138430081500,6.89908154296875,9.263647079467773,3.1977291107177734,0.36022433638572693
1788654138446102500,6.9151025390625,9.255041122436523,3.2237234115600586,0.34959274530410767
1788654138462174700,6.9311748046875,9.237112045288086,3.2741026878356934,0.35551631450653076
1788654138478213400,6.94721337890625,9.218035697937012,3.326768636703491,0.3616783022880554
1788654138494221800,6.963221923828125,9.196434020996094,3.385129928588867,0.3699662387371063
1788654138510271700,6.979271728515625,9.176030158996582,3.4390389919281006,0.37928351759910583
1788654138526316800,6.99531689453125,9.159041404724121,3.4821486473083496,0.39621883630752563
1788654138542398700,7.011398681640625,9.146410942077637,3.512425661087036,0.42002132534980774
1788654138558457300,7.027457275390625,9.138824462890625,3.529404401779175,0.44224074482917786
1788654138574483200,7.043483154296875,9.133602142333984,3.541353464126587,0.45444050431251526
1788654138590554600,7.0595546875,9.128721237182617,3.555469036102295,0.44212594628334045
1788654138606580000,7.075580078125,9.124534606933594,3.5697360038757324,0.41259387135505676
1788654138622615300,7.091615234375,9.12336540222168,3.5759520530700684,0.3836117386817932
1788654138638678000,7.107677978515625,9.128779411315918,3.5653839111328125,0.3518806993961334
1788654138654700300,7.1237001953125,9.139513969421387,3.540931463241577,0.31855741143226624
1788654138670745300,7.139745361328125,9.15146541595459,3.511888265609741,0.2961558401584625
1788654138686773800,7.155773681640625,9.159154891967773,3.4916610717773438,0.2976081669330597
1788654138702849300,7.171849365234375,9.160103797912598,3.487116575241089,0.32078424096107483
1788654138718902300,7.18790234375,9.153565406799316,3.500502824783325,0.35931938886642456
1788654138734939400,7.203939453125,9.140960693359375,3.529097318649292,0.39838147163391113
1788654138751016400,7.220016357421875,9.122993469238281,3.5720605850219727,0.42632338404655457
1788654138767065000,7.236065185546875,9.103479385375977,3.6194570064544678,0.44338732957839966
1788654138783108900,7.25210888671875,9.086512565612793,3.66123104095459,0.44839709997177124
1788654138799137000,7.268136962890625,9.089096069335938,3.6567392349243164,0.4324256479740143
1788654138815180000,7.284179931640625,9.101499557495117,3.628547430038452,0.4083331525325775
1788654138831255800,7.300255859375,9.111491203308105,3.605661392211914,0.38771358132362366
1788654138847305200,7.31630517578125,9.117755889892578,3.5912601947784424,0.37385404109954834
1788654138863361500,7.332361572265625,9.121282577514648,3.582775354385376,0.3692096173763275
1788654138879398700,7.348398681640625,9.127108573913574,3.56772780418396,0.37094640731811523
1788654138895440000,7.36443994140625,9.133890151977539,3.5494637489318848,0.37912610173225403
1788654138911517700,7.380517578125,9.155080795288086,3.494410991668701,0.37944111227989197
1788654138927571000,7.396571044921875,9.173234939575195,3.4469692707061768,0.3748965561389923
1788654138943632400,7.41263232421875,9.188973426818848,3.4062907695770264,0.36102476716041565
1788654138959676400,7.428676513671875,9.203544616699219,3.3691341876983643,0.33777737617492676
1788654138975740000,7.444739990234375,9.216599464416504,3.335313558578491,0.31679487228393555
1788654138991781400,7.460781494140625,9.226090431213379,3.3098628520965576,0.3073408007621765
1788654139007844900,7.476844970703125,9.23029899597168,3.2976930141448975,0.3117567002773285
1788654139023885800,7.4928857421875,9.2317476272583,3.2924954891204834,0.32356640696525574
1788654139039940900,7.50894091796875,9.233343124389648,3.2864151000976562,0.33945226669311523
1788654139055952000,7.524951904296875,9.235787391662598,3.2779932022094727,0.35408368706703186
1788654139072012800,7.5410126953125,9.23856258392334,3.2690181732177734,0.36451074481010437
1788654139088029700,7.55702978515625,9.240429878234863,3.262692451477051,0.37372615933418274
1788654139104071400,7.573071533203125,9.240381240844727,3.261868953704834,0.38203495740890503
1788654139120141800,7.589141845703125,9.238210678100586,3.2671966552734375,0.3889484703540802
1788654139136149000,7.60514892578125,9.233784675598145,3.279222249984741,0.3928416073322296
1788654139152220700,7.621220703125,9.227254867553711,3.2974390983581543,0.3937695324420929
1788654139176281600,7.645281494140625,9.214686393737793,3.3329198360443115,0.38933101296424866
1788654139200389000,7.66938916015625,9.199173927307129,3.3760924339294434,0.3841678500175476
1788654139216402700,7.685402587890625,9.187535285949707,3.406614065170288,0.3931427001953125
1788654139232491000,7.701490966796875,9.176446914672852,3.433946132659912,0.4137950837612152
1788654139248513800,7.717513671875,9.166379928588867,3.456817865371704,0.4452940821647644
1788654139264580600,7.73358056640625,9.156911849975586,3.47704815864563,0.48112577199935913
1788654139280619300,7.749619384765625,9.148082733154297,3.495985984802246,0.5109261274337769
1788654139296627700,7.765627685546875,9.140212059020996,3.514167070388794,0.52681964635849
1788654139312713200,7.781713134765625,9.132475852966309,3.5348262786865234,0.5227587819099426
1788654139328729600,7.7977294921875,9.126302719116211,3.552813768386841,0.5084329843521118
1788654139344793000,7.81379296875,9.125046730041504,3.5574824810028076,0.49823257327079773
1788654139360839400,7.82983935546875,9.133183479309082,3.5373294353485107,0.4925867021083832
1788654139376849400,7.845849365234375,9.15343189239502,3.4860410690307617,0.48227593302726746
1788654139392887800,7.8618876953125,9.180763244628906,3.4157586097717285,0.46537068486213684
1788654139408908500,7.877908447265625,9.205490112304688,3.351551055908203,0.443222314119339
1788654139424968000,7.893968017578125,9.217487335205078,3.321228265762329,0.4216090440750122
1788654139440999700,7.909999755859375,9.213783264160156,3.333699941635132,0.4037732481956482
1788654139457011700,7.92601171875,9.19862174987793,3.3765790462493896,0.39301326870918274
1788654139473053700,7.9420537109375,9.176922798156738,3.4351603984832764,0.39263716340065
1788654139489075500,7.958075439453125,9.155784606933594,3.489363670349121,0.40784481167793274
1788654139505142000,7.97414208984375,9.140754699707031,3.5244057178497314,0.4422178268432617
1788654139521193000,7.99019287109375,9.132874488830566,3.5379629135131836,0.4937714636325836
1788654139537203000,8.006202880859375,9.132901191711426,3.528918504714966,0.5542988181114197
1788654139553254400,8.02225439453125,9.136890411376953,3.508437156677246,0.6152192950248718
1788654139569278700,8.03827880859375,9.141007423400879,3.4871327877044678,0.6725115180015564
1788654139585363700,8.05436376953125,9.143811225891113,3.4712815284729004,0.7150575518608093
1788654139601420500,8.070420654296875,9.156414985656738,3.4291839599609375,0.7557491660118103
1788654139617445000,8.086445068359374,9.158931732177734,3.4235665798187256,0.7507030963897705
1788654139633504500,8.10250439453125,9.163532257080078,3.4165780544281006,0.7259876132011414
1788654139649542400,8.11854248046875,9.169475555419922,3.4074928760528564,0.6928863525390625
1788654139665587000,8.1345869140625,9.175429344177246,3.3978850841522217,0.6604940891265869
1788654139681671400,8.15067138671875,9.180712699890137,3.3884668350219727,0.6349737644195557
1788654139697708000,8.1667080078125,9.187238693237305,3.372546911239624,0.62526935338974
1788654139713780000,8.182780029296875,9.19167423248291,3.3589038848876953,0.6334593296051025
1788654139729826600,8.19882666015625,9.191761016845703,3.3542144298553467,0.6566340923309326
1788654139745881900,8.2148818359375,9.190924644470215,3.3513197898864746,0.6826015114784241
1788654139761912800,8.230912841796876,9.191652297973633,3.3456332683563232,0.7004625201225281
1788654139777945300,8.2469453125,9.195267677307129,3.3338749408721924,0.7090252041816711
1788654139794033400,8.263033447265625,9.201313972473145,3.3159263134002686,0.7147297859191895
1788654139810084600,8.279084716796875,9.208185195922852,3.2962143421173096,0.7174167633056641
1788654139826145800,8.295145751953125,9.216403007507324,3.2742257118225098,0.7125726938247681
1788654139842187300,8.311187255859375,9.223967552185059,3.2563529014587402,0.696399986743927
1788654139858238200,8.32723828125,9.22860336303711,3.2482993602752686,0.672168493270874
1788654139874311200,8.343311279296875,9.229227066040039,3.2524452209472656,0.6429274082183838
1788654139890367000,8.359366943359374,9.225015640258789,3.2689573764801025,0.619188129901886
1788654139906447000,8.375447021484375,9.217878341674805,3.2923619747161865,0.6012149453163147
1788654139922498800,8.391498779296874,9.211688995361328,3.311676263809204,0.5898920297622681
1788654139938555600,8.4075556640625,9.199329376220703,3.345578908920288,0.5914575457572937
1788654139954609400,8.423609375,9.191116333007812,3.3675014972686768,0.5947355628013611
1788654139970630000,8.4396298828125,9.185827255249023,3.381208658218384,0.598649263381958
1788654139986666500,8.45566650390625,9.180668830871582,3.394834280014038,0.6006729006767273
1788654140002729700,8.471729736328125,9.172945022583008,3.4155499935150146,0.6012305021286011
1788654140018736000,8.487736083984375,9.161178588867188,3.446317672729492,0.6050495505332947
1788654140034796800,8.503796875,9.147621154785156,3.482205629348755,0.6047081351280212
1788654140050812400,8.5198125,9.134466171264648,3.51886248588562,0.5912035703659058
1788654140066852400,8.535852294921876,9.120293617248535,3.558528423309326,0.5722780823707581
1788654140082925300,8.55192529296875,9.110949516296387,3.586029291152954,0.5489802360534668
1788654140106979300,8.575979248046876,9.118637084960938,3.5729458332061768,0.5048618912696838
1788654140123028500,8.592028564453125,9.131668090820312,3.543743848800659,0.4742555022239685
1788654140139082800,8.608082763671876,9.143464088439941,3.515951633453369,0.4533523619174957
1788654140155125800,8.624125732421875,9.150890350341797,3.4974231719970703,0.4467969536781311
1788654140171138300,8.64013818359375,9.151052474975586,3.496262788772583,0.4525122046470642
1788654140187196000,8.65619580078125,9.14541244506836,3.5092873573303223,0.4655323922634125
1788654140203235800,8.67223583984375,9.137417793273926,3.528237819671631,0.4790869951248169
1788654140219254800,8.6882548828125,9.130912780761719,3.544705867767334,0.4815322160720825
1788654140235315500,8.7043154296875,9.134122848510742,3.5382299423217773,0.4681028425693512
1788654140251320600,8.720320556640624,9.15035629272461,3.499418258666992,0.442067950963974
1788654140267387600,8.7363876953125,9.164491653442383,3.4644927978515625,0.4239877462387085
1788654140283425000,8.752425048828124,9.176774024963379,3.4326224327087402,0.417506605386734
1788654140299458000,8.7684580078125,9.188846588134766,3.3998844623565674,0.4198647141456604
1788654140315486000,8.78448583984375,9.20100212097168,3.3661587238311768,0.42536455392837524
1788654140331495700,8.80049560546875,9.212930679321289,3.332632064819336,0.43112829327583313
1788654140347572700,8.81657275390625,9.225166320800781,3.2982163429260254,0.43412989377975464
1788654140363612200,8.832612060546875,9.238181114196777,3.2613027095794678,0.43622687458992004
1788654140379650600,8.848650634765624,9.252147674560547,3.221200704574585,0.43817976117134094
1788654140395679500,8.864679443359375,9.265382766723633,3.1821787357330322,0.4436364471912384
1788654140411690200,8.880690185546875,9.274978637695312,3.152994394302368,0.45142149925231934
1788654140427728000,8.896727783203126,9.280911445617676,3.1354575157165527,0.45163655281066895
1788654140443784200,8.9127841796875,9.2866849899292,3.1200122833251953,0.43977534770965576
1788654140459839200,8.928839111328125,9.2937650680542,3.1016268730163574,0.41978785395622253
1788654140475884800,8.944884765625,9.301032066345215,3.082191228866577,0.401598185300827
1788654140491901000,8.96090087890625,9.306281089782715,3.0679879188537598,0.3885471522808075
1788654140507941600,8.976941650390625,9.308197975158691,3.0634663105010986,0.378160685300827
1788654140523993300,8.992993408203125,9.307289123535156,3.067171335220337,0.3704370856285095
1788654140540009500,9.009009521484375,9.304579734802246,3.0760130882263184,0.3651503622531891
1788654140556066600,9.025066650390626,9.301084518432617,3.0870325565338135,0.361179381608963
1788654140572089900,9.04108984375,9.296940803527832,3.10006046295166,0.3562444746494293
1788654140588142600,9.057142578125,9.292017936706543,3.1154284477233887,0.35056862235069275
1788654140604210000,9.0732099609375,9.286162376403809,3.1335666179656982,0.3439900279045105
1788654140620240100,9.089240234375,9.278568267822266,3.1562907695770264,0.34113815426826477
1788654140636302800,9.105302734375,9.268227577209473,3.1868016719818115,0.33859434723854065
1788654140652341000,9.121341064453125,9.255158424377441,3.2245068550109863,0.33910036087036133
1788654140668404000,9.137404052734375,9.240654945373535,3.2655394077301025,0.34196701645851135
1788654140684477000,9.153476806640626,9.225021362304688,3.3094372749328613,0.3420490622520447
1788654140700514800,9.169514892578125,9.20898151397705,3.3542730808258057,0.3374786376953125
1788654140716543200,9.185543212890625,9.194660186767578,3.394181489944458,0.3288566470146179
1788654140732584200,9.201584228515625,9.183541297912598,3.425241231918335,0.31731411814689636
1788654140748656400,9.217656494140625,9.175342559814453,3.447969675064087,0.30818378925323486
1788654140764748000,9.233748046875,9.168763160705566,3.4660680294036865,0.3008959889411926
1788654140780797000,9.249796875,9.16202449798584,3.4844894409179688,0.29331907629966736
1788654140796829400,9.265829345703125,9.154312133789062,3.505258560180664,0.28656837344169617
1788654140812883200,9.28188330078125,9.146459579467773,3.5260651111602783,0.2820178270339966
1788654140828959700,9.297959716796875,9.139216423034668,3.544956922531128,0.27998411655426025
1788654140845054500,9.314054443359375,9.133550643920898,3.5589611530303955,0.287112295627594
1788654140861110000,9.330110107421875,9.131340026855469,3.5626027584075928,0.3112565279006958
1788654140877160200,9.34616015625,9.136839866638184,3.5450785160064697,0.34780535101890564
1788654140893173200,9.36217333984375,9.151047706604004,3.5034921169281006,0.39275744557380676
1788654140909212700,9.378212646484375,9.167905807495117,3.4547548294067383,0.42959392070770264
1788654140925234200,9.394234130859376,9.179841995239258,3.4215192794799805,0.4405583143234253
1788654140941275600,9.410275634765625,9.18278694152832,3.4161899089813232,0.4200618267059326
1788654140957337600,9.426337646484376,9.17746639251709,3.4348042011260986,0.38291868567466736
1788654140973350700,9.4423505859375,9.164073944091797,3.474198341369629,0.3465306758880615
1788654140989402000,9.458402099609375,9.143253326416016,3.5310685634613037,0.3207174837589264
1788654141005440300,9.474440185546875,9.119599342346191,3.5926835536956787,0.30971017479896545
1788654141021456000,9.490455810546875,9.097818374633789,3.647045373916626,0.31488263607025146
1788654141037518300,9.506518310546875,9.082382202148438,3.683108329772949,0.33976179361343384
1788654141053531000,9.52253076171875,9.074270248413086,3.699424982070923,0.37717050313949585
1788654141069598200,9.53859814453125,9.073869705200195,3.695828437805176,0.41966402530670166
1788654141085643500,9.5546435546875,9.080220222473145,3.6755175590515137,0.45887264609336853
1788654141101667800,9.570667724609375,9.089374542236328,3.6493935585021973,0.4853655695915222
1788654141117738500,9.586738525390626,9.09655475616455,3.631258487701416,0.4868708550930023
1788654141133754400,9.60275439453125,9.101134300231934,3.622753620147705,0.4641244113445282
1788654141149826000,9.618825927734376,9.10277271270752,3.6234047412872314,0.42526552081108093
1788654141165869600,9.63486962890625,9.102829933166504,3.628103494644165,0.38177135586738586
1788654141181913600,9.65091357421875,9.102676391601562,3.6324431896209717,0.34210890531539917
1788654141197991000,9.666990966796876,9.104828834533691,3.629701852798462,0.3126411736011505
1788654141214029600,9.683029541015625,9.111367225646973,3.6149392127990723,0.29257073998451233
1788654141230106400,9.6991064453125,9.122042655944824,3.589024782180786,0.27860212326049805
1788654141254158000,9.723157958984375,9.143363952636719,3.5349833965301514,0.2705126404762268
1788654141270225200,9.73922509765625,9.15835189819336,3.4953596591949463,0.27828729152679443
1788654141286266400,9.755266357421876,9.17320728302002,3.455296516418457,0.28909966349601746
1788654141302270700,9.771270751953125,9.187397956848145,3.416630506515503,0.29788631200790405
1788654141318318600,9.787318603515626,9.200278282165527,3.381322145462036,0.303199827671051
1788654141334336800,9.803336669921874,9.211164474487305,3.3513429164886475,0.3055140972137451
1788654141350413600,9.81941357421875,9.219663619995117,3.3280081748962402,0.3042135238647461
1788654141366470000,9.835469970703125,9.225589752197266,3.3120651245117188,0.2985000014305115
1788654141382482700,9.851482666015626,9.228068351745605,3.306102991104126,0.2877732217311859
1788654141398535400,9.867535400390626,9.226144790649414,3.312533140182495,0.27524688839912415
1788654141414557200,9.88355712890625,9.2229642868042,3.3224081993103027,0.2625184655189514
1788654141430592800,9.8995927734375,9.216581344604492,3.3408212661743164,0.25286099314689636
1788654141446647600,9.9156474609375,9.208807945251465,3.3628666400909424,0.24367034435272217
1788654141462667800,9.931667724609374,9.191171646118164,3.4113516807556152,0.23544877767562866
1788654141478736100,9.947736083984376,9.17371940612793,3.4581949710845947,0.2326977252960205
1788654141494762800,9.9637626953125,9.156493186950684,3.5033531188964844,0.2356661856174469
1788654141510800000,9.9797998046875,9.140523910522461,3.5442447662353516,0.24402397871017456
1788654141526869200,9.995869140625,9.128079414367676,3.575289487838745,0.256613552570343
1788654141542897400,10.0118974609375,9.119614601135254,3.5958902835845947,0.2694145143032074
1788654141558974000,10.027973876953125,9.113524436950684,3.6106321811676025,0.27820780873298645
1788654141575017200,10.044017333984375,9.107644081115723,3.625375270843506,0.2790432572364807
1788654141591070000,10.060070068359375,9.10119342803955,3.6417739391326904,0.2759520709514618
1788654141607149300,10.0761494140625,9.097236633300781,3.6518750190734863,0.27290377020835876
1788654141623188000,10.09218798828125,9.099638938903809,3.646526336669922,0.2641889154911041
1788654141639283700,10.10828369140625,9.110060691833496,3.6215579509735107,0.24801059067249298
1788654141655338200,10.124338134765624,9.124434471130371,3.586726665496826,0.22467732429504395
1788654141671371800,10.140371826171876,9.136163711547852,3.558140516281128,0.20133140683174133
1788654141687430400,10.156430419921875,9.140228271484375,3.54854679107666,0.18556451797485352
1788654141703477000,10.17247705078125,9.134405136108398,3.5635111331939697,0.18554413318634033
1788654141719554800,10.188554931640626,9.12204647064209,3.5941717624664307,0.20145992934703827
1788654141735608800,10.20460888671875,9.106475830078125,3.6322317123413086,0.22222959995269775
1788654141751659500,10.220659423828126,9.091257095336914,3.6691625118255615,0.23808494210243225
1788654141767688700,10.236688720703125,9.079544067382812,3.697338819503784,0.24890302121639252
1788654141783741400,10.252741455078125,9.09917163848877,3.6493890285491943,0.2396167814731598
1788654141799832000,10.26883203125,9.109574317932129,3.6235363483428955,0.23668928444385529
1788654141815887600,10.2848876953125,9.116947174072266,3.6048834323883057,0.23764292895793915
1788654141831957200,10.300957275390624,9.126151084899902,3.581289768218994,0.24107107520103455
1788654141848002000,10.317001953125,9.128884315490723,3.5732405185699463,0.2565440535545349
1788654141864009200,10.33300927734375,9.135137557983398,3.5561234951019287,0.2713504731655121
1788654141880066300,10.34906640625,9.14302921295166,3.5343804359436035,0.28908398747444153
1788654141896085200,10.365085205078126,9.170910835266113,3.461773633956909,0.2844528555870056
1788654141912170200,10.381170166015625,9.193353652954102,3.4016520977020264,0.28529465198516846
1788654141928228900,10.397228759765625,9.207554817199707,3.3624637126922607,0.29182207584381104
1788654141944238800,10.41323876953125,9.214770317077637,3.341944456100464,0.29966360330581665
1788654141960295700,10.429295654296874,9.21899700164795,3.3298261165618896,0.3045344054698944
1788654141976313300,10.445313232421874,9.22315788269043,3.31828236579895,0.30453792214393616
1788654141992360400,10.4613603515625,9.229659080505371,3.3004868030548096,0.30093321204185486
1788654142008429800,10.477429931640625,9.237763404846191,3.27827525138855,0.2950059473514557
1788654142024438300,10.493438232421875,9.245611190795898,3.2566637992858887,0.28846028447151184
1788654142040514800,10.509514892578125,9.251859664916992,3.2392525672912598,0.28409457206726074
1788654142056534000,10.525533935546875,9.255599975585938,3.228755235671997,0.2817898690700531
1788654142072588300,10.54158837890625,9.256681442260742,3.225552797317505,0.28291890025138855
1788654142088664300,10.557664306640625,9.2567720413208,3.225257396697998,0.28332850337028503
1788654142104673800,10.573673828125,9.256704330444336,3.2255029678344727,0.28272753953933716
1788654142120752600,10.589752685546875,9.255858421325684,3.227982521057129,0.282136470079422
1788654142136777000,10.60577685546875,9.253283500671387,3.2355709075927734,0.27966195344924927
1788654142152840400,10.62184033203125,9.248906135559082,3.2481350898742676,0.2788351774215698
1788654142168877800,10.6378779296875,9.242924690246582,3.265101671218872,0.27899909019470215
1788654142184886300,10.65388623046875,9.2354097366333,3.2865705490112305,0.2757720649242401
1788654142200978200,10.669978271484375,9.22623062133789,3.3124840259552,0.2729414105415344
1788654142216995000,10.6859951171875,9.215933799743652,3.3411495685577393,0.27141663432121277
1788654142233065700,10.702065673828125,9.205887794494629,3.369065523147583,0.2672478258609772
1788654142249115100,10.718115234375,9.198208808898926,3.390287160873413,0.26323240995407104
1788654142265132000,10.734132080078124,9.193387031555176,3.403294086456299,0.2638372480869293
1788654142281181700,10.750181640625,9.190014839172363,3.411990165710449,0.2689543664455414
1788654142297199400,10.766199462890626,9.186424255371094,3.421326160430908,0.27299338579177856
1788654142313278200,10.7822783203125,9.18182373046875,3.4340357780456543,0.268147349357605
1788654142329334800,10.798334716796875,9.17528247833252,3.452810049057007,0.2503684461116791
1788654142345342500,10.814342529296875,9.168508529663086,3.4717555046081543,0.2361069917678833
1788654142361402600,10.830402587890624,9.167173385620117,3.4753448963165283,0.23511987924575806
1788654142377427200,10.84642724609375,9.17957878112793,3.4421401023864746,0.2395823448896408
1788654142393471000,10.862470947265624,9.203293800354004,3.3781545162200928,0.24052444100379944
1788654142409528000,10.878528076171875,9.228913307189941,3.307743787765503,0.23744605481624603
1788654142425540600,10.89454052734375,9.247366905212402,3.256153106689453,0.23248101770877838
1788654142441585000,10.9105849609375,9.252202987670898,3.2427496910095215,0.22737203538417816
1788654142457617400,10.926617431640626,9.245159149169922,3.263134479522705,0.2221842259168625
1788654142473686000,10.94268603515625,9.230964660644531,3.3034439086914062,0.21664723753929138
1788654142489745400,10.958745361328125,9.21386432647705,3.3514230251312256,0.20749160647392273
1788654142505777700,10.974777587890625,9.199427604675293,3.391411304473877,0.19813524186611176
1788654142521843500,10.990843505859376,9.18779468536377,3.422713041305542,0.1996372789144516
1788654142537909000,11.006908935546875,9.183116912841797,3.4333741664886475,0.2295318841934204
1788654142553963300,11.02296337890625,9.185107231140137,3.4239423274993896,0.2842790186405182
1788654142569995500,11.03899560546875,9.182525634765625,3.42720365524292,0.325411856174469
1788654142586047700,11.0550478515625,9.184040069580078,3.4185853004455566,0.37022164463996887
1788654142602125800,11.071125732421875,9.190254211425781,3.3963847160339355,0.41735345125198364
1788654142618174700,11.0871748046875,9.200106620788574,3.3640403747558594,0.46006304025650024
1788654142634233600,11.103233642578125,9.22143840789795,3.299516439437866,0.498647004365921
1788654142650268200,11.11926806640625,9.240730285644531,3.2441587448120117,0.5047137141227722
1788654142666322400,11.135322509765626,9.24841022491455,3.226219892501831,0.4783332943916321
1788654142682403800,11.15140380859375,9.25438117980957,3.2142350673675537,0.4421639144420624
1788654142698460700,11.167460693359375,9.258064270019531,3.208014965057373,0.40898317098617554
1788654142714525200,11.183525146484374,9.260920524597168,3.202608585357666,0.386060506105423
1788654142730558200,11.19955810546875,9.266125679016113,3.188894033432007,0.37449777126312256
1788654142746599000,11.215598876953125,9.272879600524902,3.1693649291992188,0.3731200695037842
1788654142762695000,11.23169482421875,9.279949188232422,3.1485109329223633,0.37390750646591187
1788654142778760400,11.247760498046874,9.287920951843262,3.124678611755371,0.3758946657180786
1788654142794836700,11.263836669921876,9.295949935913086,3.0999460220336914,0.38213858008384705
1788654142810899500,11.2798994140625,9.303266525268555,3.0761144161224365,0.39641207456588745
1788654142826911500,11.295911376953125,9.308804512023926,3.05610990524292,0.4204186797142029
1788654142842974000,11.311973876953125,9.312881469726562,3.0397894382476807,0.4475482404232025
1788654142858995500,11.327995361328124,9.316044807434082,3.0260703563690186,0.4739093482494354
1788654142875042600,11.34404248046875,9.319001197814941,3.0132949352264404,0.49663904309272766
1788654142891112400,11.360112548828125,9.321824073791504,3.0015218257904053,0.5146409273147583
1788654142907132700,11.376132568359376,9.323113441467285,2.996429443359375,0.5209140777587891
1788654142923203000,11.392203125,9.320598602294922,3.004664421081543,0.5184783935546875
1788654142939220700,11.408220703125,9.31411075592041,3.0256354808807373,0.5130869150161743
1788654142955274500,11.4242744140625,9.307226181030273,3.049262046813965,0.49791815876960754
1788654142971350300,11.440350341796876,9.299813270568848,3.073540687561035,0.4870292842388153
1788654142987359500,11.456359375,9.287403106689453,3.1106183528900146,0.4884569048881531
1788654143003427000,11.472427001953125,9.276456832885742,3.1431920528411865,0.4879314601421356
1788654143019442400,11.4884423828125,9.2676420211792,3.1692962646484375,0.4865853190422058
1788654143035501800,11.504501708984375,9.258715629577637,3.195694923400879,0.48383966088294983
1788654143051594200,11.52059423828125,9.247649192810059,3.227729558944702,0.48282837867736816
1788654143067609600,11.536609619140625,9.234345436096191,3.265540838241577,0.4832082986831665
1788654143083699200,11.55269921875,9.220953941345215,3.3037710189819336,0.4790510833263397
1788654143099714600,11.568714599609375,9.20838451385498,3.340641498565674,0.4649248421192169
1788654143115770000,11.58477001953125,9.196566581726074,3.375842571258545,0.44411900639533997
1788654143131805400,11.600805419921874,9.189846992492676,3.397761106491089,0.41510945558547974
1788654143147805400,11.616805419921874,9.195759773254395,3.3872249126434326,0.3675520122051239
1788654143163901000,11.63290087890625,9.207653999328613,3.3604578971862793,0.31113848090171814
1788654143179914500,11.64891455078125,9.220967292785645,3.3284788131713867,0.2557125985622406
1788654143195970000,11.664969970703124,9.232931137084961,3.298365354537964,0.2101241946220398
1788654143212012000,11.681011962890626,9.242586135864258,3.273193359375,0.17660635709762573
1788654143228024600,11.697024658203125,9.248668670654297,3.2571001052856445,0.1543092131614685
1788654143244066300,11.71306640625,9.251883506774902,3.2486648559570312,0.13862502574920654
1788654143260083000,11.7290830078125,9.253626823425293,3.2441904544830322,0.12653496861457825
1788654143276159200,11.7451591796875,9.25634765625,3.2367103099823,0.1188751682639122
1788654143292213800,11.7612138671875,9.262354850769043,3.2195723056793213,0.116279236972332
1788654143308232400,11.777232421875,9.27197265625,3.1917529106140137,0.11671565473079681
1788654143324286500,11.793286376953125,9.276132583618164,3.179231643676758,0.12747260928153992
1788654143340305400,11.809305419921875,9.287294387817383,3.1462864875793457,0.13202421367168427
1788654143356381200,11.825381103515625,9.297237396240234,3.1159331798553467,0.15071499347686768
1788654143372436000,11.84143603515625,9.308504104614258,3.0804061889648438,0.1823229044675827
1788654143388458500,11.85745849609375,9.324799537658691,3.028231382369995,0.21981322765350342
1788654143404512300,11.87351220703125,9.342134475708008,2.9714181423187256,0.25610122084617615
1788654143420545000,11.889544921875,9.357230186462402,2.920931816101074,0.2842184901237488
1788654143436577500,11.90557763671875,9.370057106018066,2.878282070159912,0.29650723934173584
1788654143452651800,11.92165185546875,9.375967025756836,2.8586175441741943,0.2999005913734436
1788654143468691000,11.93769091796875,9.375630378723145,2.8601155281066895,0.2960895299911499
1788654143484760800,11.9537607421875,9.376056671142578,2.859657049179077,0.28691819310188293
1788654143500802300,11.96980224609375,9.377608299255371,2.855074644088745,0.2817518413066864
1788654143516847900,11.985847900390626,9.3868989944458,2.8241496086120605,0.28406858444213867
1788654143532919000,12.0019189453125,9.395121574401855,2.7954459190368652,0.2959035336971283
1788654143548959700,12.017959716796875,9.402719497680664,2.7687764167785645,0.3051707446575165
1788654143565034500,12.034034423828125,9.410405158996582,2.742696523666382,0.30376705527305603
1788654143581081300,12.050081298828125,9.419023513793945,2.7138798236846924,0.2953450679779053
1788654143597136600,12.06613671875,9.427703857421875,2.6848795413970947,0.2832188308238983
1788654143613178000,12.08217822265625,9.436014175415039,2.6566669940948486,0.272308886051178
1788654143629226000,12.09822607421875,9.443900108337402,2.6293537616729736,0.2638717293739319
1788654143645314800,12.114314697265625,9.450292587280273,2.6070077419281006,0.25665566325187683
1788654143661369900,12.130369873046876,9.453536033630371,2.5953025817871094,0.2558298110961914
1788654143677432300,12.146432373046874,9.452885627746582,2.596993923187256,0.2626199424266815
1788654143693473500,12.1624736328125,9.446907043457031,2.6169209480285645,0.2794138491153717
1788654143709528000,12.178528076171874,9.43901252746582,2.6430840492248535,0.29920947551727295
1788654143725589500,12.194589599609374,9.431085586547852,2.6691839694976807,0.31696534156799316
1788654143741606000,12.21060595703125,9.42512035369873,2.6891560554504395,0.3254701495170593
1788654143757682700,12.2266826171875,9.418892860412598,2.7112393379211426,0.3225274085998535
1788654143773731300,12.2427314453125,9.411605834960938,2.7380878925323486,0.3081100881099701
1788654143789742000,12.2587421875,9.40263557434082,2.7712230682373047,0.28487613797187805
1788654143805827000,12.2748271484375,9.39011001586914,2.8160507678985596,0.25707197189331055
1788654143821838800,12.2908388671875,9.373883247375488,2.8712992668151855,0.23737624287605286
1788654143837878300,12.306878173828125,9.356583595275879,2.9274606704711914,0.23388229310512543
1788654143853941500,12.32294140625,9.342744827270508,2.9699316024780273,0.2510405480861664
1788654143869945000,12.338945068359376,9.346343994140625,2.954861640930176,0.2915996313095093
1788654143886040800,12.355040771484376,9.356584548950195,2.9181206226348877,0.3305857181549072
1788654143902058000,12.37105810546875,9.37066650390625,2.870661497116089,0.3468596935272217
1788654143918094600,12.387094482421874,9.381922721862793,2.8352279663085938,0.33374395966529846
1788654143934162700,12.40316259765625,9.38692855834961,2.8217217922210693,0.30635491013526917
1788654143950177800,12.419177734375,9.386235237121582,2.8264763355255127,0.2828625738620758
1788654143966261500,12.435261474609375,9.382919311523438,2.8382771015167236,0.27459684014320374
1788654143982276600,12.451276611328124,9.38001537322998,2.847573757171631,0.2775372564792633
1788654143998334200,12.467334228515625,9.379766464233398,2.847736120223999,0.28421154618263245
1788654144014416100,12.483416015625,9.374066352844238,2.8649954795837402,0.29845768213272095
1788654144030425900,12.49942578125,9.370049476623535,2.877502202987671,0.3042200803756714
1788654144046502000,12.515501953125,9.366374969482422,2.889357805252075,0.3049977123737335
1788654144062522000,12.531522216796875,9.36514949798584,2.8935251235961914,0.30310919880867004
1788654144078583000,12.5475830078125,9.363648414611816,2.897977352142334,0.3069145381450653
1788654144094623200,12.563623291015626,9.360496520996094,2.907078266143799,0.3168349862098694
1788654144110640600,12.579640625,9.356255531311035,2.918849468231201,0.33345118165016174
1788654144126728000,12.59572802734375,9.352169036865234,2.929612636566162,0.35311633348464966
1788654144142749000,12.6117490234375,9.34883975982666,2.9382755756378174,0.36894044280052185
1788654144158814500,12.627814453125,9.346158027648926,2.9455833435058594,0.37848421931266785
1788654144174862300,12.6438623046875,9.34325885772705,2.9538893699645996,0.38526177406311035
1788654144190880500,12.659880615234375,9.33972454071045,2.9642069339752197,0.39168161153793335
1788654144206943200,12.675943115234375,9.335888862609863,2.9755632877349854,0.3969752788543701
1788654144222959400,12.69195947265625,9.332539558410645,2.985858201980591,0.39841943979263306
1788654144247013000,12.71601318359375,9.32841682434082,2.999478816986084,0.3926188349723816
1788654144271042000,12.7400419921875,9.324703216552734,3.0116710662841797,0.38746941089630127
1788654144287095300,12.75609521484375,9.322111129760742,3.0199224948883057,0.38563814759254456
1788654144303120000,12.772119873046876,9.319489479064941,3.027925968170166,0.38622772693634033
1788654144319166500,12.78816650390625,9.317197799682617,3.034883975982666,0.3869111239910126
1788654144335236600,12.804236572265625,9.31483268737793,3.0418572425842285,0.3890881836414337
1788654144351266600,12.8202666015625,9.31192684173584,3.0502872467041016,0.3926352560520172
1788654144367336000,12.8363359375,9.308351516723633,3.060744524002075,0.39600926637649536
1788654144383371500,12.85237158203125,9.304376602172852,3.0723583698272705,0.3994767963886261
1788654144399419600,12.868419677734375,9.30125904083252,3.0814619064331055,0.40195074677467346
1788654144415499300,12.884499267578125,9.29951000213623,3.086423397064209,0.40435194969177246
1788654144431535900,12.900535888671875,9.299042701721191,3.0872650146484375,0.40862470865249634
1788654144447605200,12.916605224609375,9.29932975769043,3.085268974304199,0.4170953333377838
1788654144463645400,12.9326455078125,9.299537658691406,3.0827202796936035,0.43107327818870544
1788654144479697700,12.94869775390625,9.299528121948242,3.080582857131958,0.44629380106925964
1788654144495732000,12.96473193359375,9.299606323242188,3.0784096717834473,0.45946022868156433
1788654144511783200,12.980783203125,9.299952507019043,3.0759341716766357,0.46893826127052307
1788654144527860500,12.996860595703126,9.30083179473877,3.072408437728882,0.474577397108078
1788654144543909400,13.012909423828125,9.301889419555664,3.068901777267456,0.47653675079345703
1788654144559966000,13.028966064453124,9.30265998840332,3.066498279571533,0.4769723415374756
1788654144576001000,13.0450009765625,9.302985191345215,3.065575122833252,0.47655102610588074
1788654144592060400,13.061060302734376,9.302774429321289,3.0663797855377197,0.47548678517341614
1788654144608155000,13.07715478515625,9.302486419677734,3.067110061645508,0.47641730308532715
1788654144624213800,13.0932138671875,9.301431655883789,3.0700807571411133,0.4778571128845215
1788654144640286700,13.10928662109375,9.299595832824707,3.0754053592681885,0.47936680912971497
1788654144656327000,13.125326904296875,9.297647476196289,3.0813379287719727,0.4790536165237427
1788654144672343600,13.141343505859375,9.296031951904297,3.0865378379821777,0.4769284129142761
1788654144688384500,13.157384521484374,9.294801712036133,3.0903444290161133,0.47625732421875
1788654144704404000,13.173404052734375,9.293673515319824,3.093571901321411,0.47732409834861755
1788654144720435500,13.189435546875,9.292850494384766,3.0960123538970947,0.47751837968826294
1788654144736491300,13.2054912109375,9.292240142822266,3.097639560699463,0.47885262966156006
1788654144752506400,13.22150634765625,9.291882514953613,3.0981996059417725,0.4821527600288391
1788654144768565800,13.237565673828126,9.29186725616455,3.09740948677063,0.4874815046787262
1788654144784581000,13.2535810546875,9.291675567626953,3.097097396850586,0.4930912256240845
1788654144800620000,13.2696201171875,9.2911958694458,3.0978493690490723,0.4973863363265991
1788654144816691700,13.285691650390625,9.290122985839844,3.1005442142486572,0.500630259513855
1788654144832714200,13.30171435546875,9.288558959960938,3.1050708293914795,0.5015966892242432
1788654144848778000,13.317778076171875,9.287751197814941,3.1076486110687256,0.5005744695663452
1788654144864796200,13.333796142578125,9.287293434143066,3.1089446544647217,0.5010291934013367
1788654144880842000,13.349842041015625,9.286903381347656,3.1096408367156982,0.5039318799972534
1788654144896873200,13.365873291015625,9.286429405212402,3.1105592250823975,0.5069754719734192
1788654144912892700,13.381892578125,9.284998893737793,3.114499807357788,0.5089983344078064
1788654144928971000,13.397970947265625,9.283971786499023,3.118043899536133,0.5060203075408936
1788654144944987100,13.413987060546875,9.283854484558105,3.119568347930908,0.4987221360206604
1788654144961039600,13.43003955078125,9.283987045288086,3.120206356048584,0.49222540855407715
1788654144977070600,13.446070556640626,9.284302711486816,3.1198647022247314,0.48842766880989075
1788654144993086700,13.462086669921876,9.284646034240723,3.1191465854644775,0.4864911139011383
1788654145009173000,13.478173095703125,9.284947395324707,3.1184310913085938,0.4853064715862274
1788654145025192400,13.4941923828125,9.285406112670898,3.117171049118042,0.48462557792663574
1788654145041255000,13.5102548828125,9.28596019744873,3.115551710128784,0.4844239354133606
1788654145057295000,13.526295166015625,9.286231994628906,3.1147310733795166,0.48450449109077454
1788654145073308000,13.542307861328124,9.286470413208008,3.114222764968872,0.4831826090812683
1788654145089395700,13.558395751953125,9.28672981262207,3.1137919425964355,0.4809773564338684
1788654145105412400,13.574412353515624,9.286816596984863,3.1138205528259277,0.47910791635513306
1788654145121486300,13.590486328125,9.286636352539062,3.1147377490997314,0.476627916097641
1788654145137529600,13.606529541015625,9.28635025024414,3.1159260272979736,0.4744309186935425
1788654145153548800,13.622548828125,9.28631591796875,3.1163434982299805,0.47236406803131104
1788654145169601500,13.6386015625,9.28663444519043,3.115638017654419,0.4707641005516052
1788654145185617200,13.6546171875,9.287151336669922,3.114314079284668,0.4693126380443573
1788654145201690000,13.670690185546874,9.287630081176758,3.1132466793060303,0.4669179320335388
1788654145217770000,13.68677001953125,9.288012504577637,3.1127548217773438,0.4625617563724518
1788654145233793500,13.70279345703125,9.287995338439941,3.113605499267578,0.45716091990470886
1788654145249855500,13.71885546875,9.287718772888184,3.115199327468872,0.45189037919044495
1788654145265891300,13.734891357421875,9.287433624267578,3.1168456077575684,0.44636911153793335
1788654145281936000,13.750935791015625,9.287022590637207,3.1188242435455322,0.4410547912120819
1788654145298007300,13.76700732421875,9.286294937133789,3.1214098930358887,0.43806707859039307
1788654145314043100,13.783043212890625,9.285202980041504,3.1248843669891357,0.4364367127418518
1788654145330107100,13.799107177734374,9.284448623657227,3.1275405883789062,0.43346211314201355
1788654145346143200,13.815143310546874,9.284733772277832,3.127211332321167,0.4297149181365967
1788654145362182700,13.8311826171875,9.286079406738281,3.123624801635742,0.42671340703964233
1788654145378258000,13.8472578125,9.287518501281738,3.1193935871124268,0.4263455271720886
1788654145394301000,13.863301025390625,9.288007736206055,3.117241621017456,0.43139806389808655
1788654145410379800,13.8793798828125,9.287991523742676,3.116185426712036,0.43931132555007935
1788654145426430200,13.89543017578125,9.28830623626709,3.1141440868377686,0.4470641613006592
1788654145442485500,13.911485595703125,9.289252281188965,3.1105716228485107,0.45224258303642273
1788654145458509800,13.927509765625,9.289787292480469,3.1095573902130127,0.4482062757015228
1788654145474559700,13.943559814453126,9.28951358795166,3.1119608879089355,0.43708235025405884
1788654145490645000,13.95964501953125,9.288668632507324,3.1156013011932373,0.4290006458759308
1788654145506703000,13.975703125,9.288125038146973,3.116715431213379,0.4326609671115875
1788654145522766300,13.991766357421875,9.287932395935059,3.115215539932251,0.44735953211784363
1788654145538803000,14.007802978515626,9.287298202514648,3.114161968231201,0.4674094319343567
1788654145554854400,14.0238544921875,9.285759925842285,3.1161704063415527,0.4842921495437622
1788654145570891300,14.039891357421874,9.286195755004883,3.1138250827789307,0.4909832775592804
1788654145586950700,14.05595068359375,9.288553237915039,3.1070902347564697,0.4890403151512146
1788654145603017500,14.072017578125,9.292274475097656,3.0975236892700195,0.4789397120475769
1788654145619061800,14.088061767578125,9.296554565429688,3.086961269378662,0.46381255984306335
1788654145635125500,14.10412548828125,9.300145149230957,3.078413248062134,0.4483969509601593
1788654145651174700,14.120174560546875,9.301793098449707,3.0750367641448975,0.4372498393058777
1788654145667190000,14.13618994140625,9.301529884338379,3.076460838317871,0.4328073263168335
1788654145683216000,14.1522158203125,9.30066967010498,3.079322338104248,0.4309249222278595
1788654145699272000,14.16827197265625,9.299614906311035,3.0827109813690186,0.4294699430465698
1788654145715289300,14.184289306640625,9.298025131225586,3.087540626525879,0.4292023777961731
1788654145731342800,14.2003427734375,9.295714378356934,3.0939176082611084,0.4333087205886841
1788654145747360500,14.216360595703126,9.292802810668945,3.101616382598877,0.4406542181968689
1788654145763389700,14.2323896484375,9.289407730102539,3.110724449157715,0.4479852318763733
1788654145779444700,14.24844482421875,9.285204887390137,3.122053623199463,0.4562372863292694
1788654145795455700,14.264455810546876,9.279891967773438,3.136251926422119,0.4668097496032715
1788654145811512300,14.28051220703125,9.273468017578125,3.1530373096466064,0.48118463158607483
1788654145827530800,14.29653076171875,9.267251968383789,3.168679714202881,0.49789419770240784
1788654145843572200,14.312572265625,9.261749267578125,3.181765556335449,0.5164853930473328
1788654145859640600,14.328640625,9.25717544555664,3.1919617652893066,0.5352240204811096
1788654145875656700,14.34465673828125,9.253463745117188,3.1991748809814453,0.5559450387954712
1788654145891729700,14.360729736328125,9.250873565673828,3.203317642211914,0.5748688578605652
1788654145907749600,14.37674951171875,9.250663757324219,3.200989246368408,0.5910007357597351
1788654145923798800,14.392798828125,9.254934310913086,3.186053991317749,0.6046786904335022
1788654145939824400,14.408824462890625,9.264738082885742,3.1544995307922363,0.6197924613952637
1788654145955837200,14.424837158203125,9.279584884643555,3.107839822769165,0.6332653760910034
1788654145971914000,14.4409140625,9.296686172485352,3.054764747619629,0.6406410932540894
1788654145987931000,14.456930908203125,9.31104850769043,3.0093071460723877,0.6471753120422363
1788654146003990500,14.472990478515625,9.327507972717285,2.9540226459503174,0.6646347641944885
1788654146020030200,14.4890302734375,9.347707748413086,2.881439208984375,0.6986058354377747
1788654146036047000,14.505047119140626,9.357297897338867,2.8387300968170166,0.74361252784729
1788654146052123000,14.521122802734375,9.355716705322266,2.830031394958496,0.7949061393737793
1788654146068136000,14.537135986328124,9.362008094787598,2.7891085147857666,0.8625901937484741
1788654146084200400,14.553200439453125,9.36855697631836,2.743460178375244,0.9348528981208801
1788654146100246800,14.569246826171875,9.377056121826172,2.688621759414673,1.0062414407730103
1788654146116255000,14.5852548828125,9.383201599121094,2.646139621734619,1.060116171836853
1788654146132305200,14.60130517578125,9.389925956726074,2.6007542610168457,1.1116423606872559
1788654146148325400,14.617325439453126,9.396021842956543,2.55364727973938,1.1679260730743408
1788654146164405500,14.633405517578124,9.397525787353516,2.5187346935272217,1.2299919128417969
1788654146180461800,14.6494619140625,9.391263008117676,2.5090413093566895,1.2958729267120361
1788654146196483000,14.665483154296876,9.379504203796387,2.518728017807007,1.3606210947036743
1788654146212541000,14.681541015625,9.365294456481934,2.540729284286499,1.416456699371338
1788654146228573200,14.6975732421875,9.35239028930664,2.5677568912506104,1.4525187015533447
1788654146244608300,14.713608154296875,9.341909408569336,2.59438419342041,1.4725099802017212
1788654146260672300,14.72967236328125,9.3340425491333,2.619412660598755,1.4780765771865845
1788654146276701200,14.745701171875,9.328009605407715,2.6453006267547607,1.4700350761413574
1788654146292764400,14.761764404296875,9.323705673217773,2.673835515975952,1.445508599281311
1788654146308798500,14.777798583984374,9.321011543273926,2.702591896057129,1.4089455604553223
1788654146324839400,14.79383935546875,9.320005416870117,2.7296135425567627,1.3627499341964722
1788654146340908500,14.809908447265625,9.320869445800781,2.7534728050231934,1.3077356815338135
1788654146356943400,14.825943359375,9.326472282409668,2.7704427242279053,1.2296204566955566
1788654146373017600,14.842017578125,9.336067199707031,2.780472755432129,1.130137324333191
1788654146389066200,14.858066162109376,9.344827651977539,2.7877824306488037,1.035787582397461
1788654146405120800,14.874120849609374,9.351970672607422,2.794550657272339,0.9494842290878296
1788654146421159000,14.890158935546875,9.356819152832031,2.803121328353882,0.8734033703804016
1788654146437209900,14.9062099609375,9.358000755310059,2.8147411346435547,0.8218600153923035
1788654146453291300,14.922291259765625,9.35706901550293,2.827610731124878,0.7875720858573914
1788654146469351400,14.938351318359375,9.356271743774414,2.8397209644317627,0.752700686454773
1788654146485413600,14.95441357421875,9.355855941772461,2.8507633209228516,0.715187668800354
1788654146501450800,14.97045068359375,9.355962753295898,2.8605382442474365,0.6735559105873108
1788654146517508900,14.9865087890625,9.356078147888184,2.869428873062134,0.6329038739204407
1788654146533554400,15.002554443359376,9.355365753173828,2.8785171508789062,0.601377546787262
1788654146549641200,15.01864111328125,9.354848861694336,2.8868086338043213,0.56879061460495
1788654146565711400,15.03471142578125,9.351325988769531,2.9019148349761963,0.5495389699935913
1788654146581756000,15.050755859375,9.344950675964355,2.9246506690979004,0.5373070240020752
1788654146597775000,15.066775146484375,9.336256980895996,2.9539389610290527,0.52814781665802
1788654146613826300,15.082826416015624,9.326765060424805,2.9858510494232178,0.5162699818611145
1788654146629842700,15.0988427734375,9.318099975585938,3.0153539180755615,0.5010499954223633
1788654146645892000,15.11489208984375,9.311277389526367,3.038740634918213,0.4863629937171936
1788654146661955300,15.130955322265624,9.30887222290039,3.0481958389282227,0.47306570410728455
1788654146677959700,15.146959716796875,9.310480117797852,3.0463850498199463,0.4526408910751343
1788654146694015700,15.163015625,9.31212043762207,3.0459678173065186,0.42056599259376526
1788654146710032100,15.1790322265625,9.31065845489502,3.0561587810516357,0.37671253085136414
1788654146726071600,15.195071533203125,9.305861473083496,3.076881170272827,0.3227000832557678
1788654146742139100,15.21113916015625,9.296317100524902,3.1099960803985596,0.27711963653564453
1788654146758144800,15.227144775390625,9.2855806350708,3.144623279571533,0.2443734109401703
1788654146774220500,15.243220458984375,9.275413513183594,3.175865888595581,0.22576412558555603
1788654146790237000,15.25923681640625,9.26654052734375,3.2020134925842285,0.2207563817501068
1788654146806292700,15.275292724609375,9.260611534118652,3.218780279159546,0.2256491333246231
1788654146822374100,15.2913740234375,9.25732421875,3.2274293899536133,0.23670652508735657
1788654146838384000,15.307384033203125,9.255338668823242,3.232354164123535,0.24695071578025818
1788654146854461200,15.323461181640624,9.254084587097168,3.237183094024658,0.23011282086372375
1788654146870482200,15.339482177734375,9.254121780395508,3.2400636672973633,0.183318629860878
1788654146886543400,15.35554345703125,9.256149291992188,3.2368390560150146,0.13024653494358063
1788654146902582300,15.371582275390624,9.26078987121582,3.2253806591033936,0.07124971598386765
1788654146918600700,15.3876005859375,9.267706871032715,3.20622181892395,0.011888444423675537
1788654146934681000,15.40368115234375,9.275432586669922,3.183586597442627,-0.03894669562578201
1788654146950698800,15.41969873046875,9.283063888549805,3.1604373455047607,-0.08212517946958542
1788654146966762800,15.4357626953125,9.289692878723145,3.139716386795044,-0.11902502179145813
1788654146982808600,15.45180859375,9.295154571533203,3.122039556503296,-0.15281331539154053
1788654146998825000,15.467824951171876,9.299654960632324,3.1067841053009033,-0.18625862896442413
1788654147014873600,15.48387353515625,9.303472518920898,3.0929229259490967,-0.22273410856723785
1788654147030891500,15.4998916015625,9.306529998779297,3.080495834350586,-0.2635026276111603
1788654147046965500,15.515965576171874,9.308914184570312,3.069326877593994,-0.30617913603782654
1788654147063015200,15.53201513671875,9.310441970825195,3.0599701404571533,-0.35020169615745544
1788654147079032600,15.548032470703125,9.310792922973633,3.0534915924072266,-0.39459508657455444
1788654147095082800,15.564082763671875,9.309770584106445,3.050791025161743,-0.4373152554035187
1788654147111107600,15.580107666015625,9.307738304138184,3.050924301147461,-0.4777604341506958
1788654147127142700,15.596142578125,9.305505752563477,3.052074670791626,-0.5126229524612427
1788654147143217000,15.612216796875,9.303061485290527,3.0549731254577637,-0.5390442609786987
1788654147159246800,15.628246826171875,9.300582885742188,3.0595059394836426,-0.5558489561080933
1788654147175308500,15.64430859375,9.298492431640625,3.06430983543396,-0.5643001198768616
1788654147191338800,15.6603388671875,9.297270774841309,3.067232847213745,-0.5685269832611084
1788654147207379500,15.67637939453125,9.297098159790039,3.067767381668091,-0.5684729218482971
1788654147223454700,15.692454833984375,9.298215866088867,3.065291404724121,-0.5635296106338501
1788654147239480000,15.70847998046875,9.30020809173584,3.061142921447754,-0.5530990958213806
1788654147255555800,15.724555908203126,9.302639961242676,3.0570337772369385,-0.5346147418022156
1788654147271600400,15.740600341796876,9.304991722106934,3.054485321044922,-0.507588267326355
1788654147287655200,15.7566552734375,9.306504249572754,3.0551066398620605,-0.47507601976394653
1788654147303732000,15.77273193359375,9.306694984436035,3.059852123260498,-0.43945759534835815
1788654147319772200,15.788772216796875,9.305227279663086,3.069427967071533,-0.40218716859817505
1788654147335845600,15.804845703125,9.301653861999512,3.0847880840301514,-0.36565160751342773
1788654147351892000,15.82089208984375,9.296820640563965,3.1032283306121826,-0.3309115767478943
1788654147367960000,15.8369599609375,9.290872573852539,3.1243607997894287,-0.2973882257938385
1788654147383994600,15.85299462890625,9.284520149230957,3.146400213241577,-0.261210560798645
1788654147400036600,15.86903662109375,9.279953002929688,3.1630706787109375,-0.2187427133321762
1788654147416125200,15.885125244140625,9.277361869812012,3.1737747192382812,-0.16762056946754456
1788654147432173600,15.901173583984376,9.281272888183594,3.164210557937622,-0.12703925371170044
1788654147448242400,15.917242431640625,9.291550636291504,3.13437819480896,-0.1146755963563919
1788654147464281600,15.933281494140624,9.303041458129883,3.0995545387268066,-0.12869185209274292
1788654147480334300,15.949334228515625,9.312759399414062,3.068310260772705,-0.16845394670963287
1788654147496427300,15.96542724609375,9.31781005859375,3.049783706665039,-0.21821898221969604
1788654147512488700,15.98148876953125,9.318111419677734,3.0457000732421875,-0.2586519718170166
1788654147528530000,15.997530029296875,9.316338539123535,3.048921823501587,-0.28337562084198
1788654147544588300,16.01358837890625,9.314922332763672,3.051896572113037,-0.29754531383514404
1788654147560599000,16.02959912109375,9.310932159423828,3.0652968883514404,-0.28438904881477356
1788654147576664000,16.0456640625,9.309959411621094,3.0684945583343506,-0.28175607323646545
1788654147592685300,16.061685302734375,9.311197280883789,3.064870834350586,-0.28028571605682373
1788654147608730000,16.077730224609375,9.312983512878418,3.0603301525115967,-0.2703954577445984
1788654147624805000,16.09380517578125,9.314288139343262,3.058171033859253,-0.24903862178325653
1788654147640823800,16.10982373046875,9.315594673156738,3.0564088821411133,-0.22010405361652374
1788654147656890000,16.12589013671875,9.316810607910156,3.0547587871551514,-0.1894388645887375
1788654147672915500,16.14191552734375,9.31690502166748,3.0561728477478027,-0.1596149504184723
1788654147688965600,16.157965576171875,9.315713882446289,3.0613837242126465,-0.12563873827457428
1788654147705038300,16.174038330078126,9.31454849243164,3.0661628246307373,-0.0907379612326622
1788654147721060000,16.19006005859375,9.314539909362793,3.067111015319824,-0.05054141581058502
1788654147737136600,16.20613671875,9.315335273742676,3.0651051998138428,-0.006567980162799358
1788654147753161200,16.2221611328125,9.316177368164062,3.062290906906128,0.03981924057006836
1788654147769230000,16.23822998046875,9.31712818145752,3.058515787124634,0.08364318311214447
1788654147785272800,16.25427294921875,9.319117546081543,3.051250457763672,0.11962810903787613
1788654147801296400,16.27029638671875,9.32242202758789,3.0398342609405518,0.14914587140083313
1788654147817383700,16.2863837890625,9.325623512268066,3.028917074203491,0.16971446573734283
1788654147833407700,16.30240771484375,9.327827453613281,3.021408796310425,0.18196693062782288
1788654147849479000,16.31847900390625,9.32890796661377,3.0178089141845703,0.18624183535575867
1788654147865537500,16.33453759765625,9.329465866088867,3.016082525253296,0.18628844618797302
1788654147881563400,16.3505634765625,9.330560684204102,3.012816905975342,0.18427228927612305
1788654147897636900,16.366636962890624,9.332552909851074,3.0068466663360596,0.1809144914150238
1788654147913663200,16.382663330078124,9.335270881652832,2.9985156059265137,0.17890022695064545
1788654147929744600,16.39874462890625,9.338536262512207,2.988382577896118,0.17804653942584991
1788654147945803500,16.414803466796876,9.342117309570312,2.9771344661712646,0.17859993875026703
1788654147961831200,16.4308310546875,9.344778060913086,2.9686832427978516,0.18010245263576508
1788654147977890600,16.446890625,9.346951484680176,2.9618818759918213,0.17925576865673065
1788654147993919700,16.462919677734376,9.349233627319336,2.9549343585968018,0.17488530278205872
1788654148010004500,16.47900439453125,9.351122856140137,2.9489736557006836,0.17449221014976501
1788654148026067700,16.495067626953126,9.351309776306152,2.947978973388672,0.18114815652370453
1788654148042098400,16.511098388671876,9.348876953125,2.9549551010131836,0.19270868599414825
1788654148058160000,16.52716015625,9.344404220581055,2.9679298400878906,0.20953473448753357
1788654148074195000,16.54319482421875,9.338590621948242,2.984858751296997,0.2274479866027832
1788654148090236200,16.559236083984374,9.332174301147461,3.0037972927093506,0.24106457829475403
1788654148106303700,16.5753037109375,9.325370788574219,3.0241010189056396,0.25030338764190674
1788654148122340600,16.591340576171874,9.318894386291504,3.043555498123169,0.25565776228904724
1788654148138407000,16.607406982421875,9.313108444213867,3.0607879161834717,0.2607213258743286
1788654148154446000,16.623446044921874,9.308403015136719,3.0743248462677,0.269353985786438
1788654148170488000,16.639488037109373,9.304914474487305,3.083888530731201,0.2803327441215515
1788654148186563600,16.6555634765625,9.302738189697266,3.089639186859131,0.28912031650543213
1788654148202607600,16.671607666015625,9.301514625549316,3.0928993225097656,0.29357656836509705
1788654148218684000,16.687683837890624,9.300446510314941,3.0960025787353516,0.2947019040584564
1788654148234735600,16.703735595703126,9.299445152282715,3.0991318225860596,0.2933976948261261
1788654148250785800,16.719785888671876,9.298849105834961,3.1014657020568848,0.2875865399837494
1788654148266862000,16.735862060546875,9.298187255859375,3.1043503284454346,0.27769961953163147
1788654148282916400,16.751916259765625,9.297026634216309,3.108959674835205,0.2646779417991638
1788654148299006200,16.768006103515624,9.294724464416504,3.1170167922973633,0.2503761649131775
1788654148315061000,16.78406103515625,9.291594505310059,3.1273224353790283,0.2377205193042755
1788654148331120600,16.80012060546875,9.287806510925293,3.139370918273926,0.22669380903244019
1788654148347159000,16.816158935546873,9.283723831176758,3.1522057056427,0.21554479002952576
1788654148363220700,16.832220703125,9.280555725097656,3.1623611450195312,0.20281550288200378
1788654148379270700,16.848270751953127,9.278596878051758,3.1687960624694824,0.19170403480529785
1788654148395334700,16.864334716796876,9.277010917663574,3.1739768981933594,0.1825583130121231
1788654148411414000,16.8804140625,9.274303436279297,3.182431936264038,0.17264819145202637
1788654148427496400,16.896496337890625,9.269484519958496,3.1971004009246826,0.15998758375644684
1788654148443556900,16.912556884765625,9.261588096618652,3.2205986976623535,0.14530804753303528
1788654148459618800,16.928618896484377,9.252601623535156,3.246663808822632,0.13757964968681335
1788654148475645700,16.944645751953125,9.244730949401855,3.269052028656006,0.13651026785373688
1788654148491783700,16.96078369140625,9.238797187805176,3.2857537269592285,0.13720832765102386
1788654148507842300,16.97684228515625,9.235115051269531,3.296191453933716,0.13480506837368011
1788654148523857000,16.99285693359375,9.233078956604004,3.302189826965332,0.1272152066230774
1788654148539928000,17.008927978515626,9.2313232421875,3.307542324066162,0.1149607002735138
1788654148555950300,17.024950439453125,9.228224754333496,3.316662073135376,0.10003244876861572
1788654148571993300,17.040993408203125,9.223042488098145,3.3314621448516846,0.0851120874285698
1788654148588065000,17.05706494140625,9.217300415039062,3.347606658935547,0.07273483276367188
1788654148604082000,17.07308203125,9.212117195129395,3.362032413482666,0.06346344202756882
1788654148620152300,17.08915234375,9.207233428955078,3.3754923343658447,0.057340867817401886
1788654148636178000,17.105177978515623,9.202513694763184,3.388414144515991,0.05275704711675644
1788654148652230000,17.12122998046875,9.197763442993164,3.4013640880584717,0.04749240353703499
1788654148668306000,17.137305908203125,9.192946434020996,3.414421558380127,0.04285319894552231
1788654148684314400,17.153314453125,9.18806266784668,3.4275991916656494,0.038158319890499115
1788654148700390100,17.16939013671875,9.18338394165039,3.4401650428771973,0.03344970569014549
1788654148716409300,17.185409423828126,9.180039405822754,3.449141502380371,0.026064123958349228
1788654148732470300,17.20147021484375,9.177633285522461,3.4555857181549072,0.019145430997014046
1788654148748545300,17.217545166015626,9.175470352172852,3.4613516330718994,0.013076485134661198
1788654148764555800,17.2335556640625,9.17280101776123,3.4684324264526367,0.009388444945216179
1788654148780641000,17.24964111328125,9.16927433013916,3.4777417182922363,0.00990267749875784
1788654148796663800,17.265663818359375,9.164752006530762,3.4896323680877686,0.012829232960939407
1788654148812737300,17.2817373046875,9.15868854522705,3.505509376525879,0.01455240324139595
1788654148828788700,17.297788818359376,9.151253700256348,3.5248804092407227,0.013188421726226807
1788654148844804000,17.31380419921875,9.14372444152832,3.5443665981292725,0.012411153875291348
1788654148860905000,17.329905029296874,9.13671875,3.5623879432678223,0.011974369175732136
1788654148876927200,17.34592724609375,9.131340026855469,3.576152801513672,0.012126930058002472
1788654148893001700,17.362001708984376,9.127009391784668,3.5871899127960205,0.012843407690525055
1788654148909053700,17.3780537109375,9.122570037841797,3.5984535217285156,0.015360943041741848
1788654148925065000,17.39406494140625,9.117937088012695,3.610158681869507,0.019434038549661636
1788654148941118000,17.410117919921873,9.113927841186523,3.6202428340911865,0.023440934717655182
1788654148957143000,17.42614306640625,9.112371444702148,3.624109983444214,0.030166590586304665
1788654148973225000,17.442224853515626,9.114026069641113,3.6198394298553467,0.04089417681097984
1788654148989277200,17.458277099609376,9.118417739868164,3.608595848083496,0.05359773710370064
1788654149005299200,17.47429931640625,9.123601913452148,3.595284938812256,0.06480798870325089
1788654149021368300,17.490368408203125,9.128399848937988,3.582881450653076,0.07532879710197449
1788654149037399000,17.50639892578125,9.133255958557129,3.5701801776885986,0.0884966179728508
1788654149053438200,17.522438232421877,9.141766548156738,3.5478668212890625,0.1054423451423645
1788654149069504000,17.53850390625,9.155993461608887,3.5103707313537598,0.12440861761569977
1788654149085528300,17.5545283203125,9.173970222473145,3.4626224040985107,0.13748714327812195
1788654149101592000,17.570592041015626,9.190118789672852,3.419572353363037,0.13646861910820007
1788654149117626000,17.586626220703124,9.2005615234375,3.392089366912842,0.11740969866514206
1788654149133667800,17.602667724609375,9.204437255859375,3.3826475143432617,0.08004355430603027
1788654149149738000,17.618738037109374,9.201384544372559,3.3917572498321533,0.029667409136891365
1788654149165775600,17.634775634765624,9.193995475769043,3.4118316173553467,-0.015643851831555367
1788654149181846500,17.650846435546875,9.183318138122559,3.440185546875,-0.046811580657958984
1788654149197894400,17.666894287109375,9.169005393981934,3.477918863296509,-0.06176306679844856
1788654149213950200,17.6829501953125,9.151908874511719,3.52268385887146,-0.06048281863331795
1788654149230046200,17.699046142578126,9.134196281433105,3.5684919357299805,-0.05211494863033295
1788654149246090200,17.71509033203125,9.117849349975586,3.6101293563842773,-0.04663827270269394
1788654149262174000,17.731174072265624,9.12328815460205,3.5966124534606934,-0.01971241645514965
1788654149278228000,17.74722802734375,9.131328582763672,3.576200485229492,0.0026252339594066143
1788654149294298600,17.763298583984376,9.139244079589844,3.5558738708496094,0.019251959398388863
1788654149310336800,17.779336669921875,9.148500442504883,3.531848430633545,0.0370711088180542
1788654149326393900,17.795393798828126,9.151226997375488,3.524808883666992,0.033973436802625656
1788654149342482000,17.81148193359375,9.145978927612305,3.538565158843994,0.0001920154463732615
1788654149358545400,17.82754541015625,9.138550758361816,3.5573244094848633,-0.052304334938526154
1788654149374594600,17.843594482421874,9.13428783416748,3.566967725753784,-0.10919585078954697
1788654149390630100,17.859630126953125,9.132452964782715,3.569653034210205,-0.16208572685718536
1788654149406689000,17.87568896484375,9.130609512329102,3.5719051361083984,-0.20939123630523682
1788654149422781400,17.891781494140623,9.130516052246094,3.5702216625213623,-0.23996436595916748
1788654149438809600,17.9078095703125,9.127334594726562,3.576653242111206,-0.26399844884872437
1788654149454863600,17.923863525390626,9.123990058898926,3.5845232009887695,-0.2727297246456146
1788654149470928000,17.939927978515627,9.121786117553711,3.5905635356903076,-0.2669360935688019
1788654149486943700,17.95594384765625,9.121661186218262,3.5918288230895996,-0.25387248396873474
1788654149503008800,17.9720087890625,9.125784873962402,3.582618236541748,-0.23514001071453094
1788654149519037700,17.98803759765625,9.133943557739258,3.5631747245788574,-0.21274566650390625
1788654149535087600,18.004087646484376,9.144407272338867,3.5375516414642334,-0.18953371047973633
1788654149551158800,18.02015869140625,9.155773162841797,3.5091068744659424,-0.16843582689762115
1788654149567175700,18.03617578125,9.165606498718262,3.4842984676361084,-0.1473582684993744
1788654149583251500,18.05225146484375,9.172430038452148,3.4670419692993164,-0.12857186794281006
1788654149599273200,18.068273193359374,9.175257682800293,3.4600563049316406,-0.11418898403644562
1788654149615323600,18.08432373046875,9.174144744873047,3.4632816314697266,-0.10554478317499161
1788654149631401700,18.100401611328124,9.168922424316406,3.477262258529663,-0.09946531802415848
1788654149647408400,18.116408447265623,9.161314964294434,3.4973347187042236,-0.09667933732271194
1788654149663487500,18.132487548828124,9.150066375732422,3.5269532203674316,-0.08528656512498856
1788654149679507200,18.148507080078126,9.1376371383667,3.559351682662964,-0.07067249715328217
1788654149695573000,18.164572998046875,9.125259399414062,3.5912063121795654,-0.05721651017665863
1788654149711616500,18.180616455078123,9.112735748291016,3.622981548309326,-0.049297407269477844
1788654149727630300,18.19663037109375,9.099981307983398,3.6549112796783447,-0.0484665110707283
1788654149743725000,18.21272509765625,9.088031768798828,3.684455394744873,-0.05355711281299591
1788654149759752000,18.228751953125,9.078384399414062,3.708120346069336,-0.0562128871679306
1788654149775824100,18.24482421875,9.0724458694458,3.722687244415283,-0.05218816176056862
1788654149791884300,18.26088427734375,9.072985649108887,3.7214696407318115,-0.04450637474656105
1788654149807896800,18.276896728515624,9.07979679107666,3.7049238681793213,-0.03474661335349083
1788654149823979300,18.292979248046876,9.089201927185059,3.6818952560424805,-0.021096564829349518
1788654149840004900,18.3090048828125,9.095745086669922,3.6657612323760986,0.0010474632726982236
1788654149856061200,18.325061279296875,9.09515380859375,3.6671712398529053,0.02057940885424614
1788654149872117500,18.341117431640626,9.086966514587402,3.6873509883880615,0.029385961592197418
1788654149888130600,18.357130615234375,9.07324504852295,3.7210137844085693,0.02570405788719654
1788654149904198100,18.3731982421875,9.058629989624023,3.7565255165100098,0.011273527517914772
1788654149920214000,18.389214111328126,9.048171997070312,3.7816543579101562,-0.007577449548989534
1788654149936296000,18.4052958984375,9.049214363098145,3.7790942192077637,-0.023464316502213478
1788654149952359400,18.421359375,9.055886268615723,3.7630467414855957,-0.027903467416763306
1788654149968390000,18.437389892578125,9.061615943908691,3.749243974685669,-0.02605915442109108
1788654149984458800,18.453458740234375,9.06972599029541,3.729586124420166,-0.02531096711754799
1788654150000498700,18.469498779296874,9.073081970214844,3.7214622497558594,-0.017289280891418457
1788654150016543200,18.485543212890626,9.085330963134766,3.6914498805999756,-0.018383506685495377
1788654150032609300,18.501609375,9.109766960144043,3.630659580230713,-0.028972120955586433
1788654150048647000,18.51764697265625,9.139925956726074,3.554009437561035,-0.034074850380420685
1788654150064716300,18.53371630859375,9.171284675598145,3.472343683242798,-0.02737549878656864
1788654150080758000,18.549758056640623,9.197054862976074,3.403597593307495,-0.009357903152704239
1788654150096811800,18.565811767578126,9.213397026062012,3.3590948581695557,0.01383227203041315
1788654150112892700,18.581892578125,9.220939636230469,3.338254928588867,0.026800476014614105
1788654150128935200,18.59793505859375,9.224896430969238,3.327305555343628,0.026769641786813736
1788654150145029600,18.614029541015626,9.231141090393066,3.3099958896636963,0.01873684860765934
1788654150161081900,18.630081787109376,9.241805076599121,3.2801411151885986,0.010098054073750973
1788654150177147600,18.646147705078125,9.253660202026367,3.2465600967407227,0.0011941782431676984
1788654150193191700,18.662191650390625,9.265006065368652,3.2140235900878906,-0.010029518976807594
1788654150209237800,18.67823779296875,9.27514934539795,3.1845641136169434,-0.02327580749988556
1788654150225336600,18.694336669921874,9.28395938873291,3.158691644668579,-0.03405190631747246
1788654150241398800,18.710398681640626,9.29151439666748,3.136300802230835,-0.04203793779015541
1788654150257464800,18.72646484375,9.297295570373535,3.119049072265625,-0.04706205055117607
1788654150273521200,18.742521240234375,9.300496101379395,3.109452486038208,-0.04964183643460274
1788654150289579300,18.758579345703126,9.30059814453125,3.109093427658081,-0.052873220294713974
1788654150305634600,18.774634521484376,9.296732902526855,3.1205430030822754,-0.05800488591194153
1788654150321704000,18.790703857421875,9.288293838500977,3.145362377166748,-0.06843626499176025
1788654150337787600,18.80678759765625,9.276128768920898,3.180764675140381,-0.08102481812238693
1788654150353839900,18.82283984375,9.262510299682617,3.2199432849884033,-0.09093670547008514
1788654150369902800,18.83890283203125,9.249982833862305,3.2556324005126953,-0.09522198140621185
1788654150385964000,18.854964111328126,9.239961624145508,3.283874988555908,-0.09826821088790894
1788654150401987800,18.87098779296875,9.234210968017578,3.299919366836548,-0.1013365164399147
1788654150418032000,18.8870322265625,9.232890129089355,3.303520679473877,-0.10427066683769226
1788654150434108000,18.90310791015625,9.2326021194458,3.304147958755493,-0.10982538014650345
1788654150450131000,18.919130859375,9.231616020202637,3.3066906929016113,-0.11594532430171967
1788654150466217000,18.935217041015626,9.228927612304688,3.313929557800293,-0.12312150001525879
1788654150482241000,18.951240966796874,9.227039337158203,3.31925630569458,-0.1210971549153328
1788654150498281700,18.96728173828125,9.229598999023438,3.3128445148468018,-0.09975100308656693
1788654150514354000,18.98335400390625,9.238889694213867,3.2875020503997803,-0.07496420294046402
1788654150530365400,18.999365478515625,9.256077766418457,3.239044427871704,-0.06317673623561859
1788654150546422500,19.015422607421876,9.276021957397461,3.1814098358154297,-0.06656637787818909
1788654150562466800,19.031466796875,9.291053771972656,3.136875629425049,-0.08202406018972397
1788654150578505000,19.0475048828125,9.29694938659668,3.118547201156616,-0.10859467089176178
1788654150594565400,19.0635654296875,9.292622566223145,3.130112409591675,-0.1412947177886963
1788654150610579700,19.079579833984376,9.27890396118164,3.1689743995666504,-0.17299319803714752
1788654150626652700,19.095652587890626,9.256691932678223,3.2317917346954346,-0.1988813877105713
1788654150642672000,19.111672119140625,9.230891227722168,3.304182529449463,-0.2083597034215927
1788654150658728000,19.12772802734375,9.2068510055542,3.371492385864258,-0.19321386516094208
1788654150674763000,19.143762939453126,9.184571266174316,3.4334640502929688,-0.15923267602920532
1788654150690770700,19.159770751953126,9.1691255569458,3.476322889328003,-0.11273235827684402
1788654150706873300,19.175873291015623,9.163932800292969,3.4912755489349365,-0.06092822551727295
1788654150722894600,19.19189453125,9.170479774475098,3.474578857421875,-0.0013436697190627456
1788654150738974200,19.20797412109375,9.185133934020996,3.4349417686462402,0.06986191123723984
1788654150755014100,19.22401416015625,9.203398704528809,3.383415699005127,0.14263533055782318
1788654150771026700,19.240026611328126,9.220450401306152,3.3344228267669678,0.187870591878891
1788654150787118600,19.25611865234375,9.233732223510742,3.2976605892181396,0.18441373109817505
1788654150803138600,19.272138671875,9.242969512939453,3.273761034011841,0.14279533922672272
1788654150819204400,19.288204345703125,9.249927520751953,3.2559242248535156,0.09047522395849228
1788654150835257900,19.3042578125,9.255285263061523,3.241717576980591,0.036827217787504196
1788654150851273200,19.320273193359377,9.260702133178711,3.2264034748077393,-0.010256167501211166
1788654150867334400,19.33633447265625,9.265642166137695,3.211822271347046,-0.0497378446161747
1788654150883358500,19.3523583984375,9.269946098327637,3.1989898681640625,-0.07047244161367416
1788654150899446500,19.368446533203127,9.271342277526855,3.1944870948791504,-0.0885433778166771
1788654150915511600,19.384511474609376,9.271880149841309,3.192328929901123,-0.10803455114364624
1788654150931526400,19.4005263671875,9.273737907409668,3.186398983001709,-0.12263371795415878
1788654150947587000,19.416587158203125,9.277129173278809,3.1762266159057617,-0.12976299226284027
1788654150963620000,19.4326201171875,9.281139373779297,3.1645455360412598,-0.12841902673244476
1788654150979663600,19.44866357421875,9.282686233520508,3.1605288982391357,-0.11480770260095596
1788654150995734500,19.464734619140625,9.279212951660156,3.171304941177368,-0.09702800214290619
1788654151011759600,19.480759521484377,9.269221305847168,3.2009501457214355,-0.0764690563082695
1788654151027835400,19.49683544921875,9.25585651397705,3.239529609680176,-0.0704733207821846
1788654151043873800,19.512873779296875,9.24093246459961,3.2816038131713867,-0.08141674101352692
1788654151059927600,19.528927490234373,9.224190711975098,3.3279409408569336,-0.09751199185848236
1788654151076006700,19.545006591796874,9.20780086517334,3.3724539279937744,-0.11552403122186661
1788654151092042000,19.5610419921875,9.19072437286377,3.4185619354248047,-0.12000614404678345
1788654151108129300,19.57712939453125,9.17399787902832,3.4635708332061768,-0.10871727019548416
1788654151124178000,19.593177978515627,9.16004753112793,3.5007922649383545,-0.09148980677127838
1788654151140240400,19.609240478515623,9.147713661193848,3.533114194869995,-0.08253654092550278
1788654151156276500,19.6252763671875,9.137907028198242,3.558370590209961,-0.08391629904508591
1788654151172322600,19.641322509765626,9.134021759033203,3.5681612491607666,-0.09093465656042099
1788654151188397000,19.65739697265625,9.14028263092041,3.5518970489501953,-0.09825769066810608
1788654151204453400,19.673453369140624,9.158805847167969,3.504228115081787,-0.08393924683332443
1788654151220500500,19.68950048828125,9.18332576751709,3.4402520656585693,-0.03976648673415184
1788654151236526800,19.70552685546875,9.200684547424316,3.393756866455078,0.014192484319210052
1788654151252573000,19.721572998046874,9.202666282653809,3.388031005859375,0.050583649426698685
1788654151268649000,19.73764892578125,9.19088363647461,3.4197213649749756,0.05959346890449524
1788654151284717000,19.753717041015626,9.17471981048584,3.4629392623901367,0.05435848981142044
1788654151300768000,19.76976806640625,9.162545204162598,3.4951393604278564,0.04625613987445831
1788654151316798500,19.785798583984374,9.159536361694336,3.503096103668213,0.03993658348917961
1788654151332813600,19.8018134765625,9.160621643066406,3.5003061294555664,0.035466451197862625
1788654151348879600,19.817879638671876,9.178163528442383,3.454214096069336,0.01040565874427557
1788654151364900900,19.83390087890625,9.19027042388916,3.421854257583618,-0.015269904397428036
1788654151380939800,19.849939697265626,9.20064926147461,3.3936891555786133,-0.03619856387376785
1788654151397014000,19.866013916015625,9.206581115722656,3.377580404281616,-0.03475669398903847
1788654151413035000,19.882034912109376,9.210111618041992,3.3681137561798096,-0.0067009590566158295
1788654151429097700,19.89809765625,9.22244644165039,3.334118127822876,0.022775311022996902
1788654151445121000,19.91412109375,9.228289604187012,3.317201614379883,0.07231456786394119
1788654151461166600,19.93016650390625,9.23248291015625,3.3043081760406494,0.1148616224527359
1788654151477234400,19.946234375,9.241259574890137,3.278675079345703,0.1406884342432022
1788654151493255000,19.9622548828125,9.25051212310791,3.251840353012085,0.1547631323337555
1788654151509322000,19.978322021484374,9.250128746032715,3.2523159980773926,0.16719576716423035
1788654151525340000,19.99433984375,9.251604080200195,3.247894763946533,0.1713780164718628
1788654151541392100,20.01039208984375,9.255512237548828,3.2367939949035645,0.17042145133018494
1788654151557421600,20.026421630859375,9.260473251342773,3.2227530479431152,0.1670139878988266
1788654151573440300,20.042440185546877,9.26693344116211,3.2041118144989014,0.16736352443695068
1788654151589524500,20.0585244140625,9.273287773132324,3.1852312088012695,0.17557430267333984
1788654151605545700,20.074545654296877,9.279214859008789,3.1671857833862305,0.18843378126621246
1788654151621606400,20.0906064453125,9.284398078918457,3.1512200832366943,0.20035569369792938
1788654151637642000,20.10664208984375,9.288652420043945,3.138157844543457,0.2080707997083664
1788654151653657900,20.122657958984377,9.292032241821289,3.12789249420166,0.21170419454574585
1788654151669741600,20.138741455078126,9.294607162475586,3.1202762126922607,0.2110438197851181
1788654151685757400,20.15475732421875,9.296233177185059,3.1155996322631836,0.2084834724664688
1788654151701834000,20.170833984375,9.29671573638916,3.1141812801361084,0.20815424621105194
1788654151717879000,20.186879150390624,9.295868873596191,3.1165452003479004,0.21061989665031433
1788654151733887500,20.202887451171875,9.293169975280762,3.1242144107818604,0.21602614223957062
1788654151749940200,20.218940185546874,9.287353515625,3.1407063007354736,0.2267443686723709
1788654151765961200,20.234961181640625,9.27885913848877,3.1642439365386963,0.24641573429107666
1788654151781998800,20.250998779296875,9.268217086791992,3.1930575370788574,0.2737422585487366
1788654151798058800,20.267058837890627,9.264681816101074,3.1996326446533203,0.3136829435825348
1788654151814073900,20.283073974609376,9.260714530944824,3.206902027130127,0.35402005910873413
1788654151830141000,20.299140869140626,9.256682395935059,3.214106798171997,0.39208340644836426
1788654151846165800,20.315165771484374,9.251282691955566,3.225818634033203,0.4221859872341156
1788654151862200000,20.331199951171875,9.244263648986816,3.2438242435455322,0.4376983344554901
1788654151878277000,20.347277099609375,9.237586975097656,3.2624683380126953,0.4400884509086609
1788654151894296800,20.363296875,9.233104705810547,3.2741048336029053,0.4476705491542816
1788654151910384000,20.379384033203124,9.234214782714844,3.267812967300415,0.4701838493347168
1788654151926414000,20.3954140625,9.242585182189941,3.2420804500579834,0.4836540222167969
1788654151942454800,20.411454833984376,9.255447387695312,3.2063920497894287,0.47552376985549927
1788654151958526200,20.427526123046874,9.267607688903809,3.1754636764526367,0.44525691866874695
1788654151974558000,20.443557861328124,9.275229454040527,3.1583645343780518,0.40651029348373413
1788654151990626800,20.459626708984374,9.276089668273926,3.1603074073791504,0.3701420724391937
1788654152006668800,20.475668701171877,9.270336151123047,3.1802258491516113,0.34266090393066406
1788654152022717200,20.49171728515625,9.258544921875,3.2163469791412354,0.3238165080547333
1788654152038748200,20.507748046875,9.24257755279541,3.263282060623169,0.3100447356700897
1788654152054783500,20.523783447265625,9.22354507446289,3.317401170730591,0.3024124801158905
1788654152070855000,20.53985498046875,9.202247619628906,3.375962972640991,0.3031481206417084
1788654152086902800,20.55590283203125,9.180047035217285,3.4348464012145996,0.3145774006843567
1788654152102972700,20.57197265625,9.16126537322998,3.4820127487182617,0.34233227372169495
1788654152119008800,20.5880087890625,9.147388458251953,3.514214038848877,0.382057249546051
1788654152135044600,20.604044677734375,9.14001750946045,3.5279929637908936,0.4286373555660248
1788654152151146500,20.620146484375,9.142378807067871,3.5141122341156006,0.4881710708141327
1788654152167193300,20.636193359375,9.152469635009766,3.477893114089966,0.5540308952331543
1788654152183246000,20.65224609375,9.16573429107666,3.4358487129211426,0.5955142974853516
1788654152199272000,20.66827197265625,9.178216934204102,3.4036786556243896,0.5879678130149841
1788654152215323400,20.684323486328125,9.187701225280762,3.386345863342285,0.5377639532089233
1788654152231413200,20.700413330078124,9.196151733398438,3.3733034133911133,0.47118237614631653
1788654152247471000,20.71647119140625,9.203951835632324,3.3597710132598877,0.4118121862411499
1788654152263543300,20.732543212890626,9.210519790649414,3.3468217849731445,0.36808687448501587
