time,seconds_elapsed,z,y,x
1788654131672147000,0.14114697265625,-153.46600341796875,-30.804000854492188,121.7550048828125
1788654131688280600,0.157280517578125,-155.3620147705078,-32.67300033569336,126.02000427246094
1788654131704318700,0.173318603515625,-157.50601196289062,-33.33000183105469,124.69200897216797
1788654131720251600,0.189251708984375,-158.15701293945312,-32.040000915527344,124.90800476074219
1788654131736308500,0.20530859375,-156.87400817871094,-33.01000213623047,124.69400787353516
1788654131752312000,0.22131201171875,-155.9350128173828,-33.23800277709961,123.77400207519531
1788654131768460300,0.237460205078125,-158.77801513671875,-33.00300216674805,125.00200653076172
1788654131784491000,0.253490966796875,-158.49600219726562,-32.70100021362305,123.5790023803711
1788654131800436000,0.26943603515625,-157.4080047607422,-33.87600326538086,123.97400665283203
1788654131816459500,0.28545947265625,-158.47000122070312,-34.09000015258789,123.87200927734375
1788654131832460300,0.301460205078125,-158.3660125732422,-33.22700119018555,124.28700256347656
1788654131848592600,0.317592529296875,-156.9029998779297,-32.05500030517578,123.99000549316406
1788654131864629200,0.333629150390625,-158.90701293945312,-31.71900177001953,124.81000518798828
1788654131880585500,0.34958544921875,-157.5240020751953,-32.69300079345703,124.29000854492188
1788654131896618800,0.36561865234375,-157.6490020751953,-30.6510009765625,124.71600341796875
1788654131912622600,0.38162255859375,-155.86500549316406,-30.990001678466797,123.59000396728516
1788654131928740900,0.397740966796875,-158.37400817871094,-32.80000305175781,124.18900299072266
1788654131944773400,0.4137734375,-157.54600524902344,-31.301000595092773,124.20100402832031
1788654131960733700,0.429733642578125,-159.34600830078125,-31.944002151489258,123.99400329589844
1788654131984884200,0.45388427734375,-159.45401000976562,-30.863000869750977,124.61500549316406
1788654132000820700,0.46982080078125,-157.01400756835938,-31.19300079345703,124.30300903320312
1788654132016865000,0.485864990234375,-159.26400756835938,-30.87700080871582,123.59600830078125
1788654132032928500,0.501928466796875,-157.5340118408203,-32.807003021240234,123.7800064086914
1788654132049067000,0.51806689453125,-155.5330047607422,-30.11800193786621,124.71800231933594
1788654132065121500,0.53412158203125,-158.06800842285156,-31.727001190185547,124.30000305175781
1788654132081077000,0.550076904296875,-157.34901428222656,-30.66200065612793,123.90100860595703
1788654132097136000,0.56613623046875,-155.64601135253906,-31.095001220703125,123.79300689697266
1788654132113151700,0.58215185546875,-157.60400390625,-30.839000701904297,126.65000915527344
1788654132129288200,0.5982880859375,-157.22000122070312,-31.621002197265625,124.30000305175781
1788654132145343700,0.61434375,-157.07701110839844,-31.49100112915039,126.0320053100586
1788654132161303800,0.6303037109375,-156.07501220703125,-30.988000869750977,123.69200897216797
1788654132177362000,0.64636181640625,-156.15501403808594,-30.865001678466797,124.91600799560547
1788654132193391600,0.6623916015625,-155.8330078125,-30.647001266479492,125.22300720214844
1788654132209487000,0.678487060546875,-156.8990020751953,-30.648000717163086,125.02100372314453
1788654132225551400,0.69455126953125,-157.22900390625,-30.654001235961914,124.51200866699219
1788654132241514200,0.71051416015625,-158.0860137939453,-31.090002059936523,123.89800262451172
1788654132257583000,0.7265830078125,-156.7779998779297,-30.09800148010254,126.04400634765625
1788654132273616600,0.74261669921875,-157.17201232910156,-29.60300064086914,122.99300384521484
1788654132289719300,0.75871923828125,-159.02301025390625,-30.96900177001953,124.81700897216797
1788654132305796600,0.774796630859375,-156.0600128173828,-31.41200065612793,124.09600830078125
1788654132321720600,0.790720458984375,-155.8260040283203,-31.83100128173828,124.80500793457031
1788654132337803800,0.8068037109375,-157.56300354003906,-29.582000732421875,124.52200317382812
1788654132353849900,0.822849853515625,-159.89401245117188,-30.440000534057617,124.21100616455078
1788654132369966000,0.838966064453125,-156.0550079345703,-31.40900230407715,124.30000305175781
1788654132385995500,0.85499560546875,-156.06900024414062,-29.580001831054688,124.82500457763672
1788654132401915100,0.8709150390625,-157.239013671875,-28.82200050354004,125.24100494384766
1788654132417948200,0.8869482421875,-157.78900146484375,-30.887001037597656,123.0840072631836
1788654132433955800,0.902955810546875,-155.74600219726562,-30.442001342773438,124.51200866699219
1788654132450090000,0.919090087890625,-155.51600646972656,-31.18800163269043,124.81100463867188
1788654132466123000,0.935123046875,-156.74301147460938,-28.737001419067383,123.71300506591797
1788654132482069000,0.951069091796875,-157.45401000976562,-29.256000518798828,124.83000946044922
1788654132498103600,0.967103515625,-155.8400115966797,-30.6510009765625,124.91800689697266
1788654132522143000,0.99114306640625,-157.90000915527344,-28.404001235961914,124.4310073852539
1788654132538200800,1.007200927734375,-156.427001953125,-27.874000549316406,124.12800598144531
1788654132554212900,1.023212890625,-154.54501342773438,-30.965002059936523,125.62600708007812
1788654132570347800,1.03934765625,-157.6610107421875,-29.360000610351562,125.03300476074219
1788654132586381600,1.055381591796875,-157.52700805664062,-30.85700225830078,125.32500457763672
1788654132602321700,1.07132177734375,-156.9320068359375,-30.45100212097168,123.69800567626953
1788654132618337500,1.087337646484375,-155.94500732421875,-30.542001724243164,125.02100372314453
1788654132634351900,1.103351806640625,-157.77101135253906,-29.363000869750977,124.8290023803711
1788654132650513400,1.119513427734375,-156.52101135253906,-29.59600067138672,123.6030044555664
1788654132666550500,1.135550537109375,-156.375,-30.65300178527832,124.71400451660156
1788654132682504200,1.151504150390625,-155.10101318359375,-29.6820011138916,125.3330078125
1788654132698521300,1.167521240234375,-155.8380126953125,-30.325000762939453,125.22600555419922
1788654132714532900,1.183532958984375,-155.4820098876953,-30.519001007080078,126.75200653076172
1788654132730689800,1.199689697265625,-155.19100952148438,-30.21200180053711,125.73600769042969
1788654132746721300,1.21572119140625,-155.3100128173828,-29.57200050354004,125.53800964355469
1788654132762673200,1.231673095703125,-156.3330078125,-30.735000610351562,126.54700469970703
1788654132778702600,1.24770263671875,-154.33900451660156,-29.88800048828125,126.04300689697266
1788654132794713000,1.263713134765625,-156.5570068359375,-30.093002319335938,126.45100402832031
1788654132810831400,1.279831298828125,-156.2530059814453,-29.34600067138672,126.2540054321289
1788654132826865400,1.295865478515625,-154.48300170898438,-28.614002227783203,125.13800811767578
1788654132842828800,1.311828857421875,-156.7930145263672,-30.32400131225586,125.22700500488281
1788654132858866200,1.3278662109375,-156.88900756835938,-28.91200065612793,126.56400299072266
1788654132874879000,1.34387890625,-156.49700927734375,-27.852001190185547,125.75800323486328
1788654132890997800,1.359997802734375,-154.3660125732422,-28.391000747680664,125.75100708007812
1788654132907030000,1.376030029296875,-155.2150115966797,-29.470001220703125,125.1310043334961
1788654132922997500,1.39199755859375,-154.91700744628906,-28.94300079345703,124.52400970458984
1788654132939044600,1.408044677734375,-155.510009765625,-28.375001907348633,126.87300872802734
1788654132955055600,1.4240556640625,-155.4580078125,-27.86800193786621,124.73800659179688
1788654132971187500,1.4401875,-155.6540069580078,-28.722002029418945,124.93400573730469
1788654132987237000,1.456237060546875,-157.8570098876953,-30.215002059936523,125.2300033569336
1788654133003163000,1.472162841796875,-156.37100219726562,-29.677001953125,125.53800964355469
1788654133019224000,1.48822412109375,-155.19100952148438,-29.996002197265625,125.83900451660156
1788654133035261400,1.504261474609375,-154.68701171875,-29.257001876831055,125.13200378417969
1788654133051408600,1.52040869140625,-155.50900268554688,-31.07600212097168,125.21900939941406
1788654133067477500,1.5364775390625,-155.5120086669922,-30.53700065612793,125.42700958251953
1788654133083419400,1.55241943359375,-156.2620086669922,-30.864002227783203,124.91600799560547
1788654133099484000,1.56848388671875,-155.72100830078125,-31.400001525878906,125.01300811767578
1788654133115517400,1.584517333984375,-156.23300170898438,-32.9010009765625,124.89800262451172
1788654133131667000,1.6006669921875,-157.49900817871094,-32.24500274658203,125.72000885009766
1788654133147735800,1.61673583984375,-156.77700805664062,-30.314001083374023,125.94000244140625
1788654133163688200,1.632688232421875,-156.36300659179688,-30.213001251220703,125.53300476074219
1788654133179745300,1.648745361328125,-155.93301391601562,-30.751001358032227,125.4260025024414
1788654133195798800,1.664798828125,-157.41600036621094,-30.530000686645508,125.73600769042969
1788654133211954700,1.68095458984375,-154.7220001220703,-31.915000915527344,126.63700866699219
1788654133228031500,1.697031494140625,-155.6320037841797,-29.681001663208008,125.3330078125
1788654133243990000,1.712989990234375,-156.02200317382812,-31.173002243041992,125.9320068359375
1788654133260021200,1.729021240234375,-154.34400939941406,-30.863000869750977,125.21900939941406
1788654133276071400,1.745071533203125,-154.70001220703125,-30.12900161743164,124.0040054321289
1788654133292189200,1.761189208984375,-154.86300659179688,-30.531002044677734,125.93600463867188
1788654133308269300,1.777269287109375,-156.9810028076172,-31.281002044677734,125.7280044555664
1788654133324240100,1.793240234375,-154.5360107421875,-30.851001739501953,126.13700866699219
1788654133340288500,1.80928857421875,-155.07901000976562,-30.965002059936523,125.52500915527344
1788654133356298200,1.82529833984375,-157.12701416015625,-29.360000610351562,125.13400268554688
1788654133372435000,1.84143505859375,-156.54800415039062,-30.520002365112305,126.54900360107422
1788654133388478200,1.857478271484375,-154.83401489257812,-31.16200065612793,126.84700775146484
1788654133404419600,1.873419677734375,-155.07200622558594,-30.961002349853516,125.83100891113281
1788654133420479200,1.889479248046875,-153.91900634765625,-30.000001907348633,125.73600769042969
1788654133436490800,1.90549072265625,-156.2550048828125,-29.996002197265625,125.73900604248047
1788654133452637700,1.9216376953125,-156.04100036621094,-30.644001007080078,125.42700958251953
1788654133468684300,1.937684326171875,-156.46400451660156,-29.777002334594727,126.04700469970703
1788654133484636200,1.95363623046875,-154.57200622558594,-29.684001922607422,125.2300033569336
1788654133500704800,1.969704833984375,-156.31201171875,-31.263002395629883,127.15400695800781
1788654133516716300,1.98571630859375,-155.3990020751953,-30.64200210571289,125.6300048828125
1788654133532870400,2.001870361328125,-154.27101135253906,-28.290000915527344,125.34400939941406
1788654133548910800,2.017910888671875,-155.01800537109375,-29.804000854492188,124.21100616455078
1788654133564852700,2.033852783203125,-153.94400024414062,-28.718000411987305,125.44200897216797
1788654133580875500,2.04987548828125,-155.08401489257812,-29.239002227783203,126.3550033569336
1788654133596898300,2.065898193359375,-157,-29.88800048828125,125.74100494384766
1788654133613061600,2.0820615234375,-155.85501098632812,-29.57900047302246,124.92700958251953
1788654133629100800,2.098100830078125,-157.20700073242188,-31.937002182006836,124.7040023803711
1788654133645057000,2.11405712890625,-155.51100158691406,-30.104001998901367,125.73700714111328
1788654133661094400,2.130094482421875,-155.1230010986328,-29.371002197265625,124.52000427246094
1788654133677119500,2.146119384765625,-155.53001403808594,-30.332000732421875,124.71600341796875
1788654133693289700,2.162289794921875,-155.0780029296875,-29.884000778198242,126.24800872802734
1788654133709348900,2.178348876953125,-155.42201232910156,-29.79100227355957,125.12800598144531
1788654133725322500,2.194322509765625,-156.71800231933594,-29.3700008392334,124.42100524902344
1788654133741367000,2.210366943359375,-156.9130096435547,-29.35900115966797,125.23600769042969
1788654133757381600,2.226381591796875,-157.12100219726562,-29.680002212524414,125.2330093383789
1788654133773505000,2.242505126953125,-156.93600463867188,-29.157001495361328,124.32100677490234
1788654133789551400,2.25855126953125,-156.14801025390625,-29.239002227783203,126.2550048828125
1788654133805523200,2.274523193359375,-158.30101013183594,-27.632001876831055,125.96600341796875
1788654133821577000,2.290576904296875,-156.09300231933594,-29.487001419067383,123.8080062866211
1788654133837592600,2.306592529296875,-156.52700805664062,-28.519001007080078,124.02000427246094
1788654133853730800,2.322730712890625,-155.97401428222656,-29.911001205444336,124.1090087890625
1788654133869781800,2.33878173828125,-156.54600524902344,-27.774002075195312,123.62000274658203
1788654133885711600,2.354711669921875,-157.7860107421875,-29.588001251220703,124.01300811767578
1788654133901768200,2.370768310546875,-155.3900146484375,-27.242000579833984,123.41900634765625
1788654133917792000,2.3867919921875,-156.48800659179688,-28.171001434326172,125.9590072631836
1788654133933935600,2.402935546875,-157.04400634765625,-27.86100196838379,125.04600524902344
1788654133949998300,2.418998291015625,-155.64700317382812,-28.285001754760742,125.54900360107422
1788654133965938000,2.43493798828125,-157.65200805664062,-29.679000854492188,125.2340087890625
1788654133982008000,2.451008056640625,-156.10101318359375,-27.114002227783203,124.94900512695312
1788654133998040800,2.467040771484375,-155.875,-28.29400062561035,124.83700561523438
1788654134014193200,2.483193115234375,-157.14801025390625,-28.184001922607422,124.94100952148438
1788654134030264300,2.499264404296875,-156.01400756835938,-26.909000396728516,124.23800659179688
1788654134046213400,2.51521337890625,-158.5,-30.10900115966797,125.02800750732422
1788654134062238500,2.531238525390625,-157.0550079345703,-28.408000946044922,124.22600555419922
1788654134078283000,2.547282958984375,-159.0860137939453,-27.764001846313477,124.0300064086914
1788654134094438000,2.56343798828125,-156.82701110839844,-28.507001876831055,124.83600616455078
1788654134110512400,2.579512451171875,-158.32400512695312,-28.619001388549805,124.3270034790039
1788654134126461200,2.595461181640625,-158.57000732421875,-27.34200096130371,123.62600708007812
1788654134142497800,2.611497802734375,-156.5330047607422,-26.253002166748047,125.16100311279297
1788654134158546700,2.627546630859375,-158.10800170898438,-29.049001693725586,124.22100830078125
1788654134174708700,2.643708740234375,-158.47100830078125,-27.455001831054688,123.21700286865234
1788654134190792200,2.659792236328125,-156.72900390625,-27.647001266479492,125.04700469970703
1788654134206758700,2.675758544921875,-157.26800537109375,-27.003002166748047,125.05300903320312
1788654134222801000,2.69180078125,-156.84400939941406,-28.625001907348633,124.02000427246094
1788654134238873600,2.70787353515625,-158.02200317382812,-28.737001419067383,123.5110092163086
1788654134255006700,2.7240068359375,-156.51300048828125,-28.83500099182129,124.42500305175781
1788654134271051000,2.740051025390625,-157.36000061035156,-29.37200164794922,124.21800231933594
1788654134286994000,2.755993896484375,-158.09100341796875,-28.931001663208008,125.03700256347656
1788654134303052300,2.77205224609375,-158.32101440429688,-27.96900177001953,124.84200286865234
1788654134319063800,2.788063720703125,-158.2100067138672,-29.69500160217285,124.01200866699219
1788654134335201000,2.804200927734375,-156.82400512695312,-28.397001266479492,125.04100799560547
1788654134351247400,2.820247314453125,-158.9300079345703,-30.54400062561035,124.51500701904297
1788654134367194000,2.836194091796875,-158.1890106201172,-30.007001876831055,124.72200775146484
1788654134383249200,2.852249267578125,-157.8870086669922,-28.828001022338867,124.73200225830078
1788654134399259000,2.8682587890625,-157.34600830078125,-28.715002059936523,125.24200439453125
1788654134415403800,2.88440380859375,-158.86500549316406,-28.73200225830078,123.81800842285156
1788654134431438000,2.90043798828125,-157.12001037597656,-30.54400062561035,124.71600341796875
1788654134447379200,2.916379150390625,-158.70901489257812,-30.323001861572266,125.02600860595703
1788654134463447000,2.932447021484375,-158.31100463867188,-29.692001342773438,124.21600341796875
1788654134479465700,2.9484658203125,-158.8070068359375,-29.562002182006836,125.84800720214844
1788654134495620900,2.964620849609375,-157.0860137939453,-30.524002075195312,126.24500274658203
1788654134511683600,2.98068359375,-156.68600463867188,-31.404001235961914,124.60600280761719
1788654134527624400,2.99662451171875,-159.46600341796875,-31.952001571655273,123.38300323486328
1788654134543690000,3.01268994140625,-158.427001953125,-30.670001983642578,123.18900299072266
1788654134559704300,3.028704345703125,-157.78001403808594,-30.5570011138916,123.69800567626953
1788654134575865900,3.044865966796875,-157.19900512695312,-30.852001190185547,125.73200225830078
1788654134591903200,3.0609033203125,-157.2340087890625,-30.657001495361328,124.3080062866211
1788654134607854300,3.076854248046875,-159.43301391601562,-30.74300193786621,125.63400268554688
1788654134623906800,3.09290673828125,-158.9870147705078,-32.45900344848633,125.51700592041016
1788654134639922200,3.108922119140625,-158.0540008544922,-29.44900131225586,126.35700225830078
1788654134656038700,3.12503857421875,-159.14401245117188,-30.437002182006836,124.51600646972656
1788654134672091400,3.14109130859375,-157.5290069580078,-32.15500259399414,124.39700317382812
1788654134688061700,3.157061767578125,-158.7030029296875,-31.4010009765625,124.6090087890625
1788654134704100900,3.173100830078125,-158.16400146484375,-30.856000900268555,125.32600402832031
1788654134720127200,3.189127197265625,-157.72601318359375,-32.470001220703125,124.90400695800781
1788654134736255700,3.205255859375,-159.02801513671875,-31.296001434326172,124.4070053100586
1788654134752299000,3.221299072265625,-159.42601013183594,-31.927001953125,125.21600341796875
1788654134768270300,3.237270263671875,-160.68101501464844,-31.806001663208008,126.1360092163086
1788654134784316400,3.25331640625,-159.9580078125,-30.955001831054688,125.7350082397461
1788654134800341200,3.26934130859375,-158.06500244140625,-31.293001174926758,124.71100616455078
1788654134816479200,3.285479248046875,-159.87001037597656,-31.50600242614746,124.6100082397461
1788654134832529400,3.301529296875,-160.70700073242188,-31.389001846313477,125.22300720214844
1788654134848458800,3.317458740234375,-159.55601501464844,-31.61800193786621,124.30300903320312
1788654134864519200,3.333519287109375,-159.77500915527344,-30.540000915527344,124.72000885009766
1788654134880543200,3.349543212890625,-158.69000244140625,-30.852001190185547,125.531005859375
1788654134896687400,3.365687255859375,-158.7860107421875,-32.89900207519531,124.69800567626953
1788654134912748000,3.381748046875,-159.5600128173828,-31.512001037597656,124.2020034790039
1788654134928689000,3.39768896484375,-159.45901489257812,-31.623001098632812,123.89500427246094
1788654134944761000,3.413760986328125,-159.03001403808594,-30.32400131225586,124.92400360107422
1788654134960796200,3.429796142578125,-158.4010009765625,-32.05900192260742,123.48200225830078
1788654134976956700,3.445956787109375,-157.83900451660156,-31.177001953125,125.42500305175781
1788654134993033000,3.462032958984375,-160.49501037597656,-32.038002014160156,124.80900573730469
1788654135008985600,3.477985595703125,-161.77500915527344,-31.9320011138916,124.6080093383789
1788654135025013500,3.494013427734375,-160.51600646972656,-31.18600082397461,124.40900421142578
1788654135041057300,3.510057373046875,-159.81201171875,-31.319002151489258,122.57400512695312
1788654135057221400,3.526221435546875,-160.9510040283203,-31.084001541137695,124.00300598144531
1788654135073303600,3.542303466796875,-161.75100708007812,-31.70100212097168,125.8330078125
1788654135089268200,3.558268310546875,-160.53001403808594,-32.16699981689453,123.17800903320312
1788654135105283800,3.574283935546875,-159.5880126953125,-30.66400146484375,123.49600219726562
1788654135121337300,3.59033740234375,-160.30101013183594,-30.53700065612793,124.92400360107422
1788654135137508000,3.606508056640625,-160.3620147705078,-28.952001571655273,123.2070083618164
1788654135153577500,3.622577392578125,-159.49400329589844,-30.455001831054688,123.09000396728516
1788654135169528000,3.638528076171875,-160.12600708007812,-30.12700080871582,123.50100708007812
1788654135185566700,3.654566650390625,-158.66900634765625,-29.823001861572266,122.38200378417969
1788654135201631000,3.670630859375,-161.1680145263672,-31.086002349853516,123.80000305175781
1788654135217762800,3.6867626953125,-160.42401123046875,-30.654001235961914,124.1080093383789
1788654135233802800,3.702802734375,-159.26901245117188,-30.556001663208008,123.59800720214844
1788654135249728300,3.718728271484375,-159.37200927734375,-30.12200164794922,124.01000213623047
1788654135265777000,3.73477685546875,-159.81800842285156,-30.67500114440918,122.6810073852539
1788654135281797600,3.750797607421875,-163.4250030517578,-29.910001754760742,123.30400848388672
1788654135297937700,3.766937744140625,-161.4390106201172,-30.47300148010254,121.56500244140625
1788654135313978000,3.78297802734375,-161.53700256347656,-28.41400146484375,123.21300506591797
1788654135329907500,3.798907470703125,-160.15200805664062,-29.711002349853516,122.58800506591797
1788654135345960400,3.81496044921875,-161.52500915527344,-31.10900115966797,122.06800842285156
1788654135361970400,3.830970458984375,-160.5880126953125,-28.96000099182129,122.59600830078125
1788654135378119200,3.847119140625,-161.2050018310547,-30.244001388549805,122.68700408935547
1788654135394162700,3.86316259765625,-161.0860137939453,-30.12900161743164,123.29900360107422
1788654135410105600,3.879105712890625,-160.35400390625,-29.488000869750977,123.2020034790039
1788654135426193400,3.895193359375,-159.18101501464844,-29.37900161743164,123.50700378417969
1788654135442204700,3.91120458984375,-160.2570037841797,-29.494001388549805,122.79400634765625
1788654135458361600,3.927361572265625,-159.82400512695312,-29.597002029418945,123.09800720214844
1788654135474401000,3.943401123046875,-160.35301208496094,-29.91900062561035,122.99400329589844
1788654135490354700,3.959354736328125,-160.2270050048828,-29.692001342773438,124.01500701904297
1788654135506401000,3.975401123046875,-159.9390106201172,-29.81800079345703,122.58700561523438
1788654135522422800,3.9914228515625,-160.59901428222656,-27.670001983642578,122.91300964355469
1788654135538587000,4.0075869140625,-159.1840057373047,-28.840002059936523,123.71500396728516
1788654135554637000,4.023636962890625,-159.63800048828125,-26.696001052856445,123.7350082397461
1788654135570591700,4.039591796875,-160.4580078125,-28.838001251220703,123.71700286865234
1788654135586627800,4.0556279296875,-159.2010040283203,-27.770000457763672,123.62300872802734
1788654135602641200,4.07164111328125,-158.92401123046875,-30.10900115966797,125.02800750732422
1788654135618767400,4.087767333984375,-160.67300415039062,-28.623001098632812,123.71900939941406
1788654135634814700,4.103814697265625,-160.27101135253906,-28.85300064086914,122.59600830078125
1788654135650791400,4.11979150390625,-157.99000549316406,-29.691001892089844,124.31800842285156
1788654135666841300,4.13584130859375,-157.93600463867188,-27.56100082397461,123.31800842285156
1788654135682859000,4.15185888671875,-158.114013671875,-29.269001007080078,123.81200408935547
1788654135698994000,4.167993896484375,-160.0240020751953,-28.509000778198242,124.33100891113281
1788654135715048200,4.184048095703125,-158.33200073242188,-30.137001037597656,122.99000549316406
1788654135730983400,4.1999833984375,-158.94300842285156,-30.87700080871582,123.69700622558594
1788654135747045600,4.216045654296875,-158.39401245117188,-30.542001724243164,124.71800231933594
1788654135763068400,4.232068359375,-158.6610107421875,-30.035001754760742,122.5840072631836
1788654135779213300,4.24821337890625,-160.13101196289062,-30.130001068115234,123.29800415039062
1788654135795265300,4.264265380859375,-158.96200561523438,-30.996002197265625,122.77900695800781
1788654135811205000,4.280205078125,-158.3350067138672,-31.11100196838379,122.26800537109375
1788654135827244000,4.296244140625,-158.85000610351562,-31.101001739501953,122.98200225830078
1788654135843283500,4.312283447265625,-158.64401245117188,-30.781002044677734,122.88300323486328
1788654135859454200,4.3284541015625,-158.21200561523438,-32.50600051879883,122.15400695800781
1788654135875509500,4.344509521484375,-158.0279998779297,-30.25400161743164,122.27500915527344
1788654135891438000,4.36043798828125,-158.85800170898438,-31.970001220703125,122.0570068359375
1788654135907490800,4.37649072265625,-157.79600524902344,-31.53900146484375,122.36600494384766
1788654135923513600,4.392513671875,-158.87600708007812,-31.224000930786133,121.75800323486328
1788654135939659000,4.408658935546875,-159.1890106201172,-30.464000701904297,122.47900390625
1788654135955725000,4.42472509765625,-158.1420135498047,-31.66400146484375,121.04100799560547
1788654135971667200,4.440667236328125,-157.16700744628906,-32.95000076293945,121.1300048828125
1788654135987696400,4.4566962890625,-160.1680145263672,-31.233001708984375,120.94500732421875
1788654136003742500,4.472742431640625,-156.77200317382812,-32.104000091552734,120.32200622558594
1788654136019894500,4.48889453125,-156.94700622558594,-33.270999908447266,121.22900390625
1788654136035961000,4.504961181640625,-155.90200805664062,-31.769001007080078,121.44400787353516
1788654136051915000,4.5209150390625,-157.21800231933594,-30.71200180053711,120.2330093383789
1788654136067946000,4.536946044921875,-158.1320037841797,-31.76500129699707,121.44700622558594
1788654136084007400,4.55300732421875,-157.8400115966797,-31.134000778198242,120.63700866699219
1788654136100131000,4.569131103515625,-158.6070098876953,-30.066001892089844,120.24000549316406
1788654136116216800,4.585216796875,-158.7110137939453,-31.362001419067383,119.51600646972656
1788654136132147500,4.6011474609375,-157.10800170898438,-31.466001510620117,119.92000579833984
1788654136148193000,4.617193115234375,-153.8990020751953,-31.240001678466797,121.14100646972656
1788654136164250600,4.633250732421875,-155.8380126953125,-31.147001266479492,119.92200469970703
1788654136180379600,4.649379638671875,-155.60800170898438,-32.43300247192383,119.91000366210938
1788654136196417800,4.665417724609375,-158.6750030517578,-31.340002059936523,121.14600372314453
1788654136212345300,4.681345458984375,-155.82400512695312,-32.00300216674805,120.01600646972656
1788654136228399400,4.6973994140625,-155.75100708007812,-31.266000747680664,119.0040054321289
1788654136244410000,4.71341015625,-156.1890106201172,-30.625001907348633,118.8060073852539
1788654136260548000,4.729548095703125,-155.3090057373047,-33.310001373291016,118.47600555419922
1788654136276593700,4.74559375,-156.0600128173828,-31.476001739501953,119.3080062866211
1788654136292533500,4.761533447265625,-156.24600219726562,-30.595001220703125,121.04800415039062
1788654136308600800,4.777600830078125,-155.5290069580078,-31.15300178527832,119.51400756835938
1788654136324618200,4.7936181640625,-154.69100952148438,-31.161001205444336,119.00300598144531
1788654136340770300,4.809770263671875,-157.02500915527344,-31.48000144958496,118.90200805664062
1788654136356820500,4.825820556640625,-154.4820098876953,-32.89200210571289,117.76500701904297
1788654136372766500,4.841766357421875,-157.3350067138672,-32.55500030517578,118.58700561523438
1788654136388814600,4.857814697265625,-156.36300659179688,-32.439002990722656,119.40200805664062
1788654136404827000,4.873826904296875,-156.06201171875,-32.77400207519531,118.3800048828125
1788654136420982500,4.889982421875,-155.6420135498047,-33.31800079345703,117.86500549316406
1788654136437035000,4.906034912109375,-153.3610076904297,-30.65300178527832,117.07100677490234
1788654136452989700,4.92198974609375,-155.7570037841797,-32.0260009765625,118.28400421142578
1788654136469025000,4.93802490234375,-155.97900390625,-32.788002014160156,117.36100769042969
1788654136485040400,4.954040283203125,-154.94200134277344,-30.968002319335938,117.37500762939453
1788654136501209900,4.9702099609375,-156.22601318359375,-31.729001998901367,116.4540023803711
1788654136517251300,4.986251220703125,-156.12200927734375,-30.97300148010254,116.86800384521484
1788654136533195000,5.002195068359375,-154.84500122070312,-31.838001251220703,116.45100402832031
1788654136549215200,5.01821533203125,-154.71701049804688,-30.744001388549805,118.09000396728516
1788654136565224000,5.034223876953125,-155.16900634765625,-30.112001419067383,117.281005859375
1788654136581345300,5.05034521484375,-156.6400146484375,-29.235000610351562,118.51300811767578
1788654136597374500,5.06637451171875,-154.49200439453125,-31.16900062561035,118.39200592041016
1788654136613329000,5.082328857421875,-154.96200561523438,-30.332000732421875,116.87200927734375
1788654136629368000,5.0983681640625,-155.26800537109375,-31.6200008392334,116.6570053100586
1788654136645379600,5.114379638671875,-154.59901428222656,-31.602001190185547,118.0820083618164
1788654136661510400,5.130510498046875,-153.1300048828125,-29.994001388549805,118.29900360107422
1788654136677558500,5.14655859375,-155.15200805664062,-31.83100128173828,116.96100616455078
1788654136693491000,5.162490966796875,-155.29901123046875,-29.694002151489258,116.47000885009766
1788654136709546200,5.178546142578125,-154.10800170898438,-31.19500160217285,116.5570068359375
1788654136725579800,5.194579833984375,-154.52101135253906,-31.40300178527832,116.96400451660156
1788654136741723600,5.2107236328125,-156.10101318359375,-31.933000564575195,117.16500854492188
1788654136757778200,5.226778076171875,-154.80801391601562,-31.816001892089844,118.08100891113281
1788654136773715500,5.242715576171875,-154.62901306152344,-31.404001235961914,116.86200714111328
1788654136789778400,5.2587783203125,-156.11300659179688,-30.75200080871582,117.3790054321289
1788654136805810000,5.274809814453125,-155.4600067138672,-31.60700225830078,117.57400512695312
1788654136821958700,5.290958740234375,-153.99600219726562,-30.6510009765625,117.17300415039062
1788654136838022100,5.307022216796875,-154.6230010986328,-29.996002197265625,117.99500274658203
1788654136853989400,5.3229892578125,-154.9530029296875,-30.542001724243164,117.17500305175781
1788654136870067700,5.339067626953125,-153.41000366210938,-31.8070011138916,118.89400482177734
1788654136886107400,5.355107421875,-155.13400268554688,-31.604001998901367,117.8790054321289
1788654136902267000,5.371266845703125,-153.375,-30.446001052856445,116.56300354003906
1788654136918347500,5.387347412109375,-155.1630096435547,-30.325000762939453,117.3810043334961
1788654136934304500,5.403304443359375,-153.24200439453125,-30.538002014160156,117.6830062866211
1788654136950343200,5.41934326171875,-155.3590087890625,-30.746002197265625,117.88700866699219
1788654136966392000,5.43539208984375,-155.77301025390625,-30.3070011138916,118.6050033569336
1788654136982557200,5.45155712890625,-154.5970001220703,-30.41200065612793,118.90800476074219
1788654136998638300,5.467638427734375,-154.9250030517578,-29.553001403808594,119.01800537109375
1788654137014597400,5.483597412109375,-151.53900146484375,-30.538002014160156,117.88400268554688
1788654137030633700,5.4996337890625,-154.8090057373047,-30.303001403808594,119.0110092163086
1788654137046690600,5.515690673828125,-153.66200256347656,-30.102001190185547,118.19600677490234
1788654137062811000,5.531810791015625,-154.5760040283203,-30.61600112915039,119.72100830078125
1788654137078894800,5.547894775390625,-153.9250030517578,-30.17500114440918,120.64100646972656
1788654137094861600,5.563861572265625,-155.11700439453125,-31.70100212097168,118.59200286865234
1788654137110904600,5.579904541015625,-153.73001098632812,-30.83500099182129,119.41200256347656
1788654137126915600,5.59591552734375,-155.4090118408203,-30.82000160217285,120.33100891113281
1788654137143045400,5.61204541015625,-155.2080078125,-31.80000114440918,119.2020034790039
1788654137159091700,5.628091796875,-154.47801208496094,-31.37700080871582,118.89900207519531
1788654137175025000,5.64402490234375,-152.86700439453125,-31.36800193786621,119.71200561523438
1788654137191101200,5.66010107421875,-154.52500915527344,-32.20500183105469,121.031005859375
1788654137207107300,5.676107421875,-156.1529998779297,-31.468002319335938,119.91900634765625
1788654137223241000,5.692240966796875,-156.8730010986328,-31.453001022338867,120.93900299072266
1788654137239261000,5.708260986328125,-153.80801391601562,-31.250001907348633,120.42800903320312
1788654137255187700,5.724187744140625,-154.4320068359375,-31.24100112915039,121.04000854492188
1788654137271246000,5.74024609375,-155.17601013183594,-32.64500045776367,120.11100769042969
1788654137287258600,5.756258544921875,-153.62901306152344,-32.39500045776367,122.96400451660156
1788654137303402500,5.772402587890625,-153.3470001220703,-31.553001403808594,121.85000610351562
1788654137319430700,5.7884306640625,-153.7860107421875,-31.994001388549805,120.93000793457031
1788654137335374800,5.804374755859375,-154.62200927734375,-32.30800247192383,121.33600616455078
1788654137351403800,5.82040380859375,-153.8040008544922,-31.572002410888672,120.42500305175781
1788654137367424800,5.8364248046875,-155.4770050048828,-31.770002365112305,121.44400787353516
1788654137383585300,5.852585205078125,-153.66500854492188,-32.957000732421875,121.02300262451172
1788654137399624200,5.868624267578125,-155.34100341796875,-32.61600112915039,122.25100708007812
1788654137415577900,5.884577880859375,-154.37001037597656,-34.230003356933594,121.93000793457031
1788654137431603000,5.90060302734375,-154.36801147460938,-33.3640022277832,122.54900360107422
1788654137447624700,5.916624755859375,-155.87100219726562,-33.047000885009766,122.04400634765625
1788654137463785700,5.93278564453125,-156.1630096435547,-34.76000213623047,122.1310043334961
1788654137479840300,5.94884033203125,-154.59600830078125,-33.04899978637695,122.04300689697266
1788654137495808800,5.964808837890625,-154.1580047607422,-34.55400085449219,121.72300720214844
1788654137511853600,5.980853515625,-154.5830078125,-33.3650016784668,122.44700622558594
1788654137527864600,5.996864501953125,-154.27101135253906,-33.694000244140625,121.93500518798828
1788654137544035600,6.01303564453125,-154.0570068359375,-34.34100341796875,121.62300872802734
1788654137560081000,6.029080810546875,-152.45201110839844,-33.25600051879883,122.8530044555664
1788654137576050700,6.04505078125,-153.20401000976562,-32.611000061035156,122.8600082397461
1788654137592105200,6.061105224609375,-155.63600158691406,-33.682003021240234,122.64900207519531
1788654137608122600,6.07712255859375,-155.02301025390625,-33.698001861572266,121.52800750732422
1788654137624249900,6.093249755859375,-156.2570037841797,-33.34700012207031,123.57000732421875
1788654137640299500,6.109299560546875,-153.00201416015625,-32.83400344848633,122.24600219726562
1788654137656225000,6.12522509765625,-154.260009765625,-32.7140007019043,123.06400299072266
1788654137672275700,6.141275634765625,-156.0500030517578,-32.27000045776367,123.98700714111328
1788654137688292900,6.15729296875,-155.1070098876953,-33.36000061035156,122.75300598144531
1788654137704449800,6.17344970703125,-153.72300720214844,-32.604000091552734,123.37000274658203
1788654137720511000,6.189510986328125,-153.72000122070312,-32.81800079345703,123.36800384521484
1788654137736451600,6.20545166015625,-154.7740020751953,-32.595001220703125,123.8800048828125
1788654137752517000,6.22151708984375,-155.22601318359375,-31.638002395629883,123.27800750732422
1788654137768538400,6.237538330078125,-154.8000030517578,-30.882001876831055,123.79400634765625
1788654137784686300,6.253686279296875,-155.4510040283203,-32.83500289916992,121.94400787353516
1788654137800753200,6.269753173828125,-154.0590057373047,-32.180999755859375,122.86400604248047
1788654137816696300,6.2856962890625,-155.40000915527344,-32.58700180053711,124.39100646972656
1788654137832720100,6.30172021484375,-155.2080078125,-31.73600196838379,123.99000549316406
1788654137848754400,6.31775439453125,-155.44601440429688,-32.07500076293945,122.66300201416016
1788654137864919300,6.333919189453125,-156.625,-31.10700225830078,122.77500915527344
1788654137880996600,6.34999658203125,-153.9010009765625,-34.63600158691406,123.6570053100586
1788654137896951300,6.365951416015625,-154.70901489257812,-30.783000946044922,123.1830062866211
1788654137912976000,6.381975830078125,-155.7620086669922,-31.209001541137695,123.28300476074219
1788654137929014300,6.39801416015625,-153.74000549316406,-29.588001251220703,124.51700592041016
1788654137945179000,6.414178955078125,-156.75201416015625,-28.742000579833984,123.3060073852539
1788654137961234400,6.430234375,-156.41600036621094,-29.70400047302246,123.50000762939453
1788654137977173500,6.446173583984375,-154.60501098632812,-29.920001983642578,123.59800720214844
1788654137993197800,6.46219775390625,-157.13800048828125,-30.87900161743164,123.69500732421875
1788654138009253600,6.478253662109375,-154.49000549316406,-31.10300064086914,123.2820053100586
1788654138025377800,6.494377685546875,-155.33700561523438,-30.237001419067383,123.90200805664062
1788654138041458000,6.5104580078125,-155.3280029296875,-29.25800132751465,124.92900848388672
1788654138057422800,6.5264228515625,-155.4600067138672,-31.327001571655273,122.46600341796875
1788654138073479200,6.542479248046875,-157.364013671875,-29.266000747680664,124.11700439453125
1788654138089492000,6.558491943359375,-154.80300903320312,-29.3700008392334,124.62200927734375
1788654138105625900,6.5746259765625,-157.7030029296875,-28.95400047302246,123.4070053100586
1788654138121665500,6.59066552734375,-156.6330108642578,-29.49100112915039,123.40100860595703
1788654138137592800,6.6065927734375,-153.95901489257812,-30.889001846313477,123.38500213623047
1788654138153648400,6.6226484375,-157.125,-30.007001876831055,124.82300567626953
1788654138169667800,6.638667724609375,-156.0150146484375,-28.639001846313477,123.10200500488281
1788654138185811700,6.654811767578125,-157.3520050048828,-29.799001693725586,124.31600952148438
1788654138201855000,6.67085498046875,-155.8830108642578,-29.380001068115234,123.8080062866211
1788654138217793800,6.686793701171875,-156.85501098632812,-28.95600128173828,123.30400848388672
1788654138233884400,6.702884521484375,-156.93701171875,-27.753002166748047,125.14800262451172
1788654138249899800,6.718899658203125,-156.97801208496094,-26.804000854492188,123.93400573730469
1788654138266048500,6.735048583984375,-155.0360107421875,-27.8700008392334,124.63500213623047
1788654138282095600,6.751095703125,-156.19700622558594,-29.485000610351562,123.91000366210938
1788654138298051000,6.767051025390625,-156.2220001220703,-27.554000854492188,124.02900695800781
1788654138314128400,6.78312841796875,-155.9010009765625,-27.229001998901367,124.33700561523438
1788654138330142200,6.79914208984375,-155.36700439453125,-27.769001007080078,124.12700653076172
1788654138346300400,6.815300537109375,-154.41200256347656,-26.582000732421875,124.85000610351562
1788654138362347800,6.83134765625,-155.6529998779297,-26.668001174926758,126.27700805664062
1788654138378307800,6.847307861328125,-155.32701110839844,-28.177001953125,125.65200805664062
1788654138394343700,6.86334375,-155.15000915527344,-27.766000747680664,124.33100891113281
1788654138410355000,6.87935498046875,-155.22601318359375,-27.964000701904297,125.55200958251953
1788654138426478600,6.895478515625,-155.031005859375,-27.867000579833984,124.83900451660156
1788654138442527500,6.911527587890625,-157.68301391601562,-28.077001571655273,124.84100341796875
1788654138458495700,6.927495849609375,-156.28500366210938,-26.231000900268555,126.79100799560547
1788654138474530300,6.9435302734375,-157.03700256347656,-27.424001693725586,125.66100311279297
1788654138490543400,6.95954345703125,-155.96701049804688,-27.637001037597656,125.86100769042969
1788654138506669000,6.9756689453125,-155.63600158691406,-27.738000869750977,126.36900329589844
1788654138522741000,6.991740966796875,-155.63600158691406,-28.711000442504883,125.74900817871094
1788654138538719000,7.007718994140625,-153.24501037597656,-27.989002227783203,123.91900634765625
1788654138554772700,7.023772705078125,-154.91000366210938,-28.615001678466797,125.03600311279297
1788654138570803700,7.0398037109375,-155.67001342773438,-26.894001007080078,125.3580093383789
1788654138586941200,7.055941162109375,-155.87901306152344,-27.648000717163086,125.04600524902344
1788654138603005400,7.07200537109375,-155.2080078125,-28.49300193786621,126.0560073852539
1788654138618936000,7.08793603515625,-154.2480010986328,-29.465002059936523,125.63900756835938
1788654138634994700,7.10399462890625,-153.30801391601562,-28.93600082397461,125.2350082397461
1788654138651021600,7.120021484375,-155.3380126953125,-27.860000610351562,125.34900665283203
1788654138667165000,7.1361650390625,-153.3070068359375,-27.530000686645508,126.16400909423828
1788654138683199000,7.152198974609375,-155.00401306152344,-28.715002059936523,125.54500579833984
1788654138699170300,7.16817041015625,-153.80599975585938,-29.672000885009766,126.24800872802734
1788654138715218400,7.184218505859375,-153.63900756835938,-27.75400161743164,125.45000457763672
1788654138731259000,7.2002587890625,-154.15701293945312,-27.85300064086914,125.9590072631836
1788654138747419000,7.2164189453125,-154.04100036621094,-29.036001205444336,125.64300537109375
1788654138763489500,7.232489501953125,-154.56700134277344,-28.924001693725586,125.95000457763672
1788654138779428400,7.248428466796875,-154.21600341796875,-29.446001052856445,127.06500244140625
1788654138795453000,7.264452880859375,-152.84201049804688,-29.992000579833984,126.44800567626953
1788654138811500800,7.280500732421875,-155.58900451660156,-31.492000579833984,126.13200378417969
1788654138827658500,7.296658447265625,-155.3380126953125,-32.7660026550293,127.03700256347656
1788654138843730400,7.31273046875,-154.239013671875,-29.244001388549805,126.15000915527344
1788654138859682800,7.328682861328125,-153.3610076904297,-30.524002075195312,126.64700317382812
1788654138875715000,7.344715087890625,-154.37200927734375,-31.681001663208008,128.16600036621094
1788654138899815000,7.36881494140625,-152.8000030517578,-31.696001052856445,127.24700927734375
1788654138915890700,7.384890625,-155.25,-30.940000534057617,127.3590087890625
1788654138931937800,7.400937744140625,-154.19300842285156,-30.6200008392334,127.36100769042969
1788654138948055600,7.4170556640625,-154.08401489257812,-30.18600082397461,127.77200317382812
1788654138964143000,7.43314306640625,-153.4560089111328,-30.841001510620117,126.95000457763672
1788654138980075500,7.449075439453125,-154.06100463867188,-32.11800003051758,127.5510025024414
1788654138996160000,7.465159912109375,-153.07501220703125,-31.88500213623047,129.0800018310547
1788654139012188000,7.48118798828125,-151.96701049804688,-30.84200096130371,127.05000305175781
1788654139028316700,7.497316650390625,-153.11000061035156,-32.12300109863281,127.34600830078125
1788654139044361700,7.51336181640625,-151.9320068359375,-32.55000305175781,127.54400634765625
1788654139060298500,7.529298583984375,-153.5430145263672,-30.722002029418945,127.86800384521484
1788654139076348000,7.545347900390625,-153.29600524902344,-32.2140007019043,128.46600341796875
1788654139092373000,7.561373046875,-153.78001403808594,-30.73600196838379,126.74800872802734
1788654139108514800,7.577514892578125,-152.7620086669922,-30.808000564575195,129.49600219726562
1788654139124561700,7.593561767578125,-153.4600067138672,-29.871002197265625,127.36600494384766
1788654139140508000,7.6095078125,-152.26100158691406,-30.827001571655273,128.17100524902344
1788654139156559000,7.62555908203125,-154.71900939941406,-31.157001495361328,127.2550048828125
1788654139172601000,7.64160107421875,-155.34400939941406,-30.176000595092773,128.385009765625
1788654139188758000,7.657758056640625,-153.80599975585938,-30.32000160217285,125.83500671386719
1788654139204811500,7.6738115234375,-154.69000244140625,-31.8960018157959,128.06300354003906
1788654139220773000,7.689773193359375,-153.7760009765625,-30.40900230407715,127.15800476074219
1788654139236828700,7.70582861328125,-153.9630126953125,-32.23100280761719,127.14200592041016
1788654139252880400,7.72188037109375,-155.71600341796875,-30.316001892089844,125.93900299072266
1788654139268991200,7.7379912109375,-151.94500732421875,-31.586002349853516,127.55300903320312
1788654139285039000,7.7540390625,-156.43301391601562,-30.839000701904297,126.75000762939453
1788654139301003500,7.77000341796875,-153.69801330566406,-30.319002151489258,125.93600463867188
1788654139317049600,7.786049560546875,-154.86801147460938,-30.643001556396484,125.6290054321289
1788654139333098000,7.802097900390625,-153.12901306152344,-31.918001174926758,126.635009765625
1788654139349213700,7.818213623046875,-153.89500427246094,-31.606000900268555,125.82300567626953
1788654139365260500,7.834260498046875,-155.15000915527344,-31.700000762939453,126.63900756835938
1788654139381187600,7.8501875,-154.64601135253906,-31.069002151489258,125.8290023803711
1788654139397224700,7.866224609375,-154.5570068359375,-30.647001266479492,125.32300567626953
1788654139413267700,7.882267822265625,-154.3040008544922,-29.759000778198242,127.67400360107422
1788654139429395200,7.898395263671875,-154.4320068359375,-30.52800178527832,126.24100494384766
1788654139445422300,7.91442236328125,-154.04100036621094,-29.9010009765625,125.12600708007812
1788654139461354500,7.9303544921875,-154.52700805664062,-31.16900062561035,126.33700561523438
1788654139477391600,7.9463916015625,-154.3590087890625,-30.549001693725586,124.71300506591797
1788654139493446000,7.96244580078125,-152.85101318359375,-31.29400062561035,125.21400451660156
1788654139509569500,7.978569580078125,-155.82901000976562,-30.104001998901367,125.73700714111328
1788654139525615600,7.99461572265625,-156.0340118408203,-30.639001846313477,125.7330093383789
1788654139541550600,8.010550537109374,-155.7370147705078,-31.40900230407715,124.30000305175781
1788654139557596000,8.026595947265625,-154.4550018310547,-30.974000930786133,124.91300964355469
1788654139573664300,8.042664306640624,-156.16700744628906,-29.03400230407715,125.54300689697266
1788654139589801700,8.0588017578125,-157.2220001220703,-30.32600212097168,125.02400970458984
1788654139605847600,8.07484765625,-154.8990020751953,-29.905000686645508,124.71900939941406
1788654139621796400,8.09079638671875,-155.1330108642578,-29.485000610351562,124.01000213623047
1788654139637856000,8.10685595703125,-157.42300415039062,-29.886001586914062,125.84300231933594
1788654139653883000,8.1228828125,-155.13600158691406,-29.91900062561035,123.59900665283203
1788654139670031000,8.139031005859374,-156.30101013183594,-28.511001586914062,124.6310043334961
1788654139686108700,8.155108642578124,-156.9320068359375,-29.803001403808594,124.11100769042969
1788654139702072300,8.171072265625,-156.72500610351562,-29.05000114440918,124.32200622558594
1788654139718145800,8.187145751953125,-155.21400451660156,-29.362001419067383,125.2340087890625
1788654139742203000,8.211202880859375,-156.0860137939453,-28.51000213623047,124.7330093383789
1788654139758230000,8.22722998046875,-154.37001037597656,-29.798002243041992,124.71900939941406
1788654139774265900,8.243265869140625,-156.64300537109375,-28.632001876831055,123.51000213623047
1788654139790430000,8.259429931640625,-155.12901306152344,-28.94300079345703,124.52400970458984
1788654139806509800,8.275509765625,-154.2760009765625,-30.347002029418945,123.79800415039062
1788654139822467300,8.29146728515625,-156.0150146484375,-28.639001846313477,123.10200500488281
1788654139846647800,8.315647705078124,-154.9390106201172,-28.200000762939453,124.02100372314453
1788654139862593800,8.33159375,-155.7860107421875,-29.494001388549805,123.29800415039062
1788654139878691000,8.347691162109374,-152.8870086669922,-28.83100128173828,125.13400268554688
1788654139894748000,8.363747802734375,-154.46200561523438,-30.654001235961914,124.81400299072266
1788654139910870500,8.37987060546875,-155.54901123046875,-29.479001998901367,124.41800689697266
1788654139926967000,8.395967041015625,-155.5380096435547,-29.257001876831055,125.031005859375
1788654139942897000,8.41189697265625,-155.11700439453125,-29.80000114440918,124.51700592041016
1788654139958947300,8.427947265625,-154.92100524902344,-29.810001373291016,123.80300903320312
1788654139974971400,8.443971435546874,-154.04000854492188,-30.76500129699707,124.6090087890625
1788654139991104000,8.46010400390625,-155.95001220703125,-29.8960018157959,125.2300033569336
1788654140007150600,8.476150634765625,-155.3280029296875,-29.907001495361328,124.51600646972656
1788654140023091200,8.49209130859375,-155.2220001220703,-30.231000900268555,124.30900573730469
1788654140039132400,8.50813232421875,-154.4510040283203,-30.10700225830078,125.63400268554688
1788654140055157800,8.52415771484375,-155.281005859375,-32.3640022277832,125.1050033569336
1788654140071298000,8.540298095703125,-154.45201110839844,-30.540000915527344,125.32400512695312
1788654140087346400,8.556346435546875,-155.5050048828125,-30.85700225830078,125.52600860595703
1788654140111406600,8.580406494140625,-155.39300537109375,-32.259002685546875,124.90300750732422
1788654140127451000,8.596450927734375,-154.41700744628906,-31.60000228881836,126.23200225830078
1788654140143420400,8.61242041015625,-154.22601318359375,-31.829002380371094,125.1090087890625
1788654140159463700,8.628463623046875,-153.91500854492188,-32.15800094604492,124.59600830078125
1788654140175474200,8.64447412109375,-154.86300659179688,-31.828001022338867,125.1100082397461
1788654140191623200,8.660623046875,-153.36900329589844,-32.691001892089844,124.89600372314453
1788654140207657700,8.67665771484375,-153.3660125732422,-31.9320011138916,125.51400756835938
1788654140223593000,8.692593017578124,-154.0590057373047,-33.954002380371094,126.51600646972656
1788654140239652400,8.70865234375,-154.0860137939453,-32.78200149536133,126.01700592041016
1788654140255664000,8.7246640625,-152.25201416015625,-34.928001403808594,125.99600219726562
1788654140271814100,8.740814208984375,-153.0170135498047,-34.18400192260742,125.49400329589844
1788654140287846700,8.7568466796875,-155.57000732421875,-32.99400329589844,126.01700592041016
1788654140303796200,8.772796142578125,-154.05300903320312,-34.38300323486328,126.51200866699219
1788654140319824600,8.78882470703125,-154.04901123046875,-34.81300354003906,126.4070053100586
1788654140335840000,8.804840087890625,-153.82200622558594,-35.88500213623047,126.39700317382812
1788654140352000300,8.821000244140626,-152.95201110839844,-35.22500228881836,127.72600555419922
1788654140368033500,8.837033447265625,-153.20700073242188,-35.467002868652344,125.68700408935547
1788654140383987700,8.85298779296875,-153.5860137939453,-35.76300048828125,127.51800537109375
1788654140400018400,8.869018310546876,-153.8660125732422,-35.047000885009766,124.9780044555664
1788654140416034800,8.885034912109376,-154.2650146484375,-34.59800338745117,126.40900421142578
1788654140432153600,8.901153564453125,-154.23800659179688,-35.55400085449219,127.0110092163086
1788654140448206000,8.9172060546875,-154.24900817871094,-35.56100082397461,126.50200653076172
1788654140464175900,8.93317578125,-152.0360107421875,-35.034000396728516,126.09600830078125
1788654140480222700,8.94922265625,-155.73001098632812,-35.772003173828125,126.60400390625
1788654140496237800,8.96523779296875,-155.1330108642578,-34.39200210571289,125.69900512695312
1788654140512367000,8.9813671875,-154.6540069580078,-35.33300018310547,127.52300262451172
1788654140528416800,8.997416748046875,-153.1800079345703,-36.099002838134766,126.49600219726562
1788654140544347600,9.01334765625,-155.739013671875,-35.12900161743164,126.6100082397461
1788654140560404200,9.029404296875,-154.0330047607422,-35.01900100708008,127.01600646972656
1788654140576427500,9.045427490234376,-151.69700622558594,-34.807003021240234,127.11700439453125
1788654140592570000,9.061570068359375,-153.63400268554688,-34.27900314331055,126.30900573730469
1788654140608633600,9.077633544921875,-152.35000610351562,-34.707000732421875,126.50700378417969
1788654140624577300,9.093577392578124,-155.09300231933594,-35.124000549316406,127.01600646972656
1788654140640641800,9.109641845703125,-152.24000549316406,-35.246002197265625,126.29900360107422
1788654140656677600,9.125677734375,-154.1420135498047,-35.777000427246094,126.39800262451172
1788654140672832300,9.141832275390625,-153.61900329589844,-35.35100173950195,126.29900360107422
1788654140688899600,9.157899658203124,-153.69801330566406,-36.198001861572266,127.0050048828125
1788654140704854300,9.173854248046876,-155.59201049804688,-36.29300308227539,127.72000885009766
1788654140720881400,9.18988134765625,-154.64601135253906,-36.08400344848633,127.41500854492188
1788654140736920800,9.2059208984375,-153.625,-35.570003509521484,125.89000701904297
1788654140753086700,9.222086669921875,-153.41600036621094,-36.65299987792969,125.06500244140625
1788654140769173000,9.238173095703125,-155.22300720214844,-35.89500045776367,125.48200225830078
1788654140785135900,9.254135986328125,-153.3900146484375,-35.44900131225586,127.0110092163086
1788654140801168600,9.270168701171874,-153.06600952148438,-36.63500213623047,126.49100494384766
1788654140817221000,9.28622119140625,-154.0780029296875,-35.695003509521484,124.56500244140625
1788654140833386800,9.30238671875,-153.6280059814453,-35.35600280761719,125.89200592041016
1788654140849478700,9.318478759765625,-153.406005859375,-36.755001068115234,125.47200775146484
1788654140865449700,9.33444970703125,-154.68701171875,-36.43300247192383,125.37400817871094
1788654140881498600,9.35049853515625,-153.84100341796875,-36.00400161743164,125.47900390625
1788654140897513000,9.366512939453125,-154.46800231933594,-36.2140007019043,125.78300476074219
1788654140913638700,9.382638671875,-153.7779998779297,-35.70600128173828,123.75000762939453
1788654140929655600,9.398655517578124,-155.56600952148438,-35.909000396728516,124.36100769042969
1788654140945613800,9.41461376953125,-154.4110107421875,-35.16200256347656,124.26500701904297
1788654140961676000,9.430676025390625,-153.9720001220703,-34.182003021240234,125.49500274658203
1788654140977696000,9.446696044921875,-155.14401245117188,-35.37200164794922,124.56900787353516
1788654140993830400,9.462830322265624,-156.29400634765625,-35.35900115966797,125.3860092163086
1788654141009865000,9.478864990234374,-152.7790069580078,-36.65500259399414,125.06400299072266
1788654141025795000,9.494795166015624,-153.1840057373047,-36.64200210571289,125.98200225830078
1788654141041856800,9.510856689453124,-153.86300659179688,-36.23400115966797,124.35600280761719
1788654141057875500,9.52687548828125,-154.58401489257812,-36.652000427246094,125.06700897216797
1788654141074026000,9.54302587890625,-152.9110107421875,-35.48100280761719,124.66700744628906
1788654141090066700,9.559066650390625,-153.2310028076172,-36.34600067138672,124.04900360107422
1788654141106007800,9.5750078125,-154.71600341796875,-36.45100021362305,124.05000305175781
1788654141122079700,9.591079833984375,-153.86300659179688,-35.58500289916992,124.77000427246094
1788654141138099700,9.607099609375,-153.8610076904297,-36.665000915527344,124.14900970458984
1788654141154253300,9.62325341796875,-153.55599975585938,-35.70100021362305,124.1570053100586
1788654141170292000,9.6392919921875,-153.9630126953125,-36.66200256347656,124.3530044555664
1788654141186252500,9.65525244140625,-153.64801025390625,-36.557003021240234,124.25100708007812
1788654141202353200,9.671353271484374,-153.0810089111328,-37.83300018310547,125.05400848388672
1788654141218367500,9.687367431640626,-153.71800231933594,-36.211002349853516,126.08800506591797
1788654141234536400,9.703536376953124,-153.64700317382812,-36.448001861572266,124.35400390625
1788654141250584300,9.719584228515625,-153.66400146484375,-35.91800308227539,123.95100402832031
1788654141266547000,9.735546875,-153.85400390625,-35.58000183105469,125.17700958251953
1788654141282582300,9.751582275390625,-154.10000610351562,-35.92400360107422,123.44300842285156
1788654141298592300,9.76759228515625,-154.05300903320312,-36.544002532958984,125.16900634765625
1788654141314715600,9.783715576171875,-154.5340118408203,-35.92900085449219,123.03600311279297
1788654141330762200,9.79976220703125,-154.4010009765625,-35.69700241088867,124.36200714111328
1788654141346735400,9.8157353515625,-153.4610137939453,-35.384002685546875,123.85400390625
1788654141362786000,9.8317861328125,-153.33200073242188,-35.586002349853516,124.76900482177734
1788654141378802400,9.847802490234375,-153.56100463867188,-35.48800277709961,124.0570068359375
1788654141394931700,9.863931640625,-153.0050048828125,-35.69000244140625,125.07300567626953
1788654141410982400,9.879982421875,-152.59201049804688,-36.020999908447266,124.35700225830078
1788654141426913300,9.895913330078125,-153.0150146484375,-35.263999938964844,124.87300872802734
1788654141442964200,9.911964111328125,-151.62701416015625,-35.04500198364258,125.38300323486328
1788654141458988800,9.92798876953125,-153.6110076904297,-37.07500076293945,125.57100677490234
1788654141475133700,9.9441337890625,-153.66000366210938,-36.02400207519531,124.05200958251953
1788654141491188500,9.9601884765625,-155.26600646972656,-34.08400344848633,124.6830062866211
1788654141507123000,9.976123046875,-151.00201416015625,-35.48500061035156,124.56300354003906
1788654141523185000,9.992184814453125,-153.86700439453125,-36.12800216674805,124.2550048828125
1788654141539218400,10.008218505859375,-153.21800231933594,-36.986000061035156,124.24700927734375
1788654141555369500,10.024369384765626,-153.2100067138672,-37.522003173828125,124.24200439453125
1788654141571442000,10.04044189453125,-154.05101013183594,-36.00300216674805,125.58100891113281
1788654141587390200,10.05639013671875,-152.7840118408203,-36.98200225830078,124.65400695800781
1788654141603465000,10.07246484375,-152.57101440429688,-36.87300109863281,124.75700378417969
1788654141619508200,10.08850830078125,-151.72000122070312,-37.09000015258789,124.65200805664062
1788654141635674400,10.10467431640625,-151.94300842285156,-36.98800277709961,124.24500274658203
1788654141651762700,10.1207626953125,-153.20901489257812,-37.41400146484375,124.34500885009766
1788654141667692800,10.13669287109375,-152.6590118408203,-38.483001708984375,124.53900909423828
1788654141683747000,10.1527470703125,-151.09201049804688,-36.98800277709961,124.34600830078125
1788654141699798500,10.168798583984374,-152.54200744628906,-37.61300277709961,125.56500244140625
1788654141715963100,10.184963134765624,-151.3000030517578,-37.742000579833984,124.03400421142578
1788654141732032800,10.20103271484375,-152.34901428222656,-39.678001403808594,123.4070053100586
1788654141747980000,10.21697998046875,-151.56900024414062,-39.54900360107422,125.13900756835938
1788654141764005000,10.233005126953126,-151.9820098876953,-38.24400329589844,126.47500610351562
1788654141780064300,10.249064208984375,-152.54501342773438,-39.23500061035156,124.43000793457031
1788654141796234200,10.265234130859374,-149.6630096435547,-39.3390007019043,125.03700256347656
1788654141812313300,10.281313232421875,-151.77301025390625,-38.354000091552734,126.27000427246094
1788654141828278000,10.297278076171875,-149.6400146484375,-40.189002990722656,125.53900909423828
1788654141844318700,10.313318603515626,-150.94601440429688,-39.342002868652344,124.6310043334961
1788654141860329500,10.32932958984375,-149.84201049804688,-40.07500076293945,126.04900360107422
1788654141876467700,10.3454677734375,-151.66700744628906,-41.27300262451172,124.41100311279297
1788654141892511000,10.361510986328126,-150.07901000976562,-40.09000015258789,124.92900848388672
1788654141908490500,10.377490478515625,-150.6230010986328,-40.961002349853516,123.8010025024414
1788654141924545000,10.393544921875,-152.26600646972656,-42.22100067138672,125.52400970458984
1788654141940560000,10.409559814453125,-151.3590087890625,-40.52300262451172,124.41700744628906
1788654141956692700,10.425692626953126,-149.78201293945312,-41.18400192260742,123.28900909423828
1788654141972739600,10.441739501953125,-150.9250030517578,-41.1670036315918,124.41100311279297
1788654141988682000,10.457681884765625,-150.05101013183594,-41.47700119018555,125.32400512695312
1788654142012850400,10.481850341796875,-152.19300842285156,-40.83700180053711,124.92500305175781
1788654142028800300,10.49780029296875,-149.67100524902344,-40.53300094604492,123.906005859375
1788654142044851500,10.5138515625,-150.1750030517578,-41.16400146484375,124.71600341796875
1788654142060889900,10.529889892578124,-150.1420135498047,-42.441001892089844,125.41700744628906
1788654142077038600,10.54603857421875,-149.552001953125,-41.17300033569336,124.10400390625
1788654142093084200,10.562084228515625,-151.34100341796875,-40.512001037597656,125.23200225830078
1788654142109037800,10.578037841796874,-150.19700622558594,-40.74500274658203,124.0060043334961
1788654142125091600,10.594091552734374,-149.73800659179688,-41.5890007019043,125.01700592041016
1788654142141140500,10.610140380859375,-150.4029998779297,-40.7400016784668,124.31200408935547
1788654142157254400,10.62625439453125,-150.37400817871094,-43.31700134277344,123.9840087890625
1788654142173298200,10.642298095703126,-150.7030029296875,-43.21500015258789,123.5780029296875
1788654142189266200,10.65826611328125,-151.6840057373047,-40.74300003051758,124.00800323486328
1788654142205314800,10.674314697265626,-151.7340087890625,-41.68100357055664,125.93500518798828
1788654142221369600,10.69036962890625,-152.09201049804688,-42.569000244140625,123.58500671386719
1788654142237488600,10.706488525390625,-151.7650146484375,-40.40300369262695,125.33600616455078
1788654142253535200,10.72253515625,-152.5120086669922,-41.80900192260742,124.30500793457031
1788654142269473000,10.73847314453125,-151.8620147705078,-40.72200012207031,125.53700256347656
1788654142285518600,10.7545185546875,-151.24000549316406,-41.272003173828125,124.51200866699219
1788654142301581300,10.770581298828125,-151.6750030517578,-41.17000198364258,124.10600280761719
1788654142317710000,10.7867099609375,-150.95201110839844,-39.88600158691406,124.01500701904297
1788654142333756200,10.802756103515625,-150.93099975585938,-41.0620002746582,124.2080078125
1788654142349690000,10.818690185546876,-151.21701049804688,-41.150001525878906,125.63400268554688
1788654142365745000,10.834744873046875,-150.4860076904297,-42.564002990722656,124.19400787353516
1788654142381774800,10.85077490234375,-151.95401000976562,-41.25300216674805,125.83800506591797
1788654142397913300,10.866913330078125,-152.37901306152344,-40.38800048828125,126.3550033569336
1788654142413958700,10.882958740234375,-151.5380096435547,-40.28700256347656,126.04900360107422
1788654142429897500,10.8988974609375,-151.5800018310547,-40.85300064086914,123.80300903320312
1788654142445935000,10.91493505859375,-152.00401306152344,-39.986000061035156,124.42300415039062
1788654142461992000,10.930991943359375,-150.5860137939453,-39.534000396728516,126.3600082397461
1788654142478133000,10.947133056640626,-151.45401000976562,-40.19200134277344,125.13300323486328
1788654142494188300,10.963188232421874,-152.41500854492188,-40.302001953125,124.8280029296875
1788654142510145000,10.97914501953125,-151.95401000976562,-41.25300216674805,125.83800506591797
1788654142526205200,10.995205078125,-151.5500030517578,-41.915000915527344,124.50700378417969
1788654142542262500,11.011262451171875,-151.4610137939453,-39.332000732421875,125.34500885009766
1788654142558372000,11.0273720703125,-150.90000915527344,-40.71900177001953,125.84100341796875
1788654142574448000,11.0434482421875,-151.5500030517578,-40.0780029296875,125.64400482177734
1788654142590417400,11.05941748046875,-154.31600952148438,-39.53600311279297,125.7540054321289
1788654142606493400,11.075493408203124,-151.7550048828125,-41.586002349853516,125.02000427246094
1788654142622537700,11.091537841796875,-152.4029998779297,-40.51100158691406,125.2340087890625
1788654142638649600,11.107649658203124,-152.19200134277344,-40.079002380371094,125.44100952148438
1788654142654727700,11.123727783203124,-152.42100524902344,-39.65700149536133,124.93600463867188
1788654142670701600,11.13970166015625,-153.56201171875,-40.288002014160156,125.74600219726562
1788654142686782500,11.155782470703125,-152.7270050048828,-40.08100128173828,125.23800659179688
1788654142702831400,11.171831298828126,-150.6280059814453,-38.47800064086914,125.14700317382812
1788654142718940400,11.1879404296875,-153.0540008544922,-38.35600280761719,125.96600341796875
1788654142735014100,11.20401416015625,-151.7570037841797,-39.64200210571289,126.1570053100586
1788654142750984000,11.21998388671875,-151.0360107421875,-38.36000061035156,125.96400451660156
1788654142767077000,11.2360771484375,-149.7620086669922,-39.01000213623047,125.54900360107422
1788654142783136500,11.252136474609374,-151.87901306152344,-37.70600128173828,126.68400573730469
1788654142799270700,11.268270751953125,-151.6850128173828,-38.474002838134766,125.3530044555664
1788654142815321300,11.2843212890625,-151.45700073242188,-39.43800354003906,125.44600677490234
1788654142831260200,11.30026025390625,-150.7740020751953,-39.62700271606445,127.3790054321289
1788654142847311600,11.3163115234375,-153.04000854492188,-38.88800048828125,126.26700592041016
1788654142863343400,11.33234326171875,-151.156005859375,-38.04300308227539,125.55900573730469
1788654142879488300,11.34848828125,-153.3780059814453,-37.60300064086914,126.17700958251953
1788654142895534300,11.364534423828125,-153.27200317382812,-38.900001525878906,125.35100555419922
1788654142911494700,11.38049462890625,-150.62001037597656,-38.906002044677734,125.24500274658203
1788654142927540200,11.396540283203125,-151.14500427246094,-38.14500045776367,125.96600341796875
1788654142943579000,11.412578857421876,-151.7580108642578,-38.12900161743164,127.08700561523438
1788654142959722500,11.428722412109375,-151.85301208496094,-39.095001220703125,126.97700500488281
1788654142983681000,11.452680908203124,-152.71900939941406,-38.672000885009766,126.47300720214844
1788654142999824600,11.46882470703125,-151.8610076904297,-38.01900100708008,127.29200744628906
1788654143015868700,11.48486865234375,-151.6370086669922,-38.01300048828125,127.8010025024414
1788654143031822300,11.500822265625,-151.19900512695312,-38.65400314331055,127.99900817871094
1788654143047910700,11.51691064453125,-150.7860107421875,-39.09400177001953,127.18000793457031
1788654143063930600,11.5329306640625,-150.3330078125,-39.83400344848633,127.98700714111328
1788654143080086800,11.549086669921875,-150.78001403808594,-39.41400146484375,127.27900695800781
1788654143096141300,11.565141357421876,-151.8360137939453,-38.97700119018555,127.79300689697266
1788654143112092200,11.581092041015625,-151.84500122070312,-38.98200225830078,127.3860092163086
1788654143128123100,11.597123046875,-151.20001220703125,-39.086002349853516,127.68900299072266
1788654143144128000,11.6131279296875,-152.06600952148438,-38.230003356933594,127.49400329589844
1788654143160294400,11.62929443359375,-152.24900817871094,-38.861000061035156,128.406005859375
1788654143176341500,11.645341552734376,-151.04000854492188,-40.0260009765625,129.51499938964844
1788654143192292400,11.661292236328125,-148.802001953125,-40.242000579833984,129.71400451660156
1788654143208329000,11.677328857421875,-151.4350128173828,-37.26300048828125,127.8080062866211
1788654143224345900,11.693345947265625,-151.0900115966797,-39.19200134277344,127.79000854492188
1788654143240469500,11.709469482421875,-150.55101013183594,-38.75600051879883,128.40499877929688
1788654143256508700,11.7255087890625,-151.7220001220703,-38.21600341796875,128.61500549316406
1788654143272479700,11.741479736328126,-150.29501342773438,-39.486000061035156,129.92601013183594
1788654143288529700,11.75752978515625,-149.9180145263672,-38.327003479003906,128.50900268554688
1788654143304553500,11.773553466796875,-149.25100708007812,-39.499000549316406,129.1090087890625
1788654143320689700,11.789689697265626,-148.4350128173828,-38.54800033569336,128.20001220703125
1788654143336732000,11.80573193359375,-149.88800048828125,-38.849002838134766,129.52301025390625
1788654143352702200,11.8217021484375,-149.86801147460938,-39.486000061035156,130.02700805664062
1788654143368753700,11.837753662109375,-151.48300170898438,-38.84800338745117,129.42401123046875
1788654143384779500,11.853779541015625,-148.8140106201172,-39.92400360107422,129.4110107421875
1788654143400916000,11.869916015625,-150.07701110839844,-40.02400207519531,129.81900024414062
1788654143416971300,11.88597119140625,-150.3090057373047,-38.630001068115234,129.83200073242188
1788654143432899000,11.901899169921874,-150.83200073242188,-40.03000259399414,129.31100463867188
1788654143448968200,11.91796826171875,-150.12200927734375,-39.94300079345703,127.88400268554688
1788654143465013500,11.934013427734374,-150.84600830078125,-39.49800109863281,129.010009765625
1788654143481163000,11.9501630859375,-152.21701049804688,-39.4900016784668,129.41900634765625
1788654143497227800,11.966227783203125,-148.47401428222656,-41.749000549316406,129.19000244140625
1788654143513169000,11.9821689453125,-152.635009765625,-40.67400360107422,129.0019989013672
1788654143529236000,11.998236083984375,-149.86900329589844,-40.24300003051758,129.51100158691406
1788654143545281000,12.014281005859376,-149.35400390625,-41.22600173950195,128.17800903320312
1788654143561437400,12.0304375,-153.29800415039062,-39.932003021240234,128.29600524902344
1788654143577506300,12.04650634765625,-148.2790069580078,-41.00400161743164,128.89100646972656
1788654143593457200,12.06245703125,-151.0290069580078,-40.452003479003906,129.7150115966797
1788654143609496600,12.07849658203125,-149.7480010986328,-40.9900016784668,129.7080078125
1788654143625548000,12.094548095703125,-151.35101318359375,-40.022003173828125,129.8209991455078
1788654143641717800,12.1107177734375,-151.2790069580078,-38.42100143432617,129.32501220703125
1788654143657795800,12.1267958984375,-153.29501342773438,-39.49800109863281,128.70700073242188
1788654143673753900,12.14275390625,-151.24900817871094,-39.268001556396484,130.1330108642578
1788654143689790000,12.1587900390625,-151.06300354003906,-38.96000289916992,129.11700439453125
1788654143705849000,12.17484912109375,-150.8660125732422,-38.2130012512207,128.91900634765625
1788654143721992000,12.190991943359375,-151.4860076904297,-40.90400314331055,127.97900390625
1788654143738031900,12.207031982421874,-151.71701049804688,-39.402000427246094,128.09500122070312
1788654143754005000,12.2230048828125,-151.16000366210938,-39.17000198364258,129.42001342773438
1788654143770049500,12.239049560546874,-151.2550048828125,-39.487003326416016,129.72300720214844
1788654143786064600,12.255064697265626,-149.66000366210938,-38.624000549316406,130.3400115966797
1788654143802200000,12.271199951171875,-152.7740020751953,-38.42400360107422,128.92001342773438
1788654143818265300,12.287265380859376,-150.87400817871094,-38.75800323486328,128.2010040283203
1788654143834200300,12.303200439453125,-150.01901245117188,-37.676002502441406,129.1269989013672
1788654143850260500,12.319260498046875,-151.5850067138672,-38.52100372314453,129.83399963378906
1788654143874324700,12.34332470703125,-151.62600708007812,-37.03300094604492,128.93099975585938
1788654143890376700,12.359376708984374,-150.9720001220703,-39.077003479003906,128.40200805664062
1788654143906398700,12.375398681640625,-152.48001098632812,-37.467002868652344,128.41799926757812
1788654143922545400,12.39154541015625,-152.85800170898438,-39.05900192260742,129.52500915527344
1788654143938584600,12.40758447265625,-150.90200805664062,-35.96500015258789,128.73500061035156
1788654143954542300,12.423542236328124,-150.7670135498047,-38.217002868652344,128.61300659179688
1788654143970596000,12.43959619140625,-152.052001953125,-36.60100173950195,129.13900756835938
1788654143986636500,12.455636474609374,-151.38800048828125,-38.207000732421875,129.32701110839844
1788654144002789600,12.47178955078125,-153.5340118408203,-36.380001068115234,129.44801330566406
1788654144018837500,12.48783740234375,-151.7550048828125,-36.50600051879883,128.2220001220703
1788654144034796500,12.503796630859375,-153.00401306152344,-36.4890022277832,129.34500122070312
1788654144050838800,12.5198388671875,-151.34901428222656,-36.302001953125,127.510009765625
1788654144066885000,12.535885009765625,-152.07101440429688,-37.04500198364258,128.01400756835938
1788654144083001000,12.5520009765625,-151.42100524902344,-36.60600280761719,128.83200073242188
1788654144099044400,12.56804443359375,-151.22000122070312,-36.505001068115234,128.4250030517578
1788654144115019800,12.584019775390624,-153.5500030517578,-37.038002014160156,128.32200622558594
1788654144131065000,12.600065185546875,-151.34600830078125,-36.19200134277344,127.71500396728516
1788654144147114200,12.6161142578125,-152.4029998779297,-35.8640022277832,128.1269989013672
1788654144163232300,12.632232177734375,-154.10800170898438,-36.729000091552734,127.3060073852539
1788654144179283700,12.64828369140625,-152.51400756835938,-36.5150032043457,127.510009765625
1788654144195222300,12.66422216796875,-150.90701293945312,-36.4010009765625,128.2220001220703
1788654144211278600,12.680278564453126,-150.79600524902344,-36.39800262451172,128.42601013183594
1788654144227295500,12.69629541015625,-150.79800415039062,-37.263999938964844,127.8070068359375
1788654144251352000,12.72035205078125,-154.2080078125,-35.75200271606445,128.2320098876953
1788654144267363600,12.736363525390624,-152.69500732421875,-36.17100143432617,129.14300537109375
1788654144283498200,12.752498291015625,-151.5279998779297,-36.281002044677734,129.03900146484375
1788654144299545600,12.768545654296876,-152.39300537109375,-35.96500015258789,128.5330047607422
1788654144315487500,12.784487548828125,-151.87701416015625,-35.327003479003906,128.23300170898438
1788654144331553300,12.80055322265625,-152.51600646972656,-36.40800094604492,127.5110092163086
1788654144347587000,12.816587158203125,-151.32501220703125,-34.775001525878906,129.56100463867188
1788654144363736600,12.832736572265626,-151.43701171875,-36.6150016784668,128.11900329589844
1788654144379796200,12.848796142578125,-152.49900817871094,-36.93800354003906,127.91400909423828
1788654144395740200,12.864740234375,-152.72100830078125,-35.43000030517578,128.43701171875
1788654144411815200,12.880815185546876,-151.2320098876953,-36.944000244140625,127.60700225830078
1788654144427856400,12.8968564453125,-153.80101013183594,-35.44000244140625,127.62300872802734
1788654144444008200,12.91300830078125,-151.35101318359375,-36.51900100708008,127.30500793457031
1788654144460070700,12.929070556640625,-149.3100128173828,-35.86000061035156,128.7340087890625
1788654144476018000,12.945017822265624,-150.56201171875,-35.19600296020508,130.16799926757812
1788654144492047000,12.961047119140625,-151.85101318359375,-34.770999908447266,129.76600646972656
1788654144508105200,12.977105224609375,-153.28500366210938,-35.66600036621094,126.80500793457031
1788654144524262700,12.9932626953125,-154.67401123046875,-35.669002532958984,126.40000915527344
1788654144540334800,13.0093349609375,-151.14500427246094,-35.551002502441406,127.61900329589844
1788654144556286500,13.025286376953124,-152.4080047607422,-35.86600112915039,127.92300415039062
1788654144572317200,13.041317138671875,-151.239013671875,-35.111000061035156,128.43800354003906
1788654144588381000,13.057380859375,-150.29901123046875,-33.93400192260742,128.44700622558594
1788654144604555800,13.0735556640625,-150.82501220703125,-35.44300079345703,127.72100830078125
1788654144620640000,13.089639892578125,-152.53001403808594,-33.3900032043457,128.760009765625
1788654144636608000,13.10560791015625,-153.56500244140625,-36.29100036621094,128.125
1788654144652644400,13.121644287109374,-153.43800354003906,-36.49400329589844,128.93800354003906
1788654144668664600,13.13766455078125,-151.4390106201172,-35.320003509521484,128.84400939941406
1788654144684787500,13.153787353515625,-152.82701110839844,-34.13300323486328,129.26300048828125
1788654144700829200,13.1698291015625,-151.86801147460938,-35.32200241088867,128.63999938964844
1788654144716757500,13.185757568359374,-152.7370147705078,-35.44000244140625,127.72400665283203
1788654144732808200,13.20180810546875,-152.9320068359375,-35.2130012512207,128.64300537109375
1788654144748828700,13.21782861328125,-152.09901428222656,-35.00800323486328,128.03201293945312
1788654144764969000,13.233968994140625,-151.64401245117188,-36.50400161743164,128.42601013183594
1788654144781007400,13.25000732421875,-152.7130126953125,-35.53300094604492,128.7410125732422
1788654144796940500,13.2659404296875,-150.62001037597656,-33.935001373291016,128.34500122070312
1788654144813007400,13.28200732421875,-151.35400390625,-36.30500030517578,127.3070068359375
1788654144829034800,13.29803466796875,-152.9390106201172,-35.217002868652344,128.33700561523438
1788654144845181700,13.314181640625,-151.22601318359375,-35.21200180053711,128.9459991455078
1788654144861221400,13.330221435546875,-153.12701416015625,-35.95900344848633,128.94200134277344
1788654144877163300,13.346163330078125,-152.90501403808594,-35.520999908447266,129.6590118408203
1788654144893188600,13.362188720703125,-152.19500732421875,-35.21800231933594,128.33599853515625
1788654144909213000,13.378212890625,-150.38800048828125,-34.24700164794922,129.0550079345703
1788654144925374700,13.394374755859374,-152.16600036621094,-35.20000076293945,129.66000366210938
1788654144941413000,13.4104130859375,-153.7840118408203,-35.645999908447266,128.2320098876953
1788654144957361400,13.426361328125,-153.0550079345703,-35.33100128173828,127.8270034790039
1788654144973387300,13.44238720703125,-153.22601318359375,-35.30600357055664,129.6610107421875
1788654144989407700,13.45840771484375,-154.0880126953125,-35.204002380371094,129.1540069580078
1788654145005575700,13.47457568359375,-149.42100524902344,-35.53900146484375,128.73699951171875
1788654145021617400,13.490617431640626,-151.885009765625,-36.737003326416016,126.99800872802734
1788654145037575700,13.50657568359375,-151.87200927734375,-36.08000183105469,128.02200317382812
1788654145053611800,13.52261181640625,-152.96600341796875,-35.018001556396484,127.21800231933594
1788654145069629700,13.538629638671875,-150.41700744628906,-34.5890007019043,127.52400970458984
1788654145085798100,13.554798095703125,-152.0860137939453,-34.784000396728516,128.74700927734375
1788654145101838000,13.570838134765625,-153.14700317382812,-35.86300277709961,128.1280059814453
1788654145117808400,13.586808349609376,-151.43099975585938,-35.42300033569336,129.14801025390625
1788654145133847300,13.602847412109375,-152.93301391601562,-36.294002532958984,127.92000579833984
1788654145149870000,13.6188701171875,-152.0800018310547,-35.2130012512207,128.74301147460938
1788654145166004700,13.635004638671875,-152.87901306152344,-34.4890022277832,126.71300506591797
1788654145182044200,13.651044189453126,-153.125,-36.066001892089844,128.94100952148438
1788654145198012000,13.667011962890625,-152.4010009765625,-36.1870002746582,128.02200317382812
1788654145214086700,13.683086669921876,-151.4560089111328,-34.57400131225586,128.54501342773438
1788654145230115800,13.69911572265625,-152.406005859375,-34.02799987792969,129.16200256347656
1788654145246257200,13.715257080078125,-151.7840118408203,-36.20000076293945,127.10400390625
1788654145262316000,13.73131591796875,-151.86500549316406,-36.07600021362305,128.3280029296875
1788654145278255900,13.747255859375,-152.91200256347656,-35.63300323486328,129.25
1788654145294324000,13.763323974609374,-152.91900634765625,-36.28600311279297,128.531005859375
1788654145318403000,13.787403076171875,-151.5500030517578,-34.35000228881836,129.260009765625
1788654145334464500,13.803464599609375,-152.29400634765625,-35.75400161743164,128.3310089111328
1788654145350486800,13.81948681640625,-153.9040069580078,-34.680999755859375,128.2410125732422
1788654145366637600,13.835637451171875,-152.93099975585938,-35.42900085449219,128.53900146484375
1788654145382706000,13.851705810546875,-152.9110107421875,-36.06500244140625,129.04299926757812
1788654145398674000,13.867673828125,-152.93099975585938,-35.75300216674805,128.33200073242188
1788654145414747100,13.8837470703125,-152.17601013183594,-35.9630012512207,128.73699951171875
1788654145430789400,13.899789306640624,-152.4840087890625,-35.41600036621094,129.5570068359375
1788654145446890000,13.915889892578125,-151.49700927734375,-36.371002197265625,130.36199951171875
1788654145462963200,13.931963134765626,-151.0900115966797,-36.38199996948242,129.54701232910156
1788654145478940200,13.947940185546875,-152.31300354003906,-35.22500228881836,127.8270034790039
1788654145495020500,13.9640205078125,-150.36900329589844,-36.397003173828125,128.52700805664062
1788654145511069400,13.9800693359375,-151.86300659179688,-36.07500076293945,128.4300079345703
1788654145527186400,13.9961865234375,-153.25401306152344,-35.10700225830078,128.54200744628906
1788654145543260400,14.012260498046874,-151.88900756835938,-35.65800094604492,127.51700592041016
1788654145559190300,14.028190185546874,-152.73300170898438,-34.573001861572266,128.44400024414062
1788654145575274200,14.044274169921875,-152.32701110839844,-33.720001220703125,128.14601135253906
1788654145591324200,14.06032421875,-151.55801391601562,-36.19200134277344,127.71500396728516
1788654145607444200,14.0764443359375,-152.51100158691406,-34.784000396728516,128.7480010986328
1788654145623531000,14.092531005859374,-151.9130096435547,-34.052001953125,127.42900848388672
1788654145639471000,14.10847119140625,-150.74501037597656,-33.08100128173828,128.04701232910156
1788654145655510300,14.12451025390625,-153.04600524902344,-34.137001037597656,128.9580078125
1788654145671524900,14.14052490234375,-151.66900634765625,-34.358001708984375,128.6490020751953
1788654145687653000,14.156653076171875,-153.39700317382812,-33.07600021362305,128.1529998779297
1788654145703693300,14.172693359375,-153.09500122070312,-32.4370002746582,127.85200500488281
1788654145719636500,14.188636474609375,-152.4530029296875,-32.76000213623047,127.84900665283203
1788654145735679000,14.204678955078125,-153.0380096435547,-31.4950008392334,126.23100280761719
1788654145751695600,14.220695556640624,-154.00100708007812,-30.309001922607422,126.65000915527344
1788654145767829000,14.2368291015625,-154.84100341796875,-30.302001953125,127.05900573730469
1788654145783863300,14.25286328125,-153.489013671875,-29.24100112915039,126.45500946044922
1788654145799809300,14.268809326171874,-154.09400939941406,-29.112001419067383,127.9850082397461
1788654145815849500,14.284849365234376,-155.68101501464844,-27.766000747680664,124.3320083618164
1788654145831875600,14.30087548828125,-155.8380126953125,-29.137001037597656,125.95000457763672
1788654145848020200,14.317020263671875,-156.40501403808594,-27.86100196838379,125.14700317382812
1788654145864060700,14.333060791015624,-154.40701293945312,-26.57900047302246,125.05400848388672
1788654145880021800,14.349021728515625,-154.7270050048828,-25.499000549316406,125.67500305175781
1788654145896066800,14.36506689453125,-156.0030059814453,-25.714000701904297,125.47100830078125
1788654145912102000,14.381101806640626,-157.48001098632812,-24.149002075195312,122.12500762939453
1788654145928205000,14.397205078125,-158.74400329589844,-24.249000549316406,122.53300476074219
1788654145944244000,14.413243896484374,-156.875,-21.684001922607422,122.24800872802734
1788654145960209000,14.429208984375,-157.32501220703125,-22.347000122070312,120.71400451660156
1788654145976251000,14.4452509765625,-157.9820098876953,-20.845001220703125,120.7280044555664
1788654145992292600,14.461292724609375,-158.875,-19.897001266479492,119.41400909423828
1788654146008407000,14.477406982421876,-159.24301147460938,-17.76500129699707,118.51600646972656
1788654146024450800,14.493450927734376,-157.8870086669922,-17.674001693725586,117.49700927734375
1788654146040424700,14.5094248046875,-157.2620086669922,-17.25,117.19400787353516
1788654146056457200,14.525457275390625,-158.8920135498047,-16.405000686645508,116.0830078125
1788654146072505600,14.541505615234374,-159.96600341796875,-15.331000328063965,116.19600677490234
1788654146088626700,14.557626708984374,-160.2030029296875,-16.21000099182129,114.5580062866211
1788654146104667100,14.573667236328125,-161.1160125732422,-15.058000564575195,112.43000793457031
1788654146120597500,14.589597412109375,-159.9580078125,-14.52500057220459,112.3320083618164
1788654146136643000,14.60564306640625,-160.45700073242188,-12.624000549316406,110.21000671386719
1788654146152706300,14.621706298828125,-158.84500122070312,-13.696001052856445,110.40200805664062
1788654146168840200,14.637840087890625,-161.09400939941406,-12.408000946044922,110.31500244140625
1788654146184888300,14.653888427734374,-161.45700073242188,-12.542000770568848,108.27700805664062
1788654146200835300,14.66983544921875,-158.42201232910156,-11.601000785827637,106.8550033569336
1788654146216887300,14.68588720703125,-160.4090118408203,-13.200000762939453,107.25100708007812
1788654146232911000,14.7019111328125,-158.44200134277344,-13.12600040435791,105.00800323486328
1788654146249052400,14.718052490234374,-160.4810028076172,-12.380000114440918,104.50800323486328
1788654146265106700,14.734106689453125,-162.3280029296875,-10.997000694274902,103.5040054321289
1788654146281062400,14.7500625,-159.2570037841797,-12.087000846862793,102.47100830078125
1788654146297120300,14.766120361328126,-159.89801025390625,-11.765000343322754,102.47500610351562
1788654146313146600,14.782146728515626,-160.13800048828125,-11.781000137329102,101.25300598144531
1788654146329289700,14.798289794921875,-161.86300659179688,-10.713000297546387,100.7550048828125
1788654146345348400,14.814348388671876,-158.86500549316406,-12.540000915527344,100.7350082397461
1788654146361313300,14.830313232421876,-160.8350067138672,-10.41100025177002,99.4320068359375
1788654146377383200,14.846383056640626,-158.04200744628906,-11.585000991821289,100.1310043334961
1788654146393424100,14.862424072265625,-160.0860137939453,-11.49000072479248,99.01400756835938
1788654146409536000,14.878535888671875,-160.510009765625,-12.35300064086914,98.49800109863281
1788654146425613000,14.894613037109375,-156.7060089111328,-11.830000877380371,97.98800659179688
1788654146441587500,14.91058740234375,-159.59901428222656,-10.437000274658203,97.69900512695312
1788654146457668900,14.9266689453125,-159.39801025390625,-11.417000770568848,96.56900787353516
1788654146473716500,14.942716552734375,-159.62400817871094,-11.749000549316406,95.75200653076172
1788654146489832000,14.95883203125,-158.88900756835938,-12.295001029968262,95.03300476074219
1788654146505913600,14.97491357421875,-159.32901000976562,-11.547000885009766,94.83600616455078
1788654146521846000,14.990845947265624,-160.0430145263672,-12.177000999450684,95.74800109863281
1788654146537937200,15.006937255859375,-159.2150115966797,-11.759000778198242,95.03800201416016
1788654146554013000,15.023012939453125,-159.01901245117188,-12.093000411987305,94.11800384521484
1788654146570135800,15.0391357421875,-160.07101440429688,-11.76200008392334,94.73300170898438
1788654146586177000,15.055177001953124,-159.99600219726562,-11.672000885009766,93.41000366210938
1788654146602117000,15.0711171875,-158.60400390625,-11.559000968933105,94.02000427246094
1788654146618162700,15.08716259765625,-159.26300048828125,-11.896000862121582,92.79600524902344
1788654146634194700,15.103194580078124,-161.7010040283203,-12.430000305175781,92.69200134277344
1788654146650332200,15.119332275390626,-159.06600952148438,-12.66200065612793,91.66800689697266
1788654146666375400,15.13537548828125,-160.2100067138672,-12.753000259399414,92.68700408935547
1788654146682311400,15.1513115234375,-161.3040008544922,-11.042000770568848,92.29600524902344
1788654146698352000,15.16735205078125,-159.39100646972656,-12.665000915527344,91.36300659179688
1788654146714375400,15.18337548828125,-160.02500915527344,-12.879000663757324,91.36200714111328
1788654146730518800,15.199518798828125,-161.22401428222656,-12.463000297546387,90.24600219726562
1788654146746560300,15.215560302734374,-159.9350128173828,-13.213000297546387,90.44200134277344
1788654146762508000,15.231508056640624,-158.989013671875,-12.140000343322754,90.65400695800781
1788654146778556400,15.247556396484375,-158.87600708007812,-12.35200023651123,90.85600280761719
1788654146794594800,15.2635947265625,-159.29701232910156,-13.754000663757324,90.1310043334961
1788654146810746400,15.279746337890625,-159.41500854492188,-14.193000793457031,89.31200408935547
1788654146826795800,15.295795654296874,-160.0240020751953,-13.419000625610352,91.0510025024414
1788654146842753500,15.31175341796875,-159.83401489257812,-13.973000526428223,89.72200775146484
1788654146858798800,15.327798828125,-160.46701049804688,-13.969000816345215,89.927001953125
1788654146874846000,15.343845947265624,-159.42300415039062,-14.306000709533691,88.90400695800781
1788654146890961000,15.3599609375,-160.29200744628906,-12.587000846862793,89.1240005493164
1788654146907004400,15.37600439453125,-159.6370086669922,-13.550000190734863,89.31800079345703
1788654146922978800,15.391978759765625,-157.71600341796875,-13.547000885009766,89.72300720214844
1788654146939017000,15.408016845703125,-160.739013671875,-12.92400074005127,87.89900207519531
1788654146955064300,15.424064208984374,-161.156005859375,-13.999000549316406,87.5840072631836
1788654146971186700,15.440186767578124,-159.39100646972656,-13.378000259399414,86.16100311279297
1788654146987230200,15.456230224609374,-161.60400390625,-13.905000686645508,86.56700134277344
1788654147003166500,15.47216650390625,-158.93600463867188,-13.793000221252441,87.27800750732422
1788654147019210500,15.48821044921875,-158.0780029296875,-14.221000671386719,87.37500762939453
1788654147035270400,15.5042705078125,-158.40000915527344,-14.11500072479248,87.27400207519531
1788654147051396400,15.520396240234374,-158.8100128173828,-14.53800106048584,87.6780014038086
1788654147067437300,15.536437255859376,-159.6790008544922,-14.76400089263916,86.65900421142578
1788654147083377400,15.55237744140625,-159.28201293945312,-13.593000411987305,86.15900421142578
1788654147099427800,15.568427734375,-157.99000549316406,-13.693000793457031,86.87000274658203
1788654147115445200,15.5844453125,-160.3470001220703,-13.16100025177002,86.26600646972656
1788654147131580400,15.600580322265625,-160.1280059814453,-13.806000709533691,86.15900421142578
1788654147147651800,15.61665185546875,-158.84901428222656,-12.832000732421875,86.9800033569336
1788654147163602000,15.632601806640626,-158.6510009765625,-14.13800048828125,85.54300689697266
1788654147179658800,15.64865869140625,-159.92201232910156,-14.350000381469727,85.54200744628906
1788654147195682300,15.664682373046874,-159.9110107421875,-14.668000221252441,85.84500122070312
1788654147211825400,15.680825439453125,-160.33900451660156,-15.750000953674316,85.02100372314453
1788654147227894800,15.696894775390625,-158.656005859375,-13.925000190734863,85.44300079345703
1788654147243847200,15.71284716796875,-160.2320098876953,-13.156001091003418,86.67400360107422
1788654147259915500,15.72891552734375,-158.20700073242188,-15.532000541687012,85.5300064086914
1788654147275956000,15.7449560546875,-159.84400939941406,-13.178000450134277,85.04300689697266
1788654147292112400,15.7611123046875,-159.51300048828125,-15.225000381469727,84.31200408935547
1788654147308177700,15.777177734375,-158.02301025390625,-14.144001007080078,85.13400268554688
1788654147324142600,15.793142578125,-158.9010009765625,-14.37700080871582,83.70700073242188
1788654147340211200,15.809211181640626,-158.68301391601562,-14.481000900268555,83.91000366210938
1788654147356262700,15.8252626953125,-158.86900329589844,-14.897000312805176,84.82300567626953
1788654147372371500,15.841371337890624,-158.8830108642578,-14.36600112915039,84.52200317382812
1788654147388450300,15.8574501953125,-159.3090057373047,-15.555000305175781,83.69700622558594
1788654147404417800,15.873417724609375,-159.2360076904297,-13.197000503540039,83.71800231933594
1788654147420496000,15.889495849609375,-157.95700073242188,-14.06100082397461,83.40300750732422
1788654147436548900,15.905548828125,-158.86700439453125,-15.329000473022461,84.61500549316406
1788654147452662300,15.921662353515625,-158.052001953125,-14.378000259399414,83.70600128173828
1788654147468741000,15.9377412109375,-157.84201049804688,-14.704000473022461,83.39700317382812
1788654147484719600,15.9537197265625,-156.885009765625,-14.597001075744629,83.4990005493164
1788654147500804600,15.9698046875,-158.2480010986328,-15.665000915527344,83.59300231933594
1788654147516827600,15.98582763671875,-158.3050079345703,-14.187000274658203,81.97600555419922
1788654147532959500,16.00195947265625,-161.86500549316406,-15.339000701904297,83.4990005493164
1788654147549010200,16.01801025390625,-159.1160125732422,-14.702000617980957,83.39900207519531
1788654147564951600,16.03395166015625,-159.77200317382812,-13.956000328063965,82.9990005493164
1788654147581001700,16.050001708984375,-158.5970001220703,-15.467000961303711,82.37300109863281
1788654147597031400,16.066031494140624,-158.6800079345703,-14.156001091003418,84.21800231933594
1788654147613174300,16.08217431640625,-158.80601501464844,-14.059000968933105,83.40400695800781
1788654147629227500,16.0982275390625,-157.656005859375,-14.396000862121582,82.3810043334961
1788654147645182700,16.1141826171875,-159.54400634765625,-14.595000267028809,83.29900360107422
1788654147661227800,16.130227783203125,-158.29901123046875,-14.831000328063965,81.86900329589844
1788654147677265700,16.146265625,-158.48500061035156,-14.599000930786133,83.19500732421875
1788654147693415400,16.16241552734375,-155.94400024414062,-14.067000389099121,83.19700622558594
1788654147709460200,16.178460205078125,-158.50100708007812,-14.392001152038574,82.58600616455078
1788654147725425700,16.19442578125,-158.5030059814453,-14.718000411987305,82.2770004272461
1788654147741474800,16.210474853515624,-156.80801391601562,-13.642000198364258,82.79400634765625
1788654147757528000,16.226528076171874,-158.59201049804688,-15.680000305175781,82.47300720214844
1788654147773639000,16.242638916015625,-159.3050079345703,-13.931000709533691,84.93400573730469
1788654147789695500,16.258695556640625,-157.44200134277344,-13.855000495910645,82.79300689697266
1788654147805671400,16.27467138671875,-158.260009765625,-15.132000923156738,83.39400482177734
1788654147821722600,16.29072265625,-159.7670135498047,-13.845000267028809,83.30500030517578
1788654147837776000,16.30677587890625,-157.94300842285156,-15.350000381469727,83.18800354003906
1788654147853911600,16.32291162109375,-157.75201416015625,-13.634000778198242,83.30500030517578
1788654147869961500,16.33896142578125,-158.906005859375,-14.488000869750977,83.4010009765625
1788654147885923300,16.35492333984375,-157.84201049804688,-14.812000274658203,83.29400634765625
1788654147901976300,16.370976318359375,-157.2310028076172,-14.937000274658203,82.07000732421875
1788654147918040800,16.387040771484376,-157.7370147705078,-13.94800090789795,83.81100463867188
1788654147934176500,16.403176513671873,-157.2010040283203,-14.595000267028809,83.60100555419922
1788654147950227200,16.419227294921875,-157.54701232910156,-13.314001083374023,83.20500183105469
1788654147966174000,16.435174072265625,-156.99400329589844,-14.922000885009766,83.19100189208984
1788654147982230000,16.45122998046875,-157.4290008544922,-14.496000289916992,82.99100494384766
1788654147998301000,16.467301025390626,-158.40301513671875,-13.317000389099121,82.9010009765625
1788654148014440400,16.4834404296875,-157.6280059814453,-15.136000633239746,83.18900299072266
1788654148030495700,16.499495849609374,-157.21701049804688,-14.280000686645508,83.09500122070312
1788654148046448000,16.5154482421875,-158.70700073242188,-13.848000526428223,83.2020034790039
1788654148062508500,16.531508544921873,-159.76600646972656,-13.736001014709473,83.40800476074219
1788654148078536200,16.5475361328125,-157.85400390625,-13.631000518798828,83.50900268554688
1788654148094681600,16.563681640625,-158.51600646972656,-13.969000816345215,82.1820068359375
1788654148110741800,16.57974169921875,-160.5260009765625,-14.50200080871582,82.18000030517578
1788654148126700800,16.59570068359375,-157.11000061035156,-15.145000457763672,82.5780029296875
1788654148142763500,16.611763427734374,-160.44000244140625,-13.217000961303711,82.08900451660156
1788654148158787300,16.627787353515625,-157.76100158691406,-15.476000785827637,81.76100158691406
1788654148174938000,16.643938232421874,-158.47601318359375,-15.242000579833984,83.19000244140625
1788654148191005700,16.660005615234375,-158.36900329589844,-14.809000968933105,83.4990005493164
1788654148206973000,16.675972900390626,-157.85101318359375,-15.142001152038574,82.68000030517578
1788654148223049200,16.69204931640625,-158.31600952148438,-13.869000434875488,81.67400360107422
1788654148239088000,16.708088134765624,-158.70201110839844,-15.574000358581543,82.37200164794922
1788654148255238700,16.72423876953125,-159.04000854492188,-15.801000595092773,81.35200500488281
1788654148271316500,16.74031640625,-158.59800720214844,-14.387001037597656,82.99400329589844
1788654148287295500,16.75629541015625,-158.68101501464844,-15.453001022338867,83.39200592041016
1788654148303374800,16.772374755859374,-158.2860107421875,-15.904000282287598,81.75700378417969
1788654148319421200,16.788421142578127,-158.95201110839844,-15.164000511169434,80.95000457763672
1788654148335532500,16.804532470703126,-159.17100524902344,-14.519001007080078,81.0580062866211
1788654148351618300,16.820618408203124,-158.7310028076172,-13.970000267028809,82.08100128173828
1788654148367559400,16.836559326171876,-160.85501098632812,-14.075000762939453,81.98100280761719
1788654148383648500,16.8526484375,-159.1370086669922,-15.471000671386719,81.96600341796875
1788654148399711200,16.868711181640624,-158.1020050048828,-14.192000389099121,81.56900024414062
1788654148415853800,16.884853759765626,-159.58401489257812,-13.863000869750977,81.98100280761719
1788654148431965000,16.90096484375,-158.4810028076172,-14.380001068115234,83.50300598144531
1788654148447901400,16.9169013671875,-158.11500549316406,-14.201000213623047,80.95700073242188
1788654148463960000,16.9329599609375,-157.0120086669922,-15.258000373840332,82.16900634765625
1788654148479986400,16.948986328125,-158.9300079345703,-14.719000816345215,82.1760025024414
1788654148496530400,16.965530517578124,-158.07901000976562,-14.719000816345215,82.2770004272461
1788654148512264200,16.98126416015625,-158.69000244140625,-15.458001136779785,82.98400115966797
1788654148528211700,16.997211669921874,-158.7220001220703,-13.965001106262207,82.48800659179688
1788654148544265000,17.013264892578125,-157.86500549316406,-13.85300064086914,82.89600372314453
1788654148560291800,17.029291748046877,-157.4300079345703,-15.03700065612793,82.5790023803711
1788654148576436000,17.04543603515625,-159.23001098632812,-14.599000930786133,83.09400177001953
1788654148592488000,17.061488037109374,-158.7130126953125,-14.392001152038574,82.58600616455078
1788654148608437000,17.07743701171875,-156.4770050048828,-14.391000747680664,82.88900756835938
1788654148624491300,17.0934912109375,-157.65000915527344,-15.474000930786133,81.96400451660156
1788654148640529400,17.109529296875,-157.3300018310547,-15.473000526428223,82.06600189208984
1788654148656679200,17.12567919921875,-156.7010040283203,-14.182001113891602,82.48400115966797
1788654148672728000,17.14172802734375,-157.2550048828125,-13.655000686645508,81.7760009765625
1788654148688681200,17.15768115234375,-157.84100341796875,-14.920001029968262,83.29400634765625
1788654148704727000,17.17372705078125,-158.06900024414062,-14.605000495910645,82.78700256347656
1788654148720774000,17.18977392578125,-158.0590057373047,-14.49100112915039,83.29800415039062
1788654148736920300,17.20592041015625,-157.59201049804688,-15.11400032043457,84.82000732421875
1788654148752967200,17.22196728515625,-159.33700561523438,-15.356000900268555,82.5790023803711
1788654148768927000,17.237927001953125,-156.76901245117188,-15.132000923156738,83.59600067138672
1788654148784977700,17.253977783203126,-158.72000122070312,-14.93600082397461,81.97000122070312
1788654148801039000,17.2700390625,-158.15501403808594,-15.24100112915039,83.29100036621094
1788654148817159700,17.28615966796875,-157.14100646972656,-12.78600025177002,82.70000457763672
1788654148833212400,17.30221240234375,-158.29100036621094,-14.718000411987305,82.2770004272461
1788654148849189400,17.318189453125,-157.00201416015625,-14.819000244140625,82.88600158691406
1788654148865242400,17.334242431640625,-155.53001403808594,-15.26300048828125,81.96300506591797
1788654148881303300,17.35030322265625,-157.42100524902344,-15.896000862121582,82.46900177001953
1788654148897425000,17.3664248046875,-157.89401245117188,-14.844000816345215,80.95100402832031
1788654148913475600,17.3824755859375,-157.6890106201172,-13.011000633239746,81.7820053100586
1788654148929404400,17.398404296875,-156.36000061035156,-15.790000915527344,82.46900177001953
1788654148945459700,17.414459716796873,-158.4080047607422,-13.75200080871582,82.38800048828125
1788654148961526000,17.430526123046874,-156.4029998779297,-14.195000648498535,81.56600189208984
1788654148977650000,17.44664990234375,-155.95700073242188,-14.939001083374023,82.06900024414062
1788654148993708500,17.46270849609375,-158.9010009765625,-14.701001167297363,83.50100708007812
1788654149009653500,17.478653564453126,-157.53500366210938,-15.144001007080078,82.5780029296875
1788654149025714400,17.49471435546875,-155.656005859375,-14.951001167297363,81.25300598144531
1788654149049758700,17.5187587890625,-156.09201049804688,-14.308000564575195,81.15800476074219
1788654149065820200,17.534820068359377,-157.14401245117188,-15.381000518798828,80.94600677490234
1788654149081848600,17.5508486328125,-156.2010040283203,-15.391000747680664,80.33300018310547
1788654149097992700,17.56699267578125,-156.4110107421875,-15.065000534057617,80.64200592041016
1788654149114051300,17.58305126953125,-158.85000610351562,-14.518000602722168,81.15900421142578
1788654149129988400,17.59898828125,-156.7930145263672,-15.902000427246094,82.06100463867188
1788654149146054000,17.615053955078125,-154.44400024414062,-15.358000755310059,82.9800033569336
1788654149162096600,17.6310966796875,-156.82400512695312,-14.949000358581543,81.2550048828125
1788654149178249700,17.647249755859374,-156.7100067138672,-15.37600040435791,81.3530044555664
1788654149194318800,17.66331884765625,-156.99900817871094,-15.358000755310059,82.677001953125
1788654149210270700,17.679270751953126,-157.21800231933594,-16.55000114440918,81.64800262451172
1788654149226361900,17.69536181640625,-154.69801330566406,-16.248001098632812,80.5270004272461
1788654149242410800,17.71141064453125,-158.92601013183594,-16.01300048828125,81.55400085449219
1788654149258576100,17.727576171875,-157.7580108642578,-16.339000701904297,81.34500122070312
1788654149274651600,17.743651611328126,-158.7320098876953,-16.02400016784668,80.73800659179688
1788654149290617000,17.7596171875,-156.56900024414062,-16.869001388549805,81.95000457763672
1788654149306651000,17.77565087890625,-157.04901123046875,-16.03700065612793,80.02300262451172
1788654149322713000,17.791713134765626,-155.12400817871094,-16.0310001373291,80.63200378417969
1788654149338883800,17.8078837890625,-155.73800659179688,-17.854000091552734,80.51500701904297
1788654149354970000,17.82397021484375,-154.4580078125,-17.312000274658203,81.1290054321289
1788654149370916000,17.839916015625,-154.89500427246094,-16.562000274658203,81.03400421142578
1788654149386946300,17.8559462890625,-157.96701049804688,-18.282001495361328,80.31000518798828
1788654149403008800,17.8720087890625,-158.6370086669922,-17.00400161743164,79.60900115966797
1788654149419188000,17.88818798828125,-156.3830108642578,-18.61400032043457,79.69400024414062
1788654149435231700,17.904231689453123,-157.15200805664062,-17.439001083374023,79.29800415039062
1788654149451182600,17.9201826171875,-156.7080078125,-17.96900177001953,79.802001953125
1788654149467242800,17.93624267578125,-156.35101318359375,-18.270000457763672,81.3270034790039
1788654149483263000,17.952262939453124,-157.677001953125,-16.679000854492188,80.01800537109375
1788654149499403500,17.968403564453126,-158.4180145263672,-17,79.91400146484375
1788654149515460000,17.984460205078125,-157.70901489257812,-17.131000518798828,78.2820053100586
1788654149531406600,18.000406494140623,-156.17601013183594,-17.753000259399414,80.00700378417969
1788654149547474000,18.016473876953125,-158.72100830078125,-17.638999938964844,80.21500396728516
1788654149563495000,18.032494873046875,-157.12200927734375,-18.93400001525879,79.69200134277344
1788654149579648300,18.048648193359377,-154.88800048828125,-18.071001052856445,80.41000366210938
1788654149595697700,18.06469775390625,-154.65501403808594,-18.05900001525879,81.32600402832031
1788654149611643600,18.0806435546875,-155.7830047607422,-17.233001708984375,78.89000701904297
1788654149627718000,18.0967177734375,-157.3470001220703,-18.834001541137695,79.18400573730469
1788654149643730000,18.11272998046875,-157.8830108642578,-16.45800018310547,80.4280014038086
1788654149659885000,18.128885009765625,-156.47401428222656,-17.740001678466797,80.92400360107422
1788654149675932700,18.1449326171875,-155.3310089111328,-18.08100128173828,79.59500122070312
1788654149691893200,18.160893310546875,-158.04901123046875,-18.159000396728516,81.4320068359375
1788654149707931400,18.176931396484374,-155.76100158691406,-17.21900177001953,79.90900421142578
1788654149723950300,18.192950439453124,-159.27700805664062,-17.977001190185547,78.88800048828125
1788654149740120600,18.20912060546875,-157.7670135498047,-16.885000228881836,80.62800598144531
1788654149756175000,18.225175048828124,-158.75201416015625,-18.197999954223633,78.4780044555664
1788654149772143600,18.2411435546875,-157.22500610351562,-17.96000099182129,80.41400146484375
1788654149788199400,18.257199462890625,-157.19601440429688,-18.266000747680664,81.531005859375
1788654149804216600,18.273216552734375,-157.13600158691406,-17.75400161743164,79.80400085449219
1788654149820397300,18.289397216796875,-155.84300231933594,-18.933000564575195,79.89400482177734
1788654149836428500,18.305428466796876,-156.51800537109375,-18.3070011138916,78.57600402832031
1788654149852381200,18.321381103515623,-156.59100341796875,-17.422000885009766,80.62100219726562
1788654149868433400,18.337433349609373,-155.84800720214844,-17.42300033569336,80.62000274658203
1788654149884450800,18.353450927734375,-154.87400817871094,-18.27800178527832,80.91700744628906
1788654149900607700,18.369607666015625,-158.36700439453125,-18.05000114440918,81.53500366210938
1788654149916647000,18.38564697265625,-156.79901123046875,-18.06800079345703,80.41200256347656
1788654149932615200,18.401615234375,-157.41000366210938,-18.159000396728516,81.53300476074219
1788654149948674800,18.4176748046875,-157.00100708007812,-16.332000732421875,81.95600128173828
1788654149964708900,18.433708984375,-158.15301513671875,-18.48200035095215,81.3270034790039
1788654149980859000,18.44985888671875,-158.27500915527344,-18.38300132751465,80.71700286865234
1788654149996921900,18.465921875,-157.54200744628906,-17.418001174926758,80.82600402832031
1788654150012862200,18.4818623046875,-156.75601196289062,-18.582000732421875,82.03700256347656
1788654150028925000,18.497925048828126,-158.57501220703125,-18.047000885009766,81.73900604248047
1788654150044966400,18.51396630859375,-155.82200622558594,-17.84000015258789,81.53300476074219
1788654150061117400,18.530117431640626,-154.74600219726562,-18.049001693725586,82.04000091552734
1788654150077182000,18.546181884765623,-156.6890106201172,-17.849000930786133,80.72000122070312
1788654150093131800,18.5621318359375,-157.3000030517578,-17.292001724243164,82.25300598144531
1788654150109207800,18.578207763671877,-156.3610076904297,-16.87200164794922,81.74600219726562
1788654150125254700,18.594254638671874,-157.50900268554688,-18.479000091552734,81.63200378417969
1788654150141424600,18.610424560546875,-156.90200805664062,-17.525001525878906,80.9260025024414
1788654150157505500,18.626505615234375,-156.0050048828125,-17.82200050354004,82.85800170898438
1788654150173467000,18.642466796875,-156.8660125732422,-16.963001251220703,82.86700439453125
1788654150189505000,18.658505126953123,-156.2270050048828,-17.935001373291016,82.34800720214844
1788654150205557000,18.674556884765625,-156.12100219726562,-18.584001541137695,81.93500518798828
1788654150221731800,18.69073193359375,-157.00601196289062,-16.659000396728516,81.54500579833984
1788654150237823000,18.706822998046874,-157.42201232910156,-16.652999877929688,81.9530029296875
1788654150253784300,18.722784423828124,-157.3870086669922,-18.361000061035156,82.44800567626953
1788654150269835300,18.738835205078125,-156.77301025390625,-18.48400115966797,81.32500457763672
1788654150293919700,18.762919677734374,-154.44200134277344,-16.32900047302246,82.46200561523438
1788654150310015000,18.779014892578125,-155.6070098876953,-18.163000106811523,81.4280014038086
1788654150326084900,18.7950849609375,-157.02000427246094,-16.12700080871582,81.24400329589844
1788654150342211800,18.8112119140625,-157.18301391601562,-17.07000160217285,82.86600494384766
1788654150358309400,18.827309326171875,-156.87400817871094,-17.724000930786133,82.04500579833984
1788654150374250000,18.84325,-155.09300231933594,-17.742000579833984,80.92200469970703
1788654150390302700,18.859302734375,-158.44801330566406,-18.035001754760742,82.656005859375
1788654150406330000,18.875330078125,-158.08401489257812,-17.100000381469727,80.52400207519531
1788654150422474000,18.891473876953125,-157.41600036621094,-17.73000144958496,81.53600311279297
1788654150438529800,18.90752978515625,-154.50201416015625,-17.55500030517578,78.98800659179688
1788654150454490400,18.923490478515625,-155.62701416015625,-18.067001342773438,80.61400604248047
1788654150470556200,18.93955615234375,-156.26901245117188,-17.85300064086914,80.51500701904297
1788654150486581800,18.955581787109374,-155.3040008544922,-18.388999938964844,80.61100006103516
1788654150502725000,18.97172509765625,-154.92001342773438,-17.55000114440918,79.29400634765625
1788654150518776300,18.9877763671875,-155.52200317382812,-17.636001586914062,80.82200622558594
1788654150534729000,19.00372900390625,-155.1020050048828,-16.450000762939453,81.34100341796875
1788654150550760700,19.0197607421875,-155.12600708007812,-16.572999954223633,80.21900177001953
1788654150566804700,19.0358046875,-155.2760009765625,-17.291000366210938,82.5560073852539
1788654150582961000,19.0519609375,-155.23500061035156,-16.6820011138916,80.01500701904297
1788654150598987300,19.0679873046875,-154.4840087890625,-17.54400062561035,79.8030014038086
1788654150614951700,19.08395166015625,-154.6840057373047,-16.780000686645508,80.8280029296875
1788654150630989300,19.0999892578125,-156.25,-17.409000396728516,81.64000701904297
1788654150647027700,19.11602783203125,-157.10800170898438,-17.953001022338867,80.92300415039062
1788654150663145200,19.132145263671877,-156.79901123046875,-17.41900062561035,80.82500457763672
1788654150679185000,19.148184814453124,-156.5760040283203,-18.71000099182129,80.50800323486328
1788654150695148500,19.1641484375,-155.41200256347656,-18.06599998474121,80.71600341796875
1788654150711210800,19.180210693359374,-154.8780059814453,-17.957000732421875,80.92000579833984
1788654150727272400,19.1962724609375,-155.63400268554688,-17.5310001373291,80.61900329589844
1788654150743400000,19.21239990234375,-157.1510009765625,-17.979000091552734,78.98700714111328
1788654150759436000,19.22843603515625,-156.94000244140625,-18.19700050354004,78.781005859375
1788654150775411000,19.244410888671876,-154.6890106201172,-18.404001235961914,79.59200286865234
1788654150791456300,19.260456298828124,-155.7410125732422,-19.801000595092773,79.17300415039062
1788654150807506200,19.276506103515626,-154.3830108642578,-18.628000259399414,78.87600708007812
1788654150823632600,19.292632568359377,-155.94601440429688,-19.148000717163086,79.89200592041016
1788654150839681500,19.308681640625,-156.09100341796875,-18.522001266479492,78.57400512695312
1788654150855617300,19.3246171875,-154.92201232910156,-17.227001190185547,79.39900207519531
1788654150871672800,19.3406728515625,-154.34800720214844,-19.363000869750977,79.99000549316406
1788654150887745000,19.3567451171875,-154.90501403808594,-18.62200164794922,79.28400421142578
1788654150903885000,19.372885009765625,-154.8070068359375,-18.519001007080078,78.97900390625
1788654150919938000,19.38893798828125,-152.9090118408203,-18.421001434326172,78.46900177001953
1788654150935874800,19.404874755859375,-155.85400390625,-18.61600112915039,79.59100341796875
1788654150951939300,19.420939208984375,-152.99501037597656,-17.760000228881836,79.79900360107422
1788654150967966700,19.436966796875,-153.19801330566406,-19.052000045776367,79.3800048828125
1788654150984108000,19.45310791015625,-154.864013671875,-19.461000442504883,80.60100555419922
1788654151000168700,19.469168701171874,-156.26800537109375,-19.58100128173828,79.48100280761719
1788654151016121600,19.48512158203125,-155.2150115966797,-18.61600112915039,79.69200134277344
1788654151032187100,19.501187255859374,-154.43800354003906,-19.893001556396484,80.39300537109375
1788654151048227800,19.517227783203126,-157.4840087890625,-18.420000076293945,78.06700134277344
1788654151064379000,19.53337890625,-154.69601440429688,-19.056001663208008,78.87300109863281
1788654151080450800,19.549450927734377,-154.5830078125,-19.37700080871582,78.97200012207031
1788654151096415700,19.565415771484375,-155.6400146484375,-18.075000762939453,80.00300598144531
1788654151112497000,19.581496826171875,-155.8300018310547,-20.007001876831055,79.78300476074219
1788654151128544300,19.597544189453124,-155.10301208496094,-18.3960018157959,80.10100555419922
1788654151144648700,19.613648681640626,-154.84201049804688,-20.205001831054688,81.10400390625
1788654151160731000,19.62973095703125,-154.66900634765625,-19.040000915527344,80.09500122070312
1788654151176703200,19.645703125,-154.43600463867188,-19.892000198364258,80.49500274658203
1788654151192769000,19.66176904296875,-156.60000610351562,-19.913000106811523,78.66400146484375
1788654151208802300,19.67780224609375,-155.22500610351562,-18.73000144958496,79.1820068359375
1788654151224919800,19.693919921875,-154.85800170898438,-20.75400161743164,80.08000183105469
1788654151240985300,19.7099853515625,-154.8820037841797,-20.121000289916992,79.37300109863281
1788654151256957000,19.72595703125,-154.7580108642578,-21.731000900268555,79.1550064086914
1788654151273028900,19.74202880859375,-155.62901306152344,-19.58100128173828,79.58200073242188
1788654151289067000,19.75806689453125,-154.6630096435547,-19.793001174926758,79.88500213623047
1788654151305190100,19.774190185546875,-153.74301147460938,-18.843000411987305,78.87300109863281
1788654151321221400,19.790221435546876,-155.69700622558594,-21.179000854492188,80.281005859375
1788654151337161500,19.806161376953124,-153.3990020751953,-19.69300079345703,79.47700500488281
1788654151353217300,19.82221728515625,-154.33900451660156,-19.6820011138916,80.19100189208984
1788654151369240800,19.83824072265625,-155.10800170898438,-18.506999969482422,79.79500579833984
1788654151385389000,19.85438916015625,-155.4340057373047,-19.268001556396484,78.97400665283203
1788654151401436400,19.8704365234375,-154.85800170898438,-21.07900047302246,79.8740005493164
1788654151417387800,19.8863876953125,-154.6800079345703,-19.69500160217285,79.17300415039062
1788654151433435400,19.902435302734375,-153.17601013183594,-19.147001266479492,80.29600524902344
1788654151449468400,19.918468505859376,-154.44700622558594,-19.25,80.39900207519531
1788654151465613800,19.93461376953125,-153.3780059814453,-19.464000701904297,80.59900665283203
1788654151481656600,19.950656494140624,-152.94400024414062,-20.10700035095215,80.59300231933594
1788654151497615400,19.966615478515624,-153.63600158691406,-19.275001525878906,78.66600036621094
1788654151513659000,19.982658935546876,-153.36801147460938,-19.025001525878906,81.31600189208984
1788654151529692700,19.998692626953126,-154.97601318359375,-19.35700035095215,80.39800262451172
1788654151545799200,20.014799072265625,-152.4080047607422,-19.67300033569336,81.1050033569336
1788654151561842400,20.030842529296876,-154.5850067138672,-18.621000289916992,79.38600158691406
1788654151577813000,20.04681298828125,-152.43800354003906,-19.259000778198242,79.98900604248047
1788654151593863000,20.06286279296875,-152.76800537109375,-19.481000900268555,79.37600708007812
1788654151609907500,20.078907470703125,-153.1790008544922,-18.82400131225586,80.4010009765625
1788654151626020400,20.095020263671874,-153.83401489257812,-17.96900177001953,80.10400390625
1788654151642062300,20.111062255859373,-155.30801391601562,-19.256000518798828,79.89000701904297
1788654151658033700,20.12703369140625,-153.5240020751953,-19.380001068115234,78.86800384521484
1788654151674076700,20.14307666015625,-154.16600036621094,-18.19300079345703,79.38900756835938
1788654151690139600,20.1591396484375,-155.41900634765625,-19.367000579833984,79.5840072631836
1788654151706254600,20.175254638671873,-153.32101440429688,-18.5210018157959,78.9780044555664
1788654151722299600,20.191299560546874,-155.41000366210938,-18.713001251220703,80.4050064086914
1788654151738229500,20.2072294921875,-153.81600952148438,-18.498001098632812,80.60800170898438
1788654151754277400,20.22327734375,-154.04100036621094,-18.398000717163086,80.10000610351562
1788654151770298600,20.239298583984375,-153.19300842285156,-18.940000534057617,79.68700408935547
1788654151786429700,20.2554296875,-153.61000061035156,-19.69099998474121,79.5790023803711
1788654151802482200,20.271482177734374,-154.16000366210938,-19.270000457763672,78.97200012207031
1788654151818425300,20.28742529296875,-155.5290069580078,-19.58500099182129,79.2770004272461
1788654151834483200,20.303483154296874,-152.7670135498047,-18.50800132751465,79.99600219726562
1788654151850504400,20.31950439453125,-154.2410125732422,-19.1460018157959,80.19600677490234
1788654151866639600,20.3356396484375,-153.75201416015625,-19.713001251220703,77.94900512695312
1788654151882708500,20.35170849609375,-152.56900024414062,-18.517000198364258,79.38400268554688
1788654151898673400,20.36767333984375,-153.5290069580078,-19.815000534057617,78.3550033569336
1788654151914733000,20.383733154296873,-153.8560028076172,-18.41400146484375,78.87700653076172
1788654151930760400,20.399760498046874,-152.5780029296875,-18.955001831054688,78.66700744628906
1788654151946897700,20.415897705078127,-152.65701293945312,-19.479000091552734,79.5790023803711
1788654151962962200,20.431962158203124,-152.37901306152344,-19.179000854492188,77.9520034790039
1788654151978917000,20.447917236328124,-152.56900024414062,-19.490001678466797,78.76399993896484
1788654151994983200,20.463983154296876,-153.00601196289062,-19.929000854492188,77.94600677490234
1788654152011017500,20.480017578125,-152.59100341796875,-20.152000427246094,77.33200073242188
1788654152027125000,20.496125,-153.41700744628906,-20.244001388549805,78.35100555419922
1788654152043198200,20.5121982421875,-153.3260040283203,-19.929000854492188,77.84500122070312
