time,seconds_elapsed,z,y,x
1788654131659929900,0.128929931640625,1.0150001049041748,-18.119001388549805,-12.770000457763672
1788654131676173600,0.145173583984375,-5.266000270843506,-23.827001571655273,-7.617000579833984
1788654131692233000,0.16123291015625,-5.897000312805176,-22.742000579833984,-6.690000534057617
1788654131708305000,0.177304931640625,-7.609000205993652,-22.314001083374023,-6.990000247955322
1788654131724280000,0.193280029296875,-6.13800048828125,-22.326000213623047,-7.705000400543213
1788654131740341200,0.20934130859375,-6.342000484466553,-23.293001174926758,-7.9170002937316895
1788654131756339700,0.225339599609375,-6.0360002517700195,-23.19300079345703,-8.426000595092773
1788654131772411400,0.241411376953125,-7.50100040435791,-22.746000289916992,-7.197000503540039
1788654131788483600,0.257483642578125,-7.413000583648682,-23.08100128173828,-8.219000816345215
1788654131804463600,0.273463623046875,-6.988000392913818,-24.595001220703125,-9.15000057220459
1788654131820491500,0.289491455078125,-7.607000350952148,-23.286001205444336,-7.508000373840332
1788654131836511000,0.305510986328125,-6.789000511169434,-22.334001541137695,-8.315000534057617
1788654131852544800,0.321544677734375,-7.514000415802002,-21.99700164794922,-7.293000221252441
1788654131868623000,0.337623046875,-7.847000598907471,-22.113000869750977,-8.006000518798828
1788654131884613400,0.35361328125,-5.404000282287598,-22.009000778198242,-7.907000541687012
1788654131900651300,0.3696513671875,-7.434000492095947,-20.9320011138916,-7.793000221252441
1788654131916650500,0.385650390625,-4.883000373840332,-21.908000946044922,-8.314000129699707
1788654131932689400,0.401689453125,-7.635000228881836,-21.898000717163086,-7.903000354766846
1788654131948766700,0.4177666015625,-8.096000671386719,-21.2710018157959,-9.119000434875488
1788654131964761000,0.433760986328125,-6.767000198364258,-22.104001998901367,-7.193000316619873
1788654131988874200,0.457874267578125,-6.679000377655029,-20.927000045776367,-7.284000396728516
1788654132004849400,0.473849365234375,-8.508000373840332,-20.722000122070312,-8.197000503540039
1788654132020899300,0.4898994140625,-7.641000270843506,-22.11800193786621,-8.312000274658203
1788654132036958700,0.505958740234375,-4.884000301361084,-21.36800193786621,-8.004000663757324
1788654132069113900,0.53811376953125,-6.169000148773193,-21.264001846313477,-8.407999992370605
1788654132085106400,0.5541064453125,-6.493000507354736,-20.18600082397461,-7.991000175476074
1788654132101169200,0.570169189453125,-5.51800012588501,-20.608001708984375,-7.385000228881836
1788654132117180400,0.586180419921875,-6.2310004234313965,-20.80500030517578,-6.163000106811523
1788654132133236500,0.602236572265625,-7.732000350952148,-22.21700096130371,-7.702000141143799
1788654132149334800,0.618334716796875,-4.963000297546387,-22.000001907348633,-7.194000244140625
1788654132165332000,0.63433203125,-6.2900004386901855,-19.328001022338867,-7.88200044631958
1788654132181395000,0.65039501953125,-5.067000389099121,-22.863000869750977,-7.609000205993652
1788654132197418200,0.666418212890625,-4.985000133514404,-19.41900062561035,-6.560000419616699
1788654132213435100,0.68243505859375,-6.694000244140625,-20.828001022338867,-7.895000457763672
1788654132229541000,0.698541015625,-6.469000339508057,-21.253000259399414,-7.593000411987305
1788654132245543700,0.714543701171875,-7.323000431060791,-20.2810001373291,-7.176000118255615
1788654132261615000,0.730614990234375,-4.997000217437744,-19.85900115966797,-7.379000186920166
1788654132277645600,0.7466455078125,-7.892000198364258,-19.979000091552734,-8.701000213623047
1788654132293666600,0.76266650390625,-7.011000156402588,-20.934001922607422,-7.895000457763672
1788654132309787400,0.778787353515625,-5.520000457763672,-20.934001922607422,-7.693000316619873
1788654132325749800,0.794749755859375,-5.810000419616699,-21.889001846313477,-6.988000392913818
1788654132341836300,0.810836181640625,-7.910000324249268,-19.34200096130371,-9.10200023651123
1788654132357878500,0.82687841796875,-6.875000476837158,-22.10500144958496,-7.294000148773193
1788654132373912000,0.842912109375,-4.909000396728516,-19.546001434326172,-7.987000465393066
1788654132389986000,0.858986083984375,-6.479000091552734,-19.205001831054688,-6.760000228881836
1788654132405943300,0.874943359375,-7.153000354766846,-19.875,-8.802000045776367
1788654132421980000,0.89097998046875,-4.769000053405762,-21.038000106811523,-7.390000343322754
1788654132437983700,0.906983642578125,-5.5410003662109375,-19.75800132751465,-7.887000560760498
1788654132454036700,0.92303662109375,-5.958000183105469,-20.617000579833984,-8.097000122070312
1788654132470114600,0.939114501953125,-5.841000080108643,-18.98900032043457,-6.555000305175781
1788654132486098200,0.95509814453125,-6.613000392913818,-19.979000091552734,-8.498000144958496
1788654132502136800,0.97113671875,-5.617000102996826,-20.280000686645508,-6.872000217437744
1788654132518156800,0.98715673828125,-7.151000499725342,-18.361000061035156,-7.770000457763672
1788654132534216000,1.0032158203125,-5.678000450134277,-17.83100128173828,-8.072999954223633
1788654132550290400,1.01929052734375,-3.7960002422332764,-20.922000885009766,-6.575000286102295
1788654132566271500,1.035271484375,-6.9120001792907715,-19.317001342773438,-7.168000221252441
1788654132582310700,1.051310546875,-6.778000354766846,-20.814001083374023,-6.87600040435791
1788654132598337000,1.0673369140625,-6.183000087738037,-20.408000946044922,-8.503000259399414
1788654132614351400,1.083351318359375,-5.196000099182129,-20.499000549316406,-7.181000232696533
1788654132630428700,1.0994287109375,-7.022000312805176,-19.32000160217285,-7.372000217437744
1788654132646434800,1.115434814453125,-5.772000312805176,-19.553001403808594,-8.598000526428223
1788654132662480400,1.13148046875,-5.62600040435791,-20.610000610351562,-7.487000465393066
1788654132678517000,1.14751708984375,-4.3520002365112305,-19.639001846313477,-6.868000507354736
1788654132694534400,1.163534423828125,-5.089000225067139,-20.282001495361328,-6.975000381469727
1788654132710611200,1.179611083984375,-4.7330002784729,-20.476001739501953,-5.449000358581543
1788654132726613500,1.195613525390625,-4.442000389099121,-20.16900062561035,-6.465000152587891
1788654132742652200,1.211652099609375,-4.561000347137451,-19.529001235961914,-6.663000106811523
1788654132758687000,1.22768701171875,-5.584000110626221,-20.692001342773438,-5.654000282287598
1788654132774716400,1.24371630859375,-3.5900001525878906,-19.845001220703125,-6.158000469207764
1788654132790792000,1.2597919921875,-5.808000087738037,-20.05000114440918,-5.750000476837158
1788654132806754800,1.2757548828125,-5.504000186920166,-19.303001403808594,-5.947000503540039
1788654132822795000,1.291794921875,-3.7340002059936523,-18.571001052856445,-7.063000202178955
1788654132838843000,1.3078427734375,-6.044000148773193,-20.2810001373291,-6.974000453948975
1788654132862899000,1.33189892578125,-6.154000282287598,-18.878000259399414,-6.248000144958496
1788654132878906600,1.34790673828125,-4.261000156402588,-17.703001022338867,-6.342000484466553
1788654132894944300,1.3639443359375,-4.869000434875488,-18.981000900268555,-5.843000411987305
1788654132911023900,1.38002392578125,-4.4079999923706055,-19.025001525878906,-9.00200080871582
1788654132927025700,1.396025634765625,-4.651000022888184,-19.410001754760742,-5.8470001220703125
1788654132943076400,1.412076416015625,-3.8450002670288086,-17.385000228881836,-6.544000148773193
1788654132959082800,1.428082763671875,-5.334000110626221,-18.681001663208008,-7.470000267028809
1788654132975134000,1.444134033203125,-5.636000156402588,-18.562000274658203,-6.654000282287598
1788654132991231000,1.46023095703125,-7.216000556945801,-19.849000930786133,-6.867000102996826
1788654133007191800,1.47619189453125,-4.442000389099121,-20.602001190185547,-6.775000095367432
1788654133023257300,1.49225732421875,-4.017000198364258,-19.306001663208008,-5.949000358581543
1788654133039289600,1.50828955078125,-4.98900032043457,-20.286001205444336,-7.281000137329102
1788654133055370800,1.524370849609375,-4.659000396728516,-21.144001007080078,-7.289000511169434
1788654133071472000,1.54047216796875,-4.019000053405762,-20.171001434326172,-6.568000316619873
1788654133087448000,1.556447998046875,-4.87000036239624,-21.035001754760742,-7.186000347137451
1788654133103516700,1.5725166015625,-6.561000347137451,-21.46000099182129,-7.085000514984131
1788654133119545900,1.5885458984375,-5.908000469207764,-23.28900146484375,-7.510000228881836
1788654133135618600,1.60461865234375,-7.087000370025635,-21.02400016784668,-6.572000503540039
1788654133151729700,1.620729736328125,-5.174000263214111,-20.161001205444336,-5.955000400543213
1788654133167716900,1.636716796875,-5.295000076293945,-20.386001586914062,-6.772000312805176
1788654133183779300,1.652779296875,-5.810000419616699,-21.349000930786133,-6.678000450134277
1788654133199828000,1.668827880859375,-5.701000213623047,-20.59000015258789,-6.060000419616699
1788654133215901200,1.684901123046875,-4.225000381469727,-20.815000534057617,-6.675000190734863
1788654133232025600,1.701025634765625,-5.806000232696533,-20.69700050354004,-6.061000347137451
1788654133248019700,1.717019775390625,-3.1650002002716064,-20.170000076293945,-6.365000247955322
1788654133264055800,1.733055908203125,-4.244000434875488,-21.043001174926758,-7.696000576019287
1788654133280099000,1.74909912109375,-2.8650002479553223,-20.505001068115234,-7.387000560760498
1788654133296138500,1.765138427734375,-5.715000152587891,-21.0310001373291,-6.9810004234313965
1788654133312265200,1.78126513671875,-6.440000534057617,-20.371000289916992,-5.752000331878662
1788654133328269800,1.797269775390625,-3.1600000858306885,-20.38300132751465,-6.265000343322754
1788654133344323000,1.813322998046875,-5.7210001945495605,-20.60300064086914,-6.9770002365112305
1788654133360328400,1.829328369140625,-5.192000389099121,-19.84800148010254,-6.564000129699707
1788654133376388000,1.84538818359375,-6.841000556945801,-21.112001419067383,-5.146000385284424
1788654133392473900,1.861473876953125,-3.0380001068115234,-21.34600067138672,-6.172000408172607
1788654133408450600,1.877450439453125,-4.433000087738037,-20.59600067138672,-6.367000102996826
1788654133424514300,1.893514404296875,-3.374000072479248,-19.735000610351562,-5.954000473022461
1788654133440521200,1.909521240234375,-6.045000076293945,-20.065000534057617,-6.87000036239624
1788654133456592400,1.92559228515625,-4.334000110626221,-20.2760009765625,-6.467000484466553
1788654133472681500,1.941681396484375,-5.8460001945495605,-20.073001861572266,-7.482000350952148
1788654133488666000,1.957666015625,-3.6750001907348633,-20.04800033569336,-5.345000267028809
1788654133504740000,1.973739990234375,-6.314000129699707,-21.007001876831055,-5.248000144958496
1788654133520747000,1.9897470703125,-3.5180001258850098,-19.001001358032227,-7.169000148773193
1788654133536819700,2.00581982421875,-4.586000442504883,-18.895000457763672,-7.371000289916992
1788654133552907800,2.02190771484375,-2.88700008392334,-19.546001434326172,-7.7860002517700195
1788654133568883000,2.037883056640625,-4.136000156402588,-18.23200035095215,-5.838000297546387
1788654133584910600,2.05391064453125,-5.392000198364258,-20.056001663208008,-6.158000469207764
1788654133600929500,2.069929443359375,-5.646000385284424,-19.001001358032227,-7.37000036239624
1788654133617011000,2.086010986328125,-5.808000087738037,-21.996000289916992,-6.98900032043457
1788654133633097500,2.102097412109375,-5.311000347137451,-19.856000900268555,-7.175000190734863
1788654133649087700,2.118087646484375,-4.019000053405762,-20.4950008392334,-6.77400016784668
1788654133665129700,2.134129638671875,-4.796000003814697,-19.86600112915039,-7.88800048828125
1788654133681150700,2.150150634765625,-5.589000225067139,-20.046001434326172,-5.444000244140625
1788654133697255200,2.166255126953125,-3.9220001697540283,-20.501001358032227,-7.182000160217285
1788654133713345300,2.18234521484375,-5.3460001945495605,-18.68800163269043,-7.979000568389893
1788654133729352700,2.198352783203125,-6.061000347137451,-18.562000274658203,-6.653000354766846
1788654133745402000,2.214402099609375,-6.696000099182129,-20.505001068115234,-7.7900004386901855
1788654133761411000,2.2304111328125,-5.029000282287598,-18.690000534057617,-8.082000732421875
1788654133777459700,2.246459716796875,-6.039000511169434,-18.981000900268555,-5.944000244140625
1788654133793547800,2.2625478515625,-7.517000198364258,-19.297000885009766,-5.741000175476074
1788654133809554400,2.278554443359375,-6.508000373840332,-18.575000762939453,-7.6710004806518555
1788654133825612800,2.29461279296875,-5.133000373840332,-18.580001831054688,-7.877000331878662
1788654133841623600,2.31062353515625,-5.159000396728516,-18.487001419067383,-8.996000289916992
1788654133857686000,2.32668603515625,-5.875000476837158,-19.658000946044922,-8.496000289916992
1788654133873778200,2.342778076171875,-6.299000263214111,-18.685001373291016,-7.87600040435791
1788654133889742000,2.3587421875,-5.255000114440918,-18.697999954223633,-8.693000793457031
1788654133905803000,2.374802978515625,-6.092000484466553,-17.5,-7.357000350952148
1788654133921821700,2.39082177734375,-5.208000183105469,-18.020000457763672,-6.140000343322754
1788654133937889300,2.40688916015625,-6.51200008392334,-17.82000160217285,-7.359000205993652
1788654133953994200,2.422994140625,-5.738000392913818,-18.235000610351562,-6.243000507354736
1788654133969968400,2.438968505859375,-5.355000019073486,-18.369001388549805,-8.180000305175781
1788654133986043100,2.455043212890625,-5.124000072479248,-18.034000396728516,-7.159000396728516
1788654134002071300,2.4710712890625,-5.965000152587891,-17.487001419067383,-6.440000534057617
1788654134018147000,2.48714697265625,-5.676000118255615,-18.154001235961914,-8.178000450134277
1788654134034260700,2.5032607421875,-7.25100040435791,-18.46500015258789,-7.567000389099121
1788654134050243300,2.519243408203125,-7.118000507354736,-19.422000885009766,-6.965000152587891
1788654134066272000,2.53527197265625,-6.533000469207764,-18.80500030517578,-8.896000862121582
1788654134082311000,2.551310791015625,-8,-17.387001037597656,-7.14900016784668
1788654134098391800,2.567391845703125,-6.312000274658203,-18.260000228881836,-8.178000450134277
1788654134114507300,2.58350732421875,-8.65000057220459,-17.93400001525879,-8.070000648498535
1788654134130491100,2.5994912109375,-5.37000036239624,-17.082000732421875,-8.067000389099121
1788654134146531600,2.615531494140625,-5.879000186920166,-17.067001342773438,-7.047000408172607
1788654134162577000,2.631576904296875,-7.806000232696533,-18.371000289916992,-8.585000038146973
1788654134178662400,2.647662353515625,-8.013999938964844,-17.828001022338867,-8.070000648498535
1788654134194787600,2.66378759765625,-5.573000431060791,-16.751001358032227,-7.453000545501709
1788654134210787600,2.67978759765625,-6.829000473022461,-17.60300064086914,-7.153000354766846
1788654134226835700,2.695835693359375,-6.193000316619873,-18.685001373291016,-7.87600040435791
1788654134242904600,2.711904541015625,-7.265000343322754,-19.55500030517578,-8.901000022888184
1788654134258956000,2.7279560546875,-6.0960001945495605,-18.69099998474121,-8.284000396728516
1788654134275047400,2.74404736328125,-6.929000377655029,-18.8960018157959,-7.673000335693359
1788654134291025200,2.760025146484375,-8.183000564575195,-18.341001510620117,-6.445000171661377
1788654134307086300,2.77608642578125,-6.938000202178955,-18.9010009765625,-8.081000328063965
1788654134323093800,2.79209375,-6.7220001220703125,-18.791000366210938,-7.877000331878662
1788654134339154700,2.80815478515625,-6.055000305175781,-19.639001846313477,-7.070000171661377
1788654134355244500,2.82424462890625,-8.612000465393066,-20.505001068115234,-7.991000175476074
1788654134371224800,2.840224853515625,-8.61400032043457,-19.209001541137695,-7.267000198364258
1788654134387283700,2.85628369140625,-5.656000137329102,-18.790000915527344,-7.674000263214111
1788654134403288800,2.872288818359375,-7.335000514984131,-19.20800018310547,-7.065000534057617
1788654134419351600,2.8883515625,-6.814000129699707,-19.863000869750977,-7.886000156402588
1788654134435433700,2.904433837890625,-7.034000396728516,-19.111000061035156,-7.777000427246094
1788654134451408400,2.920408447265625,-7.317000389099121,-20.71000099182129,-7.180000305175781
1788654134467481900,2.93648193359375,-9.135000228881836,-19.09400177001953,-6.756000518798828
1788654134483496000,2.952495849609375,-6.575000286102295,-20.604000091552734,-7.180000305175781
1788654134499570200,2.968570068359375,-6.25700044631958,-19.740001678466797,-6.663000106811523
1788654134515679200,2.98467919921875,-7.315000534057617,-22.330001831054688,-8.111000061035156
1788654134531653600,3.000653564453125,-8.825000762939453,-21.261001586914062,-8.506999969482422
1788654134547721200,3.01672119140625,-6.397000312805176,-20.94900131225586,-8.914999961853027
1788654134563733200,3.032733154296875,-7.003000259399414,-21.038000106811523,-7.590000152587891
1788654134579814100,3.048814208984375,-7.753000259399414,-20.392000198364258,-7.482000350952148
1788654134595898600,3.064898681640625,-6.682000160217285,-20.38800048828125,-7.076000213623047
1788654134611884300,3.08088427734375,-8.230999946594238,-21.87200164794922,-6.068000316619873
1788654134627940900,3.09694091796875,-8.795000076293945,-20.81100082397461,-6.873000144958496
1788654134643951400,3.112951416015625,-7.1080002784729,-19.632001876831055,-6.6610002517700195
1788654134660001800,3.129001708984375,-8.271000862121582,-20.816001892089844,-7.179000377655029
1788654134676086500,3.14508642578125,-7.228000164031982,-21.58500099182129,-8.51200008392334
1788654134692092400,3.161092529296875,-7.094000339508057,-22.001001358032227,-7.497000217437744
1788654134708137200,3.17713720703125,-7.615000247955322,-21.237001419067383,-6.573000431060791
1788654134724158200,3.193158203125,-7.423000335693359,-21.683000564575195,-7.799000263214111
1788654134740206800,3.209206787109375,-8.461000442504883,-21.77400016784668,-6.78000020980835
1788654134756294700,3.225294677734375,-8.463000297546387,-21.7760009765625,-6.88200044631958
1788654134772300000,3.241300048828125,-9.72800064086914,-21.660001754760742,-6.37000036239624
1788654134788350500,3.2573505859375,-7.616000175476074,-21.45400047302246,-6.778000354766846
1788654134804370200,3.2733701171875,-8.717000007629395,-20.28700065612793,-7.785000324249268
1788654134820428500,3.289428466796875,-10.375000953674316,-21.881000518798828,-6.982000350952148
1788654134836524500,3.305524658203125,-8.806000709533691,-21.033000946044922,-7.4860005378723145
1788654134852487700,3.32148779296875,-9.118000030517578,-21.677001953125,-7.593000411987305
1788654134868554000,3.337553955078125,-8.702000617980957,-20.386001586914062,-7.175000190734863
1788654134884573200,3.3535732421875,-8.464000701904297,-21.560001373291016,-6.778000354766846
1788654134900639700,3.3696396484375,-7.624000549316406,-22.540000915527344,-7.807000160217285
1788654134916743400,3.385743408203125,-7.335000514984131,-21.909000396728516,-8.718000411987305
1788654134932718800,3.40171875,-9.15000057220459,-19.85900115966797,-7.883000373840332
1788654134948796200,3.417796142578125,-7.8520002365112305,-21.036001205444336,-7.589000225067139
1788654134964827100,3.4338271484375,-8.692000389099121,-22.218000411987305,-7.904000282287598
1788654134980910600,3.44991064453125,-7.931000232696533,-21.560001373291016,-6.677000522613525
1788654134997029000,3.466029052734375,-10.378000259399414,-22.207000732421875,-7.2910003662109375
1788654135013015800,3.482015869140625,-10.608000755310059,-21.2450008392334,-7.4860005378723145
1788654135029048800,3.498048828125,-9.056000709533691,-20.408000946044922,-8.805000305175781
1788654135045087000,3.5140869140625,-9.782000541687012,-22.341001510620117,-9.22800064086914
1788654135061174800,3.5301748046875,-10.18600082397461,-21.0310001373291,-7.484000205993652
1788654135077300700,3.54630078125,-10.920000076293945,-21.889001846313477,-7.593000411987305
1788654135093298200,3.562298095703125,-8.520000457763672,-21.48600196838379,-9.222000122070312
1788654135109317600,3.578317626953125,-10.20300006866455,-19.852001190185547,-7.474000453948975
1788654135125367300,3.5943671875,-8.946000099182129,-20.08100128173828,-8.394000053405762
1788654135141441300,3.610441162109375,-9.8100004196167,-19.6560001373291,-8.797000885009766
1788654135157576000,3.626575927734375,-10.22800064086914,-20.624000549316406,-9.111000061035156
1788654135173560300,3.642560302734375,-7.381000518798828,-19.884000778198242,-9.515000343322754
1788654135189603000,3.65860302734375,-9.498000144958496,-19.87700080871582,-9.207000732421875
1788654135205662000,3.674661865234375,-8.383000373840332,-21.575000762939453,-7.89900016784668
1788654135221711400,3.69071142578125,-10.859000205993652,-20.295000076293945,-8.598000526428223
1788654135237798700,3.706798583984375,-7.554000377655029,-21.049001693725586,-8.506999969482422
1788654135253756200,3.722756103515625,-9.270000457763672,-19.652000427246094,-8.390000343322754
1788654135269812000,3.73881201171875,-11.41100025177002,-20.19900131225586,-9.51300048828125
1788654135285829000,3.7548291015625,-10.869000434875488,-20.19300079345703,-9.004000663757324
1788654135301886200,3.77088623046875,-11.131000518798828,-19.57400131225586,-10.832000732421875
1788654135317974300,3.786974365234375,-10.359000205993652,-18.045000076293945,-8.57800006866455
1788654135333937400,3.8029375,-10.679000854492188,-20.5310001373291,-10.230000495910645
1788654135349995300,3.818995361328125,-9.270000457763672,-20.84000015258789,-9.11400032043457
1788654135366001200,3.835001220703125,-10.296000480651855,-18.50400161743164,-10.824000358581543
1788654135382069000,3.851069091796875,-10.518000602722168,-21.255001068115234,-8.199000358581543
1788654135398159400,3.867159423828125,-10.25100040435791,-19.44900131225586,-9.406000137329102
1788654135414135800,3.8831357421875,-9.071000099182129,-19.227001190185547,-8.692000389099121
1788654135430228700,3.899228759765625,-8.766000747680664,-19.236000061035156,-9.304000854492188
1788654135446235600,3.915235595703125,-9.379000663757324,-19.761001586914062,-8.595000267028809
1788654135462310400,3.931310302734375,-9.409000396728516,-19.56300163269043,-9.815000534057617
1788654135478397200,3.947397216796875,-9.279000282287598,-19.873001098632812,-8.902000427246094
1788654135494387200,3.96338720703125,-9.386000633239746,-20.09000015258789,-9.107000350952148
1788654135510436000,3.97943603515625,-9.184000015258789,-18.367000579833984,-8.480999946594238
1788654135526454300,3.995454345703125,-8.37700080871582,-17.422000885009766,-9.79800033569336
1788654135542546400,4.01154638671875,-10.664000511169434,-18.685001373291016,-8.380000114440918
1788654135558632400,4.027632568359375,-7.931000232696533,-17.19300079345703,-8.676000595092773
1788654135574622000,4.0436220703125,-9.809000015258789,-18.89900016784668,-8.281000137329102
1788654135590664000,4.059663818359375,-7.043000221252441,-17.82000160217285,-7.3580002784729
1788654135606672100,4.075672119140625,-10.211000442504883,-19.749000549316406,-7.779000282287598
1788654135622722800,4.091722900390625,-8.333000183105469,-19.124000549316406,-8.896000862121582
1788654135638811600,4.107811767578125,-9.292000770568848,-19.5570011138916,-9.306000709533691
1788654135654824000,4.123823974609375,-7.367000579833984,-17.71500015258789,-7.561000347137451
1788654135670876700,4.139876708984375,-7.600000381469727,-19.02400016784668,-9.304000854492188
1788654135686888700,4.155888671875,-8.230999946594238,-18.046001434326172,-8.37700080871582
1788654135702954000,4.1719541015625,-7.78000020980835,-20.084001541137695,-8.498000144958496
1788654135719044600,4.188044677734375,-8.84000015258789,-20.08100128173828,-8.395000457763672
1788654135735013000,4.20401318359375,-8.28600025177002,-21.041000366210938,-7.996000289916992
1788654135751081000,4.2200810546875,-5.9730000495910645,-20.518001556396484,-8.708000183105469
1788654135767097600,4.23609765625,-10.245000839233398,-19.770000457763672,-9.307000160217285
1788654135783163400,4.252163330078125,-7.898000240325928,-21.064001083374023,-9.62700080871582
1788654135799263000,4.268262939453125,-8.654000282287598,-19.77400016784668,-9.41100025177002
1788654135815236000,4.284236083984375,-7.136000156402588,-21.918001174926758,-9.330000877380371
1788654135831280600,4.30028076171875,-7.913000583648682,-20.42500114440918,-9.927000045776367
1788654135847337700,4.316337646484375,-8.098000526428223,-21.59600067138672,-9.428000450134277
1788654135863403000,4.332403076171875,-7.674000263214111,-22.57000160217285,-10.04800033569336
1788654135879504400,4.34850439453125,-6.439000129699707,-19.894001007080078,-10.128000259399414
1788654135895467500,4.364467529296875,-8.951000213623047,-21.381000518798828,-9.425000190734863
1788654135911523800,4.38052392578125,-7.4720001220703125,-21.82000160217285,-10.042000770568848
1788654135927541800,4.396541748046875,-6.754000186920166,-20.323001861572266,-10.233000755310059
1788654135943612200,4.412612060546875,-8.556000709533691,-21.183000564575195,-10.646000862121582
1788654135959719200,4.42871923828125,-7.802000522613525,-22.475000381469727,-10.964000701904297
1788654135975697000,4.44469677734375,-7.9160003662109375,-22.047000885009766,-11.062000274658203
1788654135991730400,4.46073046875,-7.300000190734863,-21.845001220703125,-11.87600040435791
1788654136007771000,4.47677099609375,-6.645000457763672,-22.159000396728516,-11.268000602722168
1788654136023841500,4.492841552734375,-3.6580002307891846,-22.48000144958496,-10.867000579833984
1788654136039956500,4.50895654296875,-7.6010003089904785,-21.61800193786621,-10.956000328063965
1788654136055945500,4.524945556640625,-6.88800048828125,-21.097000122070312,-11.971000671386719
1788654136071980300,4.540980224609375,-6.437000274658203,-21.838001251220703,-11.265000343322754
1788654136088038000,4.557037841796875,-7.841000556945801,-20.121000289916992,-11.248000144958496
1788654136104080100,4.573080078125,-8.170000076293945,-20.992000579833984,-12.27400016784668
1788654136120213200,4.589213134765625,-7.217000484466553,-20.994001388549805,-12.378000259399414
1788654136136178000,4.605177978515625,-3.703000068664551,-20.886001586914062,-11.872000694274902
1788654136152227000,4.62122705078125,-5.603000164031982,-20.876001358032227,-11.360000610351562
1788654136168280000,4.637280029296875,-4.443000316619873,-21.748001098632812,-12.28600025177002
1788654136184333300,4.653333251953125,-6.442000389099121,-23.46200180053711,-12.50200080871582
1788654136200413200,4.6694130859375,-6.031000137329102,-20.44500160217285,-11.254000663757324
1788654136216374800,4.685374755859375,-5.514000415802002,-22.076000213623047,-12.89900016784668
1788654136232433400,4.701433349609375,-4.5970001220703125,-20.155000686645508,-13.392000198364258
1788654136248440600,4.717440673828125,-5.295000076293945,-23.045001983642578,-13.213000297546387
1788654136264501800,4.733501708984375,-5.217000484466553,-22.19700050354004,-13.919000625610352
1788654136280590300,4.74959033203125,-5.633000373840332,-20.678001403808594,-12.580000877380371
1788654136296563700,4.765563720703125,-5.699000358581543,-20.762001037597656,-10.849000930786133
1788654136312637000,4.781636962890625,-2.875000238418579,-21.117000579833984,-12.995000839233398
1788654136328649200,4.797649169921875,-6.053000450134277,-21.648000717163086,-12.996000289916992
1788654136344724700,4.813724853515625,-4.490000247955322,-21.668001174926758,-14.322000503540039
1788654136360816400,4.82981640625,-5.298000335693359,-23.155000686645508,-13.418000221252441
1788654136376798200,4.845798095703125,-6.690000534057617,-21.538000106811523,-12.892000198364258
1788654136392850400,4.861850341796875,-5.320000171661377,-23.384000778198242,-14.540000915527344
1788654136408858600,4.877858642578125,-4.236000061035156,-23.04800033569336,-13.316000938415527
1788654136424937500,4.8939375,-3.5310001373291016,-21.775001525878906,-14.223000526428223
1788654136441033000,4.910032958984375,-4.8470001220703125,-20.718000411987305,-15.434000968933105
1788654136457022000,4.92602197265625,-3.306000232696533,-22.200000762939453,-13.921000480651855
1788654136473060900,4.942060791015625,-6.714000225067139,-22.742000579833984,-14.737000465393066
1788654136489071000,4.958071044921875,-5.056000232696533,-20.9320011138916,-15.43600082397461
1788654136505159400,4.974159423828125,-4.845000267028809,-21.365001678466797,-15.745000839233398
1788654136521247500,4.99024755859375,-4.427000045776367,-21.154001235961914,-15.94800090789795
1788654136537226200,5.006226318359375,-3.8590002059936523,-21.564001083374023,-14.5260009765625
1788654136553251000,5.0222509765625,-3.869000196456909,-20.381000518798828,-14.210000991821289
1788654136569252400,5.03825244140625,-5.892000198364258,-19.625,-13.997000694274902
1788654136585287000,5.054286865234375,-5.574000358581543,-19.086000442504883,-13.687000274658203
1788654136601369000,5.070369140625,-2.50600004196167,-21.367000579833984,-15.647000312805176
1788654136617358800,5.08635888671875,-5.344000339508057,-21.345001220703125,-14.318000793457031
1788654136633403400,5.1024033203125,-3.561000108718872,-21.362001419067383,-15.340001106262207
1788654136649409800,5.118409912109375,-2.7870001792907715,-21.34400177001953,-13.914000511169434
1788654136665464800,5.13446484375,-4.091000080108643,-20.604000091552734,-14.82300090789795
1788654136681554700,5.1505546875,-4.651000022888184,-20.18800163269043,-15.837000846862793
1788654136697520600,5.166520751953125,-4.091000080108643,-20.819000244140625,-14.927000999450684
1788654136713580300,5.182580322265625,-3.9860002994537354,-21.577001571655273,-15.443000793457031
1788654136729610800,5.19861083984375,-4.206000328063965,-21.14900016784668,-15.541000366210938
1788654136745672400,5.21467236328125,-5.0320000648498535,-22.538002014160156,-15.348000526428223
1788654136761775600,5.230775634765625,-3.436000108718872,-20.918001174926758,-14.215001106262207
1788654136777745400,5.246745361328125,-4.2910003662109375,-21.352001190185547,-14.72700023651123
1788654136793812200,5.262812255859375,-5.793000221252441,-20.711000442504883,-15.02500057220459
1788654136809841200,5.278841064453125,-2.617000102996826,-20.397001266479492,-15.230000495910645
1788654136825911000,5.2949111328125,-4.584000110626221,-21.552001953125,-13.710000991821289
1788654136842087200,5.311087158203125,-3.454000234603882,-19.95600128173828,-14.410000801086426
1788654136858021400,5.327021484375,-3.5470001697540283,-20.921001434326172,-14.419000625610352
1788654136874103300,5.343103271484375,-3.116000175476074,-21.566001892089844,-14.527000427246094
1788654136890139100,5.35913916015625,-4.378000259399414,-21.772001266479492,-14.120000839233398
1788654136906221600,5.3752216796875,-3.9160001277923584,-19.113000869750977,-15.523000717163086
1788654136922343200,5.39134326171875,-2.5880000591278076,-21.02800178527832,-14.319000244140625
1788654136938336500,5.40733642578125,-3.6740002632141113,-20.393001556396484,-15.02500057220459
1788654136954377700,5.423377685546875,-3.8510000705718994,-20.803001403808594,-13.704000473022461
1788654136970422000,5.439422119140625,-5.656000137329102,-20.476001739501953,-13.495000839233398
1788654136986512400,5.455512451171875,-2.88700008392334,-20.259000778198242,-12.988000869750977
1788654137002635300,5.47163525390625,-4.076000213623047,-19.4060001373291,-13.386000633239746
1788654137018628600,5.487628662109375,-1.097000002861023,-20.812000274658203,-14.01400089263916
1788654137034667300,5.503667236328125,-4.729000091552734,-20.06300163269043,-14.512001037597656
1788654137050719200,5.51971923828125,-2.3570001125335693,-19.720001220703125,-12.678000450134277
1788654137066763300,5.53576318359375,-4.354000091552734,-20.677000045776367,-12.378000259399414
1788654137082889500,5.551889404296875,-3.072000026702881,-20.45800018310547,-11.869000434875488
1788654137098891500,5.5678916015625,-3.7340002059936523,-21.44500160217285,-13.608000755310059
1788654137114939600,5.583939697265625,-3.820000171661377,-20.56800079345703,-12.17400074005127
1788654137130944000,5.599944091796875,-4.861000061035156,-21.74300193786621,-11.980000495910645
1788654137146999300,5.615999267578125,-3.9610002040863037,-20.913000106811523,-13.909000396728516
1788654137163088000,5.632087890625,-2.330000162124634,-21.541000366210938,-12.592000961303711
1788654137179055900,5.648055908203125,-3.1630001068115234,-22.178001403808594,-12.291000366210938
1788654137195135200,5.66413525390625,-4.630000114440918,-21.948001861572266,-11.269001007080078
1788654137211135200,5.68013525390625,-6.044000148773193,-20.885000228881836,-12.072000503540039
1788654137227171600,5.696171630859375,-4.636000156402588,-21.19500160217285,-11.058000564575195
1788654137243255800,5.712255859375,-2.8470001220703125,-21.207000732421875,-11.77400016784668
1788654137259218400,5.728218505859375,-3.9000000953674316,-21.63300132751465,-11.67400074005127
1788654137275280400,5.7442802734375,-3.6570000648498535,-22.911001205444336,-11.075000762939453
1788654137291288800,5.760288818359375,-3.3350002765655518,-21.505001068115234,-10.044000625610352
1788654137307344400,5.776344482421875,-3.004000186920166,-22.363000869750977,-10.052000045776367
1788654137323426000,5.792426025390625,-3.559000253677368,-22.48400115966797,-11.17300033569336
1788654137339404800,5.80840478515625,-2.8310000896453857,-21.84600067138672,-11.474000930786133
1788654137355438800,5.82443896484375,-4.322000026702881,-20.874000549316406,-11.056000709533691
1788654137371456000,5.8404560546875,-4.078000068664551,-22.801000595092773,-10.869000434875488
1788654137387534300,5.856534423828125,-3.758000135421753,-22.80000114440918,-10.768000602722168
1788654137403620600,5.87262060546875,-3.7380001544952393,-23.545001983642578,-10.367000579833984
1788654137419609900,5.88860986328125,-4.685000419616699,-23.213001251220703,-9.75200080871582
1788654137435637800,5.9046376953125,-3.4230000972747803,-23.33100128173828,-10.366000175476074
1788654137451655400,5.920655517578125,-5.413000106811523,-23.96000099182129,-9.554000854492188
1788654137467750100,5.936750244140625,-5.121000289916992,-23.86800193786621,-10.67400074005127
1788654137483837000,5.9528369140625,-2.9900002479553223,-22.895000457763672,-9.75100040435791
1788654137499839200,5.968839111328125,-3.8330001831054688,-24.510000228881836,-10.47700023651123
1788654137515888000,5.98488818359375,-3.2920000553131104,-23.316001892089844,-9.245000839233398
1788654137531895600,6.0008955078125,-3.0900001525878906,-24.512001037597656,-10.47800064086914
1788654137547989200,6.0169892578125,-2.7960002422332764,-23.554000854492188,-10.980000495910645
1788654137564077300,6.033077392578125,-1.90500009059906,-23.09800148010254,-8.838000297546387
1788654137580082000,6.04908203125,-4.156000137329102,-22.567001342773438,-9.440999984741211
1788654137596140500,6.065140625,-4.443000316619873,-24.817001342773438,-9.461000442504883
1788654137612153900,6.08115380859375,-5.121000289916992,-23.220001220703125,-10.261000633239746
1788654137628204000,6.0972041015625,-3.6180002689361572,-22.780000686645508,-9.24000072479248
1788654137644295700,6.113295654296875,-2.1410000324249268,-22.356000900268555,-9.442000389099121
1788654137660255000,6.1292548828125,-4.674000263214111,-22.34200096130371,-8.725000381469727
1788654137676309500,6.1453095703125,-5.2960004806518555,-23.30500030517578,-8.631000518798828
1788654137692320000,6.161320068359375,-3.5270001888275146,-22.46500015258789,-9.747000694274902
1788654137708403700,6.17740380859375,-3.0870001316070557,-22.240001678466797,-8.930000305175781
1788654137724507000,6.1935068359375,-3.1590001583099365,-22.760000228881836,-7.712000370025635
1788654137740481800,6.209481689453125,-4.354000091552734,-22.77400016784668,-8.933000564575195
1788654137756551000,6.225551025390625,-5.225000381469727,-20.733001708984375,-8.609000205993652
1788654137772566000,6.24156591796875,-3.753000259399414,-22.14900016784668,-10.151000022888184
1788654137788640000,6.257639892578125,-3.2920000553131104,-22.12700080871582,-8.522000312805176
1788654137804747800,6.273747802734375,-4.678000450134277,-22.56100082397461,-9.032999992370605
1788654137820724700,6.289724853515625,-4.6570000648498535,-22.224000930786133,-7.909000396728516
1788654137836755200,6.305755126953125,-4.702000141143799,-20.84600067138672,-9.018000602722168
1788654137852784000,6.3217841796875,-5.127000331878662,-22.142000198364258,-9.844000816345215
1788654137868872400,6.33787255859375,-3.9110002517700195,-23.413002014160156,-8.532000541687012
1788654137884990500,6.353990478515625,-3.82200026512146,-22.558000564575195,-8.72800064086914
1788654137900981800,6.369981689453125,-5.13200044631958,-20.632001876831055,-9.117000579833984
1788654137917010000,6.386010009765625,-3.302000045776367,-20.944000244140625,-8.206000328063965
1788654137933043200,6.402043212890625,-4.2820000648498535,-19.33700180053711,-8.292000770568848
1788654137949111000,6.418111083984375,-6.323000431060791,-18.591001510620117,-8.894000053405762
1788654137965229300,6.434229248046875,-4.491000175476074,-20.19900131225586,-8.707000732421875
1788654137981203500,6.450203369140625,-5.338000297546387,-19.87200164794922,-8.397000312805176
1788654137997232600,6.466232666015625,-4.921000003814697,-20.201000213623047,-8.910000801086426
1788654138013284600,6.48228466796875,-3.5280001163482666,-21.06100082397461,-8.919000625610352
1788654138029319000,6.49831884765625,-5.5420002937316895,-19.6510009765625,-7.886000156402588
1788654138045454300,6.514454345703125,-4.0370001792907715,-20.398000717163086,-7.487000465393066
1788654138061454000,6.5304541015625,-5.244000434875488,-20.52800178527832,-9.320000648498535
1788654138077515300,6.546515380859375,-6.2870001792907715,-19.218000411987305,-7.677000522613525
1788654138093522700,6.562522705078125,-5.577000141143799,-18.158000946044922,-8.484000205993652
1788654138109575400,6.578575439453125,-6.720000267028809,-20.411001205444336,-8.808000564575195
1788654138125662000,6.594661865234375,-3.752000093460083,-19.87900161743164,-8.705000877380371
1788654138141622800,6.610622802734375,-5.436000347137451,-20.51500129699707,-8.403000831604004
1788654138157684000,6.62668408203125,-6.6110005378723145,-19.32900047302246,-7.9830002784729
1788654138173698000,6.642697998046875,-4.809000015258789,-19.442001342773438,-8.190000534057617
1788654138189762000,6.658761962890625,-6.636000156402588,-18.69500160217285,-8.690999984741211
1788654138205851600,6.6748515625,-5.551000118255615,-19.87200164794922,-8.397000312805176
1788654138221825300,6.6908251953125,-5.802000045776367,-17.08500099182129,-8.372000694274902
1788654138237920000,6.706919921875,-5.559000492095947,-17.9320011138916,-7.565000534057617
1788654138253930800,6.7229306640625,-5.660000324249268,-17.82000160217285,-7.258000373840332
1788654138270002000,6.739001953125,-4.077000141143799,-18.477001190185547,-8.081000328063965
1788654138286092500,6.755092529296875,-5.682000160217285,-18.374000549316406,-8.587000846862793
1788654138302082800,6.771082763671875,-5.454000473022461,-17.06800079345703,-7.048000335693359
1788654138318164200,6.787164306640625,-5.385000228881836,-17.847000122070312,-9.194000244140625
1788654138334173400,6.80317333984375,-4.5,-17.071001052856445,-7.151000499725342
1788654138350255000,6.819255126953125,-3.8570001125335693,-16.203001022338867,-6.329000473022461
1788654138366343700,6.83534375,-4.798000335693359,-17.59800148010254,-6.544000148773193
1788654138382338300,6.85133837890625,-4.593000411987305,-18.575000762939453,-7.470000267028809
1788654138398378200,6.867378173828125,-4.071000099182129,-17.608001708984375,-7.258000373840332
1788654138414386000,6.883385986328125,-5.23900032043457,-17.60700035095215,-7.25700044631958
1788654138430433500,6.89943359375,-5.335000038146973,-18.141000747680664,-7.160000324249268
1788654138446524700,6.915524658203125,-6.424000263214111,-16.21000099182129,-7.141000270843506
1788654138462526700,6.931526611328125,-5.297000408172607,-17.253000259399414,-4.9110002517700195
1788654138478565000,6.947565185546875,-5.2270002365112305,-17.600000381469727,-6.747000217437744
1788654138494573600,6.963573486328125,-5.211000442504883,-17.806001663208008,-6.13800048828125
1788654138510623200,6.979623291015625,-4.785000324249268,-17.91400146484375,-6.140000343322754
1788654138526738400,6.995738525390625,-3.306000232696533,-18.35300064086914,-6.756000518798828
1788654138542751000,7.0117509765625,-3.636000156402588,-18.468000411987305,-7.368000507354736
1788654138558809000,7.02780908203125,-5.990000247955322,-17.827001571655273,-7.767000198364258
1788654138574834400,7.04383447265625,-4.278000354766846,-17.17300033569336,-6.74500036239624
1788654138590906400,7.05990625,-4.154000282287598,-18.243000030517578,-6.653000354766846
1788654138607001900,7.076001953125,-4.767000198364258,-19.200000762939453,-6.151000499725342
1788654138622967600,7.091967529296875,-1.7290000915527344,-18.474000930786133,-7.574000358581543
1788654138639029500,7.108029541015625,-5.642000198364258,-17.80900001525879,-6.443000316619873
1788654138655052300,7.12405224609375,-4.144999980926514,-18.238000869750977,-6.24500036239624
1788654138671096300,7.140096435546875,-2.3510000705718994,-18.24700164794922,-6.75700044631958
1788654138687195400,7.1561953125,-2.751000165939331,-18.880001068115234,-6.049000263214111
1788654138703201300,7.172201171875,-3.500000238418579,-18.990001678466797,-6.354000091552734
1788654138719253500,7.18825341796875,-3.2080001831054688,-17.386001586914062,-6.544000148773193
1788654138735291100,7.204291015625,-3.934000253677368,-18.779001235961914,-6.658000469207764
1788654138751368200,7.2203681640625,-2.757000207901001,-18.667001724243164,-6.14900016784668
1788654138767487200,7.2364873046875,-4.966000080108643,-19.624000549316406,-5.849000453948975
1788654138783459800,7.2524599609375,-1.1420000791549683,-19.62900161743164,-5.752000331878662
1788654138799489300,7.2684892578125,-3.6700000762939453,-20.261001586914062,-5.24500036239624
1788654138815531500,7.284531494140625,-5.134000301361084,-22.191001892089844,-5.464000225067139
1788654138831607800,7.30060791015625,-2.7380001544952393,-20.16900062561035,-6.264000415802002
1788654138847727000,7.31672705078125,-4.312000274658203,-20.696001052856445,-5.75700044631958
1788654138863713800,7.3327138671875,-3.4210002422332764,-21.104000091552734,-4.131999969482422
1788654138879750100,7.348750244140625,-3.2210001945495605,-21.00400161743164,-4.641000270843506
1788654138895791900,7.3647919921875,-2.0510001182556152,-21.65300178527832,-4.954000473022461
1788654138911869400,7.380869384765625,-4.50100040435791,-20.897001266479492,-4.8420000076293945
1788654138927993000,7.3969931640625,-3.444000244140625,-20.577001571655273,-4.840000152587891
1788654138943984400,7.412984375,-3.3350002765655518,-20.143001556396484,-4.429000377655029
1788654138960028200,7.429028076171875,-2.7070000171661377,-20.79800033569336,-5.25100040435791
1788654138976091400,7.44509130859375,-3.312000274658203,-22.075000762939453,-4.650000095367432
1788654138992132900,7.4611328125,-2.326000213623047,-21.84200096130371,-3.121000051498413
1788654139008267000,7.47726708984375,-1.218000054359436,-20.799001693725586,-5.151000022888184
1788654139024237800,7.49323779296875,-2.3610000610351562,-22.080001831054688,-4.855000019073486
1788654139040292400,7.509292236328125,-1.183000087738037,-22.507001876831055,-4.6570000648498535
1788654139056303600,7.5253037109375,-2.7940001487731934,-20.679000854492188,-4.333000183105469
1788654139072364500,7.541364501953125,-2.5470001697540283,-22.171001434326172,-3.7350001335144043
1788654139088450600,7.557450439453125,-3.0310001373291016,-20.69300079345703,-5.453000068664551
1788654139104422700,7.573422607421875,-2.013000011444092,-20.76500129699707,-2.705000162124634
1788654139120494000,7.589494140625,-2.7110002040863037,-19.828001022338867,-4.835000038146973
1788654139136500200,7.605500244140625,-1.5120000839233398,-20.784000396728516,-4.03000020980835
1788654139152573000,7.621572998046875,-3.9700002670288086,-21.11400032043457,-4.946000099182129
1788654139176633600,7.645633544921875,-3.2380001544952393,-20.25800132751465,-4.940000057220459
1788654139200740600,7.66974072265625,-3.94100022315979,-21.85300064086914,-4.138000011444092
1788654139216754200,7.685754150390625,-3.0270001888275146,-20.36600112915039,-5.043000221252441
1788654139232842800,7.7018427734375,-3.2140002250671387,-22.18800163269043,-5.059000015258789
1788654139248936000,7.71793603515625,-4.9670000076293945,-20.273000717163086,-6.26200008392334
1788654139264932000,7.73393212890625,-1.196000099182129,-21.543001174926758,-4.648000240325928
1788654139280970800,7.749970703125,-5.684000492095947,-20.796001434326172,-5.451000213623047
1788654139296979000,7.76597900390625,-2.949000120162964,-20.2760009765625,-6.265000343322754
1788654139313065200,7.782065185546875,-4.11899995803833,-20.600000381469727,-6.572000503540039
1788654139329151200,7.798151123046875,-2.380000114440918,-21.875001907348633,-5.566000461578369
1788654139345144300,7.814144287109375,-3.1460001468658447,-21.56300163269043,-6.378000259399414
1788654139361190700,7.830190673828125,-4.401000022888184,-21.657001495361328,-5.562000274658203
1788654139377201200,7.846201171875,-3.8970000743865967,-21.0260009765625,-6.372000217437744
1788654139393239300,7.8622392578125,-3.808000087738037,-20.604000091552734,-6.878000259399414
1788654139409330200,7.878330078125,-3.555000066757202,-19.716001510620117,-4.527000427246094
1788654139425320000,7.89431982421875,-3.683000087738037,-20.485000610351562,-5.960000514984131
1788654139441351700,7.9103515625,-3.2920000553131104,-19.858001708984375,-7.075000286102295
1788654139457363700,7.92636376953125,-3.7780001163482666,-21.126001358032227,-5.86400032043457
1788654139473405400,7.942405517578125,-3.6100001335144043,-20.506000518798828,-7.488000392913818
1788654139489497300,7.958497314453125,-2.1019999980926514,-21.251001358032227,-6.987000465393066
1788654139505493800,7.97449365234375,-5.080000400543213,-20.06100082397461,-6.464000225067139
1788654139521544700,7.990544677734375,-5.285000324249268,-20.59600067138672,-6.468000411987305
1788654139537555200,8.00655517578125,-4.988000392913818,-21.36600112915039,-7.901000499725342
1788654139553606400,8.0226064453125,-3.7060000896453857,-20.931001663208008,-7.288000583648682
1788654139569700900,8.038700927734375,-5.418000221252441,-18.99100112915039,-6.658000469207764
1788654139585715500,8.054715576171875,-6.473000526428223,-20.283000946044922,-7.177000522613525
1788654139601772300,8.070772216796875,-4.150000095367432,-19.862001419067383,-7.482000350952148
1788654139617796900,8.086796875,-4.384000301361084,-19.442001342773438,-8.190999984741211
1788654139633855000,8.10285498046875,-6.674000263214111,-19.843000411987305,-6.3580002784729
1788654139649964500,8.118964599609376,-4.38700008392334,-19.876001358032227,-8.60200023651123
1788654139665939200,8.134939208984376,-5.552000045776367,-18.468000411987305,-7.570000171661377
1788654139682023200,8.151023193359375,-6.183000087738037,-19.760000228881836,-8.09000015258789
1788654139698059800,8.167059814453125,-5.9760003089904785,-19.006999969482422,-7.879000186920166
1788654139714131200,8.183131103515626,-4.465000152587891,-19.319000244140625,-6.967000484466553
1788654139730248000,8.199248046875,-5.577000141143799,-17.94300079345703,-8.380000114440918
1788654139746233900,8.21523388671875,-5.4170002937316895,-19.42300033569336,-6.865000247955322
1788654139762263600,8.231263671875,-4.398000240325928,-18.911001205444336,-8.492000579833984
1788654139778297000,8.247297119140624,-4.578999996185303,-19.86400032043457,-7.685000419616699
1788654139794385200,8.26338525390625,-4.288000106811523,-18.692001342773438,-8.184000015258789
1788654139810506800,8.2795068359375,-3.6550002098083496,-19.7760009765625,-9.010000228881836
1788654139826497800,8.295497802734374,-5.027000427246094,-19.22800064086914,-8.289999961853027
1788654139842539000,8.3115390625,-4.190000057220459,-18.157001495361328,-8.180000305175781
1788654139858612500,8.327612548828125,-5.0370001792907715,-19.451000213623047,-8.903000831604004
1788654139874663000,8.343662841796874,-2.138000011444092,-18.788000106811523,-7.067000389099121
1788654139890789000,8.3597890625,-3.7130000591278076,-20.611000061035156,-7.387000560760498
1788654139906799000,8.375799072265625,-4.800000190734863,-19.43600082397461,-7.783000469207764
1788654139922850800,8.391850830078125,-4.789000034332275,-19.214000701904297,-7.1700005531311035
1788654139938907100,8.4079072265625,-4.368000030517578,-19.757001876831055,-7.684000492095947
1788654139954961200,8.423961181640625,-4.172000408172607,-19.767000198364258,-8.398000717163086
1788654139971052000,8.440052001953125,-3.2910001277923584,-20.722000122070312,-7.592000484466553
1788654139987018500,8.4560185546875,-5.201000213623047,-19.85300064086914,-6.9710001945495605
1788654140003081500,8.47208154296875,-4.578999996185303,-19.86400032043457,-7.685000419616699
1788654140019087600,8.488087646484376,-4.4730000495910645,-20.18800163269043,-7.892000198364258
1788654140035148000,8.50414794921875,-3.702000141143799,-20.064001083374023,-6.567000389099121
1788654140051233800,8.52023388671875,-4.5320000648498535,-22.321001052856445,-7.0960001945495605
1788654140067204000,8.5362041015625,-3.703000068664551,-20.49700164794922,-6.877000331878662
1788654140083276000,8.552276123046875,-4.75600004196167,-20.814001083374023,-6.675000190734863
1788654140107331600,8.57633154296875,-4.644000053405762,-22.216001510620117,-7.298000335693359
1788654140123380200,8.592380126953126,-3.6680002212524414,-21.5570011138916,-5.969000339508057
1788654140139434500,8.6084345703125,-3.4770002365112305,-21.786001205444336,-7.092000484466553
1788654140155477000,8.62447705078125,-3.1660001277923584,-22.115001678466797,-7.6050004959106445
1788654140171560000,8.640559814453125,-4.11400032043457,-21.785001754760742,-7.091000556945801
1788654140187547000,8.656546875,-2.620000123977661,-22.648000717163086,-7.305000305175781
1788654140203587600,8.672587646484375,-2.617000102996826,-21.889001846313477,-6.687000274658203
1788654140219606500,8.6886064453125,-3.31000018119812,-23.911001205444336,-5.685000419616699
1788654140235667000,8.7046669921875,-3.3370001316070557,-22.73900032043457,-6.184000492095947
1788654140251742500,8.720742431640625,-1.503000020980835,-24.885000228881836,-6.205000400543213
1788654140267739600,8.73673974609375,-2.2680001258850098,-24.141000747680664,-6.707000255584717
1788654140283776800,8.75277685546875,-4.821000099182129,-22.951000213623047,-6.184000492095947
1788654140299809500,8.7688095703125,-3.30400013923645,-24.340002059936523,-5.689000129699707
1788654140315838000,8.784837890625,-3.3000001907348633,-24.770000457763672,-5.794000148773193
1788654140331917600,8.80091748046875,-3.073000192642212,-25.84200096130371,-5.804000377655029
1788654140347925000,8.816925048828125,-2.203000068664551,-25.1820011138916,-4.475000381469727
1788654140363964000,8.8329638671875,-2.4580001831054688,-25.424001693725586,-6.514000415802002
1788654140380001800,8.849001708984375,-2.8370001316070557,-25.720001220703125,-4.683000087738037
1788654140396031200,8.86503125,-3.117000102996826,-25.00400161743164,-7.223000526428223
1788654140412112100,8.881112060546876,-3.516000270843506,-24.55500030517578,-5.7920002937316895
1788654140428079000,8.8970791015625,-3.489000082015991,-25.511001586914062,-5.190000057220459
1788654140444135400,8.913135498046875,-3.500000238418579,-25.518001556396484,-5.699000358581543
1788654140460190500,8.9291904296875,-1.287000060081482,-24.99100112915039,-6.1050004959106445
1788654140476235800,8.94523583984375,-4.9810004234313965,-25.729001998901367,-5.5970001220703125
1788654140492322600,8.961322509765624,-4.384000301361084,-24.349000930786133,-6.502000331878662
1788654140508293400,8.97729345703125,-3.9050002098083496,-25.290000915527344,-4.678000450134277
1788654140524345000,8.993344970703125,-2.431000232696533,-26.056001663208008,-5.705000400543213
1788654140540360200,9.009360107421875,-4.990000247955322,-25.086000442504883,-5.591000080108643
1788654140556418300,9.025418212890624,-3.2840001583099365,-24.976001739501953,-5.185000419616699
1788654140572512000,9.041511962890626,-0.9480000734329224,-24.764001846313477,-5.084000110626221
1788654140588494000,9.057494140625,-2.885000228881836,-24.23600196838379,-5.892000198364258
1788654140604561700,9.073561767578125,-1.6010000705718994,-24.66400146484375,-5.694000244140625
1788654140620591000,9.089591064453124,-4.344000339508057,-25.08100128173828,-5.185000419616699
1788654140636654800,9.10565478515625,-1.4910000562667847,-25.203001022338867,-5.902000427246094
1788654140652762400,9.121762451171875,-3.3930001258850098,-25.73400115966797,-5.803000450134277
1788654140668756200,9.137756103515626,-2.870000123977661,-25.308000564575195,-5.902000427246094
1788654140684828400,9.153828369140625,-2.949000120162964,-26.155000686645508,-5.196000099182129
1788654140700866300,9.1698662109375,-4.843000411987305,-26.250001907348633,-4.4810004234313965
1788654140716895000,9.18589501953125,-3.8970000743865967,-26.041000366210938,-4.7860002517700195
1788654140733006300,9.20200634765625,-2.876000165939331,-25.527000427246094,-6.311000347137451
1788654140749008400,9.21800830078125,-2.6670000553131104,-26.610000610351562,-7.136000156402588
1788654140765099800,9.234099853515625,-4.473999977111816,-25.852001190185547,-6.719000339508057
1788654140781148400,9.2501484375,-2.6410000324249268,-25.406002044677734,-5.190000057220459
1788654140797181200,9.26618115234375,-2.317000150680542,-26.59200096130371,-5.710000038146973
1788654140813305300,9.282305419921874,-3.329000234603882,-25.652000427246094,-7.636000156402588
1788654140829312000,9.29831201171875,-2.879000186920166,-25.31300163269043,-6.309000492095947
1788654140845406000,9.314406005859375,-2.6570000648498535,-26.71200180053711,-6.729000091552734
1788654140861461800,9.330461669921876,-3.938000202178955,-26.39000129699707,-6.827000141143799
1788654140877511700,9.34651171875,-3.0920002460479736,-25.961000442504883,-6.7220001220703125
1788654140893594400,9.362594482421875,-3.7190001010894775,-26.171001434326172,-6.418000221252441
1788654140909564200,9.378564208984375,-3.0290000438690186,-25.663002014160156,-8.451000213623047
1788654140925585400,9.39458544921875,-4.817000389099121,-25.86600112915039,-7.840000152587891
1788654140941627000,9.410626953125,-3.6620001792907715,-25.119001388549805,-7.936000347137451
1788654140957688800,9.426688720703124,-3.2230000495910645,-24.139001846313477,-6.706000328063965
1788654140973772300,9.442772216796875,-4.394999980926514,-25.32900047302246,-7.63200044631958
1788654140989754400,9.45875439453125,-5.545000076293945,-25.316001892089844,-6.815000534057617
1788654141005792000,9.4747919921875,-2.0300002098083496,-26.612001419067383,-7.137000560760498
1788654141021807600,9.4908076171875,-2.43500018119812,-26.599000930786133,-6.219000339508057
1788654141037869600,9.50686962890625,-3.114000082015991,-26.191001892089844,-7.845000267028809
1788654141053952500,9.522952392578125,-3.8350002765655518,-26.60900115966797,-7.134000301361084
1788654141069950200,9.5389501953125,-2.1620001792907715,-25.43800163269043,-7.534000396728516
1788654141085995300,9.554995361328125,-2.4820001125335693,-26.303001403808594,-8.152000427246094
1788654141102019800,9.571019775390624,-3.9670002460479736,-26.408000946044922,-8.151000022888184
1788654141118090200,9.58709033203125,-3.114000082015991,-25.542001724243164,-7.431000232696533
1788654141134175500,9.603175537109376,-3.1120002269744873,-26.62200164794922,-8.052000045776367
1788654141150177800,9.619177734375,-2.807000160217285,-25.658000946044922,-8.044000625610352
1788654141166221300,9.63522119140625,-3.2140002250671387,-26.619001388549805,-7.848000526428223
1788654141182265300,9.651265380859375,-2.8990001678466797,-26.514001846313477,-7.950000286102295
1788654141198365200,9.667365234375,-2.3320000171661377,-27.790000915527344,-7.147000312805176
1788654141214451700,9.68345166015625,-2.9690001010894775,-26.168001174926758,-6.113000392913818
1788654141230458400,9.699458251953125,-2.8980002403259277,-26.405000686645508,-7.847000598907471
1788654141254579700,9.723579833984376,-2.931000232696533,-25.560001373291016,-8.756000518798828
1788654141270576600,9.73957666015625,-3.9670002460479736,-26.084001541137695,-7.944000244140625
1788654141286618000,9.7556181640625,-3.5330002307891846,-26.07900047302246,-7.5370001792907715
1788654141302622500,9.77162255859375,-3.5500001907348633,-26.19700050354004,-8.35300064086914
1788654141318669800,9.787669921875,-3.3460001945495605,-25.770000457763672,-8.452000617980957
1788654141334759000,9.803759033203125,-2.572000026702881,-25.96900177001953,-7.232000350952148
1788654141350765600,9.819765625,-2.4070000648498535,-24.70100212097168,-8.545000076293945
1788654141366820600,9.835820556640625,-3.009000062942505,-25.759000778198242,-7.637000560760498
1788654141382834400,9.85183447265625,-3.9790000915527344,-24.68600082397461,-7.62600040435791
1788654141398887200,9.86788720703125,-1.624000072479248,-26.623001098632812,-7.952000141143799
1788654141414979300,9.883979248046876,-1.6250001192092896,-25.867000579833984,-7.538000583648682
1788654141430944500,9.899944580078126,-1.225000023841858,-24.3700008392334,-7.729000568389893
1788654141446999000,9.9159990234375,-1.8920000791549683,-26.808000564575195,-5.814000129699707
1788654141463019300,9.932019287109375,-3.7330002784729004,-26.503002166748047,-7.235000133514404
1788654141479087600,9.948087646484375,-3.139000177383423,-24.369001388549805,-7.828000545501709
1788654141495185000,9.964184814453125,-3.1440000534057617,-25.34400177001953,-8.652000427246094
1788654141511152000,9.980152099609375,-0.7780000567436218,-25.330001831054688,-7.331000328063965
1788654141527221000,9.996220947265625,-3.31000018119812,-27.045001983642578,-7.648000240325928
1788654141543248100,10.012248046875,-2.243000030517578,-27.26000213623047,-7.550000190734863
1788654141559325400,10.028325439453125,-3.114000082015991,-26.191001892089844,-7.845000267028809
1788654141575439000,10.044439208984375,-2.6510000228881836,-27.465002059936523,-6.940000534057617
1788654141591422000,10.060421875,-1.8350000381469727,-26.190000534057617,-7.642000198364258
1788654141607501000,10.0765009765625,-1.4030001163482666,-25.75400161743164,-7.028000354766846
1788654141623539500,10.09253955078125,-1.8200000524520874,-27.802001953125,-7.962000370025635
1788654141639635500,10.108635498046874,-1.6110000610351562,-27.37200164794922,-7.857000350952148
1788654141655760400,10.124760498046875,-2.4610002040863037,-28.128002166748047,-8.372000694274902
1788654141671724000,10.14072412109375,0.20200000703334808,-27.369001388549805,-7.452000141143799
1788654141687782000,10.156781982421874,-1.8040001392364502,-27.57600212097168,-7.145000457763672
1788654141703829000,10.1728291015625,-0.9620000720024109,-27.25800132751465,-7.246000289916992
1788654141719906600,10.188906494140625,-0.34200000762939453,-28.674001693725586,-8.88900089263916
1788654141736030200,10.2050302734375,-2.639000177383423,-29.6200008392334,-7.77400016784668
1788654141752011500,10.221011474609375,0.1600000113248825,-29.384000778198242,-5.840000152587891
1788654141768040000,10.2370400390625,-1.1470000743865967,-28.429000854492188,-6.746000289916992
1788654141784092700,10.2530927734375,-1.0509999990463257,-28.976001739501953,-7.566000461578369
1788654141800183300,10.269183349609374,-0.48900002241134644,-29.067001342773438,-6.243000507354736
1788654141816309500,10.2853095703125,0.03500000014901161,-29.28700065612793,-6.654000282287598
1788654141832309200,10.301309326171875,2.1520001888275146,-29.295001983642578,-6.962000370025635
1788654141848352800,10.317352783203125,-0.7020000219345093,-30.68800163269043,-7.276000499725342
1788654141864360400,10.3333603515625,0.5520000457763672,-29.621002197265625,-7.4720001220703125
1788654141880417800,10.349417724609374,0.16200000047683716,-30.788002014160156,-6.6670002937316895
1788654141896507600,10.365507568359375,-1.15500009059906,-30.272001266479492,-8.291000366210938
1788654141912522200,10.381522216796874,0.15200001001358032,-30.902002334594727,-7.177000522613525
1788654141928580400,10.397580322265625,-1.433000087738037,-31.759000778198242,-7.387000560760498
1788654141944590300,10.41359033203125,0.23800000548362732,-31.239002227783203,-8.301000595092773
1788654141960647700,10.429647705078125,0.6650000214576721,-31.454002380371094,-8.303000450134277
1788654141976735000,10.44573486328125,-1.0150001049041748,-30.900001525878906,-7.176000118255615
1788654141992712000,10.4617119140625,0.6940000057220459,-31.220001220703125,-6.875000476837158
1788654142008780500,10.477780517578125,-1.4440001249313354,-30.79400062561035,-7.276000499725342
1788654142024790000,10.4937900390625,1.0770000219345093,-30.490001678466797,-8.295000076293945
1788654142040866600,10.509866455078125,0.5730000138282776,-31.121002197265625,-7.485000133514404
1788654142056956000,10.525955810546876,0.6060000061988831,-32.39800262451172,-6.784000396728516
1788654142072940500,10.5419404296875,1.196000099182129,-31.130001068115234,-8.097000122070312
1788654142089015800,10.558015869140625,-0.5920000076293945,-30.46900177001953,-6.969000339508057
1788654142105025300,10.574025390625,0.5509999990463257,-30.702001571655273,-8.195000648498535
1788654142121104600,10.590104736328126,1.0099999904632568,-31.546001434326172,-7.184000492095947
1788654142137199400,10.606199462890626,0.3450000286102295,-30.697002410888672,-7.889000415802002
1788654142153191700,10.622191650390626,0.37400001287460327,-33.27400207519531,-8.217000007629395
1788654142169229800,10.638229736328125,0.04500000178813934,-33.172000885009766,-8.623000144958496
1788654142185238000,10.654238037109375,-0.9350000619888306,-30.700000762939453,-8.193000793457031
1788654142201329400,10.670329345703125,-0.9850000739097595,-31.638002395629883,-6.266000270843506
1788654142217417500,10.68641748046875,-1.343000054359436,-32.5260009765625,-8.616000175476074
1788654142233418000,10.70241796875,-1.0160000324249268,-30.360000610351562,-6.865000247955322
1788654142249466600,10.718466552734375,-1.7630001306533813,-31.766000747680664,-7.896000385284424
1788654142265483300,10.734483154296875,-1.1130000352859497,-30.679000854492188,-6.664000511169434
1788654142281533200,10.750533203125,-0.4910000264644623,-31.229001998901367,-7.689000129699707
1788654142297621000,10.76662109375,-0.9260000586509705,-31.12700080871582,-8.095000267028809
1788654142313629700,10.782629638671875,-0.203000009059906,-29.843002319335938,-8.18600082397461
1788654142329685500,10.798685546875,-0.18200001120567322,-31.019001007080078,-7.993000507354736
1788654142345694000,10.81469384765625,-0.46800002455711365,-31.10700225830078,-6.567000389099121
1788654142361754400,10.83075439453125,0.26200002431869507,-32.520999908447266,-8.006999969482422
1788654142377849000,10.84684912109375,-1.2050000429153442,-31.21000099182129,-6.363000392913818
1788654142393823000,10.862822998046875,-1.630000114440918,-30.345001220703125,-5.8460001945495605
1788654142409879300,10.87887939453125,-0.7890000343322754,-30.244001388549805,-6.152000427246094
1788654142425891600,10.8948916015625,-0.831000030040741,-30.810001373291016,-8.398000717163086
1788654142441936100,10.91093603515625,-1.255000114440918,-29.94300079345703,-7.778000354766846
1788654142458039000,10.9270390625,0.16200000047683716,-29.49100112915039,-5.841000080108643
1788654142474038000,10.9430380859375,-0.7050000429153442,-30.149002075195312,-7.068000316619873
1788654142490096400,10.959096435546876,-1.6660001277923584,-30.259000778198242,-7.373000144958496
1788654142506130000,10.9751298828125,-1.2050000429153442,-31.21000099182129,-6.363000392913818
1788654142522195000,10.99119482421875,-0.8010000586509705,-31.87200164794922,-7.694000244140625
1788654142538330600,11.00733056640625,-0.7120000123977661,-29.28900146484375,-6.8560004234313965
1788654142554315300,11.023315185546876,-0.1510000079870224,-30.676000595092773,-6.360000133514404
1788654142570347500,11.039347412109375,-0.8010000586509705,-30.035001754760742,-6.557000160217285
1788654142586399200,11.055399169921875,-3.567000150680542,-29.49300193786621,-6.447000503540039
1788654142602476300,11.071476318359375,-1.00600004196167,-31.543001174926758,-7.181000232696533
1788654142618596600,11.0875966796875,-1.6540000438690186,-30.468002319335938,-6.967000484466553
1788654142634585300,11.10358544921875,-1.443000078201294,-30.036001205444336,-6.760000228881836
1788654142650619600,11.11961962890625,-1.6720000505447388,-29.614002227783203,-7.265000343322754
1788654142666674000,11.135673828125,-2.813000202178955,-30.2450008392334,-6.455000400543213
1788654142682755600,11.151755615234375,-1.9780000448226929,-30.038002014160156,-6.963000297546387
1788654142698882800,11.1678828125,0.12000000476837158,-28.435001373291016,-7.054000377655029
1788654142714877000,11.183876953125,-2.305000066757202,-28.31300163269043,-6.235000133514404
1788654142730909400,11.199909423828124,-1.0080000162124634,-29.599000930786133,-6.044000148773193
1788654142746950400,11.215950439453126,-0.28700000047683716,-28.317001342773438,-6.237000465393066
1788654142763046100,11.232046142578126,0.9860000610351562,-28.96700096130371,-6.652000427246094
1788654142779181800,11.248181884765625,-1.1299999952316284,-27.663002014160156,-5.517000198364258
1788654142795188700,11.264188720703125,-0.9360000491142273,-28.431001663208008,-6.848000526428223
1788654142811251000,11.2802509765625,-0.7080000042915344,-29.395000457763672,-6.755000114440918
1788654142827263000,11.296262939453126,-0.02500000037252903,-29.584001541137695,-4.822000026702881
1788654142843325700,11.31232568359375,-2.2910001277923584,-28.845001220703125,-5.934000492095947
1788654142859417300,11.328417236328125,-0.40700000524520874,-28.000001907348633,-6.642000198364258
1788654142875394600,11.34439453125,-2.629000186920166,-27.560001373291016,-6.02400016784668
1788654142891464400,11.36046435546875,-2.5230000019073486,-28.85700225830078,-6.850000381469727
1788654142907484700,11.376484619140625,0.12800000607967377,-28.863000869750977,-6.956000328063965
1788654142923554600,11.392554443359375,-0.3960000276565552,-28.102001190185547,-6.235000133514404
1788654142939642600,11.408642578125,-1.0090000629425049,-28.086000442504883,-5.11400032043457
1788654142955626000,11.4246259765625,-1.1040000915527344,-29.052001953125,-5.224000453948975
1788654142971701800,11.44070166015625,-1.3260000944137573,-28.841001510620117,-5.527000427246094
1788654142987711200,11.456711181640625,-2.2070000171661377,-26.91400146484375,-5.713000297546387
1788654143003778600,11.472778564453124,-0.2330000102519989,-28.9320011138916,-4.205000400543213
1788654143019864000,11.488864013671876,-1.097000002861023,-28.724000930786133,-4.712000370025635
1788654143035853300,11.504853271484375,1.0120000839233398,-27.762001037597656,-4.706000328063965
1788654143051946000,11.520946044921875,-0.8510000109672546,-30.000001907348633,-4.010000228881836
1788654143067961300,11.53696142578125,0.8200000524520874,-29.69500160217285,-5.028000354766846
1788654143084051200,11.55305126953125,0.19500000774860382,-28.930002212524414,-4.002000331878662
1788654143100136200,11.56913623046875,-1.9570001363754272,-29.269001007080078,-5.53000020980835
1788654143116121300,11.585121337890625,-1.7390000820159912,-28.51000213623047,-4.811000347137451
1788654143132157000,11.601156982421875,-1.2980000972747803,-28.39200210571289,-3.995000123977661
1788654143148157000,11.617156982421875,-0.03100000135600567,-28.507001876831055,-4.40500020980835
1788654143164252400,11.63325244140625,-1.571000099182129,-30.20100212097168,-3.0940001010894775
1788654143180336400,11.64933642578125,0.8770000338554382,-30.20100212097168,-2.7920000553131104
1788654143196321500,11.665321533203125,0.18900001049041748,-27.85300064086914,-3.5850002765655518
1788654143212363000,11.681363037109374,0.18200001120567322,-28.290000915527344,-4.200000286102295
1788654143228375800,11.697375732421875,-0.3410000205039978,-29.149002075195312,-4.4110002517700195
1788654143244417300,11.713417236328125,-0.11800000816583633,-28.279001235961914,-3.385000228881836
1788654143260504600,11.729504638671875,-1.0490000247955322,-29.235000610351562,-2.883000135421753
1788654143276511000,11.745510986328124,1.0500000715255737,-28.82000160217285,-3.69700026512146
1788654143292565200,11.761565185546875,1.4880000352859497,-28.81300163269043,-3.0860002040863037
1788654143308584000,11.777583984375,1.6770000457763672,-27.963001251220703,-3.5880000591278076
1788654143324638200,11.79363818359375,1.7290000915527344,-29.552001953125,-2.2780001163482666
1788654143348715000,11.817715087890624,0.8800000548362732,-29.44300079345703,-2.1740000247955322
1788654143364766200,11.83376611328125,-0.734000027179718,-28.805002212524414,-2.7770001888275146
1788654143380856000,11.84985595703125,1.9340001344680786,-29.881000518798828,-2.7900002002716064
1788654143396841700,11.865841796875,0.6710000038146973,-29.981000900268555,-2.382000207901001
1788654143412899600,11.881899658203125,0.4390000104904175,-28.58700180053711,-2.369000196456909
1788654143428912000,11.897912109375,-0.08300000429153442,-29.987001419067383,-2.890000104904175
1788654143444980200,11.913980224609375,0.6260000467300415,-29.900001525878906,-4.317000389099121
1788654143461090300,11.93009033203125,-0.09700000286102295,-29.455001831054688,-3.19100022315979
1788654143477085400,11.94608544921875,-1.468000054359436,-29.44700050354004,-2.7820000648498535
1788654143493155600,11.962155517578125,2.2740001678466797,-31.70600128173828,-3.011000156402588
1788654143509181000,11.978180908203125,-1.8860000371932983,-30.631000518798828,-3.199000120162964
1788654143525249300,11.994249267578125,0.8790000677108765,-30.200000762939453,-2.690000057220459
1788654143541357000,12.010357177734376,1.3940000534057617,-31.183000564575195,-4.023000240325928
1788654143557361400,12.026361328125,-2.5490000247955322,-29.889001846313477,-3.9050002098083496
1788654143573434000,12.04243408203125,2.4690001010894775,-30.961002349853516,-3.31000018119812
1788654143589469200,12.05846923828125,-0.2800000011920929,-30.40900230407715,-2.4860000610351562
1788654143605510000,12.074510009765625,1,-30.947002410888672,-2.493000030517578
1788654143621624300,12.090624267578125,-0.6020000576972961,-29.979001998901367,-2.380000114440918
1788654143637640000,12.106639892578125,-0.5300000309944153,-28.378002166748047,-2.876000165939331
1788654143653724700,12.122724609375,-2.5460000038146973,-29.455001831054688,-3.494000196456909
1788654143669765600,12.138765625,-0.5,-29.22500228881836,-2.068000078201294
1788654143685802000,12.154802001953126,-0.3140000104904175,-28.917001724243164,-3.0840001106262207
1788654143701934800,12.170934814453124,-0.11700000613927841,-28.170001983642578,-3.2820000648498535
1788654143717897200,12.186897216796876,-0.737000048160553,-30.86100196838379,-4.2220001220703125
1788654143733960700,12.202960693359374,-0.968000054359436,-29.35900115966797,-4.1060004234313965
1788654143750018800,12.219018798828126,-0.41100001335144043,-29.12700080871582,-2.7810001373291016
1788654143766064400,12.235064453125,-0.5060000419616699,-29.444002151489258,-2.4780001640319824
1788654143782142000,12.251141845703126,1.0880000591278076,-28.58100128173828,-1.8610000610351562
1788654143798123500,12.26712353515625,-2.0250000953674316,-28.381000518798828,-3.2810001373291016
1788654143814194700,12.283194580078124,-0.125,-28.715002059936523,-4
1788654143830214400,12.29921435546875,0.7290000319480896,-27.63300132751465,-3.074000120162964
1788654143846275000,12.315275146484375,-0.8360000252723694,-28.47800064086914,-2.367000102996826
1788654143862351600,12.3313515625,-0.8290000557899475,-28.25800132751465,-1.9570001363754272
1788654143878355200,12.347355224609375,-0.8760000467300415,-28.178001403808594,-3.994000196456909
1788654143894411500,12.36341162109375,-0.8740000128746033,-27.637001037597656,-3.582000255584717
1788654143910427600,12.379427734375,-2.55400013923645,-28.37900161743164,-3.17900013923645
1788654143926493700,12.39549365234375,-0.5410000085830688,-27.737001419067383,-2.9720001220703125
1788654143942576000,12.411576171875,-0.04200000315904617,-26.89200210571289,-3.882000207901001
1788654143958572800,12.42757275390625,-1.50600004196167,-26.876001358032227,-2.8610000610351562
1788654143974629600,12.443629638671876,-0.8740000128746033,-27.20400047302246,-3.2720000743865967
1788654143990667300,12.459667236328125,-0.6510000228881836,-27.306001663208008,-2.866000175476074
1788654144006744300,12.475744384765624,-2.264000177383423,-26.452001571655273,-3.264000177383423
1788654144022830800,12.491830810546874,-1.3060001134872437,-26.452001571655273,-3.1630001068115234
1788654144038826500,12.507826416015625,-1.3250000476837158,-26.24700164794922,-3.875000238418579
1788654144054873900,12.523873779296874,-2.4000000953674316,-26.79400062561035,-4.795000076293945
1788654144070915300,12.539915283203126,0.38700002431869507,-26.457000732421875,-3.369000196456909
1788654144086951200,12.555951171875,-0.47200003266334534,-26.679000854492188,-3.9810001850128174
1788654144103037400,12.572037353515626,-1.9530000686645508,-27.10500144958496,-3.9830002784729004
1788654144119050800,12.58805078125,-2.184000015258789,-26.251001358032227,-4.281000137329102
1788654144135100400,12.604100341796874,-0.5710000395774841,-26.0260009765625,-3.26200008392334
1788654144151146200,12.620146240234375,-3.265000104904175,-26.47800064086914,-5.300000190734863
1788654144167190800,12.636190673828125,-2.823000192642212,-26.57600212097168,-4.589000225067139
1788654144183277000,12.652277099609375,-0.18400001525878906,-25.941001892089844,-4.892000198364258
1788654144199252700,12.668252685546875,0.4090000092983246,-27.09200096130371,-2.764000177383423
1788654144215314400,12.684314453125,-0.04200000315904617,-26.56800079345703,-3.6750001907348633
1788654144231324700,12.70032470703125,0.055000003427267075,-27.005001068115234,-4.2900004386901855
1788654144247364600,12.716364501953125,-3.4590001106262207,-25.709001541137695,-3.9690001010894775
1788654144271393800,12.740393798828125,-1.412000060081482,-25.69500160217285,-2.6470000743865967
1788654144287446800,12.75644677734375,-1.4260001182556152,-26.46000099182129,-3.7740001678466797
1788654144303541800,12.772541748046875,-1.3350000381469727,-25.38800048828125,-3.765000104904175
1788654144319517400,12.788517333984375,-1.5410001277923584,-25.817001342773438,-3.769000291824341
1788654144335587800,12.804587890625,-1.0070000886917114,-25.7080020904541,-3.565000057220459
1788654144351618300,12.820618408203124,-0.4970000088214874,-26.045001983642578,-4.689000129699707
1788654144367687700,12.836687744140624,-2.1540000438690186,-26.774002075195312,-3.267000198364258
1788654144383793700,12.852793701171874,-1.5560001134872437,-25.394001007080078,-4.172000408172607
1788654144399772000,12.86877197265625,-0.2550000250339508,-26.676000595092773,-3.7780001163482666
1788654144415851300,12.884851318359376,-2.4140000343322754,-26.47800064086914,-5.199000358581543
1788654144431887600,12.9008876953125,-2.4150002002716064,-25.073001861572266,-4.372000217437744
1788654144447956000,12.9169560546875,1.5250000953674316,-26.261001586914062,-4.591000080108643
1788654144464067300,12.9330673828125,1.0420000553131104,-26.123001098632812,-2.3480000495910645
1788654144480049700,12.949049560546875,-1.5150001049041748,-24.93600082397461,-2.0290000438690186
1788654144496083700,12.965083740234375,-1.443000078201294,-25.065000534057617,-3.6600000858306885
1788654144512134700,12.981134765625,-4.151000022888184,-25.634000778198242,-6.4120001792907715
1788654144528211700,12.997211669921874,-1.5690001249313354,-25.293001174926758,-4.681000232696533
1788654144544331500,13.01333154296875,-0.39100003242492676,-26.045001983642578,-4.689000129699707
1788654144560318000,13.02931787109375,-1.6630001068115234,-24.529001235961914,-3.6550002098083496
1788654144576352800,13.045352783203125,-0.06599999964237213,-24.85300064086914,-3.6600000858306885
1788654144592411600,13.06141162109375,0.45000001788139343,-24.97100067138672,-4.375
1788654144608506400,13.07750634765625,-1.156000018119812,-24.112001419067383,-4.4670000076293945
1788654144624636000,13.093635986328126,-1.099000096321106,-25.591001510620117,-2.8500001430511475
1788654144640638500,13.109638427734374,-3.766000270843506,-26.0260009765625,-3.6660001277923584
1788654144656678700,13.1256787109375,-1.1120001077651978,-25.815000534057617,-3.565000057220459
1788654144672695000,13.141695068359375,-0.6910000443458557,-24.088001251220703,-2.634000062942505
1788654144688735700,13.15773583984375,-3.139000177383423,-24.953001022338867,-3.453000068664551
1788654144704826000,13.173826171875,-0.6130000352859497,-24.970001220703125,-4.475000381469727
1788654144720787200,13.189787109375,-2.063000202178955,-26.13500213623047,-3.567000150680542
1788654144736843000,13.205843017578125,-1.7850000858306885,-24.863000869750977,-4.575000286102295
1788654144752858000,13.221858154296875,-0.687000036239624,-25.815000534057617,-3.56600022315979
1788654144768917500,13.23791748046875,-2.38100004196167,-26.0260009765625,-3.4640002250671387
1788654144785002800,13.254002685546874,-0.9380000233650208,-23.893001556396484,-4.058000087738037
1788654144800971800,13.2699716796875,-0.2840000092983246,-25.613000869750977,-4.380000114440918
1788654144817043500,13.28604345703125,-1.6760001182556152,-25.077001571655273,-4.577000141143799
1788654144833065500,13.3020654296875,-0.7020000219345093,-25.716001510620117,-4.176000118255615
1788654144849129500,13.31812939453125,-1.937000036239624,-25.907001495361328,-2.5470001697540283
1788654144865218800,13.33421875,-2.5920000076293945,-25.268001556396484,-2.948000192642212
1788654144881193700,13.35019384765625,-1,-25.05500030517578,-2.8460001945495605
1788654144897225200,13.36622509765625,-0.921000063419342,-25.07200050354004,-4.068000316619873
1788654144913244700,13.38224462890625,-0.690000057220459,-24.628000259399414,-2.944000244140625
1788654144929322000,13.398322021484375,-1.8450000286102295,-25.375001907348633,-2.8480000495910645
1788654144945408300,13.414408203125,-2.0860002040863037,-24.636001586914062,-3.6560001373291016
1788654144961391600,13.4303916015625,-3.0220000743865967,-25.91900062561035,-3.564000129699707
1788654144977422300,13.44642236328125,-2.9070000648498535,-25.374000549316406,-2.8460001945495605
1788654144993439000,13.46243896484375,-1.5470000505447388,-25.064001083374023,-3.558000087738037
1788654145009524200,13.478524169921876,0.5750000476837158,-26.36400032043457,-4.38700008392334
1788654145025614000,13.494614013671875,-0.49800002574920654,-26.47800064086914,-4.998000144958496
1788654145041606400,13.5106064453125,-1.7720000743865967,-25.179000854492188,-4.170000076293945
1788654145057646800,13.526646728515624,-0.7290000319480896,-25.30000114440918,-5.089000225067139
1788654145073659400,13.542659423828125,-0.08000000566244125,-24.321001052856445,-3.9610002040863037
1788654145089746700,13.55874658203125,-3.0400002002716064,-24.74100112915039,-3.6550002098083496
1788654145105834200,13.574834228515625,-1.5320000648498535,-26.136001586914062,-3.568000078201294
1788654145121838300,13.59083837890625,-1.1260000467300415,-25.931001663208008,-4.279000282287598
1788654145137881300,13.60688134765625,-0.690000057220459,-25.601001739501953,-3.564000129699707
1788654145153900800,13.62290087890625,-3.1430001258850098,-24.847002029418945,-3.55400013923645
1788654145169952800,13.638952880859375,-2.8570001125335693,-25.299001693725586,-5.2900004386901855
1788654145186038800,13.655038818359374,-1.4390000104904175,-26.035001754760742,-4.076000213623047
1788654145202042000,13.6710419921875,-0.47300001978874207,-25.274002075195312,-3.1540000438690186
1788654145218121700,13.687121826171875,-1.2370001077651978,-24.31300163269043,-3.450000047683716
1788654145234144800,13.703144775390625,-1.3410000801086426,-25.284000396728516,-3.9680001735687256
1788654145250207200,13.719207275390625,-1.2440000772476196,-25.61400032043457,-4.582000255584717
1788654145266313500,13.7353134765625,-1.9500000476837158,-25.8070011138916,-3.055000066757202
1788654145282287900,13.751287841796875,-0.9170000553131104,-25.71700096130371,-4.278000354766846
1788654145298358500,13.767358642578126,-3.8550002574920654,-25.584001541137695,-2.6430001258850098
1788654145314395000,13.783394775390626,-0.8010000586509705,-24.3070011138916,-2.94100022315979
1788654145330458600,13.799458740234375,-1.5450000762939453,-25.711000442504883,-3.870000123977661
1788654145346565600,13.815565673828125,-3.1550002098083496,-24.63800048828125,-3.9600002765655518
1788654145362534700,13.83153466796875,-2.182000160217285,-25.386001586914062,-3.6620001792907715
1788654145378609700,13.847609619140625,-2.1620001792907715,-26.022001266479492,-3.1580002307891846
1788654145394653400,13.8636533203125,-2.182000160217285,-25.71000099182129,-3.869000196456909
1788654145410731300,13.879731201171875,-1.4270000457763672,-25.920001983642578,-3.4640002250671387
1788654145426852600,13.8958525390625,-1.7350001335144043,-25.373001098632812,-2.6440000534057617
1788654145442837200,13.911837158203125,-0.7480000257492065,-26.328001022338867,-1.8390001058578491
1788654145458861800,13.92786181640625,-0.3410000205039978,-26.339000701904297,-2.6540000438690186
1788654145474911200,13.9439111328125,-1.564000129699707,-25.1820011138916,-4.374000072479248
1788654145490997000,13.9599970703125,0.3790000081062317,-26.354001998901367,-3.6740002632141113
1788654145507124700,13.976124755859376,-1.1140000820159912,-26.032001495361328,-3.7710001468658447
1788654145523118600,13.99211865234375,-2.505000114440918,-25.064001083374023,-3.6590001583099365
1788654145539154400,14.008154541015625,-1.1400001049041748,-25.615001678466797,-4.684000015258789
1788654145555205600,14.02420556640625,-1.9840000867843628,-24.530000686645508,-3.757000207901001
1788654145571243000,14.040242919921875,-1.5780000686645508,-23.677001953125,-4.055000305175781
1788654145587372500,14.05637255859375,-0.8090000152587891,-26.149002075195312,-4.486000061035156
1788654145603369000,14.072368896484376,-1.7620000839233398,-24.74100112915039,-3.453000068664551
1788654145619413800,14.088413818359374,-1.1640000343322754,-24.009000778198242,-4.772000312805176
1788654145635477200,14.104477294921875,0.003000000026077032,-23.038002014160156,-4.154000282287598
1788654145651526100,14.120526123046876,-2.2970001697540283,-24.09400177001953,-3.2430002689361572
1788654145667612400,14.1366123046875,-0.9200000166893005,-24.315000534057617,-3.5520002841949463
1788654145683567600,14.152567626953125,-2.6480002403259277,-23.033000946044922,-4.048000335693359
1788654145699623400,14.16862353515625,-2.3460001945495605,-22.394001007080078,-4.348999977111816
1788654145715640800,14.184640869140624,-1.7040001153945923,-22.71700096130371,-4.3520002365112305
1788654145731694600,14.200694580078125,-2.2890000343322754,-21.452001571655273,-5.970000267028809
1788654145747782400,14.216782470703125,-3.252000093460083,-20.266000747680664,-5.551000118255615
1788654145763742000,14.232741943359375,-4.0920000076293945,-20.259000778198242,-5.142000198364258
1788654145779797000,14.248796875,-2.7400002479553223,-19.198001861572266,-5.746000289916992
1788654145795807200,14.26480712890625,-3.3450002670288086,-19.069000244140625,-4.216000080108643
1788654145811864300,14.2808642578125,-4.932000160217285,-17.72300148010254,-7.869000434875488
1788654145827953000,14.296952880859376,-5.089000225067139,-19.09400177001953,-6.25100040435791
1788654145843924000,14.312924072265625,-5.656000137329102,-17.81800079345703,-7.054000377655029
1788654145859991800,14.32899169921875,-3.6580002307891846,-16.536001205444336,-7.147000312805176
1788654145876008400,14.345008544921875,-3.9780001640319824,-15.456000328063965,-6.526000499725342
1788654145892081400,14.361081298828125,-5.254000186920166,-15.671000480651855,-6.7300004959106445
1788654145908171000,14.3771708984375,-6.7310004234313965,-14.106000900268555,-10.076000213623047
1788654145924150000,14.39314990234375,-7.99500036239624,-14.206000328063965,-9.668000221252441
1788654145940176100,14.409176025390625,-6.12600040435791,-11.641000747680664,-9.95300006866455
1788654145956188700,14.425188720703124,-6.576000213623047,-12.304000854492188,-11.487000465393066
1788654145972265000,14.441264892578126,-7.2330002784729,-10.802000045776367,-11.473000526428223
1788654145988352800,14.457352783203126,-8.12600040435791,-9.854000091552734,-12.78700065612793
1788654146004342000,14.473342041015625,-8.494000434875488,-7.722000598907471,-13.6850004196167
1788654146020381400,14.48938134765625,-7.13800048828125,-7.631000518798828,-14.704000473022461
1788654146036398800,14.50539892578125,-6.51300048828125,-7.207000255584717,-15.007000923156738
1788654146052474600,14.521474609375,-8.143000602722168,-6.362000465393066,-16.118000030517578
1788654146068557800,14.537557861328125,-9.217000007629395,-5.288000106811523,-16.005001068115234
1788654146084552400,14.553552490234376,-9.454000473022461,-6.1670002937316895,-17.643001556396484
1788654146100598300,14.569598388671874,-10.367000579833984,-5.015000343322754,-19.7710018157959
1788654146116606700,14.585606689453124,-9.209000587463379,-4.482000350952148,-19.869001388549805
1788654146132655600,14.601655517578125,-9.708000183105469,-2.5810000896453857,-21.99100112915039
1788654146148747500,14.61774755859375,-8.096000671386719,-3.6530001163482666,-21.799001693725586
1788654146164757500,14.633757568359375,-10.345000267028809,-2.365000009536743,-21.886001586914062
1788654146180813600,14.6498134765625,-10.708000183105469,-2.499000072479248,-23.924001693725586
1788654146196835000,14.6658349609375,-7.673000335693359,-1.558000087738037,-25.34600067138672
1788654146212892400,14.681892333984376,-9.660000801086426,-3.1570000648498535,-24.950000762939453
1788654146228995300,14.697995361328125,-7.693000316619873,-3.0830001831054688,-27.19300079345703
1788654146244959500,14.71395947265625,-9.732000350952148,-2.3370001316070557,-27.69300079345703
1788654146261023700,14.730023681640626,-11.579000473022461,-0.9540000557899475,-28.69700050354004
1788654146277053000,14.746052978515625,-8.508000373840332,-2.0440001487731934,-29.73000144958496
1788654146293116200,14.7621162109375,-9.14900016784668,-1.7220001220703125,-29.726001739501953
1788654146309220400,14.778220458984375,-9.38900089263916,-1.7380000352859497,-30.948001861572266
1788654146325191400,14.79419140625,-11.11400032043457,-0.6700000166893005,-31.446001052856445
1788654146341260300,14.81026025390625,-8.116000175476074,-2.497000217437744,-31.466001510620117
1788654146357294800,14.826294921875,-10.086000442504883,-0.3680000305175781,-32.76900100708008
1788654146373369000,14.842369140625,-7.293000221252441,-1.5420000553131104,-32.06999969482422
1788654146389488600,14.858488525390625,-9.337000846862793,-1.4470000267028809,-33.1870002746582
1788654146405472800,14.87447265625,-9.761000633239746,-2.31000018119812,-33.7030029296875
1788654146421510100,14.89051025390625,-5.957000255584717,-1.787000060081482,-34.2130012512207
1788654146437561300,14.906561279296875,-8.850000381469727,-0.39400002360343933,-34.50200271606445
1788654146453643000,14.92264306640625,-8.64900016784668,-1.374000072479248,-35.63199996948242
1788654146469773000,14.93877294921875,-8.875,-1.7060000896453857,-36.44900131225586
1788654146485765400,14.954765380859374,-8.140000343322754,-2.252000093460083,-37.16800308227539
1788654146501802800,14.970802734375,-8.580000877380371,-1.5040000677108765,-37.3650016784668
1788654146517860000,14.986860107421874,-9.294000625610352,-2.134000062942505,-36.4530029296875
1788654146533906000,15.002906005859375,-8.4660005569458,-1.7160000801086426,-37.163002014160156
1788654146550063000,15.01906298828125,-8.270000457763672,-2.0500001907348633,-38.08300018310547
1788654146566063400,15.0350634765625,-9.322000503540039,-1.7190001010894775,-37.46800231933594
1788654146582108200,15.051108154296875,-9.247000694274902,-1.6290000677108765,-38.79100036621094
1788654146598126000,15.0671259765625,-7.8550004959106445,-1.5160000324249268,-38.18100357055664
1788654146614178300,15.08317822265625,-8.513999938964844,-1.8530000448226929,-39.40500259399414
1788654146630265000,15.09926513671875,-10.952000617980957,-2.38700008392334,-39.509002685546875
1788654146646243800,15.115243896484374,-8.317000389099121,-2.619000196456909,-40.53300094604492
1788654146662306800,15.131306884765625,-9.461000442504883,-2.7100000381469727,-39.51400375366211
1788654146678311000,15.147310791015625,-10.555000305175781,-0.999000072479248,-39.90500259399414
1788654146694367200,15.1633671875,-8.642000198364258,-2.622000217437744,-40.8380012512207
1788654146710454300,15.179454345703125,-9.276000022888184,-2.8360002040863037,-40.8390007019043
1788654146726423600,15.195423583984375,-10.475000381469727,-2.4200000762939453,-41.95500183105469
1788654146742490600,15.21149072265625,-9.18600082397461,-3.1700000762939453,-41.759002685546875
1788654146758496500,15.22749658203125,-8.24000072479248,-2.0970001220703125,-41.547000885009766
1788654146774572500,15.243572509765626,-8.12700080871582,-2.309000015258789,-41.345001220703125
1788654146790659000,15.2596591796875,-8.54800033569336,-3.7110002040863037,-42.070003509521484
1788654146806645000,15.27564501953125,-8.666000366210938,-4.150000095367432,-42.88900375366211
1788654146822726400,15.291726318359375,-9.27500057220459,-3.376000165939331,-41.150001525878906
1788654146838736400,15.307736328125,-9.085000038146973,-3.9300003051757812,-42.47900390625
1788654146854813000,15.32381298828125,-9.718000411987305,-3.9260001182556152,-42.27400207519531
1788654146870903800,15.33990380859375,-8.67400074005127,-4.263000011444092,-43.297000885009766
1788654146886895400,15.355895263671876,-9.543000221252441,-2.5440001487731934,-43.077003479003906
1788654146902933800,15.371933837890625,-8.88800048828125,-3.507000207901001,-42.88300323486328
1788654146918952200,15.3879521484375,-6.967000484466553,-3.504000186920166,-42.47800064086914
1788654146935033300,15.404033447265626,-9.99000072479248,-2.88100004196167,-44.302001953125
1788654146951121200,15.42012109375,-10.407000541687012,-3.9560000896453857,-44.617000579833984
1788654146967114800,15.43611474609375,-8.642000198364258,-3.3350002765655518,-46.040000915527344
1788654146983159800,15.452159912109375,-10.855000495910645,-3.8620002269744873,-45.634002685546875
1788654146999176700,15.4681767578125,-8.187000274658203,-3.750000238418579,-44.92300033569336
1788654147015225300,15.484225341796876,-7.329000473022461,-4.177999973297119,-44.82600402832031
1788654147031312100,15.50031201171875,-7.651000499725342,-4.072000026702881,-44.927001953125
1788654147047317500,15.5163173828125,-8.06100082397461,-4.49500036239624,-44.52300262451172
1788654147063366700,15.53236669921875,-8.930000305175781,-4.7210001945495605,-45.5420036315918
1788654147079383600,15.548383544921874,-8.532999992370605,-3.5500001907348633,-46.0420036315918
1788654147095434500,15.5644345703125,-7.241000175476074,-3.6500000953674316,-45.33100128173828
1788654147111530000,15.580530029296876,-9.598000526428223,-3.118000030517578,-45.935001373291016
1788654147127493600,15.59649365234375,-9.379000663757324,-3.763000249862671,-46.0420036315918
1788654147143568600,15.612568603515625,-8.100000381469727,-2.7890000343322754,-45.22100067138672
1788654147159598800,15.628598876953125,-7.902000427246094,-4.095000267028809,-46.65800094604492
1788654147175659800,15.64465966796875,-9.17300033569336,-4.307000160217285,-46.659000396728516
1788654147191760100,15.660760009765625,-9.16200065612793,-4.625,-46.35600280761719
1788654147207730000,15.67672998046875,-9.59000015258789,-5.707000255584717,-47.18000411987305
1788654147223806700,15.692806640625,-7.907000541687012,-3.882000207901001,-46.75800323486328
1788654147239831300,15.708831298828125,-9.483000755310059,-3.1130001544952393,-45.527000427246094
1788654147255907000,15.724906982421874,-7.458000183105469,-5.48900032043457,-46.67100143432617
1788654147272022300,15.741022216796875,-9.095000267028809,-3.135000228881836,-47.15800094604492
1788654147288007200,15.757007080078125,-8.76400089263916,-5.182000160217285,-47.88900375366211
1788654147304083200,15.773083251953125,-7.27400016784668,-4.1010003089904785,-47.06700134277344
1788654147320123400,15.789123291015626,-8.152000427246094,-4.334000110626221,-48.49400329589844
1788654147336196900,15.80519677734375,-7.934000492095947,-4.438000202178955,-48.2910041809082
1788654147352313000,15.82131298828125,-8.120000839233398,-4.854000091552734,-47.37800216674805
1788654147368312000,15.83731201171875,-8.134000778198242,-4.323000431060791,-47.67900085449219
1788654147384346400,15.853346435546875,-8.5600004196167,-5.51200008392334,-48.50400161743164
1788654147400388400,15.869388427734375,-8.487000465393066,-3.1540000438690186,-48.483001708984375
1788654147416477000,15.885476806640625,-7.208000183105469,-4.01800012588501,-48.798004150390625
1788654147432595200,15.90159521484375,-8.118000030517578,-5.2860002517700195,-47.586002349853516
1788654147448594200,15.91759423828125,-7.303000450134277,-4.335000038146973,-48.49500274658203
1788654147464633300,15.93363330078125,-7.093000411987305,-4.6610002517700195,-48.80400085449219
1788654147480686000,15.94968603515625,-6.136000156402588,-4.554000377655029,-48.702003479003906
1788654147496779000,15.965779052734375,-7.499000549316406,-5.622000217437744,-48.608001708984375
1788654147512911000,15.9819111328125,-7.556000232696533,-4.144000053405762,-50.22500228881836
1788654147528882000,15.9978818359375,-11.116000175476074,-5.2960004806518555,-48.702003479003906
1788654147544940300,16.013940185546875,-8.367000579833984,-4.659000396728516,-48.802001953125
1788654147560950300,16.0299501953125,-9.023000717163086,-3.9130001068115234,-49.202003479003906
1788654147577015300,16.046015380859377,-7.848000526428223,-5.424000263214111,-49.8280029296875
1788654147593106700,16.062106689453124,-7.931000232696533,-4.113000392913818,-47.983001708984375
1788654147609081300,16.078081298828124,-8.057000160217285,-4.016000270843506,-48.797000885009766
1788654147625156400,16.09415625,-6.907000541687012,-4.353000164031982,-49.820003509521484
1788654147641174800,16.1101748046875,-8.795000076293945,-4.552000045776367,-48.902000427246094
1788654147657241600,16.12624169921875,-7.550000190734863,-4.788000106811523,-50.332000732421875
1788654147673336800,16.1423369140625,-7.7360005378723145,-4.556000232696533,-49.00600051879883
1788654147689318000,16.15831787109375,-5.195000171661377,-4.02400016784668,-49.00400161743164
1788654147705390000,16.17439013671875,-7.752000331878662,-4.348999977111816,-49.6150016784668
1788654147721411600,16.19041162109375,-7.754000186920166,-4.675000190734863,-49.92400360107422
1788654147737489000,16.206489013671874,-6.059000492095947,-3.5990002155303955,-49.40700149536133
1788654147753583000,16.2225830078125,-7.843000411987305,-5.63700008392334,-49.72800064086914
1788654147769582300,16.238582275390623,-8.556000709533691,-3.888000249862671,-47.26700210571289
1788654147785625300,16.254625244140627,-6.693000316619873,-3.812000274658203,-49.40800094604492
1788654147801648000,16.270648193359374,-7.511000156402588,-5.089000225067139,-48.807003021240234
1788654147817735400,16.2867353515625,-9.018000602722168,-3.8020002841949463,-48.89600372314453
1788654147833830100,16.302830078125,-7.194000244140625,-5.307000160217285,-49.01300048828125
1788654147849899300,16.318899169921874,-7.003000259399414,-3.5910000801086426,-48.89600372314453
1788654147865889300,16.33488916015625,-8.157000541687012,-4.445000171661377,-48.80000305175781
1788654147881937700,16.350937744140627,-7.093000411987305,-4.769000053405762,-48.90700149536133
1788654147897987300,16.3669873046875,-6.482000350952148,-4.894000053405762,-50.13100051879883
1788654147914085600,16.383085693359376,-6.988000392913818,-3.9050002098083496,-48.3900032043457
1788654147930097200,16.39909716796875,-6.452000141143799,-4.552000045776367,-48.60000228881836
1788654147946155800,16.41515576171875,-6.798000335693359,-3.2710001468658447,-48.996002197265625
1788654147962182400,16.431182373046877,-6.24500036239624,-4.879000186920166,-49.01000213623047
1788654147978242300,16.4472421875,-6.680000305175781,-4.453000068664551,-49.21000289916992
1788654147994342000,16.463341796875,-7.654000282287598,-3.2740001678466797,-49.30000305175781
1788654148018392300,16.487392333984374,-6.052000522613525,-3.9190001487731934,-49.30800247192383
1788654148034491400,16.503491455078127,-8.145000457763672,-4.330000400543213,-48.18800354003906
1788654148050481200,16.519481201171875,-8.179000854492188,-4.350000381469727,-49.71600341796875
1788654148066544600,16.535544677734375,-7.5400004386901855,-3.377000093460083,-48.996002197265625
1788654148082568000,16.55156787109375,-7.749000549316406,-3.5910000801086426,-48.99700164794922
1788654148098631700,16.567631591796875,-8.947000503540039,-3.7150001525878906,-50.423004150390625
1788654148114736000,16.583736083984373,-7.510000228881836,-5.520000457763672,-49.01400375366211
1788654148130731500,16.5997314453125,-8.940000534057617,-3.7110002040863037,-50.117000579833984
1788654148146798600,16.615798583984375,-8.17300033569336,-5.319000244140625,-50.031002044677734
1788654148162819000,16.631819091796874,-7.2220001220703125,-4.7829999923706055,-49.92500305175781
1788654148178889000,16.647888916015624,-7.945000171661377,-4.770000457763672,-49.00700378417969
1788654148195001300,16.66400146484375,-6.13800048828125,-4.447000026702881,-48.70100402832031
1788654148211005000,16.6800048828125,-6.705000400543213,-5.116000175476074,-50.74400329589844
1788654148227085600,16.69608544921875,-7.975000381469727,-4.572000026702881,-50.22800064086914
1788654148243119900,16.712119873046873,-10.159000396728516,-5.729000091552734,-48.91100311279297
1788654148259188200,16.728188232421875,-6.612000465393066,-4.800000190734863,-51.14800262451172
1788654148275310000,16.74431005859375,-7.938000202178955,-5.305000305175781,-49.012001037597656
1788654148291328300,16.760328369140623,-8.597000122070312,-5.318000316619873,-50.03000259399414
1788654148315483000,16.78448291015625,-8.20300006866455,-5.121000289916992,-51.25100326538086
1788654148331473000,16.800472900390623,-8.42199993133545,-4.4760003089904785,-51.143001556396484
1788654148347510500,16.816510498046874,-7.982000350952148,-3.9270002841949463,-50.12000274658203
1788654148363572500,16.832572509765626,-10.106000900268555,-4.0320000648498535,-50.220001220703125
1788654148379622100,16.8486220703125,-8.38800048828125,-5.428000450134277,-50.23500061035156
1788654148395756800,16.8647568359375,-7.353000164031982,-4.14900016784668,-50.63200378417969
1788654148411766000,16.88076611328125,-8.835000038146973,-3.820000171661377,-50.220001220703125
1788654148427848400,16.896848388671874,-7.732000350952148,-4.337000370025635,-48.698001861572266
1788654148443908400,16.912908447265625,-7.366000175476074,-4.1579999923706055,-51.24400329589844
1788654148459970300,16.92897021484375,-6.26300048828125,-5.215000152587891,-50.03200149536133
1788654148476067600,16.945067626953126,-8.181000709533691,-4.676000118255615,-50.025001525878906
1788654148492135200,16.96113525390625,-7.330000400543213,-4.676000118255615,-49.92400360107422
1788654148508194300,16.9771943359375,-7.941000461578369,-5.4150004386901855,-49.217002868652344
1788654148524208400,16.99320849609375,-7.973000526428223,-3.9220001697540283,-49.7130012512207
1788654148540279300,17.009279296875,-7.116000175476074,-3.81000018119812,-49.30600357055664
1788654148556372200,17.025372314453126,-6.681000232696533,-4.994000434875488,-49.62200164794922
1788654148572345000,17.041344970703125,-8.480999946594238,-4.556000232696533,-49.10700225830078
1788654148588417000,17.0574169921875,-7.964000225067139,-4.348999977111816,-49.6150016784668
1788654148604433700,17.07343359375,-5.728000164031982,-4.3480000495910645,-49.31200408935547
1788654148620503600,17.089503662109376,-6.901000499725342,-5.431000232696533,-50.237003326416016
1788654148636600300,17.105600341796876,-6.581000328063965,-5.430000305175781,-50.13500213623047
1788654148652582100,17.12158203125,-5.952000141143799,-4.139000415802002,-49.717002868652344
1788654148668657000,17.137656982421873,-6.506000518798828,-3.6120002269744873,-50.42500305175781
1788654148684665900,17.153665771484373,-7.092000484466553,-4.877000331878662,-48.90700149536133
1788654148700741400,17.169741455078125,-7.320000171661377,-4.562000274658203,-49.41400146484375
1788654148716831500,17.18583154296875,-7.310000419616699,-4.448000431060791,-48.90300369262695
1788654148732822300,17.201822265625,-6.843000411987305,-5.071000099182129,-47.38100051879883
1788654148748897000,17.21789697265625,-8.588000297546387,-5.313000202178955,-49.62200164794922
1788654148764907300,17.2339072265625,-6.020000457763672,-5.089000225067139,-48.605003356933594
1788654148780993000,17.249992919921876,-7.9710001945495605,-4.89300012588501,-50.23100280761719
1788654148797086000,17.2660859375,-7.406000137329102,-5.198000431060791,-48.910003662109375
1788654148813089000,17.282089111328126,-6.392000198364258,-2.743000030517578,-49.50100326538086
1788654148829141200,17.298141357421876,-7.5420002937316895,-4.675000190734863,-49.92400360107422
1788654148845155800,17.31415576171875,-6.253000259399414,-4.776000022888184,-49.31500244140625
1788654148861257000,17.330257080078123,-4.781000137329102,-5.220000267028809,-50.23800277709961
1788654148877349400,17.346349365234374,-6.672000408172607,-5.853000164031982,-49.73200225830078
1788654148893352700,17.362352783203125,-7.145000457763672,-4.801000118255615,-51.250003814697266
1788654148909405400,17.378405517578123,-6.940000534057617,-2.9680001735687256,-50.419002532958984
1788654148925416400,17.39441650390625,-5.611000061035156,-5.747000217437744,-49.73200225830078
1788654148941470000,17.410469970703126,-7.659000396728516,-3.7090001106262207,-49.81300354003906
1788654148957564400,17.426564453125,-5.654000282287598,-4.152000427246094,-50.63500213623047
1788654148973576700,17.44257666015625,-5.208000183105469,-4.896000385284424,-50.13200378417969
1788654148989629000,17.45862890625,-8.152000427246094,-4.6579999923706055,-48.70000076293945
1788654149005651000,17.47465087890625,-6.7860002517700195,-5.1010003089904785,-49.62300109863281
1788654149021719800,17.4907197265625,-4.9070000648498535,-4.908000469207764,-50.948001861572266
1788654149037821000,17.506821044921875,-5.6620001792907715,-4.698000431060791,-51.35300064086914
1788654149053790200,17.522790283203125,-4.809000015258789,-4.480000019073486,-51.04600143432617
1788654149069856000,17.53885595703125,-7.360000133514404,-4.802000045776367,-51.35100173950195
1788654149085879600,17.554879638671874,-4.895000457763672,-5.9810004234313965,-51.05900192260742
1788654149101943800,17.57094384765625,-7.910000324249268,-4.921000003814697,-52.268001556396484
1788654149118047700,17.5870478515625,-5.5360002517700195,-4.685000419616699,-50.43600082397461
1788654149134019800,17.603019775390624,-5.617000102996826,-5.210000038146973,-49.625003814697266
1788654149150090000,17.619090087890626,-4.144000053405762,-5.005000114440918,-50.13500213623047
1788654149166127000,17.635127197265625,-7.022000312805176,-5.2230000495910645,-50.74400329589844
1788654149182198300,17.6511982421875,-6.051000118255615,-4.999000072479248,-49.92900085449219
1788654149198316500,17.667316650390624,-5.413000106811523,-5.86400032043457,-50.44600296020508
1788654149214301700,17.6833017578125,-5.427000045776367,-6.845000267028809,-51.677001953125
1788654149230397700,17.699397705078123,-7.116000175476074,-5.75600004196167,-50.54500198364258
1788654149246442000,17.71544189453125,-6.566000461578369,-6.2860002517700195,-50.0410041809082
1788654149262525700,17.731525634765624,-6.9110002517700195,-7.057000160217285,-51.677001953125
1788654149278650000,17.747650146484375,-8.40000057220459,-5.544000148773193,-50.84700393676758
1788654149294650400,17.763650390625,-4.769000053405762,-7.050000190734863,-50.8650016784668
1788654149310688300,17.779688232421876,-6.092000484466553,-5.672000408172607,-52.176002502441406
1788654149326744800,17.795744873046875,-4.582000255584717,-6.525000095367432,-51.676002502441406
1788654149342834000,17.811833984375,-4.345000267028809,-7.4830002784729,-51.17500305175781
1788654149358967800,17.8279677734375,-3.2800002098083496,-6.7270002365112305,-50.55900192260742
1788654149374946600,17.843946533203123,-6.9120001792907715,-8.138999938964844,-52.400001525878906
1788654149390981600,17.859981689453125,-6.39300012588501,-6.958000183105469,-52.18600082397461
1788654149407040800,17.876040771484377,-6.281000137329102,-7.49500036239624,-52.29300308227539
1788654149423133200,17.89213330078125,-7.551000595092773,-8.788000106811523,-52.91400146484375
1788654149439232300,17.908232177734376,-5.652000427246094,-7.39300012588501,-52.599002838134766
1788654149455215600,17.924215576171875,-5.2900004386901855,-8.232000350952148,-51.18000411987305
1788654149471279000,17.940279052734375,-7.336000442504883,-7.057000160217285,-51.677001953125
1788654149487295000,17.956294921875,-7.342000484466553,-7.709000587463379,-52.39600372314453
1788654149503360800,17.97236083984375,-7.4830002784729,-6.217000484466553,-52.993003845214844
1788654149519459600,17.98845947265625,-5.035000324249268,-7.622000217437744,-53.62000274658203
1788654149535440000,18.00443994140625,-7.5400004386901855,-7.484000205993652,-51.5780029296875
1788654149551510800,18.0205107421875,-6.896000385284424,-8.778000831604004,-52.10000228881836
1788654149567527400,18.03652734375,-5.105000019073486,-8.249000549316406,-52.40300369262695
1788654149583603200,18.052603271484376,-3.9100000858306885,-8.234000205993652,-51.182003021240234
1788654149599695600,18.068695556640623,-4.587000370025635,-7.177000522613525,-52.29300308227539
1788654149615676200,18.08467626953125,-6.619000434875488,-7.2900004386901855,-53.00400161743164
1788654149631753200,18.100753173828124,-5.424000263214111,-7.924000263214111,-52.19600296020508
1788654149647760400,18.116760498046876,-6.493000507354736,-7.062000274658203,-51.98400115966797
1788654149663839200,18.132839111328124,-5.520000457763672,-8.134000778198242,-51.89200210571289
1788654149679929300,18.148929443359375,-5.63800048828125,-8.141000747680664,-52.40200424194336
1788654149695924700,18.1649248046875,-7.092000484466553,-7.686000347137451,-50.66400146484375
1788654149711968300,18.18096826171875,-6.404000282287598,-7.938000202178955,-53.316001892089844
1788654149727982600,18.196982666015625,-7.558000564575195,-7.279000282287598,-52.290000915527344
1788654149744077000,18.2130771484375,-8.53600025177002,-6.318000316619873,-52.68700408935547
1788654149760174300,18.22917431640625,-6.487000465393066,-8.788000106811523,-52.814002990722656
1788654149776176400,18.24517626953125,-6.457000255584717,-8.01300048828125,-50.97300338745117
1788654149792235800,18.26123583984375,-6.25100040435791,-8.666000366210938,-51.69200134277344
1788654149808248800,18.277248779296876,-5.737000465393066,-7.812000274658203,-51.88900375366211
1788654149824330000,18.293330078125,-5.965000152587891,-8.470000267028809,-53.0150032043457
1788654149840425200,18.30942529296875,-5.113000392913818,-8.470000267028809,-52.915000915527344
1788654149856413400,18.325413330078124,-5.947000503540039,-6.838000297546387,-51.1670036315918
1788654149872469200,18.34146923828125,-4.988000392913818,-7.702000141143799,-51.58400344848633
1788654149888482000,18.35748193359375,-3.9180002212524414,-7.807000160217285,-51.28000259399414
1788654149904549000,18.373549072265625,-7.624000549316406,-8.87600040435791,-51.4890022277832
1788654149920636200,18.38963623046875,-7.195000171661377,-7.901000499725342,-50.6660041809082
1788654149936648000,18.40564794921875,-5.938000202178955,-6.617000102996826,-50.656002044677734
1788654149952711000,18.4217109375,-6.223000526428223,-7.893000602722168,-49.954002380371094
1788654149968741400,18.437741455078125,-8.085000038146973,-8.248000144958496,-52.70500183105469
1788654149984810800,18.453810791015623,-7.298000335693359,-8.11500072479248,-50.66800308227539
1788654150000920600,18.469920654296875,-7.093000411987305,-7.904000282287598,-50.87000274658203
1788654150016894700,18.485894775390626,-5.26200008392334,-7.999000549316406,-49.75200271606445
1788654150032961000,18.5019609375,-7.402000427246094,-7.789000511169434,-50.35900115966797
1788654150048998400,18.517998291015626,-3.1590001583099365,-8.447000503540039,-50.98100280761719
1788654150065068000,18.534068115234376,-6.7910003662109375,-7.374000549316406,-51.27300262451172
1788654150081179600,18.5501796875,-5.918000221252441,-7.253000259399414,-50.15200424194336
1788654150097163800,18.566163818359374,-6.569000244140625,-7.584000587463379,-50.96900177001953
1788654150113244200,18.582244140625,-6.017000198364258,-7.464000225067139,-49.95000076293945
1788654150129286700,18.59828662109375,-6.131000518798828,-7.685000419616699,-50.461002349853516
1788654150145380900,18.614380859375,-5.380000114440918,-8.11400032043457,-50.3640022277832
1788654150161504300,18.630504150390625,-6.01200008392334,-7.029000282287598,-49.43700408935547
1788654150177500000,18.6465,-5.701000213623047,-7.250000476837158,-49.94900131225586
1788654150193543400,18.66254345703125,-5.455000400543213,-9.067000389099121,-49.55800247192383
1788654150209589500,18.678589599609374,-5.410000324249268,-6.943000316619873,-50.965003967285156
1788654150225688600,18.6946884765625,-6.789000511169434,-6.400000095367432,-50.551002502441406
1788654150241821200,18.7108212890625,-7.9170002937316895,-7.454000473022461,-49.439002990722656
1788654150257816800,18.72681689453125,-4.8510003089904785,-8.440000534057617,-50.67400360107422
1788654150273873200,18.742873046875,-6.548000335693359,-8.112000465393066,-50.36300277709961
1788654150289931300,18.75893115234375,-3.693000078201294,-6.2860002517700195,-49.7390022277832
1788654150305985800,18.77498583984375,-4.8580002784729,-8.120000839233398,-50.77300262451172
1788654150322126600,18.791126708984375,-6.271000385284424,-6.084000110626221,-50.957000732421875
1788654150338139600,18.8071396484375,-6.434000492095947,-7.027000427246094,-49.33500289916992
1788654150354191000,18.823191162109374,-6.125000476837158,-7.681000232696533,-50.156002044677734
1788654150370254600,18.839254638671875,-4.344000339508057,-7.699000358581543,-51.27900314331055
1788654150386315500,18.8553154296875,-7.699000358581543,-7.992000579833984,-49.54500198364258
1788654150402410200,18.87141015625,-7.335000514984131,-7.057000160217285,-51.677001953125
1788654150418384100,18.887384033203126,-6.6670002937316895,-7.687000274658203,-50.665000915527344
1788654150434460200,18.903460205078126,-3.753000259399414,-7.512000560760498,-53.2130012512207
1788654150450482700,18.919482666015625,-4.878000259399414,-8.02400016784668,-51.58700180053711
1788654150466568000,18.93556787109375,-5.520000457763672,-7.810000419616699,-51.68600082397461
1788654150482663200,18.9516630859375,-4.555000305175781,-8.346000671386719,-51.590003967285156
1788654150498633700,18.9676337890625,-4.171000003814697,-7.50700044631958,-52.90700149536133
1788654150514706000,18.983705810546876,-4.773000240325928,-7.593000411987305,-51.37900161743164
1788654150530717400,18.999717529296873,-4.353000164031982,-6.407000541687012,-50.86000061035156
1788654150546773800,19.015773681640624,-4.377000331878662,-6.53000020980835,-51.98200225830078
1788654150562888200,19.03188818359375,-4.527000427246094,-7.248000144958496,-49.64500045776367
1788654150578857000,19.04785693359375,-4.486000061035156,-6.639000415802002,-52.18600082397461
1788654150594916600,19.06391650390625,-3.7350001335144043,-7.50100040435791,-52.39800262451172
1788654150610931200,19.07993115234375,-3.93500018119812,-6.737000465393066,-51.37300109863281
1788654150627003100,19.096003173828127,-5.50100040435791,-7.366000175476074,-50.56100082397461
1788654150643094000,19.112093994140626,-6.359000205993652,-7.910000324249268,-51.27800369262695
1788654150659080000,19.128079833984376,-6.050000190734863,-7.37600040435791,-51.37600326538086
1788654150675114800,19.14411474609375,-5.827000141143799,-8.667000770568848,-51.69300079345703
1788654150691122200,19.1601220703125,-4.663000106811523,-8.023000717163086,-51.48500061035156
1788654150707225000,19.17622509765625,-4.129000186920166,-7.914000511169434,-51.281002044677734
1788654150723316500,19.19231640625,-4.885000228881836,-7.488000392913818,-51.582000732421875
1788654150739326200,19.208326171875,-6.402000427246094,-7.936000347137451,-53.2140007019043
1788654150755365000,19.224365234375,-6.191000461578369,-8.154000282287598,-53.42000198364258
1788654150771378700,19.240378662109375,-3.940000295639038,-8.361000061035156,-52.60900115966797
1788654150787469600,19.256469482421874,-4.992000102996826,-9.758000373840332,-53.02800369262695
1788654150803560700,19.272560791015625,-3.634000062942505,-8.585000038146973,-53.32500076293945
1788654150819556600,19.288556640625,-5.197000026702881,-9.105000495910645,-52.30900192260742
1788654150835610000,19.304610107421876,-5.342000484466553,-8.479000091552734,-53.62700271606445
1788654150851625200,19.320625244140626,-4.173000335693359,-7.184000492095947,-52.802001953125
1788654150867686000,19.336685791015626,-3.5990002155303955,-9.320000648498535,-52.211002349853516
1788654150883780600,19.352780517578125,-4.156000137329102,-8.579000473022461,-52.9170036315918
1788654150899798800,19.368798828125,-4.058000087738037,-8.476000785827637,-53.22200393676758
1788654150915862300,19.3848623046875,-2.1600000858306885,-8.378000259399414,-53.73200225830078
1788654150931878400,19.40087841796875,-5.105000019073486,-8.572999954223633,-52.61000061035156
1788654150947939000,19.41693896484375,-2.246000051498413,-7.717000484466553,-52.40200424194336
1788654150964042000,19.4330419921875,-2.449000120162964,-9.009000778198242,-52.82100296020508
1788654150980015400,19.449015380859375,-4.115000247955322,-9.418000221252441,-51.60000228881836
1788654150996086300,19.465086181640626,-5.519000053405762,-9.538000106811523,-52.720001220703125
1788654151012111400,19.481111328125,-4.466000080108643,-8.572999954223633,-52.509002685546875
1788654151028186600,19.4971865234375,-3.689000129699707,-9.850000381469727,-51.80800247192383
1788654151044295400,19.51329541015625,-6.735000133514404,-8.37700080871582,-54.134002685546875
1788654151060280300,19.5292802734375,-3.94700026512146,-9.01300048828125,-53.3280029296875
1788654151076358100,19.545358154296874,-3.8340001106262207,-9.334000587463379,-53.22900390625
1788654151092393200,19.561393310546876,-4.891000270843506,-8.032000541687012,-52.198001861572266
1788654151108481500,19.5774814453125,-5.081000328063965,-9.964000701904297,-52.41800308227539
1788654151124599800,19.593599853515624,-4.354000091552734,-8.35300064086914,-52.10000228881836
1788654151140592000,19.609592041015624,-4.093000411987305,-10.16200065612793,-51.09700393676758
1788654151156628500,19.62562841796875,-3.9200000762939453,-8.997000694274902,-52.10600280761719
1788654151172674800,19.6416748046875,-3.687000274658203,-9.849000930786133,-51.70600128173828
1788654151188748800,19.657748779296874,-5.8510003089904785,-9.870000839233398,-53.53700256347656
1788654151204875500,19.67387548828125,-4.4760003089904785,-8.687000274658203,-53.01900100708008
1788654151220852200,19.689852294921874,-4.109000205993652,-10.711000442504883,-52.121002197265625
1788654151236878300,19.70587841796875,-4.133000373840332,-10.07800006866455,-52.8280029296875
1788654151252924700,19.721924560546874,-4.009000301361084,-11.688000679016113,-53.04600143432617
1788654151269000700,19.738000732421874,-4.880000114440918,-9.538000106811523,-52.61900329589844
1788654151285139000,19.754138916015624,-3.9140002727508545,-9.75,-52.316001892089844
1788654151301120000,19.7701201171875,-2.994000196456909,-8.800000190734863,-53.3280029296875
1788654151317150200,19.786150146484374,-4.948000431060791,-11.136000633239746,-51.92000198364258
1788654151333165300,19.802165283203124,-2.6500000953674316,-9.65000057220459,-52.724002838134766
1788654151349231400,19.8182314453125,-3.5900001525878906,-9.63900089263916,-52.01000213623047
1788654151365322500,19.834322509765624,-4.359000205993652,-8.464000701904297,-52.406002044677734
1788654151381291500,19.85029150390625,-4.685000419616699,-9.225000381469727,-53.22700119018555
1788654151397365800,19.86636572265625,-4.109000205993652,-11.03600025177002,-52.327003479003906
1788654151413387000,19.882386962890624,-3.931000232696533,-9.652000427246094,-53.02800369262695
1788654151429449200,19.89844921875,-2.427000045776367,-9.104000091552734,-51.90500259399414
1788654151445542400,19.91454248046875,-3.698000192642212,-9.207000732421875,-51.802001953125
1788654151461518300,19.930518310546876,-2.629000186920166,-9.421000480651855,-51.60200119018555
1788654151477586200,19.946586181640626,-2.195000171661377,-10.064000129699707,-51.608001708984375
1788654151493607000,19.96260693359375,-2.88700008392334,-9.232000350952148,-53.535003662109375
1788654151509674200,19.97867431640625,-2.619000196456909,-8.982000350952148,-50.88500213623047
1788654151525761500,19.994761474609376,-4.2270002365112305,-9.314000129699707,-51.803001403808594
1788654151541744000,20.010744140625,-1.659000039100647,-9.630000114440918,-51.09600067138672
1788654151557773300,20.026773193359375,-3.8360002040863037,-8.57800006866455,-52.81500244140625
1788654151573791700,20.042791748046874,-1.689000129699707,-9.2160005569458,-52.21200180053711
1788654151589876700,20.058876708984375,-2.0190000534057617,-9.438000679016113,-52.82500076293945
1788654151605968100,20.074968017578126,-2.430000066757202,-8.781000137329102,-51.80000305175781
1788654151621958100,20.090958251953126,-3.0850000381469727,-7.926000595092773,-52.09700393676758
1788654151637994000,20.106993896484376,-4.559000015258789,-9.213000297546387,-52.31100082397461
1788654151654008800,20.1230087890625,-2.7750000953674316,-9.337000846862793,-53.333003997802734
1788654151670092800,20.1390927734375,-3.4170000553131104,-8.15000057220459,-52.81200408935547
1788654151686178000,20.155177978515624,-4.670000076293945,-9.324000358581543,-52.61700439453125
1788654151702185700,20.171185791015624,-2.572000026702881,-8.47800064086914,-53.22300338745117
1788654151718230500,20.18723046875,-4.6610002517700195,-8.670000076293945,-51.79600143432617
1788654151734239200,20.2032392578125,-3.067000150680542,-8.455000877380371,-51.59300231933594
1788654151750292000,20.2192919921875,-3.2920000553131104,-8.355000495910645,-52.10100173950195
1788654151766383400,20.23538330078125,-2.444000005722046,-8.897000312805176,-52.51400375366211
1788654151782350600,20.2513505859375,-2.8610000610351562,-9.648000717163086,-52.62200164794922
1788654151798411000,20.267410888671876,-3.4110002517700195,-9.22700023651123,-53.22900390625
1788654151814425600,20.283425537109373,-4.78000020980835,-9.542000770568848,-52.92400360107422
1788654151830492000,20.299491943359374,-2.0180001258850098,-8.46500015258789,-52.20500183105469
1788654151846588200,20.315588134765626,-3.492000102996826,-9.10300064086914,-52.005001068115234
1788654151862552000,20.331552001953124,-3.003000259399414,-9.670000076293945,-54.25200271606445
1788654151878628600,20.347628662109376,-1.8200000524520874,-8.473999977111816,-52.81700134277344
1788654151894670600,20.363670654296875,-2.7800002098083496,-9.772000312805176,-53.84600067138672
1788654151910735000,20.379735107421876,-3.1070001125335693,-8.371000289916992,-53.32400131225586
1788654151926835700,20.395835693359373,-1.8290001153945923,-8.91200065612793,-53.53400421142578
1788654151942806800,20.411806884765625,-1.908000111579895,-9.43600082397461,-52.62200164794922
