time,seconds_elapsed,z,y,x
1788049996531875000,0.119875,9.779560089111328,-0.704850435256958,0.18375815451145172
1788049996548425500,0.136425537109375,9.779531478881836,-0.7045384645462036,0.1864481121301651
1788049996564320500,0.152320556640625,9.779573440551758,-0.703222930431366,0.1892215758562088
1788049996580447200,0.168447265625,9.779645919799805,-0.7015653848648071,0.19162343442440033
1788049996596353300,0.184353271484375,9.779715538024902,-0.7005844116210938,0.19162613153457642
1788049996612203800,0.200203857421875,9.779712677001953,-0.7012364268302917,0.18940123915672302
1788049996628490200,0.216490234375,9.779638290405273,-0.702688992023468,0.1878610998392105
1788049996644400400,0.232400390625,9.779632568359375,-0.7028369307518005,0.1875937432050705
1788049996660819200,0.248819091796875,9.779679298400879,-0.7022007703781128,0.18756139278411865
1788049996676409900,0.264409912109375,9.779701232910156,-0.7017849087715149,0.18799899518489838
1788049996692899600,0.280899658203125,9.779684066772461,-0.7019335627555847,0.18827472627162933
1788049996708678700,0.2966787109375,9.779448509216309,-0.7048875093460083,0.1895032823085785
1788049996724516400,0.312516357421875,9.77904987335205,-0.7098382711410522,0.1915554255247116
1788049996741115000,0.329114990234375,9.778671264648438,-0.7146483063697815,0.1930408924818039
1788049996756636700,0.34463671875,9.778458595275879,-0.7174500823020935,0.19339075684547424
1788049996772525300,0.360525390625,9.7783842086792,-0.7182957530021667,0.1940298229455948
1788049996789053200,0.37705322265625,9.77840518951416,-0.717909038066864,0.19437888264656067
1788049996804708000,0.3927080078125,9.778501510620117,-0.7167811393737793,0.1936790645122528
1788049996821117700,0.40911767578125,9.778666496276855,-0.7147783637046814,0.1927686184644699
1788049996836800000,0.424800048828125,9.778850555419922,-0.7126647233963013,0.19125613570213318
1788049996852744700,0.44074462890625,9.779012680053711,-0.710696816444397,0.19029013812541962
1788049996869039900,0.457039794921875,9.779170036315918,-0.7089943289756775,0.1885378062725067
1788049996884822300,0.472822265625,9.779313087463379,-0.7073369026184082,0.18734408915042877
1788049996901170200,0.489170166015625,9.779398918151855,-0.7063787579536438,0.1864759773015976
1788049996916983800,0.50498388671875,9.779447555541992,-0.7067642211914062,0.1824377477169037
1788049996932904700,0.52090478515625,9.779463768005371,-0.7081934809684753,0.17589129507541656
1788049996949222000,0.537221923828125,9.779497146606445,-0.7085123658180237,0.17270682752132416
1788049996965043200,0.553043212890625,9.779691696166992,-0.705622136592865,0.1735554337501526
1788049996981507600,0.569507568359375,9.7798490524292,-0.7031131982803345,0.1748877316713333
1788049996997649000,0.58564892578125,9.779881477355957,-0.7029886245727539,0.17352628707885742
1788049997013165300,0.601165283203125,9.779812812805176,-0.7050745487213135,0.16885268688201904
1788049997029441300,0.617441162109375,9.77981948852539,-0.7061072587966919,0.16411460936069489
1788049997045269800,0.633269775390625,9.7799654006958,-0.7047295570373535,0.16135069727897644
1788049997061609500,0.649609375,9.780226707458496,-0.7013699412345886,0.16008557379245758
1788049997077535200,0.66553515625,9.780462265014648,-0.6980799436569214,0.16009481251239777
1788049997093341200,0.681341064453125,9.780529022216797,-0.6970603466033936,0.16046969592571259
1788049997109619000,0.697618896484375,9.780447959899902,-0.6982328295707703,0.1603141576051712
1788049997125413400,0.713413330078125,9.780291557312012,-0.7006818652153015,0.1591450572013855
1788049997141938400,0.7299384765625,9.780118942260742,-0.7033366560935974,0.15805043280124664
1788049997157560300,0.745560302734375,9.779906272888184,-0.7064345479011536,0.15738113224506378
1788049997173518800,0.761518798828125,9.779706954956055,-0.7093076109886169,0.15687403082847595
1788049997189769500,0.77776953125,9.779606819152832,-0.7110342383384705,0.15524855256080627
1788049997205563400,0.7935634765625,9.77958869934082,-0.7119655013084412,0.15210695564746857
1788049997221897700,0.809897705078125,9.779596328735352,-0.713250994682312,0.14544056355953217
1788049997237699600,0.825699462890625,9.779678344726562,-0.7133811116218567,0.13918927311897278
1788049997254100000,0.842099853515625,9.77991771697998,-0.7108043432235718,0.13548798859119415
1788049997269932000,0.85793212890625,9.780265808105469,-0.70619797706604,0.134490504860878
1788049997285730000,0.87372998046875,9.780552864074707,-0.7022334337234497,0.13435183465480804
1788049997302151400,0.8901513671875,9.780692100524902,-0.7001683115959167,0.13498829305171967
1788049997317886200,0.90588623046875,9.780631065368652,-0.7006468176841736,0.13687103986740112
1788049997333789700,0.921789794921875,9.780452728271484,-0.7027129530906677,0.13904060423374176
1788049997350047700,0.9380478515625,9.780303955078125,-0.7046303153038025,0.1397823989391327
1788049997365855200,0.953855224609375,9.780315399169922,-0.7046551704406738,0.13884378969669342
1788049997382192000,0.970192138671875,9.780529975891113,-0.7019881010055542,0.13718628883361816
1788049997397989000,0.985989013671875,9.78084659576416,-0.6978265643119812,0.13584035634994507
1788049997413952300,1.0019521484375,9.781081199645996,-0.6948002576828003,0.13448016345500946
1788049997430218500,1.018218505859375,9.781076431274414,-0.6953230500221252,0.13210618495941162
1788049997446057500,1.034057373046875,9.780923843383789,-0.6982975006103516,0.12766267359256744
1788049997462454000,1.0504541015625,9.780694007873535,-0.7021886706352234,0.12382232397794724
1788049997478178800,1.0661787109375,9.780488014221191,-0.7052348852157593,0.12287397682666779
1788049997494109700,1.082109619140625,9.780303001403809,-0.7078555822372437,0.12246247380971909
1788049997510751000,1.0987509765625,9.780071258544922,-0.7116510272026062,0.11898931115865707
1788049997526255900,1.114255859375,9.779860496520996,-0.715321958065033,0.11409719288349152
1788049997542586000,1.130586181640625,9.779746055603027,-0.7171158790588379,0.11271308362483978
1788049997558420000,1.146419921875,9.779716491699219,-0.7172240614891052,0.11454513669013977
1788049997574462500,1.16246240234375,9.77968692779541,-0.7172300219535828,0.11702513694763184
1788049997590645200,1.178645263671875,9.779570579528809,-0.7186762690544128,0.11784905940294266
1788049997606436900,1.194436767578125,9.779474258422852,-0.7203456163406372,0.11567153036594391
1788049997623035100,1.21103515625,9.77945613861084,-0.7211607098579407,0.11203737556934357
1788049997638553300,1.22655322265625,9.77956771850586,-0.7200872302055359,0.10918544232845306
1788049997654743600,1.24274365234375,9.77975082397461,-0.7176093459129333,0.10912048071622849
1788049997670799600,1.258799560546875,9.779852867126465,-0.7158628106117249,0.11134952306747437
1788049997686624800,1.274624755859375,9.779789924621582,-0.7166726589202881,0.11174268275499344
1788049997703067100,1.291067138671875,9.779553413391113,-0.7200522422790527,0.11067114770412445
1788049997718720000,1.306719970703125,9.779301643371582,-0.7236537933349609,0.10939665138721466
1788049997734667800,1.322667724609375,9.779152870178223,-0.7254871726036072,0.11057574301958084
1788049997750934000,1.33893408203125,9.77908992767334,-0.725689709186554,0.11473070830106735
1788049997767302100,1.35530224609375,9.779035568237305,-0.7258062958717346,0.11854653805494308
1788049997783164700,1.37116455078125,9.778924942016602,-0.7269989848136902,0.12032986432313919
1788049997798886700,1.38688671875,9.778764724731445,-0.729084849357605,0.12074636667966843
1788049997814836700,1.402836669921875,9.778639793395996,-0.7309598326683044,0.11950749158859253
1788049997831136000,1.419135986328125,9.77863597869873,-0.7313277721405029,0.11753641068935394
1788049997847024600,1.435024658203125,9.778682708740234,-0.7308061718940735,0.11693941801786423
1788049997863362800,1.45136279296875,9.7786226272583,-0.7316571474075317,0.11659266799688339
1788049997879062000,1.46706201171875,9.778371810913086,-0.7349839210510254,0.11672685295343399
1788049997895203300,1.483203369140625,9.77796459197998,-0.7403154969215393,0.11717866361141205
1788049997911548000,1.4995478515625,9.777554512023926,-0.745663046836853,0.1175137609243393
1788049997927157800,1.51515771484375,9.77730655670166,-0.7488218545913696,0.1180301308631897
1788049997943724000,1.53172412109375,9.777301788330078,-0.7488078474998474,0.1185218095779419
1788049997959297000,1.547297119140625,9.777570724487305,-0.7450636625289917,0.11990676075220108
1788049997975273200,1.563273193359375,9.777957916259766,-0.7397781014442444,0.12108146399259567
1788049997991552000,1.579552001953125,9.778302192687988,-0.7352100610733032,0.12111284583806992
1788049998007408400,1.595408447265625,9.778478622436523,-0.7329884171485901,0.12029092013835907
1788049998023784400,1.611784423828125,9.778485298156738,-0.7332004308700562,0.11848194897174835
1788049998039637200,1.62763720703125,9.778409004211426,-0.7344317436218262,0.11713643372058868
1788049998055663000,1.6436630859375,9.778488159179688,-0.7332507371902466,0.11789447069168091
1788049998072118800,1.660118896484375,9.77874755859375,-0.7296656370162964,0.11865314096212387
1788049998087889200,1.67588916015625,9.77903938293457,-0.7262183427810669,0.11573102325201035
1788049998104087800,1.692087890625,9.7792387008667,-0.724315345287323,0.11062909662723541
1788049998119832300,1.707832275390625,9.779399871826172,-0.7224111557006836,0.10884828120470047
1788049998136017000,1.724016845703125,9.779541015625,-0.7201870679855347,0.11084102094173431
1788049998152354800,1.740354736328125,9.779671669006348,-0.7179439067840576,0.11382400244474411
1788049998167951600,1.75595166015625,9.779809951782227,-0.7161316275596619,0.11342877894639969
1788049998184217900,1.7722177734375,9.779984474182129,-0.7142965793609619,0.1099102795124054
1788049998200064800,1.788064697265625,9.7802095413208,-0.7119550704956055,0.10488074272871017
1788049998215997200,1.8039970703125,9.780452728271484,-0.7094277739524841,0.09920675307512283
1788049998232300000,1.820300048828125,9.780752182006836,-0.7060093879699707,0.0939636155962944
1788049998248270300,1.836270263671875,9.781062126159668,-0.7020564675331116,0.09125044196844101
1788049998264664800,1.852664794921875,9.781412124633789,-0.6973217725753784,0.09007126092910767
1788049998280373200,1.868373291015625,9.781822204589844,-0.6922131776809692,0.08469563722610474
1788049998296204800,1.884204833984375,9.78219985961914,-0.6878926157951355,0.07581274956464767
1788049998312519200,1.900519287109375,9.782712936401367,-0.6816446781158447,0.06531265377998352
1788049998328819000,1.91681884765625,9.783169746398926,-0.6760084629058838,0.054738081991672516
1788049998344887000,1.932886962890625,9.78341293334961,-0.6732391715049744,0.044509973376989365
1788049998360493800,1.948493896484375,9.783249855041504,-0.6758373975753784,0.04069019481539726
1788049998376443400,1.964443359375,9.782787322998047,-0.6824661493301392,0.041253235191106796
1788049998392764200,1.98076416015625,9.782217979431152,-0.6902599930763245,0.046295102685689926
1788049998408512800,1.9965126953125,9.78177547454834,-0.6959748864173889,0.053556691855192184
1788049998424920300,2.01292041015625,9.781669616699219,-0.6969499588012695,0.05995877832174301
1788049998440620000,2.0286201171875,9.781930923461914,-0.692940354347229,0.06354845315217972
1788049998456723500,2.044723388671875,9.782419204711914,-0.6860234141349792,0.06356263160705566
1788049998473056000,2.061055908203125,9.782896995544434,-0.6792541146278381,0.0626676008105278
1788049998488734700,2.076734619140625,9.783217430114746,-0.6750240921974182,0.05824505165219307
1788049998505092000,2.093092041015625,9.783595085144043,-0.6700491309165955,0.05177716910839081
1788049998520874500,2.10887451171875,9.784153938293457,-0.6623826026916504,0.04423179477453232
1788049998536923600,2.124923583984375,9.784897804260254,-0.651890754699707,0.03472617268562317
1788049998553234000,2.14123388671875,9.785494804382324,-0.6433207988739014,0.02461659163236618
1788049998568994000,2.156994140625,9.785737037658691,-0.6399471163749695,0.014410309493541718
1788049998585511400,2.173511474609375,9.785724639892578,-0.640302836894989,0.002446626080200076
1788049998601274600,2.189274658203125,9.785449981689453,-0.6442116498947144,-0.018325474113225937
1788049998617013500,2.205013427734375,9.785015106201172,-0.6501204371452332,-0.0349452942609787
1788049998633384200,2.22138427734375,9.78492259979248,-0.6511175036430359,-0.04147794842720032
1788049998649309000,2.237308837890625,9.785008430480957,-0.6499078273773193,-0.040296703577041626
1788049998665714000,2.2537138671875,9.784896850585938,-0.651785671710968,-0.0367809496819973
1788049998681271800,2.269271728515625,9.78449821472168,-0.65797358751297,-0.0323251374065876
1788049998697188600,2.285188720703125,9.784348487854004,-0.6604453921318054,-0.02682310715317726
1788049998713687300,2.301687255859375,9.784971237182617,-0.6515491008758545,-0.014215189032256603
1788049998729312500,2.3173125,9.786307334899902,-0.6313359141349792,0.0017250154633074999
1788049998745756200,2.333756103515625,9.787818908691406,-0.6073021292686462,0.013069507665932178
1788049998761635300,2.34963525390625,9.788753509521484,-0.5919930934906006,0.01563606970012188
1788049998777767400,2.365767333984375,9.789084434509277,-0.5865387320518494,0.014051523059606552
1788049998793753300,2.38175341796875,9.789143562316895,-0.5855979919433594,0.01106772106140852
1788049998809673500,2.397673583984375,9.789095878601074,-0.586412250995636,0.010687452740967274
1788049998826081800,2.414081787109375,9.788981437683105,-0.5882868766784668,0.012072623707354069
1788049998842198000,2.430197998046875,9.788931846618652,-0.5889641046524048,0.01801876351237297
1788049998857695000,2.445695068359375,9.788901329040527,-0.5893532633781433,0.021617209538817406
1788049998873972200,2.46197216796875,9.7887544631958,-0.5918724536895752,0.019097736105322838
1788049998890210600,2.47821044921875,9.788673400878906,-0.5933681726455688,0.012820574454963207
1788049998906309000,2.49430908203125,9.788533210754395,-0.5956672430038452,0.013358042575418949
1788049998921984300,2.509984375,9.78797435760498,-0.6043611764907837,0.026339780539274216
1788049998937962200,2.525962158203125,9.786985397338867,-0.6188726425170898,0.047999221831560135
1788049998954205000,2.542204833984375,9.785959243774414,-0.6321836113929749,0.07571522146463394
1788049998970110000,2.55810986328125,9.785588264465332,-0.6347341537475586,0.09881598502397537
1788049998986455800,2.574455810546875,9.785826683044434,-0.6283267140388489,0.1148315891623497
1788049999002274800,2.59027490234375,9.786213874816895,-0.6197174191474915,0.12786677479743958
1788049999018331000,2.606330810546875,9.786462783813477,-0.6139284372329712,0.1364370584487915
1788049999034578700,2.62257861328125,9.786677360534668,-0.6090595722198486,0.14275595545768738
1788049999050548200,2.63854833984375,9.787163734436035,-0.6004579067230225,0.14586079120635986
1788049999066824200,2.65482421875,9.788154602050781,-0.5837713479995728,0.14706288278102875
1788049999082771700,2.670771728515625,9.789318084716797,-0.563871443271637,0.14728550612926483
1788049999098471700,2.6864716796875,9.789936065673828,-0.5528573989868164,0.14799076318740845
1788049999114997200,2.702997314453125,9.789609909057617,-0.557944655418396,0.15040597319602966
1788049999130622700,2.718622802734375,9.788744926452637,-0.5719825029373169,0.15396519005298615
1788049999147155200,2.7351552734375,9.78805923461914,-0.5824761986732483,0.1581515669822693
1788049999162763000,2.750762939453125,9.788390159606934,-0.5763276815414429,0.1601412296295166
1788049999178683600,2.76668359375,9.789825439453125,-0.5519828200340271,0.1581941694021225
1788049999195196200,2.783196044921875,9.792206764221191,-0.5110125541687012,0.1481081247329712
1788049999211039000,2.7990390625,9.794646263122559,-0.4670479893684387,0.1309901475906372
1788049999227331300,2.815331298828125,9.797066688537598,-0.42052149772644043,0.10508379340171814
1788049999242958300,2.830958251953125,9.7993745803833,-0.3701799809932709,0.0748973861336708
1788049999258911500,2.846911376953125,9.801285743713379,-0.32121527194976807,0.04474187269806862
1788049999275189000,2.86318896484375,9.802306175231934,-0.29110559821128845,0.020959721878170967
1788049999291030800,2.87903076171875,9.802351951599121,-0.2902715504169464,0.004338138736784458
1788049999307353900,2.895353759765625,9.801494598388672,-0.31786274909973145,-0.0073599801398813725
1788049999323156700,2.91115673828125,9.799898147583008,-0.36371392011642456,-0.010207049548625946
1788049999339112000,2.92711181640625,9.797942161560059,-0.41316038370132446,0.00542611675336957
1788049999355362600,2.943362548828125,9.79549789428711,-0.46640145778656006,0.032905422151088715
1788049999371478000,2.95947802734375,9.7933349609375,-0.5077393054962158,0.056324657052755356
1788049999387769000,2.97576904296875,9.792215347290039,-0.527141809463501,0.07087971270084381
1788049999403820800,2.99182080078125,9.7927885055542,-0.5159183740615845,0.07430943101644516
1788049999419325700,3.00732568359375,9.794638633728027,-0.4801807701587677,0.06969528645277023
1788049999435597300,3.023597412109375,9.796957969665527,-0.43141689896583557,0.062235381454229355
1788049999451440000,3.039440185546875,9.798843383789062,-0.3864916265010834,0.06069720908999443
1788049999467990800,3.05599072265625,9.800127029418945,-0.3512810170650482,0.06708793342113495
1788049999483559400,3.071559326171875,9.800970077514648,-0.32288360595703125,0.0843646302819252
1788049999499576000,3.087576171875,9.800647735595703,-0.3305712044239044,0.09176626056432724
1788049999515881700,3.1038818359375,9.799287796020508,-0.36706894636154175,0.09804290533065796
1788049999531701000,3.119700927734375,9.797122955322266,-0.42180564999580383,0.09407837688922882
1788049999548128500,3.13612841796875,9.79443645477295,-0.48126742243766785,0.08825204521417618
1788049999563819500,3.151819580078125,9.792744636535645,-0.5139608979225159,0.09150933474302292
1788049999579810000,3.16781005859375,9.7935209274292,-0.49620765447616577,0.10543129593133926
1788049999596328700,3.18432861328125,9.796688079833984,-0.42329734563827515,0.1268949955701828
1788049999612066600,3.200066650390625,9.800094604492188,-0.32761290669441223,0.14565721154212952
1788049999628303000,3.21630322265625,9.802706718444824,-0.23898868262767792,0.14220218360424042
1788049999644027000,3.23202685546875,9.8045654296875,-0.17228099703788757,0.10581207275390625
1788049999660408000,3.248407958984375,9.805685997009277,-0.1276078224182129,0.05119000002741814
1788049999676245200,3.264245361328125,9.806109428405762,-0.10192215442657471,-0.014660829678177834
1788049999692188700,3.280188720703125,9.805923461914062,-0.09582825005054474,-0.07124055176973343
1788049999708577300,3.296577392578125,9.805536270141602,-0.1026005744934082,-0.10635016113519669
1788049999724245000,3.312244873046875,9.805262565612793,-0.11829741299152374,-0.11496538668870926
1788049999740159500,3.328159423828125,9.805147171020508,-0.14180271327495575,-0.09679131209850311
1788049999756410600,3.34441064453125,9.804933547973633,-0.17276418209075928,-0.06183774024248123
1788049999772248600,3.36024853515625,9.80453109741211,-0.20301048457622528,-0.018461978062987328
1788049999788600000,3.37660009765625,9.803929328918457,-0.22983665764331818,0.023089930415153503
1788049999804510500,3.392510498046875,9.803332328796387,-0.24954961240291595,0.05274764820933342
1788049999820520400,3.4085205078125,9.802635192871094,-0.274720698595047,0.05703217536211014
1788049999836748000,3.424748046875,9.802919387817383,-0.26501524448394775,0.05395068600773811
1788049999852931800,3.440931884765625,9.803434371948242,-0.248093381524086,0.03884474188089371
1788049999869063400,3.4570634765625,9.803816795349121,-0.2355450838804245,0.00931633822619915
1788049999892610300,3.4806103515625,9.803380012512207,-0.24480696022510529,-0.0647774264216423
1788049999909160700,3.49716064453125,9.80236530303955,-0.2641949951648712,-0.11928603053092957
1788049999925208300,3.513208251953125,9.801148414611816,-0.28483816981315613,-0.16355684399604797
1788049999940833300,3.528833251953125,9.80033016204834,-0.2973117232322693,-0.18849804997444153
1788049999957155800,3.54515576171875,9.799860000610352,-0.3026329576969147,-0.20379936695098877
1788049999973092900,3.5610927734375,9.799854278564453,-0.30493637919425964,-0.20061692595481873
1788049999989374000,3.5773740234375,9.800079345703125,-0.3039540946483612,-0.19088520109653473
1788050000005285000,3.59328515625,9.80044937133789,-0.2995396852493286,-0.17851324379444122
1788050000021136000,3.609135986328125,9.801142692565918,-0.2788943946361542,-0.1737871617078781
1788050000037626000,3.625626220703125,9.80234146118164,-0.23602363467216492,-0.1696498692035675
1788050000053233400,3.6412333984375,9.803581237792969,-0.1840573102235794,-0.16215136647224426
1788050000069826800,3.657826904296875,9.804757118225098,-0.12239153683185577,-0.14880675077438354
1788050000085451500,3.673451416015625,9.805558204650879,-0.06396133452653885,-0.1316262185573578
1788050000101827000,3.6898271484375,9.8058500289917,-0.010736105963587761,-0.12480943650007248
1788050000117752800,3.7057529296875,9.805742263793945,0.03483958914875984,-0.1287965029478073
1788050000133681400,3.721681396484375,9.805405616760254,0.06671424955129623,-0.1412917673587799
1788050000150086100,3.738086181640625,9.805173873901367,0.08292296528816223,-0.14853645861148834
1788050000165747500,3.75374755859375,9.805198669433594,0.09526633471250534,-0.13930675387382507
1788050000181753600,3.769753662109375,9.805377006530762,0.11340036988258362,-0.10999166965484619
1788050000198053400,3.786053466796875,9.805532455444336,0.13535158336162567,-0.059965215623378754
1788050000213851100,3.80185107421875,9.805527687072754,0.14820949733257294,-0.00643101055175066
1788050000230251300,3.818251220703125,9.805465698242188,0.14534910023212433,0.04601016640663147
1788050000246130400,3.83413037109375,9.805410385131836,0.12251042574644089,0.09648609161376953
1788050000261998600,3.84999853515625,9.805373191833496,0.080980084836483,0.1359589546918869
1788050000278328800,3.866328857421875,9.805320739746094,0.028377167880535126,0.15896809101104736
1788050000294083800,3.882083740234375,9.805310249328613,-0.018340297043323517,0.16103725135326385
1788050000310495000,3.898494873046875,9.805533409118652,-0.039643943309783936,0.14255397021770477
1788050000326709500,3.91470947265625,9.805996894836426,-0.02688826620578766,0.10994216054677963
1788050000342252000,3.930251953125,9.806413650512695,0.014272362925112247,0.06653548777103424
1788050000358604800,3.946604736328125,9.806384086608887,0.07210224866867065,0.004437019117176533
1788050000374315800,3.962315673828125,9.805622100830078,0.12987256050109863,-0.05728379637002945
1788050000390882300,3.97888232421875,9.804326057434082,0.18527881801128387,-0.10602738708257675
1788050000406660900,3.994660888671875,9.803170204162598,0.22788503766059875,-0.1276954859495163
1788050000422534100,4.0105341796875,9.802652359008789,0.2565457224845886,-0.11212901771068573
1788050000438951400,4.026951416015625,9.802800178527832,0.2684929370880127,-0.058354802429676056
1788050000454839300,4.04283935546875,9.80319881439209,0.25953030586242676,0.018184823915362358
1788050000471055400,4.059055419921875,9.803563117980957,0.227913036942482,0.09273034334182739
1788050000486751500,4.07475146484375,9.80412483215332,0.1695120632648468,0.14416734874248505
1788050000502730500,4.09073046875,9.804770469665527,0.0968438982963562,0.16578330099582672
1788050000518982700,4.106982666015625,9.805303573608398,0.037357743829488754,0.15813875198364258
1788050000534802700,4.122802734375,9.805790901184082,0.01409180462360382,0.12902632355690002
1788050000551169000,4.1391689453125,9.806193351745605,0.015766793861985207,0.09336972236633301
1788050000566945500,4.154945556640625,9.806389808654785,0.02424527518451214,0.0672881156206131
1788050000582935800,4.170935791015625,9.806478500366211,0.02684553898870945,0.051518090069293976
1788050000599242500,4.187242431640625,9.806548118591309,0.019712913781404495,0.04006989300251007
1788050000615016200,4.20301611328125,9.80660629272461,-0.006970069836825132,0.02855701372027397
1788050000631555800,4.219555908203125,9.806502342224121,-0.05125768482685089,0.016443848609924316
1788050000647193000,4.235193115234375,9.80615520477295,-0.09836290776729584,0.005242996849119663
1788050000663165200,4.251165283203125,9.805718421936035,-0.13512687385082245,-0.003707293653860688
1788050000679562800,4.267562744140625,9.805315017700195,-0.16158179938793182,-0.008701690472662449
1788050000695399200,4.283399169921875,9.805023193359375,-0.17828837037086487,-0.011332313530147076
1788050000711590000,4.29958984375,9.804929733276367,-0.1831141859292984,-0.014880813658237457
1788050000727510500,4.315510498046875,9.805027961730957,-0.1767311841249466,-0.02397405169904232
1788050000743371500,4.33137158203125,9.80530071258545,-0.16106568276882172,-0.022769661620259285
1788050000759657000,4.347656982421875,9.805719375610352,-0.13398714363574982,-0.01727151684463024
1788050000775444500,4.363444580078125,9.806200981140137,-0.09281875193119049,-0.013875885866582394
1788050000791900200,4.379900146484375,9.806557655334473,-0.037442341446876526,-0.020412718877196312
1788050000807647200,4.395647216796875,9.806498527526855,0.0296158529818058,-0.04572785645723343
1788050000823668500,4.41166845703125,9.805685997009277,0.09735465794801712,-0.09710532426834106
1788050000840141300,4.428141357421875,9.803702354431152,0.17172695696353912,-0.16827978193759918
1788050000855748400,4.443748291015625,9.800837516784668,0.25381770730018616,-0.22257964313030243
1788050000872358700,4.460358642578125,9.796991348266602,0.3495331406593323,-0.2591798007488251
1788050000888438500,4.4764384765625,9.792383193969727,0.4504164159297943,-0.2770249545574188
1788050000904020700,4.492020751953125,9.788264274597168,0.539527416229248,-0.2630416750907898
1788050000920311600,4.5083115234375,9.784377098083496,0.6198564767837524,-0.22830499708652496
1788050000936139000,4.524138916015625,9.780137062072754,0.6869391202926636,-0.21777242422103882
1788050000952602400,4.540602294921875,9.77485179901123,0.7510184049606323,-0.2421552985906601
1788050000968403700,4.55640380859375,9.76999282836914,0.8047162890434265,-0.2646828293800354
1788050000984642000,4.57264208984375,9.766908645629883,0.8409281373023987,-0.26594799757003784
1788050001000583400,4.58858349609375,9.765861511230469,0.8545226454734802,-0.26100900769233704
1788050001016386300,4.60438623046875,9.766623497009277,0.8473039269447327,-0.2560071349143982
1788050001032844800,4.6208447265625,9.768302917480469,0.8341177105903625,-0.23429477214813232
1788050001048640800,4.636640869140625,9.769190788269043,0.835006058216095,-0.18991635739803314
1788050001064648000,4.65264794921875,9.76788330078125,0.860521137714386,-0.13546262681484222
1788050001080926700,4.6689267578125,9.763288497924805,0.9186335206031799,-0.06850527226924896
1788050001096677000,4.684677001953125,9.755088806152344,1.0042924880981445,-0.005009462125599384
1788050001113173500,4.701173583984375,9.744142532348633,1.1044608354568481,0.04726118966937065
1788050001128860700,4.716860595703125,9.731657981872559,1.2069377899169922,0.09229450672864914
1788050001145384200,4.73338427734375,9.72075366973877,1.2891590595245361,0.12407657504081726
1788050001161175600,4.749175537109375,9.710493087768555,1.3602100610733032,0.16289806365966797
1788050001176956200,4.7649560546875,9.70305347442627,1.4048887491226196,0.21780787408351898
1788050001193372200,4.7813720703125,9.700678825378418,1.407405972480774,0.2939690053462982
1788050001209144000,4.79714404296875,9.705714225769043,1.3473474979400635,0.39261573553085327
1788050001225156000,4.813156005859375,9.715917587280273,1.2376378774642944,0.48946693539619446
1788050001241590800,4.8295908203125,9.72974681854248,1.0915807485580444,0.5575687289237976
1788050001257251800,4.845251953125,9.743457794189453,0.9326627850532532,0.6046200394630432
1788050001273634300,4.86163427734375,9.753005981445312,0.7930059432983398,0.6483907699584961
1788050001289411000,4.8774111328125,9.759626388549805,0.6651998162269592,0.6910785436630249
1788050001305425000,4.8934248046875,9.76644229888916,0.5379457473754883,0.7054141163825989
1788050001321689000,4.909689208984375,9.772500991821289,0.4345731735229492,0.6926486492156982
1788050001337654800,4.92565478515625,9.777946472167969,0.34517207741737366,0.665584146976471
1788050001354050300,4.94205029296875,9.783299446105957,0.26431944966316223,0.6225617527961731
1788050001369832700,4.957832763671875,9.788031578063965,0.19210100173950195,0.5726402401924133
1788050001385689000,4.973689208984375,9.792384147644043,0.12358338385820389,0.5141424536705017
1788050001402197800,4.99019775390625,9.796045303344727,0.05987321585416794,0.4519907534122467
1788050001417669400,5.00566943359375,9.798550605773926,0.011722349561750889,0.3983011245727539
1788050001434076700,5.02207666015625,9.800145149230957,-0.019655123353004456,0.3565812408924103
1788050001450335200,5.038335205078125,9.801131248474121,-0.036622289568185806,0.32691502571105957
1788050001465845500,5.053845458984375,9.802047729492188,-0.03158228471875191,0.2987539768218994
1788050001482109200,5.070109130859375,9.802637100219727,0.024294327944517136,0.27949458360671997
1788050001497954000,5.0859541015625,9.802124977111816,0.12130696326494217,0.27206316590309143
1788050001514313200,5.102313232421875,9.799704551696777,0.2554618716239929,0.2662830948829651
1788050001530077700,5.11807763671875,9.79403018951416,0.42766255140304565,0.25391677021980286
1788050001546142200,5.13414208984375,9.78281021118164,0.6411214470863342,0.23657982051372528
1788050001562367500,5.150367431640625,9.761224746704102,0.9155386090278625,0.2250930219888687
1788050001578201000,5.166201171875,9.730436325073242,1.202122688293457,0.2095290720462799
1788050001594454800,5.182454833984375,9.685782432556152,1.5243502855300903,0.17992271482944489
1788050001610219000,5.198218994140625,9.628280639648438,1.8569215536117554,0.13580848276615143
1788050001626237000,5.21423681640625,9.562597274780273,2.1721127033233643,0.0951475277543068
1788050001642540300,5.230540283203125,9.486084938049316,2.486356735229492,0.051126740872859955
1788050001658281200,5.24628125,9.405257225036621,2.7769522666931152,0.00814721267670393
1788050001674710500,5.26271044921875,9.31495475769043,3.066127061843872,-0.029471302404999733
1788050001690464800,5.27846484375,9.213767051696777,3.357761859893799,-0.048232994973659515
1788050001706947600,5.294947509765625,9.113207817077637,3.6218321323394775,-0.04647694528102875
1788050001722782000,5.310781982421875,9.008183479309082,3.8758089542388916,-0.03339022770524025
1788050001738521300,5.326521240234375,8.910106658935547,4.096374988555908,-0.010291969403624535
1788050001754923000,5.342923095703125,8.818451881408691,4.290070533752441,-0.024554887786507607
1788050001770663000,5.358662841796875,8.726037979125977,4.474495887756348,-0.07447247207164764
1788050001786718700,5.37471875,8.627729415893555,4.660192012786865,-0.12358590215444565
1788050001803060000,5.39106005859375,8.51037311553955,4.868988513946533,-0.192064106464386
1788050001818764800,5.406764892578125,8.37829303741455,5.090384483337402,-0.25017625093460083
1788050001835131600,5.423131591796875,8.235145568847656,5.317299842834473,-0.28123176097869873
1788050001850899500,5.4388994140625,8.073554039001465,5.559754371643066,-0.27791503071784973
1788050001866909400,5.454909423828125,7.916511058807373,5.782684326171875,-0.2445676177740097
1788050001883311900,5.471311767578125,7.765522003173828,5.985757827758789,-0.19431085884571075
1788050001899075000,5.487074951171875,7.652116298675537,6.131754398345947,-0.13070815801620483
1788050001915409200,5.5034091796875,7.565578937530518,6.2393670082092285,-0.05203384906053543
1788050001931199500,5.519199462890625,7.495968341827393,6.322930812835693,0.037295419722795486
1788050001947124000,5.5351240234375,7.431485652923584,6.397702217102051,0.11318010091781616
1788050001963718400,5.551718505859375,7.354984283447266,6.484096527099609,0.1762947291135788
1788050001979174400,5.56717431640625,7.270277500152588,6.577711582183838,0.21717122197151184
1788050001995605200,5.583605224609375,7.171985149383545,6.684283256530762,0.23103666305541992
1788050002011481600,5.599481689453125,7.07186222076416,6.790579319000244,0.2172086238861084
1788050002027366400,5.615366455078125,6.99026346206665,6.87546968460083,0.18579116463661194
1788050002043647200,5.631647216796875,6.922300338745117,6.944791316986084,0.14840807020664215
1788050002059460000,5.647460205078125,6.860053062438965,7.006940841674805,0.11329670995473862
1788050002075960600,5.663960693359375,6.788830280303955,7.076364517211914,0.08506196737289429
1788050002091574800,5.67957470703125,6.701374530792236,7.15954065322876,0.05429302528500557
1788050002107599600,5.695599609375,6.611789703369141,7.242521286010742,0.022660452872514725
1788050002123862500,5.711862548828125,6.528407096862793,7.31780481338501,-0.0036024085711687803
1788050002140094000,5.728093994140625,6.468771934509277,7.370559215545654,-0.016004502773284912
1788050002156062500,5.7440625,6.425754547119141,7.408100605010986,-0.010297230444848537
1788050002171769300,5.759769287109375,6.396595001220703,7.433285713195801,0.015350421890616417
1788050002187897900,5.77589794921875,6.373513221740723,7.452962875366211,0.04542173445224762
1788050002204096000,5.792095947265625,6.348409175872803,7.474179267883301,0.06887304782867432
1788050002220335000,5.808335205078125,6.3143463134765625,7.502974033355713,0.0692296028137207
1788050002236284700,5.82428466796875,6.269444942474365,7.54074764251709,0.03988134488463402
1788050002252221200,5.84022119140625,6.220585346221924,7.581192493438721,-0.015476678498089314
1788050002268069400,5.8560693359375,6.187143325805664,7.608155727386475,-0.07496259361505508
1788050002284507100,5.872507080078125,6.167747497558594,7.623126029968262,-0.1312871277332306
1788050002300010800,5.8880107421875,6.15778112411499,7.630305767059326,-0.17480185627937317
1788050002316448300,5.9044482421875,6.148830890655518,7.636684894561768,-0.20810090005397797
1788050002332105000,5.92010498046875,6.133255958557129,7.648144245147705,-0.24381110072135925
1788050002348269800,5.936269775390625,6.116128921508789,7.660187721252441,-0.29134470224380493
1788050002364676000,5.952676025390625,6.111906051635742,7.660843849182129,-0.35562223196029663
1788050002380386000,5.968385986328125,6.138357162475586,7.636341571807861,-0.4210048317909241
1788050002396678700,5.9846787109375,6.197563171386719,7.585002422332764,-0.477851927280426
1788050002412484600,6.000484619140625,6.284634590148926,7.509213924407959,-0.5342848896980286
1788050002428620500,6.01662060546875,6.3780035972595215,7.4264020919799805,-0.583107054233551
1788050002444626700,6.032626708984375,6.469283580780029,7.34394645690918,-0.6206444501876831
1788050002460411600,6.04841162109375,6.527501583099365,7.29014778137207,-0.6448685526847839
1788050002477017000,6.06501708984375,6.548911094665527,7.26812744140625,-0.6756365895271301
1788050002492589800,6.08058984375,6.548762798309326,7.265763759613037,-0.7019745707511902
1788050002508593400,6.096593505859375,6.549580097198486,7.2630295753479,-0.7223524451255798
1788050002524829700,6.11282958984375,6.573711395263672,7.239799499511719,-0.736213207244873
1788050002540601300,6.128601318359375,6.620479583740234,7.197527885437012,-0.7315908074378967
1788050002556976400,6.144976318359375,6.677481174468994,7.147321701049805,-0.7052823901176453
1788050002572880000,6.1608798828125,6.730722427368164,7.101912498474121,-0.6562041640281677
1788050002588769000,6.17676904296875,6.772879600524902,7.067760467529297,-0.5875792503356934
1788050002605235000,6.19323486328125,6.803832530975342,7.044262886047363,-0.5065796971321106
1788050002620864300,6.2088642578125,6.82344388961792,7.029808044433594,-0.4390797019004822
1788050002637229000,6.22522900390625,6.839865207672119,7.016788959503174,-0.3889841139316559
1788050002652884500,6.240884521484375,6.8603739738464355,6.998562335968018,-0.35466858744621277
1788050002668916200,6.256916259765625,6.893118381500244,6.967717170715332,-0.32592883706092834
1788050002685235200,6.273235107421875,6.942837715148926,6.919641494750977,-0.29316842555999756
1788050002700971300,6.28897119140625,6.996970176696777,6.86612606048584,-0.26289427280426025
1788050002717373700,6.305373779296875,7.051942348480225,6.8107428550720215,-0.23300592601299286
1788050002733640200,6.32164013671875,7.1004638671875,6.7611308097839355,-0.20224925875663757
1788050002749162200,6.337162353515625,7.1387553215026855,6.7214484214782715,-0.17518910765647888
1788050002765639700,6.3536396484375,7.17669677734375,6.6814656257629395,-0.1530555933713913
1788050002781628000,6.3696279296875,7.221243381500244,6.633666515350342,-0.13598988950252533
1788050002797633000,6.385633056640625,7.280551910400391,6.568757057189941,-0.12400456517934799
1788050002813366000,6.401365966796875,7.35655403137207,6.483692169189453,-0.11500526964664459
1788050002829351000,6.417350830078125,7.445136070251465,6.382028102874756,-0.10025661438703537
1788050002845645300,6.433645263671875,7.538830280303955,6.271378040313721,-0.0790250226855278
1788050002861547300,6.44954736328125,7.612250804901123,6.1822590827941895,-0.060799628496170044
1788050002877811000,6.46581103515625,7.663004398345947,6.119389057159424,-0.04278174415230751
1788050002893583400,6.481583251953125,7.694869518280029,6.079394817352295,-0.018043898046016693
1788050002909962200,6.497962158203125,7.719493865966797,6.048104763031006,0.015175942331552505
1788050002925880300,6.51388037109375,7.749699115753174,6.0090813636779785,0.05912585183978081
1788050002941630200,6.529630126953125,7.787372589111328,5.959437847137451,0.1109919399023056
1788050002957937200,6.545937255859375,7.834857940673828,5.895448684692383,0.17048487067222595
1788050002973712000,6.5617119140625,7.893787860870361,5.814218521118164,0.23102979362010956
1788050002989722600,6.57772265625,7.954867839813232,5.728194713592529,0.2797480821609497
1788050003005987600,6.593987548828125,8.020730972290039,5.633470058441162,0.31981897354125977
1788050003021800200,6.60980029296875,8.084056854248047,5.53998327255249,0.3563714623451233
1788050003038397000,6.62639697265625,8.151260375976562,5.438423156738281,0.38843685388565063
1788050003054024200,6.642024169921875,8.228506088256836,5.319748878479004,0.4029293656349182
1788050003069939200,6.657939208984375,8.315022468566895,5.184858798980713,0.3847369849681854
1788050003086181600,6.674181640625,8.412880897521973,5.028791904449463,0.3241521716117859
1788050003102014000,6.690013916015625,8.515093803405762,4.859040260314941,0.2308531254529953
1788050003118383000,6.706383056640625,8.62105941772461,4.672605037689209,0.1203228086233139
1788050003134090800,6.7220908203125,8.724115371704102,4.478847503662109,0.010639029555022717
1788050003150255600,6.738255615234375,8.814397811889648,4.297782897949219,-0.07654811441898346
1788050003166709000,6.754708984375,8.891021728515625,4.135490894317627,-0.133522629737854
1788050003182151000,6.77015087890625,8.945889472961426,4.014343738555908,-0.1627567559480667
1788050003198683100,6.78668310546875,8.989431381225586,3.915684938430786,-0.1670622080564499
1788050003214345200,6.80234521484375,9.03920841217041,3.800410509109497,-0.1413533240556717
1788050003230392000,6.81839208984375,9.101544380187988,3.649885892868042,-0.10304039716720581
1788050003246657000,6.834656982421875,9.176050186157227,3.4589154720306396,-0.07996946573257446
1788050003262725400,6.850725341796875,9.248493194580078,3.259821891784668,-0.09655921906232834
1788050003278845200,6.86684521484375,9.32493782043457,3.031629800796509,-0.15855608880519867
1788050003295056600,6.883056640625,9.396730422973633,2.7939059734344482,-0.2567645311355591
1788050003310620200,6.8986201171875,9.465191841125488,2.5364696979522705,-0.3832237422466278
1788050003326976500,6.9149765625,9.525894165039062,2.2690906524658203,-0.5281587243080139
1788050003342690300,6.930690185546875,9.572657585144043,2.019885301589966,-0.674297034740448
1788050003359160300,6.947160400390625,9.610626220703125,1.7807294130325317,-0.7970252633094788
1788050003374849500,6.962849609375,9.644412994384766,1.550018548965454,-0.8678328394889832
1788050003391112200,6.9791123046875,9.669486999511719,1.3598954677581787,-0.9066840410232544
1788050003407104800,6.995104736328125,9.690573692321777,1.1960368156433105,-0.9125009179115295
1788050003423164000,7.011163818359375,9.706846237182617,1.0737448930740356,-0.8913968205451965
1788050003439298000,7.027298095703125,9.722591400146484,0.965796172618866,-0.8419252634048462
1788050003455110000,7.04310986328125,9.740697860717773,0.8465920686721802,-0.7566283941268921
1788050003471076000,7.059076171875,9.758387565612793,0.7179082632064819,-0.654884397983551
1788050003487368700,7.07536865234375,9.773218154907227,0.5815039873123169,-0.5625231862068176
1788050003503166700,7.091166748046875,9.784090042114258,0.4438517689704895,-0.49493733048439026
1788050003519518700,7.107518798828125,9.791467666625977,0.3120940625667572,-0.44738611578941345
1788050003535257900,7.1232578125,9.795952796936035,0.19997850060462952,-0.4119471311569214
1788050003551710700,7.139710693359375,9.797929763793945,0.12529033422470093,-0.3940448462963104
1788050003567580000,7.155579833984375,9.798986434936523,0.08805948495864868,-0.3774833381175995
1788050003583346400,7.171346435546875,9.799007415771484,0.10501517355442047,-0.3725786507129669
1788050003599657700,7.18765771484375,9.797636985778809,0.1711835265159607,-0.3839171230792999
1788050003615451100,7.203451171875,9.794571876525879,0.2742549479007721,-0.40192389488220215
1788050003631447000,7.219447021484375,9.790109634399414,0.39818960428237915,-0.40692347288131714
1788050003647765200,7.23576513671875,9.78311538696289,0.5415511131286621,-0.40959927439689636
1788050003663531300,7.25153125,9.774201393127441,0.6742569804191589,-0.42516225576400757
1788050003679952400,7.267952392578125,9.765759468078613,0.7662345767021179,-0.46174365282058716
1788050003695776800,7.28377685546875,9.760946273803711,0.7999277114868164,-0.5044074654579163
1788050003711764500,7.299764404296875,9.760791778564453,0.7763329148292542,-0.54281085729599
1788050003728075300,7.3160751953125,9.763091087341309,0.7342587113380432,-0.5597349405288696
1788050003743848400,7.331848388671875,9.765207290649414,0.7106629014015198,-0.5532521605491638
1788050003760258000,7.348258056640625,9.765605926513672,0.722014307975769,-0.5310565829277039
1788050003776035300,7.364035400390625,9.763750076293945,0.7660183310508728,-0.5027837157249451
1788050003792084500,7.38008447265625,9.759414672851562,0.8316506743431091,-0.48226192593574524
1788050003808637400,7.396637451171875,9.75256061553955,0.9114363193511963,-0.47668030858039856
1788050003824151300,7.4121513671875,9.743916511535645,0.9967689514160156,-0.4826258420944214
1788050003840544000,7.4285439453125,9.734634399414062,1.0803067684173584,-0.4901134669780731
1788050003856782300,7.4447822265625,9.726302146911621,1.1527740955352783,-0.4904472529888153
1788050003872358000,7.46035791015625,9.722773551940918,1.1844053268432617,-0.4850201904773712
1788050003888573200,7.4765732421875,9.719815254211426,1.2151844501495361,-0.4678696393966675
1788050003904567800,7.49256787109375,9.717915534973145,1.2400676012039185,-0.44130268692970276
1788050003920784400,7.508784423828125,9.71760082244873,1.2541974782943726,-0.40694868564605713
1788050003936574200,7.52457421875,9.718555450439453,1.259518027305603,-0.3656136393547058
1788050003952665000,7.5406650390625,9.719355583190918,1.2643963098526,-0.32530784606933594
1788050003968893000,7.556892822265625,9.721121788024902,1.2603651285171509,-0.28576040267944336
1788050003984786700,7.57278662109375,9.723692893981934,1.247812271118164,-0.25128230452537537
1788050004001076000,7.589075927734375,9.72081184387207,1.2751342058181763,-0.22415611147880554
1788050004016857300,7.604857421875,9.713573455810547,1.3317657709121704,-0.20805242657661438
1788050004032893700,7.620893798828125,9.705708503723145,1.3899734020233154,-0.193875253200531
1788050004049172000,7.637171875,9.697163581848145,1.4498250484466553,-0.18278123438358307
1788050004065152500,7.653152587890625,9.684810638427734,1.531274676322937,-0.17327633500099182
1788050004081359000,7.669359130859375,9.669305801391602,1.6270508766174316,-0.16617810726165771
1788050004097145300,7.685145263671875,9.648848533630371,1.7451523542404175,-0.15669366717338562
1788050004113592000,7.701592041015625,9.628138542175293,1.8573411703109741,-0.1400584578514099
1788050004129435000,7.717434814453125,9.604310989379883,1.9787635803222656,-0.10993578284978867
1788050004145230600,7.733230712890625,9.579216957092285,2.0985031127929688,-0.07263503223657608
1788050004161719800,7.7497197265625,9.551058769226074,2.224104881286621,-0.03209551423788071
1788050004177883100,7.765883056640625,9.519083976745605,2.3574132919311523,0.005525704938918352
1788050004193453300,7.781453369140625,9.486557006835938,2.4848055839538574,0.036910656839609146
1788050004209913300,7.797913330078125,9.451083183288574,2.61590313911438,0.06685271859169006
1788050004225752000,7.813751953125,9.410626411437988,2.757283926010132,0.088742695748806
1788050004241918500,7.82991845703125,9.358264923095703,2.929670810699463,0.10150997340679169
1788050004257715500,7.845715576171875,9.290711402893066,3.1371383666992188,0.10690905898809433
1788050004273740500,7.861740478515625,9.20635986328125,3.3766961097717285,0.10605214536190033
1788050004290076700,7.87807666015625,9.111082077026367,3.625906467437744,0.10661971569061279
1788050004305718000,7.893718017578125,8.996772766113281,3.9009478092193604,0.10524126887321472
1788050004322199800,7.91019970703125,8.856600761413574,4.209441661834717,0.10778086632490158
1788050004337953500,7.92595361328125,8.692097663879395,4.539045333862305,0.12204846739768982
1788050004353937400,7.9419375,8.505934715270996,4.877460479736328,0.17274624109268188
1788050004370470700,7.958470703125,8.293339729309082,5.226296901702881,0.27700069546699524
1788050004386201300,7.974201416015625,8.075828552246094,5.548577785491943,0.4057729244232178
1788050004402479000,7.99047900390625,7.850592613220215,5.850958347320557,0.5521531105041504
1788050004418288000,8.0062880859375,7.619771480560303,6.133090019226074,0.7033377885818481
1788050004434309400,8.022309326171875,7.40452241897583,6.374643325805664,0.8410478234291077
1788050004450604800,8.038604736328125,7.180768966674805,6.610508441925049,0.9529565572738647
1788050004466317000,8.054317138671875,6.961972236633301,6.828969955444336,1.0327177047729492
1788050004482726400,8.070726318359375,6.73126220703125,7.04856014251709,1.085497498512268
1788050004498457300,8.086457275390625,6.464439392089844,7.291397571563721,1.1031447649002075
1788050004514724000,8.10272412109375,6.1829118728637695,7.533622741699219,1.0892744064331055
1788050004530952400,8.118952392578125,5.898575782775879,7.761308670043945,1.067365050315857
1788050004546685200,8.134685302734376,5.663931369781494,7.934573173522949,1.064339518547058
1788050004563083300,8.151083251953125,5.461744785308838,8.073848724365234,1.0736311674118042
1788050004578809900,8.166809814453124,5.298430442810059,8.180978775024414,1.0810227394104004
1788050004594875400,8.18287548828125,5.181149959564209,8.256925582885742,1.072031021118164
1788050004611030000,8.199030029296875,5.0817131996154785,8.322270393371582,1.042304277420044
1788050004627220700,8.215220703125,4.994543075561523,8.380701065063477,0.9943737387657166
1788050004643285500,8.231285400390625,4.923586845397949,8.429563522338867,0.9333584308624268
1788050004658960000,8.2469599609375,4.863974571228027,8.472004890441895,0.8586503863334656
1788050004675488500,8.263488525390626,4.820048809051514,8.504385948181152,0.7829170823097229
1788050004691370000,8.279369873046875,4.781459331512451,8.533320426940918,0.7003434300422668
1788050004707099400,8.295099365234375,4.738463878631592,8.563872337341309,0.614359974861145
1788050004723442400,8.3114423828125,4.68442440032959,8.59986400604248,0.5185600519180298
1788050004739227100,8.32722705078125,4.626020431518555,8.637072563171387,0.4138958752155304
1788050004755230500,8.34323046875,4.580547332763672,8.6653413772583,0.31756430864334106
1788050004771583200,8.359583251953126,4.5511393547058105,8.683553695678711,0.23112492263317108
1788050004787260000,8.375260009765626,4.5394206047058105,8.691306114196777,0.15892595052719116
1788050004803656400,8.391656494140625,4.5524163246154785,8.685338020324707,0.10396628081798553
1788050004819649000,8.40764892578125,4.5992560386657715,8.661046981811523,0.059236910194158554
1788050004835554000,8.423553955078125,4.6709818840026855,8.62272834777832,0.030031273141503334
1788050004851950300,8.439950439453124,4.739107608795166,8.585524559020996,0.0029705401975661516
1788050004867570400,8.4555703125,4.783476829528809,8.560835838317871,-0.028766077011823654
1788050004884105000,8.47210498046875,4.797980308532715,8.552474975585938,-0.07026596367359161
1788050004899698000,8.487697998046874,4.793416976928711,8.554503440856934,-0.11839520186185837
1788050004915661600,8.50366162109375,4.773837089538574,8.564766883850098,-0.1601005494594574
1788050004932226600,8.5202265625,4.739689826965332,8.5829439163208,-0.1969730705022812
1788050004947705300,8.535705322265626,4.698980331420898,8.604806900024414,-0.21742957830429077
1788050004964112400,8.5521123046875,4.652487277984619,8.629985809326172,-0.21932196617126465
1788050004979820800,8.56782080078125,4.612088680267334,8.651972770690918,-0.20589491724967957
1788050004995847000,8.583846923828125,4.585911750793457,8.666393280029297,-0.18294073641300201
1788050005012122000,8.6001220703125,4.569178581237793,8.675637245178223,-0.16220277547836304
1788050005027841800,8.615841796875,4.55983829498291,8.680709838867188,-0.15342238545417786
1788050005044328400,8.632328369140625,4.553731441497803,8.683782577514648,-0.16077421605587006
1788050005059992300,8.647992431640626,4.5428266525268555,8.688949584960938,-0.1878238320350647
1788050005076095500,8.664095458984375,4.519806861877441,8.699942588806152,-0.22964638471603394
1788050005092288300,8.680288330078126,4.491077899932861,8.713262557983398,-0.2822340726852417
1788050005108028700,8.696028564453124,4.476673126220703,8.718782424926758,-0.33558541536331177
1788050005124412700,8.71241259765625,4.479373455047607,8.714828491210938,-0.3967188000679016
1788050005140194600,8.728194580078124,4.488116264343262,8.706987380981445,-0.464302122592926
1788050005156175000,8.744175048828126,4.492705345153809,8.701225280761719,-0.5240715146064758
1788050005172465400,8.76046533203125,4.491275787353516,8.699239730834961,-0.5675026774406433
1788050005188672800,8.7766728515625,4.49045991897583,8.69856071472168,-0.5841244459152222
1788050005204617200,8.7926171875,4.494563579559326,8.696998596191406,-0.5757532119750977
1788050005220377000,8.808377197265624,4.497394561767578,8.697257995605469,-0.549125611782074
1788050005236383200,8.82438330078125,4.484617233276367,8.705793380737305,-0.5174567699432373
1788050005252708600,8.84070849609375,4.448727130889893,8.72596263885498,-0.48660600185394287
1788050005268425200,8.85642529296875,4.401918888092041,8.751311302185059,-0.45612552762031555
1788050005284807400,8.872807373046875,4.359090805053711,8.774593353271484,-0.4185881018638611
1788050005300721200,8.88872119140625,4.334624767303467,8.78841781616211,-0.3809656500816345
1788050005316643600,8.9046435546875,4.329229831695557,8.792288780212402,-0.35188451409339905
1788050005333005600,8.921005615234375,4.344235897064209,8.785680770874023,-0.3313891291618347
1788050005348710100,8.936710205078125,4.379391670227051,8.768795013427734,-0.3155073821544647
1788050005364984300,8.952984375,4.430176258087158,8.743802070617676,-0.2997705936431885
1788050005380769500,8.96876953125,4.488142490386963,8.71497917175293,-0.2758341431617737
1788050005396787700,8.98478759765625,4.54062557220459,8.688775062561035,-0.24144846200942993
1788050005413069600,9.001069580078125,4.583055019378662,8.667608261108398,-0.19639088213443756
1788050005428844300,9.01684423828125,4.633114814758301,8.642073631286621,-0.13864567875862122
1788050005445405000,9.033405029296874,4.648022174835205,8.634632110595703,-0.09705168008804321
1788050005461021200,9.049021240234374,4.659002780914307,8.629016876220703,-0.0645136833190918
1788050005477048300,9.06504833984375,4.676387786865234,8.619762420654297,-0.03850041329860687
1788050005493242600,9.08124267578125,4.700840473175049,8.606532096862793,-0.009659224189817905
1788050005509035300,9.09703515625,4.724613189697266,8.593485832214355,0.020477263256907463
1788050005525371100,9.11337109375,4.7467522621154785,8.58112621307373,0.05488076061010361
1788050005541156400,9.12915625,4.764379978179932,8.571072578430176,0.08836597204208374
1788050005557164000,9.1451640625,4.7765421867370605,8.563998222351074,0.11393237859010696
1788050005573516000,9.16151611328125,4.787204742431641,8.557770729064941,0.13275368511676788
1788050005589233400,9.1772333984375,4.796970844268799,8.552062034606934,0.14732114970684052
1788050005605633000,9.193633056640625,4.803030967712402,8.548420906066895,0.16062048077583313
1788050005621389000,9.20938916015625,4.801278114318848,8.549251556396484,0.16854514181613922
1788050005637390300,9.225390380859375,4.790339469909668,8.555302619934082,0.17274492979049683
1788050005653741000,9.241740966796876,4.770224571228027,8.566197395324707,0.18873393535614014
1788050005669377000,9.257376953125,4.742558002471924,8.581189155578613,0.20423954725265503
1788050005685806000,9.27380615234375,4.708275318145752,8.5997314453125,0.21712124347686768
1788050005701966800,9.289966796875,4.664890289306641,8.623258590698242,0.22045418620109558
1788050005717557500,9.3055576171875,4.627504825592041,8.643331527709961,0.22228169441223145
1788050005733764000,9.32176416015625,4.599582195281982,8.658087730407715,0.22750994563102722
1788050005749525500,9.337525390625,4.58469820022583,8.665654182434082,0.23950259387493134
1788050005765876200,9.353876220703125,4.5795369148254395,8.66793155670166,0.2553448975086212
1788050005781636400,9.36963623046875,4.579275131225586,8.667527198791504,0.2731257379055023
1788050005797662500,9.385662353515626,4.593050956726074,8.659504890441895,0.2953767478466034
1788050005813958100,9.401958251953126,4.630131721496582,8.638928413391113,0.31809449195861816
1788050005829701000,9.417701171875,4.681703090667725,8.610722541809082,0.32789310812950134
1788050005846079500,9.43407958984375,4.736701965332031,8.58113956451416,0.3131903409957886
1788050005861947400,9.449947509765625,4.779138565063477,8.558988571166992,0.27193447947502136
1788050005877877500,9.46587744140625,4.7915568351745605,8.553677558898926,0.2144114077091217
1788050005894156300,9.48215625,4.768855094909668,8.567813873291016,0.144845113158226
1788050005917964800,9.50596484375,4.6911234855651855,8.611678123474121,0.05242372304201126
1788050005934307300,9.522307373046875,4.622073650360107,8.649085998535156,0.012016893364489079
1788050005950100200,9.538100341796875,4.549898624420166,8.687276840209961,-0.005865677259862423
1788050005966501000,9.554501220703125,4.479548454284668,8.723760604858398,-0.006436754949390888
1788050005982248400,9.57024853515625,4.419661998748779,8.754230499267578,0.020519349724054337
1788050005998189600,9.586189453125,4.378352165222168,8.774789810180664,0.05914251133799553
1788050006014790100,9.6027900390625,4.354743480682373,8.786133766174316,0.1023038998246193
1788050006030295000,9.618294921875,4.3612518310546875,8.78239917755127,0.13907499611377716
1788050006046612200,9.6346123046875,4.402202129364014,8.761364936828613,0.17177900671958923
1788050006062422800,9.6504228515625,4.47330379486084,8.724822998046875,0.19342531263828278
1788050006078410500,9.666410400390625,4.553460597991943,8.68326473236084,0.19311755895614624
1788050006094701000,9.682701171875,4.630196571350098,8.643172264099121,0.16508564352989197
1788050006110942700,9.698942626953125,4.692499160766602,8.610328674316406,0.11437895148992538
1788050006126927400,9.71492724609375,4.746441841125488,8.581295013427734,0.05521656945347786
1788050006142581000,9.7305810546875,4.796243190765381,8.553736686706543,0.0030871524941176176
1788050006158582500,9.74658251953125,4.845690727233887,8.525778770446777,-0.027663668617606163
1788050006174855200,9.762855224609375,4.905640602111816,8.491401672363281,-0.03437456488609314
1788050006190677800,9.778677734375,4.977689266204834,8.44941234588623,-0.021316051483154297
1788050006206985700,9.79498583984375,5.069103717803955,8.394909858703613,-0.008229191415011883
1788050006222743800,9.810743896484375,5.1846442222595215,8.324050903320312,-0.006541092414408922
1788050006238704000,9.8267041015625,5.3219828605651855,8.236907005310059,-0.016376549378037453
1788050006255003000,9.8430029296875,5.484143257141113,8.12978458404541,-0.03421265259385109
1788050006270862600,9.858862548828125,5.6520538330078125,8.013833999633789,-0.056172262877225876
1788050006287189800,9.875189697265625,5.802077770233154,7.905707836151123,-0.0779135525226593
1788050006302915600,9.89091552734375,5.943718433380127,7.799568176269531,-0.09666706621646881
1788050006318849000,9.90684912109375,6.061619758605957,7.708099842071533,-0.11118132621049881
1788050006335136300,9.92313623046875,6.157134532928467,7.631712436676025,-0.13057605922222137
1788050006350921500,9.93892138671875,6.225515842437744,7.575561046600342,-0.1555880457162857
1788050006367531500,9.955531494140626,6.2882232666015625,7.5230913162231445,-0.17812485992908478
1788050006383057000,9.971056884765625,6.35930061340332,7.462687969207764,-0.19485066831111908
1788050006399021600,9.987021484375,6.444631099700928,7.388960838317871,-0.20096534490585327
1788050006415307500,10.0033076171875,6.555543899536133,7.290887355804443,-0.1954202800989151
1788050006431058400,10.019058349609375,6.683416366577148,7.174274444580078,-0.17920593917369843
1788050006447644400,10.03564453125,6.827996253967285,7.037391185760498,-0.15490064024925232
1788050006463256800,10.0512568359375,6.985728740692139,6.881440162658691,-0.12552198767662048
1788050006479225900,10.067225830078126,7.144330024719238,6.717021942138672,-0.10271365195512772
1788050006495504100,10.083504150390626,7.3094611167907715,6.537134170532227,-0.08971358835697174
1788050006511394300,10.099394287109375,7.462250232696533,6.362144470214844,-0.0912555605173111
1788050006527772400,10.1157724609375,7.589221477508545,6.210334300994873,-0.07657762616872787
1788050006543918300,10.13191845703125,7.734524726867676,6.028332233428955,-0.08210983872413635
1788050006559518700,10.147518798828125,7.89858341217041,5.811175346374512,-0.114022396504879
1788050006576100900,10.164100830078125,8.072583198547363,5.565268039703369,-0.17769670486450195
1788050006591638000,10.179637939453125,8.23202896118164,5.3231730461120605,-0.26058483123779297
1788050006608030700,10.19603076171875,8.37820816040039,5.084365367889404,-0.35389602184295654
1788050006623776800,10.21177685546875,8.51076602935791,4.8524651527404785,-0.43684929609298706
1788050006639747800,10.227747802734376,8.621331214904785,4.648374557495117,-0.48544469475746155
1788050006656112600,10.244112548828125,8.71476936340332,4.470235347747803,-0.49008843302726746
1788050006672379600,10.260379638671875,8.777300834655762,4.348598003387451,-0.4680496156215668
1788050006688408300,10.276408203125,8.816763877868652,4.271573066711426,-0.43442806601524353
1788050006703980500,10.29198046875,8.840001106262207,4.226823806762695,-0.3983987271785736
1788050006720289500,10.30828955078125,8.86020278930664,4.187855243682861,-0.3592461347579956
1788050006736391400,10.324391357421876,8.883827209472656,4.140583038330078,-0.32183292508125305
1788050006752099300,10.340099365234375,8.909584045410156,4.086618423461914,-0.29874199628829956
1788050006768527000,10.356527099609375,8.9389066696167,4.022770404815674,-0.2892223000526428
1788050006784470300,10.37247021484375,8.971599578857422,3.9491755962371826,-0.29121333360671997
1788050006800340200,10.38834033203125,9.004242897033691,3.8737757205963135,-0.29641908407211304
1788050006816613600,10.404613525390625,9.041041374206543,3.787590742111206,-0.29000645875930786
1788050006832392200,10.42039208984375,9.081127166748047,3.69230318069458,-0.2653513252735138
1788050006848696000,10.436696044921876,9.1085844039917,3.626185178756714,-0.23423224687576294
1788050006864499700,10.452499755859375,9.124173164367676,3.5887651443481445,-0.20151114463806152
1788050006880390100,10.46839013671875,9.133203506469727,3.5674259662628174,-0.16868892312049866
1788050006896752600,10.484752685546875,9.139740943908691,3.5520668029785156,-0.13540273904800415
1788050006912578800,10.500578857421875,9.145276069641113,3.5389819145202637,-0.09960296750068665
1788050006929149700,10.517149658203126,9.15150260925293,3.523796796798706,-0.05695464462041855
1788050006944682800,10.532682861328125,9.1578369140625,3.5077450275421143,-0.01201382465660572
1788050006960789200,10.548789306640625,9.164138793945312,3.491135835647583,0.030586861073970795
1788050006976996000,10.56499609375,9.170755386352539,3.4731240272521973,0.0710962787270546
1788050006992794600,10.580794677734374,9.17786979675293,3.453350782394409,0.10709025710821152
1788050007009082600,10.59708251953125,9.186392784118652,3.429586887359619,0.13605740666389465
1788050007024802600,10.612802490234374,9.196433067321777,3.4020161628723145,0.1493067741394043
1788050007040824800,10.628824951171875,9.20748233795166,3.371896982192993,0.15153802931308746
1788050007057229300,10.645229248046874,9.218323707580566,3.34222674369812,0.14973331987857819
1788050007072871200,10.66087109375,9.226119995117188,3.320953369140625,0.14272183179855347
1788050007089294600,10.677294677734375,9.2290620803833,3.3131086826324463,0.13453911244869232
1788050007105054000,10.693053955078126,9.227310180664062,3.3177874088287354,0.1393430083990097
1788050007120995800,10.708995849609375,9.221102714538574,3.3341927528381348,0.15748992562294006
1788050007137575000,10.725574951171875,9.211324691772461,3.359473943710327,0.18923194706439972
1788050007153135000,10.741135009765625,9.202439308166504,3.381617307662964,0.22397738695144653
1788050007169670000,10.757669921875,9.195921897888184,3.3971731662750244,0.2542112171649933
1788050007185677000,10.773677001953125,9.194318771362305,3.400498151779175,0.26741042733192444
1788050007201571800,10.78957177734375,9.195568084716797,3.3974266052246094,0.26344797015190125
1788050007217443000,10.805443115234375,9.196412086486816,3.3962087631225586,0.24934564530849457
1788050007233330200,10.821330078125,9.197648048400879,3.393665075302124,0.2380969524383545
1788050007249769200,10.837769287109374,9.20280647277832,3.378751277923584,0.2505592703819275
1788050007265600300,10.853600341796875,9.215283393859863,3.341649055480957,0.2869270443916321
1788050007281343500,10.869343505859375,9.233071327209473,3.2884562015533447,0.32686305046081543
1788050007297886500,10.885886474609375,9.25245475769043,3.2309505939483643,0.35131826996803284
1788050007313561300,10.901561279296875,9.26540470123291,3.1946661472320557,0.3417183756828308
1788050007329757000,10.9177568359375,9.26856803894043,3.1890690326690674,0.30639952421188354
1788050007345689300,10.933689453125,9.260336875915527,3.21688175201416,0.26117971539497375
1788050007361962200,10.949962158203125,9.244767189025879,3.264162063598633,0.2234327644109726
1788050007377829600,10.96582958984375,9.225424766540527,3.320780038833618,0.1853441447019577
1788050007393774600,10.981774658203125,9.205950736999512,3.376404285430908,0.1440768986940384
1788050007410040600,10.99804052734375,9.185009002685547,3.4344210624694824,0.103657066822052
1788050007425713400,11.01371337890625,9.16622257232666,3.4850919246673584,0.06987038999795914
1788050007442188800,11.030188720703125,9.152824401855469,3.520500659942627,0.047567661851644516
1788050007458007600,11.046007568359375,9.144243240356445,3.5428550243377686,0.03698460012674332
1788050007473854000,11.06185400390625,9.139586448669434,3.5548477172851562,0.03743249177932739
1788050007490304000,11.078303955078125,9.140130996704102,3.55319881439209,0.056282006204128265
1788050007506184200,11.09418408203125,9.147844314575195,3.532413959503174,0.09689195454120636
1788050007522057000,11.110056884765624,9.162782669067383,3.4916012287139893,0.150090754032135
1788050007538372400,11.126372314453125,9.178922653198242,3.446326971054077,0.20149800181388855
1788050007554267400,11.142267333984375,9.188448905944824,3.418778657913208,0.23397623002529144
1788050007570688300,11.158688232421875,9.214181900024414,3.346031665802002,0.27075695991516113
1788050007586380300,11.17438037109375,9.225675582885742,3.312742233276367,0.288178950548172
1788050007602591700,11.190591796875,9.226040840148926,3.311347484588623,0.29247811436653137
1788050007618706200,11.2067060546875,9.233296394348145,3.2893857955932617,0.31075361371040344
1788050007634724600,11.222724609375,9.24273681640625,3.2603368759155273,0.3352776765823364
1788050007650851800,11.238851806640625,9.248512268066406,3.242257833480835,0.3509499430656433
1788050007666617900,11.254617919921875,9.25464153289795,3.223860025405884,0.3587731719017029
1788050007682567700,11.270567626953126,9.26379108428955,3.197159767150879,0.36156749725341797
1788050007698854400,11.2868544921875,9.276331901550293,3.1606385707855225,0.36115211248397827
1788050007714692600,11.302692626953124,9.2907133102417,3.1173312664031982,0.36780792474746704
1788050007731179800,11.3191796875,9.308126449584961,3.063199043273926,0.3820921778678894
1788050007747331300,11.335331298828125,9.325488090515137,3.0086042881011963,0.3923790156841278
1788050007762841900,11.350841796875,9.341361045837402,2.9587574005126953,0.3938455283641815
1788050007779079400,11.367079345703125,9.35621166229248,2.9121954441070557,0.3883478045463562
1788050007795070700,11.38307080078125,9.366534233093262,2.8801076412200928,0.3786759376525879
1788050007811255600,11.399255615234376,9.372275352478027,2.862968683242798,0.3663882613182068
1788050007827124200,11.415124267578125,9.373173713684082,2.862178325653076,0.34918710589408875
1788050007843034000,11.4310341796875,9.373111724853516,2.8654141426086426,0.3233664333820343
1788050007859432000,11.447431884765624,9.374404907226562,2.864950180053711,0.288053035736084
1788050007875155700,11.46315576171875,9.375060081481934,2.866560459136963,0.247907355427742
1788050007891562200,11.479562255859374,9.373725891113281,2.8748531341552734,0.19715192914009094
1788050007907295200,11.495295166015625,9.371063232421875,2.8868415355682373,0.14039631187915802
1788050007923260000,11.511260009765625,9.367594718933105,2.9001734256744385,0.08690043538808823
1788050007939660000,11.527659912109375,9.364253997802734,2.911989688873291,0.03818681463599205
1788050007955431400,11.543431396484374,9.362335205078125,2.9183998107910156,0.0024858254473656416
1788050007971731700,11.559731689453125,9.362557411193848,2.9176158905029297,-0.020821399986743927
1788050007987530500,11.575530517578125,9.364408493041992,2.9115521907806396,-0.033361442387104034
1788050008003933700,11.59193359375,9.3666410446167,2.9043173789978027,-0.036893561482429504
1788050008019740000,11.607739990234375,9.367223739624023,2.902431011199951,-0.03739814832806587
1788050008035574000,11.623573974609375,9.365089416503906,2.909288167953491,-0.03910641372203827
1788050008051979000,11.63997900390625,9.360459327697754,2.924149751663208,-0.039261605590581894
1788050008067751200,11.655751220703126,9.354147911071777,2.9442906379699707,-0.03815232962369919
1788050008083703300,11.671703369140625,9.347512245178223,2.9653472900390625,-0.033356763422489166
1788050008100010500,11.688010498046875,9.341495513916016,2.984318733215332,-0.026453707367181778
1788050008115787500,11.70378759765625,9.337753295898438,2.9960553646087646,-0.020249299705028534
1788050008132149500,11.7201494140625,9.336345672607422,3.0004711151123047,-0.014780513010919094
1788050008147965200,11.735965087890625,9.336979866027832,2.9985079765319824,-0.011939737014472485
1788050008164040000,11.7520400390625,9.338789939880371,2.9928627014160156,-0.012658113613724709
1788050008180212200,11.768212158203125,9.340696334838867,2.986903429031372,-0.013617021963000298
1788050008196027600,11.784027587890625,9.342048645019531,2.982666015625,-0.014736966229975224
1788050008212566800,11.80056689453125,9.342517852783203,2.9811978340148926,-0.013999737799167633
1788050008228317700,11.816317626953126,9.342341423034668,2.9817655086517334,-0.010868600569665432
1788050008244595200,11.83259521484375,9.340849876403809,2.9864518642425537,-0.0036253510043025017
1788050008260725000,11.84872509765625,9.337817192077637,2.995919704437256,0.005307020619511604
1788050008276505900,11.864505859375,9.333563804626465,3.0091166496276855,0.013663929887115955
1788050008292629000,11.88062890625,9.328722953796387,3.024043321609497,0.021934475749731064
1788050008308413000,11.896412841796876,9.324153900146484,3.0380280017852783,0.03032222017645836
1788050008324689000,11.91268896484375,9.319994926452637,3.0506365299224854,0.04136982932686806
1788050008340881400,11.92888134765625,9.316346168518066,3.061488389968872,0.05800795182585716
1788050008356501500,11.94450146484375,9.313706398010254,3.0691566467285156,0.07441387325525284
1788050008373015800,11.961015869140626,9.312307357788086,3.0730032920837402,0.08920096606016159
1788050008388691500,11.97669140625,9.311663627624512,3.0745646953582764,0.10179170966148376
1788050008404778200,11.9927783203125,9.311363220214844,3.0751538276672363,0.11109627783298492
1788050008420974800,12.008974853515625,9.31136417388916,3.074885368347168,0.11821239441633224
1788050008436758800,12.0247587890625,9.311150550842285,3.07529878616333,0.12410934269428253
1788050008453095400,12.041095458984374,9.31071949005127,3.0763323307037354,0.1306542307138443
1788050008468974800,12.056974853515625,9.310579299926758,3.076413631439209,0.138510063290596
1788050008484935700,12.072935791015626,9.311015129089355,3.074610710144043,0.14884397387504578
1788050008501238500,12.089238525390625,9.311882019042969,3.071259021759033,0.16314619779586792
1788050008517540900,12.105540771484375,9.31242561340332,3.0686895847320557,0.17960721254348755
1788050008533575400,12.121575439453125,9.312044143676758,3.0686492919921875,0.19903452694416046
1788050008549299200,12.13729931640625,9.311005592346191,3.0703368186950684,0.22042466700077057
1788050008565138400,12.153138427734374,9.31004524230957,3.0717642307281494,0.24024134874343872
1788050008581440800,12.169440673828126,9.309752464294434,3.071206569671631,0.2580374777317047
1788050008597238000,12.185238037109375,9.309432029724121,3.0711989402770996,0.2694319486618042
1788050008613779700,12.20177978515625,9.308037757873535,3.0750701427459717,0.2734489142894745
1788050008629349600,12.217349609375,9.305319786071777,3.0838425159454346,0.2670706808567047
1788050008645237000,12.233237060546875,9.30048942565918,3.09916090965271,0.2578408718109131
1788050008661831700,12.249831787109375,9.293111801147461,3.1219682693481445,0.24854996800422668
1788050008677312000,12.26531201171875,9.285701751708984,3.144570827484131,0.24043767154216766
1788050008693759000,12.281759033203125,9.279341697692871,3.163712501525879,0.2348119467496872
1788050008709526500,12.297526611328125,9.27553653717041,3.175363540649414,0.22776874899864197
1788050008725452800,12.313452880859375,9.274171829223633,3.1798288822174072,0.22092531621456146
1788050008741735200,12.329735107421875,9.274592399597168,3.179211139678955,0.21197277307510376
1788050008757613300,12.34561328125,9.27569580078125,3.176682472229004,0.2013593167066574
1788050008774115300,12.362115234375,9.275620460510254,3.17756986618042,0.1905396729707718
1788050008789690000,12.377690185546875,9.273756980895996,3.1832714080810547,0.18601050972938538
1788050008805661400,12.393661376953125,9.26916217803955,3.1966381072998047,0.18581293523311615
1788050008822243600,12.41024365234375,9.263666152954102,3.212134599685669,0.19254779815673828
1788050008837741300,12.4257412109375,9.258892059326172,3.2252485752105713,0.20271146297454834
1788050008854181400,12.442181396484376,9.254939079284668,3.2359886169433594,0.21184009313583374
1788050008869902800,12.45790283203125,9.252537727355957,3.2425107955932617,0.21693295240402222
1788050008885860600,12.473860595703124,9.253422737121582,3.239710807800293,0.2209518402814865
1788050008902170000,12.490170166015625,9.257745742797852,3.2270407676696777,0.22524112462997437
1788050008918034200,12.5060341796875,9.26434326171875,3.2080278396606445,0.22560960054397583
1788050008934456000,12.5224560546875,9.27176570892334,3.1867177486419678,0.22265586256980896
1788050008950212000,12.538212158203125,9.278178215026855,3.168288469314575,0.21849727630615234
1788050008966338800,12.5543388671875,9.28337574005127,3.153275489807129,0.21487346291542053
1788050008982507300,12.57050732421875,9.28677749633789,3.143193483352661,0.21558906137943268
1788050008998284300,12.5862841796875,9.287983894348145,3.139256715774536,0.2209567278623581
1788050009014690600,12.602690673828125,9.286808967590332,3.141902446746826,0.23239801824092865
1788050009030363400,12.61836328125,9.295586585998535,3.114780902862549,0.2461651861667633
1788050009046414800,12.634414794921875,9.304433822631836,3.0873446464538574,0.2573050856590271
1788050009062848500,12.6508486328125,9.313875198364258,3.0583114624023438,0.2623954713344574
1788050009079085000,12.6670849609375,9.32386302947998,3.027637243270874,0.26339638233184814
1788050009094867500,12.682867431640625,9.333433151245117,2.997972011566162,0.26378217339515686
1788050009110867500,12.698867431640625,9.342187881469727,2.9699976444244385,0.27024537324905396
1788050009126790000,12.714789794921876,9.34929370880127,2.9459261894226074,0.287418395280838
1788050009142938000,12.730938232421876,9.354599952697754,2.925663948059082,0.31989356875419617
1788050009158906400,12.74690625,9.349969863891602,2.933786630630493,0.3759583532810211
1788050009175324000,12.763323974609374,9.346282958984375,2.9366657733917236,0.4397451877593994
1788050009191048400,12.77904833984375,9.344612121582031,2.9313769340515137,0.5056120753288269
1788050009206953000,12.794952880859375,9.349811553955078,2.905266523361206,0.5575374364852905
1788050009223233800,12.81123388671875,9.35854721069336,2.867048740386963,0.6066391468048096
1788050009239217400,12.827217529296876,9.363103866577148,2.841195583343506,0.6559621691703796
1788050009255419400,12.84341943359375,9.364327430725098,2.823892116546631,0.710907518863678
1788050009271338200,12.859338134765625,9.364073753356934,2.8100271224975586,0.7669687271118164
1788050009287224600,12.875224609375,9.367432594299316,2.786917209625244,0.8091321587562561
1788050009303465700,12.8914658203125,9.37476634979248,2.7519185543060303,0.8432549834251404
1788050009319566300,12.90756640625,9.379653930664062,2.7244677543640137,0.8773613572120667
1788050009335877600,12.923877685546875,9.377036094665527,2.7235546112060547,0.9076533317565918
1788050009351466800,12.939466796875,9.375737190246582,2.721710681915283,0.9264094829559326
1788050009367480800,12.955480712890624,9.376038551330566,2.719855308532715,0.9288060069084167
1788050009384005000,12.972005126953125,9.37788200378418,2.716120481491089,0.9210915565490723
1788050009399577600,12.98757763671875,9.379961013793945,2.711498498916626,0.9135063290596008
1788050009416094500,13.004094482421875,9.37950325012207,2.712348461151123,0.9156811237335205
1788050009431779300,13.019779296875,9.375275611877441,2.7238054275512695,0.9249144196510315
1788050009447780900,13.03578076171875,9.363862991333008,2.7539024353027344,0.951049268245697
1788050009464046600,13.052046630859374,9.347611427307129,2.8002994060516357,0.9751285910606384
1788050009479908400,13.067908447265625,9.331077575683594,2.8509392738342285,0.986673891544342
1788050009496309200,13.084309326171875,9.315180778503418,2.9033708572387695,0.9839835166931152
1788050009512036000,13.1000361328125,9.303196907043457,2.9545187950134277,0.944309651851654
1788050009527959300,13.115959228515624,9.289665222167969,3.004223585128784,0.9204074144363403
1788050009544513500,13.132513427734375,9.277304649353027,3.0503599643707275,0.8929202556610107
1788050009560049400,13.14804931640625,9.267024993896484,3.0887739658355713,0.8672451972961426
1788050009576615000,13.164614990234375,9.259293556213379,3.1262288093566895,0.8139744997024536
1788050009592646000,13.18064599609375,9.25350570678711,3.1567251682281494,0.7603271007537842
1788050009608273000,13.19627294921875,9.250139236450195,3.18007493019104,0.7017399668693542
1788050009624678100,13.21267822265625,9.248421669006348,3.1997809410095215,0.6312605142593384
1788050009640204800,13.228204833984375,9.248506546020508,3.2130656242370605,0.5583263635635376
1788050009656665000,13.2446650390625,9.249445915222168,3.222820997238159,0.4812107980251312
1788050009672357400,13.260357421875,9.249860763549805,3.2319083213806152,0.4064798653125763
1788050009688325000,13.2763251953125,9.249077796936035,3.2423315048217773,0.3350125253200531
1788050009704737000,13.292737060546875,9.246750831604004,3.255812883377075,0.2601289749145508
1788050009720396000,13.30839599609375,9.244145393371582,3.2672955989837646,0.20233847200870514
1788050009736732200,13.324732177734376,9.242523193359375,3.2744081020355225,0.15620015561580658
1788050009752675300,13.34067529296875,9.242146492004395,3.2776293754577637,0.10130606591701508
1788050009768489500,13.356489501953124,9.242987632751465,3.2764692306518555,0.04813901335000992
1788050009784773600,13.372773681640625,9.243843078613281,3.2744083404541016,-0.0022502997890114784
1788050009800613600,13.388613525390625,9.244377136230469,3.27270245552063,-0.03605414927005768
1788050009817012000,13.405011962890624,9.245373725891113,3.2696235179901123,-0.05484906956553459
1788050009832703500,13.420703369140625,9.242596626281738,3.2764904499053955,-0.09694129228591919
1788050009848664000,13.4366640625,9.241564750671387,3.2776432037353516,-0.14463993906974792
1788050009864976600,13.4529765625,9.241338729858398,3.2749054431915283,-0.2074236422777176
1788050009880737000,13.468737060546875,9.239843368530273,3.274263381958008,-0.27363476157188416
1788050009897322200,13.485322265625,9.237825393676758,3.2764527797698975,-0.3128012418746948
1788050009912948000,13.500947998046875,9.23158073425293,3.2895641326904297,-0.356476753950119
1788050009928862700,13.51686279296875,9.220274925231934,3.314833402633667,-0.41085144877433777
1788050009945123600,13.53312353515625,9.205982208251953,3.347273349761963,-0.4648102819919586
1788050009960912600,13.54891259765625,9.192684173583984,3.377017021179199,-0.5105879902839661
1788050009977354800,13.565354736328125,9.182623863220215,3.3983354568481445,-0.5487496852874756
1788050009993047000,13.581047119140624,9.176789283752441,3.4089813232421875,-0.579464316368103
1788050010009161200,13.5971611328125,9.173285484313965,3.4122397899627686,-0.614682674407959
1788050010025256000,13.613255859375,9.170822143554688,3.411158800125122,-0.6560475826263428
1788050010040989000,13.628989013671875,9.168424606323242,3.408782482147217,-0.7004125714302063
1788050010057350700,13.6453505859375,9.165932655334473,3.4063429832458496,-0.7435762882232666
1788050010073333800,13.661333740234374,9.164239883422852,3.4029719829559326,-0.7790198922157288
1788050010089082000,13.67708203125,9.164204597473145,3.396467924118042,-0.807314932346344
1788050010105415200,13.693415283203125,9.166873931884766,3.3828957080841064,-0.8335631489753723
1788050010121166600,13.70916650390625,9.171957969665527,3.36328387260437,-0.8566875457763672
1788050010137602300,13.725602294921876,9.17822551727295,3.340555429458618,-0.8782057166099548
1788050010153799700,13.741799560546875,9.184136390686035,3.320286750793457,-0.8931560516357422
1788050010169822200,13.757822265625,9.188182830810547,3.3075168132781982,-0.8988967537879944
1788050010185753600,13.773753662109375,9.189217567443848,3.3048064708709717,-0.8982853889465332
1788050010201798100,13.789798095703125,9.188618659973145,3.306918144226074,-0.8966491222381592
1788050010217864400,13.805864501953126,9.18786907196045,3.309326171875,-0.8954357504844666
1788050010233987600,13.821987548828124,9.187908172607422,3.3098948001861572,-0.8929349184036255
1788050010249650200,13.837650146484375,9.188586235046387,3.308727741241455,-0.8902816772460938
1788050010265997000,13.8539970703125,9.190199851989746,3.305110454559326,-0.8870534896850586
1788050010281809400,13.869809326171875,9.191818237304688,3.3016812801361084,-0.8830525875091553
1788050010298219300,13.88621923828125,9.192533493041992,3.3011081218719482,-0.8777205944061279
1788050010313809000,13.901808837890625,9.192163467407227,3.303986072540283,-0.8707388639450073
1788050010330160600,13.91816064453125,9.19089126586914,3.309424638748169,-0.8634979724884033
1788050010346381800,13.9343818359375,9.190321922302246,3.3128085136413574,-0.8565427660942078
1788050010362044700,13.950044677734375,9.190485000610352,3.3134427070617676,-0.8523368239402771
1788050010378304800,13.9663046875,9.19077205657959,3.3131632804870605,-0.8503279685974121
1788050010393923000,13.981923095703126,9.191176414489746,3.3130176067352295,-0.8465136885643005
1788050010410387500,13.998387451171874,9.191981315612793,3.311903715133667,-0.8421217203140259
1788050010426207000,14.01420703125,9.193302154541016,3.3098068237304688,-0.8359245657920837
1788050010441985000,14.029985107421876,9.194334983825684,3.310227394104004,-0.8227909803390503
1788050010458438000,14.04643798828125,9.1944580078125,3.3139641284942627,-0.8062120676040649
1788050010474134500,14.062134521484374,9.192912101745605,3.3227698802948,-0.7873713374137878
1788050010490128000,14.0781279296875,9.188448905944824,3.3400421142578125,-0.7661068439483643
1788050010506392000,14.09439208984375,9.18114185333252,3.36413836479187,-0.7480680346488953
1788050010522202000,14.1102021484375,9.178689956665039,3.376286745071411,-0.7229974865913391
1788050010538635300,14.12663525390625,9.182256698608398,3.3728907108306885,-0.6929400563240051
1788050010554340400,14.14234033203125,9.199457168579102,3.3314247131347656,-0.6648141741752625
1788050010570348500,14.1583486328125,9.218128204345703,3.284564971923828,-0.6388508677482605
1788050010586601500,14.1746015625,9.233138084411621,3.2446811199188232,-0.6257806420326233
1788050010602426600,14.190426513671875,9.240721702575684,3.2238609790802,-0.621434211730957
1788050010618871000,14.20687109375,9.240762710571289,3.2247438430786133,-0.6162275075912476
1788050010634952200,14.2229521484375,9.234763145446777,3.244471549987793,-0.602441132068634
1788050010650577700,14.23857763671875,9.226144790649414,3.2721054553985596,-0.5847698450088501
1788050010667115800,14.25511572265625,9.217558860778809,3.299645185470581,-0.565104603767395
1788050010682630000,14.2706298828125,9.212471008300781,3.3165783882141113,-0.5487056374549866
1788050010698996700,14.286996826171874,9.206523895263672,3.3384408950805664,-0.5148982405662537
1788050010714918700,14.302918701171874,9.204455375671387,3.3483176231384277,-0.48699596524238586
1788050010730780000,14.31877978515625,9.20825481414795,3.3394579887390137,-0.47585979104042053
1788050010747168500,14.33516845703125,9.210801124572754,3.3359296321868896,-0.4506598711013794
1788050010762909000,14.350908935546874,9.212199211120605,3.337691307067871,-0.4069228172302246
1788050010779331300,14.367331298828125,9.21319580078125,3.3411448001861572,-0.352356493473053
1788050010795152100,14.383152099609376,9.21190357208252,3.3502016067504883,-0.2955743372440338
1788050010811004000,14.39900390625,9.207937240600586,3.36556339263916,-0.2393132746219635
1788050010827336200,14.415336181640624,9.203250885009766,3.381518840789795,-0.18946470320224762
1788050010843091200,14.43109130859375,9.200115203857422,3.3918981552124023,-0.1526351422071457
1788050010859459300,14.447459228515624,9.198575019836426,3.397176742553711,-0.12567582726478577
1788050010875194000,14.463194091796876,9.19738483428955,3.4008593559265137,-0.11250460892915726
1788050010891147500,14.4791474609375,9.197922706604004,3.399221420288086,-0.11788904666900635
1788050010907476200,14.495476318359374,9.201298713684082,3.3892312049865723,-0.1400008499622345
1788050010923713000,14.511713134765625,9.197138786315918,3.399909019470215,-0.1537824124097824
1788050010939813400,14.5278134765625,9.19415283203125,3.4071810245513916,-0.17050550878047943
1788050010955433500,14.54343359375,9.191028594970703,3.4148640632629395,-0.18464155495166779
1788050010971426600,14.559426513671875,9.185643196105957,3.428776741027832,-0.1945197433233261
1788050010987610600,14.575610595703125,9.17746353149414,3.4501049518585205,-0.2032729536294937
1788050011003414000,14.5914140625,9.166414260864258,3.478959560394287,-0.2099536508321762
1788050011019756800,14.6077568359375,9.151840209960938,3.516700267791748,-0.21686315536499023
1788050011035562000,14.62356201171875,9.135367393493652,3.5589280128479004,-0.2224571257829666
1788050011051870700,14.63987060546875,9.119175910949707,3.600796937942505,-0.21279534697532654
1788050011067931600,14.655931640625,9.103832244873047,3.6405093669891357,-0.1931716352701187
1788050011083544600,14.671544677734374,9.091902732849121,3.6718733310699463,-0.1582195907831192
1788050011100026000,14.688026123046875,9.081275939941406,3.6999289989471436,-0.10648947954177856
1788050011115795700,14.703795654296876,9.06959342956543,3.729766368865967,-0.041343819350004196
1788050011131792100,14.719792236328125,9.056143760681152,3.762404680252075,0.03115563839673996
1788050011148062200,14.736062255859375,9.039582252502441,3.8008079528808594,0.10095390677452087
1788050011163830000,14.751830078125,9.022112846374512,3.840205430984497,0.15712672472000122
1788050011180327200,14.7683271484375,9.005919456481934,3.8761074542999268,0.1989894062280655
1788050011195955700,14.783955810546875,8.996219635009766,3.8975069522857666,0.21875819563865662
1788050011211951600,14.79995166015625,8.996432304382324,3.8974804878234863,0.21031898260116577
1788050011228514800,14.816514892578125,9.002103805541992,3.8859918117523193,0.17773835361003876
1788050011244170800,14.832170654296876,9.00329303741455,3.884794235229492,0.13954690098762512
1788050011260529700,14.84852978515625,8.99731731414795,3.899759531021118,0.102715402841568
1788050011276245500,14.86424560546875,8.984903335571289,3.9289073944091797,0.07474157214164734
1788050011292236000,14.880236083984375,8.967118263244629,3.9695844650268555,0.05977989360690117
1788050011308546000,14.896546142578124,8.944854736328125,4.01960563659668,0.05231354013085365
1788050011324510200,14.91251025390625,8.920892715454102,4.072542667388916,0.049708034843206406
1788050011340621300,14.928621337890625,8.888890266418457,4.1419267654418945,0.04960840940475464
1788050011356414700,14.944414794921874,8.852127075195312,4.219895362854004,0.05209587886929512
1788050011372350700,14.960350830078125,8.806248664855957,4.314783573150635,0.054843828082084656
1788050011388733400,14.9767333984375,8.779898643493652,4.368053913116455,0.06230064481496811
1788050011404850400,14.992850341796874,8.744300842285156,4.438850402832031,0.06478913873434067
1788050011420961500,15.00896142578125,8.708754539489746,4.508115291595459,0.0697534829378128
1788050011436565500,15.0245654296875,8.674508094787598,4.573551177978516,0.07694576680660248
1788050011452520200,15.040520263671874,8.642996788024902,4.632673263549805,0.085598886013031
1788050011468981500,15.0569814453125,8.6138916015625,4.686587810516357,0.08459240943193436
1788050011485039600,15.07303955078125,8.588560104370117,4.7331156730651855,0.06816482543945312
1788050011501046500,15.089046630859375,8.56208324432373,4.781167030334473,0.03952241316437721
1788050011516770300,15.104770263671876,8.531408309936523,4.835849761962891,0.005030578002333641
1788050011532663600,15.12066357421875,8.495365142822266,4.898784160614014,-0.03289039060473442
1788050011549001500,15.13700146484375,8.450142860412598,4.975951194763184,-0.07342913746833801
1788050011564885200,15.15288525390625,8.402618408203125,5.055039405822754,-0.11393752694129944
1788050011581229000,15.16922900390625,8.34996223449707,5.140439987182617,-0.1562013477087021
1788050011597110000,15.185110107421876,8.295156478881836,5.227063179016113,-0.19644425809383392
1788050011612847400,15.200847412109376,8.24932861328125,5.297878742218018,-0.22683179378509521
1788050011629246500,15.21724658203125,8.209261894226074,5.35883903503418,-0.2475004494190216
1788050011644918500,15.23291845703125,8.171738624572754,5.415466785430908,-0.2565142512321472
1788050011661288400,15.249288330078125,8.127496719360352,5.481870174407959,-0.2515779733657837
1788050011677086200,15.265086181640624,8.066123008728027,5.572535037994385,-0.23430673778057098
1788050011693261000,15.281260986328125,7.98665189743042,5.686807632446289,-0.20975281298160553
1788050011709645800,15.297645751953125,7.884172439575195,5.829031467437744,-0.1806081384420395
1788050011725365800,15.31336572265625,7.775860786437988,5.973474979400635,-0.15483739972114563
1788050011741831000,15.329830810546875,7.6579203605651855,6.124396800994873,-0.13571713864803314
1788050011757675300,15.34567529296875,7.538141250610352,6.271307468414307,-0.13237255811691284
1788050011773448700,15.36144873046875,7.419922828674316,6.410644054412842,-0.1370660364627838
1788050011789862000,15.37786181640625,7.29080057144165,6.557109832763672,-0.13755400478839874
1788050011805909000,15.393908935546875,7.192755699157715,6.664292812347412,-0.14785361289978027
1788050011821885700,15.4098857421875,7.055487155914307,6.8102126121521,-0.10723458230495453
1788050011837596700,15.4255966796875,6.923642635345459,6.944910049438477,-0.04232103005051613
1788050011853663500,15.44166357421875,6.783266544342041,7.082111358642578,0.03737615793943405
1788050011870084600,15.458084716796876,6.628429412841797,7.226358413696289,0.11862754821777344
1788050011885747200,15.473747314453124,6.468060493469238,7.368777275085449,0.18901388347148895
1788050011902055200,15.49005517578125,6.2895708084106445,7.5201239585876465,0.2437606155872345
1788050011918209000,15.506208984375,6.108477592468262,7.667146682739258,0.26787880063056946
1788050011933685800,15.521685791015624,5.926107406616211,7.808811187744141,0.27226340770721436
1788050011950178600,15.538178466796875,5.737683296203613,7.94844388961792,0.2676183581352234
1788050011965847300,15.553847412109375,5.556662082672119,8.07620906829834,0.26223647594451904
1788050011982303000,15.570302978515626,5.368803977966309,8.202260971069336,0.26312804222106934
1788050011998442200,15.586442138671876,5.179419994354248,8.322665214538574,0.27792245149612427
1788050012013933300,15.601933349609375,4.989808082580566,8.436816215515137,0.30387845635414124
1788050012030332200,15.618332275390625,4.805721759796143,8.542231559753418,0.32514673471450806
1788050012046040300,15.634040283203126,4.634524345397949,8.635586738586426,0.3438616693019867
1788050012062444500,15.650444580078124,4.486586093902588,8.712605476379395,0.36254948377609253
1788050012078120000,15.666119873046876,4.358239650726318,8.777022361755371,0.3742124140262604
1788050012094129200,15.682129150390624,4.245779037475586,8.83181095123291,0.37798258662223816
1788050012110403300,15.6984033203125,4.128946304321289,8.887090682983398,0.3766085207462311
1788050012126209300,15.714209228515625,4.005548477172852,8.943755149841309,0.36774489283561707
1788050012142625000,15.730625,3.8673036098480225,9.004846572875977,0.3565179109573364
1788050012158351400,15.746351318359375,3.735830545425415,9.061153411865234,0.33085697889328003
1788050012174342400,15.76234228515625,3.605588912963867,9.114250183105469,0.3170866072177887
1788050012190888200,15.77888818359375,3.4727630615234375,9.166092872619629,0.3050602376461029
1788050012206448600,15.79444873046875,3.33577036857605,9.216187477111816,0.32391804456710815
1788050012222904000,15.810904052734376,3.198777675628662,9.263876914978027,0.34465017914772034
1788050012238602200,15.826602294921875,3.0514960289001465,9.3128662109375,0.3595528304576874
1788050012254727000,15.842726806640625,2.9131674766540527,9.356659889221191,0.3698224425315857
1788050012270884900,15.858884765625,2.793431282043457,9.392723083496094,0.3793050944805145
1788050012286714000,15.874714111328124,2.7131471633911133,9.415348052978516,0.4005746841430664
1788050012303298600,15.891298583984375,2.6589717864990234,9.430093765258789,0.4166187047958374
1788050012318864600,15.90686474609375,2.620408058166504,9.440441131591797,0.42657896876335144
1788050012334822400,15.922822509765625,2.59207820892334,9.44802474975586,0.4316892921924591
1788050012351234800,15.93923486328125,2.564810276031494,9.455309867858887,0.43503305315971375
1788050012366948400,15.9549482421875,2.530179023742676,9.464669227600098,0.434343546628952
1788050012383521000,15.97152099609375,2.4961209297180176,9.473706245422363,0.43434420228004456
1788050012399103700,15.987103759765626,2.4410293102264404,9.488471984863281,0.4250795841217041
1788050012414978000,16.00297802734375,2.37668776512146,9.505169868469238,0.416547030210495
1788050012431319600,16.019319580078125,2.296905040740967,9.525031089782715,0.4103674590587616
1788050012447110000,16.03510986328125,2.206709861755371,9.546340942382812,0.4101528823375702
1788050012463445200,16.0514453125,2.123347520828247,9.564750671386719,0.4211503565311432
1788050012479467800,16.0674677734375,2.0532591342926025,9.579865455627441,0.4251183867454529
1788050012495216600,16.083216552734374,2.0142877101898193,9.58840560913086,0.4189751446247101
1788050012511440100,16.099440185546875,2.015394926071167,9.588973999023438,0.4002234637737274
1788050012527254000,16.11525390625,2.054354190826416,9.581869125366211,0.3712083697319031
1788050012543701000,16.131700927734375,2.119014263153076,9.569247245788574,0.33115291595458984
1788050012559836200,16.147836181640624,2.1883583068847656,9.555166244506836,0.2832995653152466
1788050012575362800,16.16336279296875,2.247824192047119,9.542757987976074,0.2312130481004715
1788050012591860500,16.179860595703126,2.293177604675293,9.533132553100586,0.17641587555408478
1788050012607642000,16.19564208984375,2.3243257999420166,9.526333808898926,0.12996917963027954
1788050012623865000,16.211864990234375,2.342013359069824,9.522418975830078,0.09435133635997772
1788050012639621000,16.22762109375,2.347698926925659,9.521222114562988,0.07125803828239441
1788050012655765200,16.24376513671875,2.3443169593811035,9.522127151489258,0.06062120571732521
1788050012671933700,16.25993359375,2.336170196533203,9.524169921875,0.05387114733457565
1788050012687951000,16.275951171875,2.3291029930114746,9.525927543640137,0.048649463802576065
1788050012704203500,16.29220361328125,2.3226964473724365,9.527506828308105,0.045713119208812714
1788050012719854800,16.307854736328125,2.321237325668335,9.527877807617188,0.0426945760846138
1788050012735809800,16.323809814453124,2.3236441612243652,9.527299880981445,0.0405762679874897
1788050012752172800,16.3401728515625,2.3264434337615967,9.526620864868164,0.039511486887931824
1788050012767901400,16.3559013671875,2.319732666015625,9.528244972229004,0.04276479035615921
1788050012784472300,16.372472412109374,2.2961273193359375,9.533939361572266,0.046719301491975784
1788050012800041500,16.38804150390625,2.2603917121887207,9.542536735534668,0.03219057247042656
1788050012816497200,16.4044970703125,2.217416763305664,9.552651405334473,0.01701667532324791
1788050012832497200,16.4204970703125,2.1683008670806885,9.563936233520508,-0.00047024787636473775
1788050012848085200,16.436085205078125,2.125128984451294,9.573612213134766,-0.012205109931528568
1788050012864657200,16.4526572265625,2.074820041656494,9.58464241027832,-0.012548004277050495
1788050012880223500,16.468223388671873,2.0470104217529297,9.59062671661377,-0.00677636219188571
1788050012896377000,16.484377197265626,2.0341603755950928,9.593361854553223,-0.0018518384313210845
1788050012912414500,16.50041455078125,2.016652822494507,9.59705638885498,-0.0027914573438465595
1788050012936595200,16.52459521484375,1.952385425567627,9.61031436920166,-0.020680749788880348
1788050012952716800,16.540716796875,1.8816192150115967,9.6243314743042,-0.046413522213697433
1788050012968935700,16.556935791015626,1.8206279277801514,9.635880470275879,-0.07414872199296951
1788050012984792300,16.572792236328127,1.792129397392273,9.640983581542969,-0.10062741488218307
1788050013000601300,16.588601318359373,1.7873843908309937,9.641547203063965,-0.12730726599693298
1788050013016590000,16.604590087890625,1.8004755973815918,9.638856887817383,-0.14525946974754333
1788050013032917000,16.6209169921875,1.8214133977890015,9.634818077087402,-0.1521519273519516
1788050013048679200,16.63667919921875,1.836222529411316,9.632081985473633,-0.14717969298362732
1788050013065101300,16.653101318359376,1.8401451110839844,9.631476402282715,-0.1376747041940689
1788050013080874800,16.668874755859374,1.8300312757492065,9.633530616760254,-0.12834800779819489
1788050013096915000,16.6849150390625,1.8073151111602783,9.637857437133789,-0.12540975213050842
1788050013113340700,16.701340576171877,1.7748311758041382,9.643935203552246,-0.12205532938241959
1788050013129004800,16.7170048828125,1.7504594326019287,9.648488998413086,-0.11374811083078384
1788050013145411300,16.733411376953125,1.7497929334640503,9.648805618286133,-0.09572043269872665
1788050013161318400,16.749318359375,1.7717230319976807,9.645031929016113,-0.06900821626186371
1788050013177095200,16.76509521484375,1.812703251838684,9.637593269348145,-0.03622282296419144
1788050013193755600,16.781755615234374,1.8712235689163208,9.626468658447266,0.0036916211247444153
1788050013209271800,16.797271728515625,1.937066674232483,9.613324165344238,0.046460576355457306
1788050013225875700,16.813875732421874,2.0050034523010254,9.599092483520508,0.08817322552204132
1788050013241621800,16.829621826171874,2.079444408416748,9.582773208618164,0.12950119376182556
1788050013257649200,16.845649169921874,2.164538860321045,9.56330680847168,0.16830533742904663
1788050013273784300,16.861784423828126,2.2436888217926025,9.544315338134766,0.2056150734424591
1788050013289684500,16.8776845703125,2.309396743774414,9.52785587310791,0.23883944749832153
1788050013305910300,16.89391015625,2.3567495346069336,9.515548706054688,0.2653975784778595
1788050013321918500,16.90991845703125,2.385101795196533,9.50796127319336,0.283458411693573
1788050013337703700,16.92570361328125,2.412652015686035,9.500539779663086,0.2987425625324249
1788050013354126800,16.942126953125,2.445049285888672,9.49172592163086,0.3150712549686432
1788050013369810000,16.957809814453125,2.480611562728882,9.481958389282227,0.3307937979698181
1788050013386241800,16.97424169921875,2.51632022857666,9.472057342529297,0.3444744050502777
1788050013402377000,16.990376953125,2.5468852519989014,9.463648796081543,0.35090136528015137
1788050013417913300,17.005913330078126,2.574124813079834,9.45630931854248,0.3500019907951355
1788050013434360800,17.02236083984375,2.6007068157196045,9.449386596679688,0.34032875299453735
1788050013449971700,17.0379716796875,2.6231818199157715,9.443705558776855,0.32519716024398804
1788050013466545200,17.054545166015625,2.6244378089904785,9.442792892456055,0.34113165736198425
1788050013490065200,17.078065185546876,2.6146240234375,9.444143295288086,0.3772451877593994
1788050013506505200,17.094505126953123,2.6066055297851562,9.445265769958496,0.403652548789978
1788050013522196700,17.11019677734375,2.602508068084717,9.445990562438965,0.4130363166332245
1788050013538192000,17.12619189453125,2.59686541557312,9.447372436523438,0.4169345796108246
1788050013554489900,17.14248974609375,2.5925681591033936,9.44881534576416,0.41095849871635437
1788050013570250000,17.15825,2.592566728591919,9.449477195739746,0.395449161529541
1788050013586582000,17.17458203125,2.594775676727295,9.449813842773438,0.3722253739833832
1788050013602496800,17.190496826171874,2.592193603515625,9.451563835144043,0.3447906970977783
1788050013618369500,17.20636962890625,2.5870554447174072,9.453701972961426,0.3241242468357086
1788050013634944800,17.22294482421875,2.5870089530944824,9.454206466674805,0.30940964818000793
1788050013650460700,17.238460693359375,2.6135611534118652,9.446834564208984,0.3114612400531769
1788050013667010300,17.25501025390625,2.6713109016418457,9.430519104003906,0.3159586489200592
1788050013682597400,17.270597412109375,2.7509028911590576,9.407838821411133,0.30904892086982727
1788050013698564000,17.286564208984377,2.836422920227051,9.383007049560547,0.29031726717948914
1788050013714917400,17.30291748046875,2.912771463394165,9.360444068908691,0.26126566529273987
1788050013730734800,17.31873486328125,2.956317186355591,9.34772777557373,0.224908247590065
1788050013747268900,17.335268798828125,2.973371982574463,9.343040466308594,0.19251666963100433
1788050013762913500,17.35091357421875,2.9761757850646973,9.342561721801758,0.17117774486541748
1788050013778852600,17.3668525390625,2.9807820320129395,9.341288566589355,0.1602422147989273
1788050013795168300,17.383168212890624,2.9992921352386475,9.33533000946045,0.1620790809392929
1788050013811044000,17.399044189453125,3.0370211601257324,9.322936058044434,0.17250175774097443
1788050013827563500,17.4155634765625,3.0976550579071045,9.302680969238281,0.18725751340389252
1788050013843103200,17.431103271484375,3.187021255493164,9.272019386291504,0.2072765827178955
1788050013859003600,17.447003662109374,3.3008739948272705,9.231551170349121,0.2304614931344986
1788050013875289900,17.463289794921874,3.4434561729431152,9.178776741027832,0.25114917755126953
1788050013891627500,17.47962744140625,3.599043607711792,9.11864185333252,0.260090172290802
1788050013907516400,17.495516357421874,3.761841297149658,9.053001403808594,0.24923254549503326
1788050013923355000,17.51135498046875,3.926414728164673,8.98365306854248,0.2182803452014923
1788050013939412500,17.52741259765625,4.084904193878174,8.913579940795898,0.17902794480323792
1788050013955589600,17.543589599609376,4.247199058532715,8.838122367858887,0.13895225524902344
1788050013971433700,17.559433837890627,4.397695541381836,8.764652252197266,0.10743498057126999
1788050013987896800,17.575896728515627,4.537308692932129,8.693500518798828,0.07934782654047012
1788050014003987700,17.59198779296875,4.66787052154541,8.62429141998291,0.054788991808891296
1788050014019495400,17.607495361328127,4.790323734283447,8.556940078735352,0.04446297511458397
1788050014035769300,17.623769287109376,4.930212497711182,8.477073669433594,0.05097030848264694
1788050014051622400,17.639622314453124,5.0793538093566895,8.388461112976074,0.06533040851354599
1788050014068010200,17.65601025390625,5.22756814956665,8.296765327453613,0.0813816711306572
1788050014083813400,17.6718134765625,5.379319190979004,8.198996543884277,0.09881927073001862
1788050014099773000,17.68777294921875,5.51236629486084,8.11000919342041,0.10943448543548584
1788050014116217000,17.704217041015625,5.632974624633789,8.026686668395996,0.11094430088996887
1788050014132232200,17.720232177734374,5.744768142700195,7.947257995605469,0.0955231562256813
1788050014148531500,17.736531494140625,5.856503009796143,7.865692138671875,0.05152209848165512
1788050014164131800,17.7521318359375,5.970607280731201,7.779603004455566,-0.0026711190585047007
1788050014180067000,17.768067138671874,6.094303607940674,7.68296480178833,-0.043602555990219116
1788050014196403000,17.78440283203125,6.219634532928467,7.581671714782715,-0.06920242309570312
1788050014212570000,17.800570068359374,6.326802730560303,7.492326736450195,-0.08368022739887238
1788050014228520000,17.81652001953125,6.420310020446777,7.412331581115723,-0.08574140071868896
1788050014244189200,17.832189208984374,6.520262718200684,7.324670314788818,-0.07603387534618378
1788050014260205000,17.848205078125,6.628090858459473,7.227383613586426,-0.0611954964697361
1788050014276609300,17.864609375,6.75125789642334,7.112579822540283,-0.04591426998376846
1788050014292361700,17.88036181640625,6.883614540100098,6.984633445739746,-0.03360745310783386
1788050014308788200,17.896788330078124,7.021864414215088,6.845660209655762,-0.027317557483911514
1788050014324494600,17.91249462890625,7.153769493103027,6.707688808441162,-0.029921017587184906
1788050014340382000,17.9283818359375,7.276670455932617,6.574046611785889,-0.04868475720286369
1788050014356665000,17.9446650390625,7.389435291290283,6.446687698364258,-0.08273988217115402
1788050014372588300,17.96058837890625,7.497499465942383,6.319886207580566,-0.13011756539344788
1788050014389048000,17.977048095703125,7.612191677093506,6.180276870727539,-0.17062048614025116
1788050014405094100,17.99309423828125,7.738158702850342,6.020908355712891,-0.1998739093542099
1788050014420648700,18.008648681640626,7.860398769378662,5.859838008880615,-0.21637539565563202
1788050014436972500,18.02497265625,7.981202125549316,5.693771839141846,-0.22751134634017944
1788050014453284000,18.0412841796875,8.078019142150879,5.555028438568115,-0.24014055728912354
1788050014469155600,18.057155517578124,8.148775100708008,5.449970722198486,-0.2562757134437561
1788050014484842800,18.0728427734375,8.198077201843262,5.37502384185791,-0.2665436267852783
1788050014500828200,18.088828125,8.23009967803955,5.326303958892822,-0.2575479745864868
1788050014517089800,18.10508984375,8.25947380065918,5.282010078430176,-0.2276872843503952
1788050014532937700,18.120937744140626,8.292045593261719,5.2324395179748535,-0.1842568963766098
1788050014549271000,18.13727099609375,8.334151268005371,5.166683197021484,-0.13299892842769623
1788050014565139700,18.1531396484375,8.38647747039795,5.082301616668701,-0.08707425743341446
1788050014581035500,18.169035400390626,8.445987701416016,4.983189582824707,-0.05924567952752113
1788050014597326000,18.185326171875,8.526564598083496,4.844178676605225,-0.04509970173239708
1788050014613260300,18.20126025390625,8.619086265563965,4.677631378173828,-0.03880852833390236
1788050014629614300,18.2176142578125,8.722942352294922,4.480958938598633,-0.04086250066757202
1788050014645339400,18.23333935546875,8.828709602355957,4.268688678741455,-0.05080224201083183
1788050014661281800,18.24928173828125,8.915251731872559,4.0845136642456055,-0.07364477217197418
1788050014677650700,18.265650634765624,8.990519523620605,3.9153478145599365,-0.10488861799240112
1788050014693360400,18.2813603515625,9.0471773147583,3.7812066078186035,-0.14644624292850494
1788050014709938400,18.2979384765625,9.091524124145508,3.6709940433502197,-0.19592474400997162
1788050014725862100,18.313862060546874,9.131091117858887,3.568101167678833,-0.24942493438720703
1788050014741449500,18.329449462890626,9.16945743560791,3.464418649673462,-0.2987477481365204
1788050014757766000,18.345765869140624,9.211834907531738,3.345656394958496,-0.34506189823150635
1788050014773718500,18.361718505859375,9.249536514282227,3.237565279006958,-0.36692285537719727
1788050014790029000,18.378029052734377,9.283506393432617,3.1388442516326904,-0.36683034896850586
1788050014805765400,18.393765380859374,9.312394142150879,3.0544705390930176,-0.34627655148506165
1788050014821724000,18.409723876953127,9.337047576904297,2.9821114540100098,-0.3113580346107483
1788050014837991400,18.425991455078126,9.359736442565918,2.9146499633789062,-0.2655918002128601
1788050014853934800,18.441934814453123,9.383461952209473,2.842153549194336,-0.20782555639743805
1788050014870218800,18.45821875,9.407882690429688,2.764543056488037,-0.13941144943237305
1788050014886055700,18.4740556640625,9.431952476501465,2.6841280460357666,-0.06411504000425339
1788050014901983700,18.489983642578125,9.45228099822998,2.612405300140381,0.01000392809510231
1788050014918240500,18.506240478515625,9.468779563903809,2.550565719604492,0.08489154279232025
1788050014934204700,18.52220458984375,9.480762481689453,2.502418041229248,0.1530642807483673
1788050014950594300,18.53859423828125,9.489358901977539,2.4660019874572754,0.20320342481136322
1788050014966758000,18.5547578125,9.497689247131348,2.4309351444244385,0.23421511054039001
1788050014982247200,18.5702470703125,9.507795333862305,2.3903238773345947,0.24199093878269196
1788050014998564600,18.586564697265626,9.522090911865234,2.334052085876465,0.22884726524353027
1788050015014447900,18.60244775390625,9.538961410522461,2.2663886547088623,0.20515945553779602
1788050015030935600,18.618935546875,9.560320854187012,2.1757287979125977,0.19197794795036316
1788050015046577700,18.63457763671875,9.58691692352295,2.054561138153076,0.200456902384758
1788050015062597400,18.650597412109374,9.616974830627441,1.9068461656570435,0.21938449144363403
1788050015079057200,18.66705712890625,9.649805068969727,1.730867862701416,0.23607628047466278
1788050015094767400,18.682767333984376,9.679081916809082,1.5577318668365479,0.24337323009967804
1788050015111118000,18.6991181640625,9.70309066772461,1.4012598991394043,0.238511860370636
1788050015126880800,18.714880859375,9.72175407409668,1.268757939338684,0.21943067014217377
1788050015142885400,18.730885498046874,9.73282241821289,1.185869574546814,0.19042707979679108
1788050015159201800,18.747201904296876,9.739346504211426,1.135794758796692,0.1596446931362152
1788050015175030800,18.76303076171875,9.741615295410156,1.119359016418457,0.13546372950077057
1788050015191512800,18.779512939453124,9.741042137145996,1.124372124671936,0.13517677783966064
1788050015207172400,18.79517236328125,9.739316940307617,1.1354447603225708,0.16385652124881744
1788050015223584800,18.811584716796876,9.738245010375977,1.134657621383667,0.22254595160484314
1788050015239465500,18.827465576171875,9.739892959594727,1.101146936416626,0.30388960242271423
1788050015255289600,18.84328955078125,9.745173454284668,1.027389407157898,0.38270291686058044
1788050015271861200,18.859861328125,9.753965377807617,0.9099212884902954,0.4501073658466339
1788050015287447600,18.875447509765625,9.764642715454102,0.7691847085952759,0.4801124036312103
1788050015303774500,18.8917744140625,9.775583267211914,0.6237917542457581,0.4682352840900421
1788050015319824600,18.90782470703125,9.785655975341797,0.49215954542160034,0.41123321652412415
1788050015335533000,18.923532958984374,9.793159484863281,0.3941119313240051,0.33028554916381836
1788050015352019000,18.94001904296875,9.798065185546875,0.328070729970932,0.24632252752780914
1788050015367741400,18.955741455078126,9.800864219665527,0.2867130935192108,0.1767565906047821
1788050015383823600,18.97182373046875,9.802309036254883,0.26510339975357056,0.12185544520616531
1788050015399995100,18.9879951171875,9.803061485290527,0.2509849965572357,0.08591240644454956
1788050015415830000,19.003830078125,9.803699493408203,0.2315153181552887,0.06525682657957077
1788050015432395000,19.02039501953125,9.804539680480957,0.1953125,0.056871842592954636
1788050015448004000,19.036004150390625,9.805452346801758,0.1427711695432663,0.05585592985153198
1788050015464486400,19.052486328125,9.806177139282227,0.07769007235765457,0.05691695585846901
1788050015480270800,19.068270751953126,9.806495666503906,0.0009508892544545233,0.05502289906144142
1788050015496072700,19.08407275390625,9.80622673034668,-0.07714608311653137,0.04846886172890663
1788050015512506000,19.100506103515624,9.805258750915527,-0.16075915098190308,0.03787069022655487
1788050015528687400,19.116687255859375,9.80376148223877,-0.23747901618480682,0.015606853179633617
1788050015544238000,19.132238037109374,9.802143096923828,-0.29675984382629395,-0.01745394803583622
1788050015560518000,19.148517822265624,9.800612449645996,-0.3385090231895447,-0.06169625744223595
1788050015576335000,19.164335205078125,9.799520492553711,-0.357401967048645,-0.10981228202581406
1788050015592893200,19.18089306640625,9.798345565795898,-0.3782058358192444,-0.14064018428325653
1788050015608562700,19.196562744140625,9.797606468200684,-0.38899552822113037,-0.1611805260181427
1788050015624615200,19.212615234375,9.797243118286133,-0.39478954672813416,-0.16895879805088043
1788050015640737500,19.228737548828125,9.797187805175781,-0.3997732996940613,-0.16023282706737518
1788050015656544000,19.2445439453125,9.797343254089355,-0.405038446187973,-0.13566520810127258
1788050015672934400,19.260934326171874,9.797590255737305,-0.4089135229587555,-0.10195674747228622
1788050015688806100,19.27680615234375,9.797942161560059,-0.40798142552375793,-0.0653655007481575
1788050015704772400,19.2927724609375,9.798357963562012,-0.4024638533592224,-0.02457011304795742
1788050015721036000,19.3090361328125,9.798552513122559,-0.3969523310661316,0.03439212962985039
1788050015736993000,19.324992919921876,9.798027038574219,-0.39732062816619873,0.10570594668388367
1788050015753365500,19.341365478515623,9.7968168258667,-0.39937806129455566,0.1823626458644867
1788050015769235200,19.357235107421875,9.795699119567871,-0.39267364144325256,0.2459113597869873
1788050015785478700,19.373478759765625,9.795687675476074,-0.36817145347595215,0.28165990114212036
1788050015801226000,19.38922607421875,9.797222137451172,-0.3227021098136902,0.28404471278190613
1788050015817078300,19.405078369140625,9.799433708190918,-0.2701255679130554,0.2617656886577606
1788050015833445400,19.4214453125,9.801667213439941,-0.22076921164989471,0.22130535542964935
1788050015849276200,19.437276123046875,9.803385734558105,-0.17827939987182617,0.17953141033649445
1788050015865220000,19.45322021484375,9.804451942443848,-0.1423083394765854,0.15115022659301758
1788050015881635000,19.469635009765625,9.805163383483887,-0.09997303038835526,0.13841937482357025
1788050015897356800,19.485356689453123,9.805444717407227,-0.05319591239094734,0.14424952864646912
1788050015913793300,19.501793212890625,9.80530071258545,0.0014758013421669602,0.16270487010478973
1788050015929754400,19.51775439453125,9.804643630981445,0.06575027108192444,0.18716639280319214
1788050015945635300,19.53363525390625,9.80366325378418,0.11766507476568222,0.21147559583187103
1788050015961769700,19.549769775390626,9.802813529968262,0.1428886502981186,0.234142005443573
1788050015977619700,19.56561962890625,9.802437782287598,0.13418377935886383,0.25415459275245667
1788050015993974300,19.581974365234377,9.802497863769531,0.08646435290575027,0.2719247043132782
1788050016009868300,19.597868408203126,9.802436828613281,0.010373485274612904,0.28723663091659546
1788050016025889000,19.613888916015625,9.801708221435547,-0.08448794484138489,0.29961541295051575
1788050016042337800,19.630337890625,9.800020217895508,-0.18409840762615204,0.31000253558158875
1788050016057934600,19.6459345703125,9.798111915588379,-0.26019927859306335,0.31571894884109497
1788050016074428700,19.6624287109375,9.796767234802246,-0.3071534037590027,0.3152732253074646
1788050016090494000,19.678493896484376,9.796010971069336,-0.3375203013420105,0.3076421320438385
1788050016106087400,19.69408740234375,9.795638084411621,-0.3604196012020111,0.2931918799877167
1788050016122534700,19.71053466796875,9.795042991638184,-0.3893206715583801,0.27558615803718567
1788050016138214100,19.726214111328126,9.793867111206055,-0.4288666546344757,0.2581254541873932
1788050016154570000,19.742570068359374,9.789956092834473,-0.5136468410491943,0.2516547739505768
1788050016170412300,19.758412353515624,9.78654956817627,-0.5721691250801086,0.2577829658985138
1788050016186368500,19.774368408203124,9.782620429992676,-0.6269564628601074,0.27866894006729126
1788050016202674400,19.79067431640625,9.778575897216797,-0.6714873313903809,0.3145502209663391
1788050016218513000,19.806512939453125,9.775162696838379,-0.6977943778038025,0.36008718609809875
1788050016234948900,19.822948974609375,9.772351264953613,-0.7079346179962158,0.41275182366371155
1788050016250735600,19.838735595703124,9.77086067199707,-0.6985571384429932,0.4611709415912628
1788050016266632400,19.854632568359374,9.771119117736816,-0.6733399033546448,0.49217888712882996
1788050016283033300,19.871033447265624,9.773006439208984,-0.6375909447669983,0.5022110342979431
1788050016298731800,19.886731689453125,9.775588989257812,-0.6010739803314209,0.4969528019428253
1788050016315206000,19.903205810546876,9.777881622314453,-0.5721188187599182,0.48589974641799927
1788050016330904000,19.918904052734376,9.77988052368164,-0.5488196015357971,0.47234588861465454
1788050016347372300,19.935372314453126,9.781591415405273,-0.5277685523033142,0.46076443791389465
1788050016363277300,19.95127734375,9.78286361694336,-0.5130260586738586,0.45030245184898376
1788050016379017200,19.967017333984376,9.783486366271973,-0.4955938756465912,0.45626169443130493
1788050016395397000,19.983397216796874,9.782633781433105,-0.49075841903686523,0.4791906177997589
1788050016411208700,19.999208740234376,9.779828071594238,-0.5079095959663391,0.5170906186103821
1788050016427181000,20.01518115234375,9.776357650756836,-0.5429861545562744,0.5462526082992554
1788050016443601700,20.0316015625,9.773080825805664,-0.5946639180183411,0.5510532855987549
1788050016459671000,20.047671142578125,9.771973609924316,-0.6419286727905273,0.5165716409683228
1788050016475602200,20.063602294921875,9.773975372314453,-0.6557091474533081,0.45808640122413635
1788050016491397000,20.079397216796874,9.778556823730469,-0.6292008757591248,0.39283496141433716
1788050016507354000,20.09535400390625,9.78364086151123,-0.5752363204956055,0.3462066352367401
1788050016523667500,20.11166748046875,9.788016319274902,-0.5130171179771423,0.3192555904388428
1788050016539485700,20.127485595703124,9.790942192077637,-0.4655463397502899,0.3018515408039093
1788050016556012800,20.1440126953125,9.792323112487793,-0.4436242878437042,0.2898035943508148
1788050016571623400,20.15962353515625,9.792455673217773,-0.44971147179603577,0.27560552954673767
1788050016587705000,20.175705078125,9.791922569274902,-0.472684770822525,0.25537458062171936
1788050016604158700,20.19215869140625,9.791367530822754,-0.4982054531574249,0.2264905571937561
1788050016619715800,20.2077158203125,9.791121482849121,-0.5166003704071045,0.1935262382030487
1788050016636061000,20.22406103515625,9.791057586669922,-0.5279890894889832,0.1636727750301361
1788050016651882500,20.239882568359373,9.791060447692871,-0.5339082479476929,0.14306087791919708
1788050016668011800,20.25601171875,9.791258811950684,-0.5310624837875366,0.14004932343959808
1788050016684188000,20.27218798828125,9.791708946228027,-0.5194177031517029,0.1517825424671173
1788050016700007200,20.288007080078124,9.791993141174316,-0.5080704092979431,0.1706579327583313
1788050016716459300,20.304459228515626,9.791890144348145,-0.5033150315284729,0.1895630806684494
1788050016732137000,20.320136962890626,9.791378021240234,-0.5089142322540283,0.20078016817569733
1788050016748186600,20.3361865234375,9.790775299072266,-0.5198323726654053,0.20221301913261414
1788050016764630500,20.352630615234375,9.790203094482422,-0.5331131219863892,0.1951717585325241
1788050016780199400,20.368199462890626,9.789703369140625,-0.5456922054290771,0.1852237433195114
1788050016796587800,20.384587890625,9.789270401000977,-0.5571539998054504,0.17368127405643463
1788050016812391200,20.40039111328125,9.788982391357422,-0.5653748512268066,0.16298973560333252
1788050016828770800,20.416770751953123,9.788918495178223,-0.5686375498771667,0.15529906749725342
1788050016845000400,20.43300048828125,9.78908634185791,-0.5672654509544373,0.14960865676403046
1788050016861041200,20.449041259765625,9.78939151763916,-0.563741147518158,0.14279474318027496
1788050016877036800,20.465036865234374,9.789772033691406,-0.5592634677886963,0.13403889536857605
1788050016892779800,20.48077978515625,9.790365219116211,-0.5513430237770081,0.12317973375320435
1788050016909018400,20.497018310546874,9.791287422180176,-0.5369421243667603,0.11300864815711975
1788050016925043000,20.51304296875,9.792428016662598,-0.5171561241149902,0.10622000694274902
1788050016940919000,20.5289189453125,9.793410301208496,-0.4984898865222931,0.10488853603601456
1788050016957409000,20.545408935546874,9.793901443481445,-0.4874606430530548,0.11076600849628448
