time,seconds_elapsed,z,y,x
1788049996552605700,0.140605712890625,-0.003054326167330146,-0.04337143152952194,0.02015855349600315
1788049996568826600,0.15682666015625,-0.010995574295520782,-0.039095375686883926,0.022602014243602753
1788049996584642600,0.172642578125,-0.015271631069481373,-0.030543262138962746,0.02076941914856434
1788049996600961300,0.188961181640625,-0.012828170321881771,-0.012217304669320583,0.01038470957428217
1788049996616745700,0.204745849609375,-0.01160643994808197,-0.015271631069481373,0.001832595793530345
1788049996632711400,0.22071142578125,-0.006108652334660292,-0.028099801391363144,0.010995574295520782
1788049996649059300,0.237059326171875,-0.0012217304902151227,-0.03237585723400116,0.016493361443281174
1788049996664754700,0.252754638671875,0.003054326167330146,-0.03298672288656235,0.015882495790719986
1788049996681157000,0.2691572265625,0.0024434609804302454,-0.03481931984424591,0.012217304669320583
1788049996696872000,0.284871826171875,0.00427605677396059,-0.039706241339445114,-0.001832595793530345
1788049996712915700,0.300915771484375,-0.0006108652451075613,-0.04581489413976669,-0.01771509274840355
1788049996729155300,0.3171552734375,-0.01160643994808197,-0.045204028487205505,-0.022602014243602753
1788049996744945200,0.332945068359375,-0.01466076634824276,-0.03420845419168472,-0.010995574295520782
1788049996761309700,0.349309814453125,-0.014049900695681572,-0.036651913076639175,0.00366519158706069
1788049996777045500,0.36504541015625,-0.01710422709584236,-0.036041051149368286,0.01160643994808197
1788049996793390300,0.381390380859375,-0.01466076634824276,-0.028099801391363144,0.016493361443281174
1788049996809354500,0.3973544921875,-0.01038470957428217,-0.028099801391363144,0.022602014243602753
1788049996825160000,0.413159912109375,-0.013439035043120384,-0.02321287989616394,0.025045474991202354
1788049996841520000,0.42952001953125,-0.012828170321881771,-0.02932153269648552,0.02321287989616394
1788049996857218800,0.44521875,-0.009773843921720982,-0.025656340643763542,0.021380282938480377
1788049996873228500,0.461228515625,-0.009773843921720982,-0.02687807008624077,0.02382374368607998
1788049996889548800,0.477548828125,-0.016493361443281174,-0.02871066704392433,0.01771509274840355
1788049996905319200,0.493319091796875,-0.007941247895359993,-0.021380282938480377,0.010995574295520782
1788049996921662500,0.509662353515625,0.00733038317412138,0.0006108652451075613,0.003054326167330146
1788049996937439000,0.52543896484375,0.01038470957428217,-0.007941247895359993,0.006719517521560192
1788049996953433600,0.54143359375,-0.003054326167330146,-0.039095375686883926,0.029932396486401558
1788049996969726000,0.557725830078125,-0.004886921960860491,-0.048258353024721146,0.03298672288656235
1788049996985560000,0.57356005859375,-0.004886921960860491,-0.03298672288656235,0.018325956538319588
1788049997001881000,0.589881103515625,-0.001832595793530345,-0.006719517521560192,-0.0006108652451075613
1788049997017646800,0.605646728515625,0,-0.00366519158706069,0.0012217304902151227
1788049997033640400,0.621640380859375,0.00366519158706069,-0.012828170321881771,0.016493361443281174
1788049997050100500,0.6381005859375,0.006719517521560192,-0.024434609338641167,0.03176499158143997
1788049997065740500,0.653740478515625,0.005497787147760391,-0.03420845419168472,0.036041051149368286
1788049997082098000,0.670097900390625,0.005497787147760391,-0.036651913076639175,0.02687807008624077
1788049997097816300,0.68581640625,0.005497787147760391,-0.036651913076639175,0.01160643994808197
1788049997113844200,0.70184423828125,0.012217304669320583,-0.030543262138962746,0.001832595793530345
1788049997130083800,0.718083740234375,0.016493361443281174,-0.029932396486401558,0.003054326167330146
1788049997146155800,0.73415576171875,0.009773843921720982,-0.03237585723400116,0.001832595793530345
1788049997162271200,0.750271240234375,0.009162978269159794,-0.033597588539123535,0.00366519158706069
1788049997177996800,0.765996826171875,-0.001832595793530345,-0.025656340643763542,0.00855211354792118
1788049997193980000,0.78197998046875,-0.01160643994808197,-0.016493361443281174,0.009162978269159794
1788049997210248200,0.798248291015625,-0.012217304669320583,0.006108652334660292,0.00427605677396059
1788049997226017300,0.814017333984375,-0.01466076634824276,0.012217304669320583,0.006108652334660292
1788049997242403600,0.830403564453125,-0.016493361443281174,-0.005497787147760391,0.021991148591041565
1788049997258104600,0.8461044921875,-0.01160643994808197,-0.02626720629632473,0.03420845419168472
1788049997274180400,0.862180419921875,-0.00366519158706069,-0.03481931984424591,0.033597588539123535
1788049997290430700,0.8784306640625,-0.001832595793530345,-0.03481931984424591,0.025656340643763542
1788049997306515200,0.89451513671875,-0.003054326167330146,-0.04459316283464432,0.009162978269159794
1788049997322584000,0.910583984375,-0.004886921960860491,-0.04642575979232788,-0.0024434609804302454
1788049997338313500,0.9263134765625,-0.009162978269159794,-0.039706241339445114,-0.003054326167330146
1788049997354274600,0.942274658203125,-0.00733038317412138,-0.02871066704392433,0.00733038317412138
1788049997370532600,0.95853271484375,-0.00855211354792118,-0.022602014243602753,0.025045474991202354
1788049997386324500,0.974324462890625,-0.01038470957428217,-0.022602014243602753,0.03787364438176155
1788049997402677000,0.990677001953125,-0.012217304669320583,-0.02382374368607998,0.0354301854968071
1788049997418433500,1.00643359375,-0.012217304669320583,-0.021380282938480377,0.015271631069481373
1788049997434435600,1.022435546875,-0.0024434609804302454,-0.007941247895359993,-0.0024434609804302454
1788049997450749400,1.03874951171875,0.0012217304902151227,-0.01038470957428217,-0.01038470957428217
1788049997466508000,1.054508056640625,-0.007941247895359993,-0.02626720629632473,-0.006108652334660292
1788049997482843100,1.070843017578125,-0.018936822190880775,-0.03481931984424591,-0.0012217304902151227
1788049997498598700,1.0865986328125,-0.014049900695681572,-0.025656340643763542,-0.006719517521560192
1788049997514635800,1.1026357421875,-0.00427605677396059,-0.007941247895359993,-0.009773843921720982
1788049997531057400,1.119057373046875,-0.009162978269159794,-0.024434609338641167,-0.0006108652451075613
1788049997546735400,1.1347353515625,-0.018936822190880775,-0.04153883829712868,0.00855211354792118
1788049997563137300,1.15113720703125,-0.02321287989616394,-0.05253441259264946,0.013439035043120384
1788049997578850800,1.166850830078125,-0.025656340643763542,-0.042760565876960754,0.003054326167330146
1788049997595024600,1.183024658203125,-0.02015855349600315,-0.025045474991202354,-0.0024434609804302454
1788049997611236000,1.199236083984375,-0.00733038317412138,-0.015882495790719986,0
1788049997627002600,1.215002685546875,0.003054326167330146,-0.01771509274840355,0.010995574295520782
1788049997643307000,1.23130712890625,0.007941247895359993,-0.03298672288656235,0.02321287989616394
1788049997659069400,1.2470693359375,0.006108652334660292,-0.051312681287527084,0.022602014243602753
1788049997675001300,1.26300146484375,0.0024434609804302454,-0.04398229718208313,0.009162978269159794
1788049997691383000,1.279383056640625,0.00427605677396059,-0.036041051149368286,-0.006719517521560192
1788049997707165400,1.29516552734375,0.010995574295520782,-0.02626720629632473,-0.012828170321881771
1788049997723419100,1.311419189453125,0.0012217304902151227,-0.04153883829712868,-0.0024434609804302454
1788049997739150800,1.32715087890625,-0.004886921960860491,-0.06352998316287994,0.010995574295520782
1788049997755168000,1.34316796875,-0.0006108652451075613,-0.05925392732024193,0.01466076634824276
1788049997771397600,1.359397705078125,-0.00733038317412138,-0.05253441259264946,0.00733038317412138
1788049997787253000,1.3752529296875,0.0006108652451075613,-0.039706241339445114,0.0006108652451075613
1788049997803564500,1.391564453125,0.0012217304902151227,-0.03237585723400116,0
1788049997819531300,1.40753125,0.006719517521560192,-0.024434609338641167,0.009773843921720982
1788049997835314200,1.423314208984375,0.00733038317412138,-0.033597588539123535,0.015271631069481373
1788049997851693800,1.43969384765625,0.0024434609804302454,-0.0354301854968071,0.00855211354792118
1788049997867667700,1.455667724609375,-0.004886921960860491,-0.03848451003432274,-0.005497787147760391
1788049997883799800,1.4717998046875,-0.007941247895359993,-0.039706241339445114,-0.022602014243602753
1788049997899535000,1.48753515625,-0.005497787147760391,-0.039706241339445114,-0.02626720629632473
1788049997915537400,1.503537353515625,-0.001832595793530345,-0.0403171069920063,-0.01466076634824276
1788049997931846400,1.519846435546875,0.0012217304902151227,-0.039095375686883926,0.006108652334660292
1788049997947701000,1.535700927734375,0.001832595793530345,-0.04153883829712868,0.029932396486401558
1788049997964023600,1.5520234375,0.0012217304902151227,-0.045204028487205505,0.04642575979232788
1788049997979748400,1.567748291015625,0.0024434609804302454,-0.036041051149368286,0.04153883829712868
1788049997995775200,1.583775146484375,0,-0.031154127791523933,0.02871066704392433
1788049998012095700,1.600095703125,0.005497787147760391,-0.025045474991202354,0.01466076634824276
1788049998028058600,1.61605859375,0.003054326167330146,-0.021991148591041565,0.003054326167330146
1788049998044291000,1.632291015625,-0.004886921960860491,-0.036651913076639175,0.01466076634824276
1788049998060056600,1.648056640625,-0.00733038317412138,-0.04398229718208313,0.029932396486401558
1788049998076155400,1.6641552734375,0.009773843921720982,-0.025045474991202354,0.036651913076639175
1788049998092395500,1.6803955078125,0.024434609338641167,-0.00427605677396059,0.025656340643763542
1788049998108194800,1.69619482421875,0.016493361443281174,-0.018325956538319588,0.02382374368607998
1788049998124505300,1.71250537109375,-0.00366519158706069,-0.04214970022439957,0.027488935738801956
1788049998140324900,1.728324951171875,-0.015271631069481373,-0.05253441259264946,0.025656340643763542
1788049998156340200,1.74434033203125,-0.016493361443281174,-0.0354301854968071,0.02382374368607998
1788049998172652000,1.760652099609375,-0.01038470957428217,-0.016493361443281174,0.022602014243602753
1788049998188358400,1.7763583984375,-0.00733038317412138,-0.001832595793530345,0.024434609338641167
1788049998204739300,1.7927392578125,0.0012217304902151227,0.0024434609804302454,0.02687807008624077
1788049998220515800,1.808515869140625,0.006108652334660292,-0.0006108652451075613,0.031154127791523933
1788049998236521700,1.824521728515625,0.0024434609804302454,-0.01160643994808197,0.036651913076639175
1788049998252813800,1.840813720703125,-0.005497787147760391,-0.02687807008624077,0.04092797264456749
1788049998268612000,1.856612060546875,-0.001832595793530345,-0.018325956538319588,0.04092797264456749
1788049998284979000,1.87297900390625,0.00733038317412138,0.010995574295520782,0.029932396486401558
1788049998300749800,1.888749755859375,0.009162978269159794,0.014049900695681572,0.03298672288656235
1788049998316739300,1.9047392578125,0.012828170321881771,0.00366519158706069,0.028099801391363144
1788049998333086200,1.921086181640625,0.01710422709584236,0.009162978269159794,0.01771509274840355
1788049998348830000,1.936829833984375,0.007941247895359993,-0.02321287989616394,-0.007941247895359993
1788049998365174000,1.953174072265625,-0.010995574295520782,-0.03848451003432274,-0.033597588539123535
1788049998381100800,1.969100830078125,-0.030543262138962746,-0.06230825558304787,-0.04153883829712868
1788049998396984600,1.984984619140625,-0.05742133408784866,-0.07880161702632904,-0.03298672288656235
1788049998413267000,2.001266845703125,-0.07208210229873657,-0.07452555745840073,-0.006719517521560192
1788049998429059000,2.01705908203125,-0.08002334833145142,-0.05803219974040985,0.019547687843441963
1788049998445364500,2.033364501953125,-0.08368854224681854,-0.030543262138962746,0.0354301854968071
1788049998461142000,2.04914208984375,-0.08246681094169617,-0.02015855349600315,0.022602014243602753
1788049998477187600,2.0651875,-0.07147123664617538,-0.00855211354792118,-0.0024434609804302454
1788049998493416700,2.081416748046875,-0.05742133408784866,0.006719517521560192,-0.02076941914856434
1788049998509342500,2.097342529296875,-0.04886921867728233,-0.00366519158706069,-0.01038470957428217
1788049998525579000,2.1135791015625,-0.030543262138962746,0.0006108652451075613,0.01038470957428217
1788049998541369900,2.129369873046875,-0.022602014243602753,-0.01038470957428217,0.012217304669320583
1788049998557616400,2.145616455078125,-0.012217304669320583,-0.006108652334660292,-0.006719517521560192
1788049998573659000,2.161658935546875,-0.015882495790719986,-0.010995574295520782,-0.031154127791523933
1788049998589577500,2.177577392578125,-0.01466076634824276,0.025045474991202354,-0.05742133408784866
1788049998605802000,2.193802001953125,0.0012217304902151227,0.027488935738801956,-0.08918632566928864
1788049998621579500,2.20957958984375,-0.01710422709584236,-0.025656340643763542,-0.056810468435287476
1788049998637803300,2.22580322265625,-0.036651913076639175,-0.059864792972803116,-0.028099801391363144
1788049998653861000,2.241861083984375,-0.05803219974040985,-0.07391469180583954,-0.04092797264456749
1788049998669719800,2.2577197265625,-0.06719517707824707,-0.06780604273080826,-0.06780604273080826
1788049998686006300,2.27400634765625,-0.08796459436416626,-0.04642575979232788,-0.06902777403593063
1788049998701723600,2.2897236328125,-0.10751228034496307,-0.04092797264456749,-0.05009094998240471
1788049998717784000,2.3057841796875,-0.12095131725072861,-0.042760565876960754,0.004886921960860491
1788049998734021000,2.322021240234375,-0.11911872029304504,-0.010995574295520782,0.0403171069920063
1788049998750072000,2.338072021484375,-0.11362093687057495,0.036041051149368286,0.01466076634824276
1788049998766192600,2.354192626953125,-0.10567969083786011,0.07880161702632904,-0.054367005825042725
1788049998782139100,2.37013916015625,-0.10384709388017654,0.0806342139840126,-0.08185594528913498
1788049998798169300,2.38616943359375,-0.10201449692249298,0.04886921867728233,-0.06230825558304787
1788049998814317300,2.4023173828125,-0.09957103431224823,0.01038470957428217,-0.04642575979232788
1788049998830093800,2.41809375,-0.08735372871160507,-0.04642575979232788,-0.021991148591041565
1788049998846438700,2.434438720703125,-0.06291911751031876,-0.06352998316287994,-0.015271631069481373
1788049998862199000,2.450198974609375,-0.012828170321881771,-0.039095375686883926,-0.03726277872920036
1788049998878283500,2.466283447265625,0.024434609338641167,-0.024434609338641167,-0.05864306539297104
1788049998894570000,2.482570068359375,0.042760565876960754,-0.06108652427792549,-0.06719517707824707
1788049998910313000,2.49831298828125,0.03726277872920036,-0.11911872029304504,-0.09040805697441101
1788049998926679800,2.5146796875,0.003054326167330146,-0.16982053220272064,-0.13072516024112701
1788049998942647300,2.530647216796875,-0.04581489413976669,-0.19486601650714874,-0.13927727937698364
1788049998958490000,2.546489990234375,-0.0806342139840126,-0.16920967400074005,-0.10384709388017654
1788049998974849300,2.562849365234375,-0.10384709388017654,-0.11056660860776901,-0.033597588539123535
1788049998990627300,2.57862744140625,-0.11178833991289139,-0.07696902006864548,0
1788049999007010600,2.595010498046875,-0.13377949595451355,-0.06169738993048668,0.00366519158706069
1788049999022761000,2.610760986328125,-0.1319468915462494,-0.05192354694008827,0.009162978269159794
1788049999038928400,2.626928466796875,-0.11789698898792267,-0.033597588539123535,0.04214970022439957
1788049999055099400,2.643099365234375,-0.10445795953273773,-0.02382374368607998,0.09407325088977814
1788049999070874600,2.65887451171875,-0.08918632566928864,-0.02076941914856434,0.1319468915462494
1788049999087237600,2.675237548828125,-0.054367005825042725,-0.02626720629632473,0.09896016865968704
1788049999102974500,2.690974365234375,-0.04153883829712868,-0.03420845419168472,0.00366519158706069
1788049999119236600,2.707236572265625,-0.04459316283464432,-0.04214970022439957,-0.06475171446800232
1788049999135340300,2.72334033203125,-0.045204028487205505,-0.05009094998240471,-0.06414084881544113
1788049999151093800,2.73909375,-0.036041051149368286,-0.039095375686883926,0.030543262138962746
1788049999167458000,2.7554580078125,-0.02871066704392433,-0.02015855349600315,0.14049901068210602
1788049999183194600,2.771194580078125,-0.00366519158706069,0.021380282938480377,0.2541199326515198
1788049999199428900,2.787428955078125,0.018936822190880775,0.06902777403593063,0.2981022298336029
1788049999215489300,2.8034892578125,0.03726277872920036,0.12339477986097336,0.304210901260376
1788049999231281000,2.819281005859375,0.06841690838336945,0.15271630883216858,0.31642818450927734
1788049999247676400,2.835676513671875,0.11850785464048386,0.1563815027475357,0.3280346393585205
1788049999263400400,2.851400390625,0.15882496535778046,0.12400564551353455,0.24495697021484375
1788049999279654100,2.867654052734375,0.17348572611808777,0.08185594528913498,0.07941248267889023
1788049999295721200,2.88372119140625,0.18020524084568024,0.04092797264456749,-0.12889257073402405
1788049999311698700,2.89969873046875,0.16737708449363708,0.009162978269159794,-0.27550023794174194
1788049999327855900,2.91585595703125,0.11484266817569733,-0.06230825558304787,-0.33597588539123535
1788049999343784200,2.9317841796875,0.01710422709584236,-0.1569923609495163,-0.34208452701568604
1788049999359610400,2.9476103515625,-0.06291911751031876,-0.1771509200334549,-0.28527405858039856
1788049999375908900,2.963908935546875,-0.08979719132184982,-0.1472185254096985,-0.16432274878025055
1788049999391876600,2.979876708984375,-0.0861319974064827,-0.06902777403593063,0.025045474991202354
1788049999408061700,2.996061767578125,-0.08368854224681854,0,0.21502456068992615
1788049999423826000,3.011825927734375,-0.08185594528913498,0.0354301854968071,0.3090978264808655
1788049999439865300,3.027865234375,-0.06291911751031876,0.018325956538319588,0.31031954288482666
1788049999456185900,3.044185791015625,-0.04581489413976669,-0.01038470957428217,0.22052235901355743
1788049999471893200,3.059893310546875,-0.036651913076639175,-0.048258353024721146,0.09712757170200348
1788049999488276200,3.076276123046875,-0.009162978269159794,-0.05619960278272629,-0.025045474991202354
1788049999504241000,3.092240966796875,0.07330382615327835,-0.07147123664617538,-0.2119702398777008
1788049999520102400,3.108102294921875,0.14049901068210602,-0.03848451003432274,-0.35613444447517395
1788049999536359200,3.124359130859375,0.19853121042251587,-0.005497787147760391,-0.3927863538265228
1788049999552175000,3.140175048828125,0.23884831368923187,-0.04092797264456749,-0.26511552929878235
1788049999568521500,3.156521484375,0.2223549485206604,-0.12278391420841217,0.04398229718208313
1788049999584473600,3.1724736328125,0.19120082259178162,-0.1667662113904953,0.4129449129104614
1788049999600287700,3.188287841796875,0.16249015927314758,-0.18081611394882202,0.6120869517326355
1788049999616589800,3.20458984375,0.1417207419872284,-0.08735372871160507,0.6426302194595337
1788049999632352000,3.22035205078125,0.16859880089759827,0.10690141469240189,0.53328537940979
1788049999648748500,3.23674853515625,0.22968533635139465,0.24556782841682434,0.3891211748123169
1788049999664671000,3.2526708984375,0.2938261926174164,0.3390302062034607,0.22357667982578278
1788049999680633000,3.268633056640625,0.3683517575263977,0.31154128909111023,0.10384709388017654
1788049999696789200,3.284789306640625,0.42149701714515686,0.19364428520202637,0.02932153269648552
1788049999712818200,3.300818115234375,0.46303585171699524,-0.0006108652451075613,-0.018936822190880775
1788049999728965000,3.316965087890625,0.47708576917648315,-0.19425514340400696,-0.0507018156349659
1788049999744639200,3.33263916015625,0.46181413531303406,-0.2968805134296417,-0.07452555745840073
1788049999760953000,3.348953125,0.37079519033432007,-0.35185837745666504,-0.07941248267889023
1788049999776940300,3.364940185546875,0.3029891550540924,-0.35124751925468445,-0.06536258012056351
1788049999792736500,3.380736572265625,0.24495697021484375,-0.28466320037841797,-0.03787364438176155
1788049999809155300,3.3971552734375,0.2015855312347412,-0.16004669666290283,0.02382374368607998
1788049999824901400,3.4129013671875,0.1618792861700058,-0.04703662544488907,0.10873401165008545
1788049999840948500,3.428948486328125,0.13744467496871948,0.025045474991202354,0.1514945775270462
1788049999857315600,3.445315673828125,0.16554448008537292,0.11911872029304504,0.13011430203914642
1788049999873117700,3.46111767578125,0.1466076523065567,0.23273965716362,0.022602014243602753
1788049999889458400,3.47745849609375,0.12828169763088226,0.3139847218990326,-0.0757472887635231
1788049999905224700,3.493224609375,0.12339477986097336,0.3023782968521118,-0.11911872029304504
1788049999921233000,3.50923291015625,0.09957103431224823,0.20402899384498596,-0.10934487730264664
1788049999937585200,3.525585205078125,0.06169738993048668,0.0910189226269722,-0.06352998316287994
1788049999953318100,3.541318115234375,0.02382374368607998,-0.022602014243602753,-0.02932153269648552
1788049999969726000,3.557725830078125,-0.01038470957428217,-0.09468411654233932,-0.009773843921720982
1788049999985675500,3.573675537109375,-0.025045474991202354,-0.13377949595451355,0.00366519158706069
1788050000001721000,3.58972119140625,-0.018936822190880775,-0.1417207419872284,0.021991148591041565
1788050000017858000,3.605858154296875,-0.006719517521560192,-0.16249015927314758,0.06780604273080826
1788050000033659400,3.621659423828125,-0.06536258012056351,-0.15943582355976105,0.12278391420841217
1788050000049983500,3.6379833984375,-0.12461651116609573,-0.16798794269561768,0.17592918872833252
1788050000065887200,3.65388720703125,-0.16432274878025055,-0.19486601650714874,0.1966986060142517
1788050000081811500,3.6698115234375,-0.18814650177955627,-0.19425514340400696,0.17898350954055786
1788050000098163700,3.686163818359375,-0.1869247704744339,-0.1319468915462494,0.14477506279945374
1788050000114015200,3.70201513671875,-0.16493362188339233,-0.05925392732024193,0.09346238523721695
1788050000130289200,3.7182890625,-0.15027284622192383,-0.02076941914856434,0.0507018156349659
1788050000146221300,3.73422119140625,-0.14538592100143433,-0.04764748737215996,0.04459316283464432
1788050000162111700,3.75011181640625,-0.1569923609495163,-0.1514945775270462,0.0910189226269722
1788050000178465300,3.76646533203125,-0.1869247704744339,-0.27122417092323303,0.1411098688840866
1788050000194251300,3.782251220703125,-0.2119702398777008,-0.3793473243713379,0.1472185254096985
1788050000210614300,3.7986142578125,-0.19058994948863983,-0.3952298164367676,0.06902777403593063
1788050000226539800,3.814539794921875,-0.14294247329235077,-0.37262779474258423,-0.033597588539123535
1788050000242305000,3.830304931640625,-0.11362093687057495,-0.36529740691185,-0.16493362188339233
1788050000258634000,3.846634033203125,-0.12950342893600464,-0.26450464129447937,-0.2785545587539673
1788050000274685000,3.862684814453125,-0.14966198801994324,-0.1417207419872284,-0.32681289315223694
1788050000290830600,3.87883056640625,-0.1869247704744339,-0.015882495790719986,-0.2742784917354584
1788050000306518500,3.8945185546875,-0.2272418737411499,0.11178833991289139,-0.08185594528913498
1788050000322609200,3.910609130859375,-0.2272418737411499,0.19120082259178162,0.15882496535778046
1788050000338938600,3.926938720703125,-0.18325957655906677,0.26633724570274353,0.32070425152778625
1788050000354702300,3.942702392578125,-0.11239920556545258,0.3634648323059082,0.41172316670417786
1788050000371073300,3.9590732421875,-0.08429940044879913,0.36713001132011414,0.42088615894317627
1788050000386834700,3.974834716796875,-0.10812314599752426,0.25045475363731384,0.3604104816913605
1788050000402848500,3.9908486328125,-0.19853121042251587,0.042760565876960754,0.2620611786842346
1788050000419239000,4.007239013671875,-0.35246923565864563,-0.21502456068992615,0.17104226350784302
1788050000434933500,4.02293359375,-0.4648684561252594,-0.43676865100860596,0.05619960278272629
1788050000451346200,4.03934619140625,-0.48808133602142334,-0.5674937963485718,-0.08002334833145142
1788050000467105800,4.055105712890625,-0.5198463201522827,-0.4905247986316681,-0.22540926933288574
1788050000483188700,4.071188720703125,-0.48869219422340393,-0.26939156651496887,-0.34697145223617554
1788050000499447300,4.087447265625,-0.41111230850219727,-0.09162978827953339,-0.3494149148464203
1788050000515164400,4.103164306640625,-0.2822197377681732,0.08491026610136032,-0.21135938167572021
1788050000531545600,4.119545654296875,-0.18570303916931152,0.2064724564552307,-0.01038470957428217
1788050000547440600,4.135440673828125,-0.14049901068210602,0.2174680233001709,0.12217304855585098
1788050000563308300,4.151308349609375,-0.15393804013729095,0.13988813757896423,0.15454891324043274
1788050000579650000,4.167650146484375,-0.17043140530586243,0.07757988572120667,0.0910189226269722
1788050000595403300,4.1834033203125,-0.1264491081237793,0.04153883829712868,-0.025656340643763542
1788050000611766500,4.1997666015625,-0.04642575979232788,0.045204028487205505,-0.1771509200334549
1788050000627515600,4.215515625,0.04337143152952194,0.04642575979232788,-0.2779437005519867
1788050000643547000,4.231546875,0.06536258012056351,0.03420845419168472,-0.2632829248905182
1788050000659849000,4.247848876953125,0.0507018156349659,0.02626720629632473,-0.2076941877603531
1788050000675547600,4.263547607421875,0.04581489413976669,0.005497787147760391,-0.13439035415649414
1788050000691946000,4.279946044921875,0.04337143152952194,0.027488935738801956,-0.0806342139840126
1788050000707921000,4.2959208984375,0.05619960278272629,0.05009094998240471,-0.025045474991202354
1788050000723694000,4.311694091796875,0.06963863968849182,0.039706241339445114,0.05925392732024193
1788050000740035000,4.32803515625,0.04642575979232788,-0.04337143152952194,0.11789698898792267
1788050000755926800,4.3439267578125,0.0507018156349659,-0.048258353024721146,0.1820378452539444
1788050000772240600,4.36024072265625,0.09407325088977814,-0.018936822190880775,0.27488934993743896
1788050000788183800,4.376183837890625,0.1258382350206375,0.06352998316287994,0.3549126982688904
1788050000804001500,4.39200146484375,0.17837265133857727,0.19425514340400696,0.41172316670417786
1788050000820404200,4.408404296875,0.2590068578720093,0.3579670190811157,0.413555771112442
1788050000836400000,4.424400146484375,0.3738495409488678,0.4202753007411957,0.45265114307403564
1788050000852514300,4.440514404296875,0.42088615894317627,0.3066543638706207,0.5534439086914062
1788050000868294100,4.456294189453125,0.40194934606552124,0.2125810980796814,0.6200281977653503
1788050000884524500,4.472524658203125,0.38179078698158264,0.06169738993048668,0.6200281977653503
1788050000900738000,4.488738037109375,0.3494149148464203,-0.15760323405265808,0.5626068711280823
1788050000916481300,4.504481201171875,0.2877175211906433,-0.21868975460529327,0.4948008358478546
1788050000932868600,4.52086865234375,0.2565633952617645,-0.012217304669320583,0.43799036741256714
1788050000948634000,4.536634033203125,0.2376265823841095,0.18387043476104736,0.40133845806121826
1788050000964683000,4.55268310546875,0.16371189057826996,0.11911872029304504,0.33292156457901
1788050000980949800,4.56894970703125,0.1215621829032898,-0.016493361443281174,0.23029619455337524
1788050000996745200,4.5847451171875,0.11178833991289139,-0.030543262138962746,0.07391469180583954
1788050001013168000,4.601168212890625,0.1160643994808197,-0.06841690838336945,-0.05619960278272629
1788050001029050400,4.61705029296875,0.10995574295520782,-0.19364428520202637,-0.06902777403593063
1788050001044985600,4.632985595703125,0.06719517707824707,-0.32009339332580566,0.04581489413976669
1788050001061252600,4.649252685546875,0.05803219974040985,-0.4184426963329315,0.23884831368923187
1788050001077062100,4.665062255859375,0.09834930300712585,-0.45814892649650574,0.42149701714515686
1788050001093442000,4.681442138671875,0.16554448008537292,-0.40133845806121826,0.588874101638794
1788050001109213000,4.697212890625,0.1667662113904953,-0.3628539443016052,0.7110471725463867
1788050001125218600,4.713218505859375,0.19120082259178162,-0.313373863697052,0.7342600226402283
1788050001141577200,4.7295771484375,0.2681698501110077,-0.2565633952617645,0.626747727394104
1788050001157348000,4.74534814453125,0.43127086758613586,-0.2590068578720093,0.4807509481906891
1788050001173728500,4.761728515625,0.5534439086914062,-0.36651915311813354,0.2577851414680481
1788050001189665800,4.777665771484375,0.6029239892959595,-0.45265114307403564,-0.029932396486401558
1788050001205625300,4.793625244140625,0.5736024379730225,-0.5949827432632446,-0.423329621553421
1788050001221810400,4.809810546875,0.5112941861152649,-0.5607742667198181,-0.759916365146637
1788050001237588000,4.825587890625,0.5167919993400574,-0.36224308609962463,-0.9297369122505188
1788050001253982200,4.841982177734375,0.5015203952789307,-0.2834414839744568,-0.9297369122505188
1788050001269760500,4.857760498046875,0.4612032473087311,-0.313373863697052,-0.7922922372817993
1788050001285994200,4.873994140625,0.3988949954509735,-0.24556782841682434,-0.7122688889503479
1788050001302055200,4.89005517578125,0.3029891550540924,-0.09162978827953339,-0.7299839854240417
1788050001317866200,4.9058662109375,0.2974913716316223,0.0959058403968811,-0.5803219676017761
1788050001334235600,4.922235595703125,0.21563543379306793,0.17531833052635193,-0.5082398653030396
1788050001350183400,4.938183349609375,0.16920967400074005,0.26572638750076294,-0.4709770977497101
1788050001366092000,4.954092041015625,0.12400564551353455,0.30604347586631775,-0.43799036741256714
1788050001382246400,4.970246337890625,0.06780604273080826,0.36224308609962463,-0.41722095012664795
1788050001398045200,4.986045166015625,0.02626720629632473,0.3549126982688904,-0.37751471996307373
1788050001414424800,5.0024248046875,0.00427605677396059,0.30970868468284607,-0.30482175946235657
1788050001430247400,5.018247314453125,0.0006108652451075613,0.22663100063800812,-0.2382374405860901
1788050001446246700,5.03424658203125,-0.004886921960860491,0.1612684279680252,-0.1319468915462494
1788050001462594300,5.05059423828125,-0.02076941914856434,0.14355333149433136,0.10506882518529892
1788050001478281200,5.06628125,-0.05742133408784866,0.06902777403593063,0.4245513379573822
1788050001494648300,5.0826484375,-0.09162978827953339,-0.0012217304902151227,0.7141014933586121
1788050001510447400,5.098447265625,-0.12339477986097336,0.009773843921720982,0.9083566069602966
1788050001526429700,5.1144296875,-0.14538592100143433,0.04948008432984352,1.158811330795288
1788050001542797600,5.130797607421875,-0.21380282938480377,0.07391469180583954,1.4770721197128296
1788050001558524200,5.146524169921875,-0.26450464129447937,0.010995574295520782,1.740355134010315
1788050001574917000,5.162917236328125,-0.3176499307155609,0.05375614017248154,1.9517145156860352
1788050001590631200,5.178631103515625,-0.2474004179239273,0.13316862285137177,2.144136905670166
1788050001606901200,5.1949013671875,-0.28527405858039856,0.21380282938480377,2.1148154735565186
1788050001630988000,5.218988037109375,-0.2620611786842346,0.18387043476104736,2.0311269760131836
1788050001647067400,5.2350673828125,-0.242513507604599,0.1966986060142517,1.9810359477996826
1788050001663133400,5.251133544921875,-0.251676470041275,0.16310101747512817,1.945605754852295
1788050001679185700,5.267185546875,-0.23273965716362,0.03237585723400116,1.9633208513259888
1788050001695261000,5.283260986328125,-0.3017674386501312,-0.1014036312699318,1.880243182182312
1788050001711238400,5.29923828125,-0.31031954288482666,-0.24068090319633484,1.768454909324646
1788050001727279900,5.31527978515625,-0.28649580478668213,-0.31520646810531616,1.6084082126617432
1788050001743346000,5.331345947265625,-0.2828305959701538,-0.15577064454555511,1.455691933631897
1788050001759413000,5.3474130859375,-0.38667771220207214,0.09957103431224823,1.3267992734909058
1788050001775454500,5.363454345703125,-0.3933972120285034,0.11728613078594208,1.397048830986023
1788050001791448000,5.379447998046875,-0.4703662395477295,0.20830504596233368,1.5632041692733765
1788050001807500800,5.395500732421875,-0.4807509481906891,0.16859880089759827,1.7550158500671387
1788050001823560700,5.411560791015625,-0.4337143301963806,0.08246681094169617,1.9309450387954712
1788050001839629000,5.427629150390625,-0.3292563557624817,-0.19120082259178162,1.968207836151123
1788050001855712000,5.4437119140625,-0.27000242471694946,-0.4202753007411957,1.8875735998153687
1788050001871657700,5.45965771484375,-0.2028072625398636,-0.543059229850769,1.6731599569320679
1788050001887753700,5.475753662109375,-0.14966198801994324,-0.6420193910598755,1.2974777221679688
1788050001903817500,5.4918173828125,-0.036041051149368286,-0.6517932415008545,0.9755517840385437
1788050001919890000,5.507889892578125,0.05864306539297104,-0.7165449261665344,0.720820963382721
1788050001935988700,5.52398876953125,-0.0006108652451075613,-0.7024950385093689,0.6676757335662842
1788050001951852300,5.539852294921875,-0.02321287989616394,-0.607810914516449,0.7538077235221863
1788050001967916000,5.555916015625,-0.021991148591041565,-0.4538728892803192,0.8967501521110535
1788050001983982000,5.571982177734375,-0.06719517707824707,-0.2638937830924988,1.0042624473571777
1788050002000017200,5.58801708984375,-0.14477506279945374,-0.0910189226269722,0.9669997096061707
1788050002016117800,5.60411767578125,-0.18509216606616974,0.042760565876960754,0.8124507665634155
1788050002032081000,5.620080810546875,-0.18448130786418915,0.11911872029304504,0.646295428276062
1788050002048146200,5.636146240234375,-0.1820378452539444,0.11850785464048386,0.5729916095733643
1788050002064227300,5.652227294921875,-0.18081611394882202,0.05803219974040985,0.6120869517326355
1788050002080270000,5.66827001953125,-0.17898350954055786,0.05009094998240471,0.7397578358650208
1788050002096280800,5.68428076171875,-0.19547687470912933,0.0659734457731247,0.8100073337554932
1788050002112271400,5.700271240234375,-0.2070833146572113,0.015271631069481373,0.7483099102973938
1788050002128343800,5.71634375,-0.24862214922904968,-0.15393804013729095,0.5778785347938538
1788050002144410000,5.73241015625,-0.2272418737411499,-0.2871066629886627,0.40072759985923767
1788050002160459500,5.74845947265625,-0.14416420459747314,-0.41111230850219727,0.28038713335990906
1788050002176492800,5.764492919921875,-0.05742133408784866,-0.3988949954509735,0.21319197118282318
1788050002192492000,5.780491943359375,-0.07147123664617538,-0.36590829491615295,0.20463985204696655
1788050002208542700,5.796542724609375,-0.09896016865968704,-0.20341812074184418,0.27488934993743896
1788050002224611300,5.812611328125,-0.13255776464939117,0.029932396486401558,0.36651915311813354
1788050002240687600,5.8286875,-0.15393804013729095,0.303600013256073,0.40622538328170776
1788050002256730000,5.844730224609375,-0.14233160018920898,0.43737950921058655,0.3072652220726013
1788050002272693000,5.86069287109375,-0.09773843735456467,0.44593164324760437,0.1814269721508026
1788050002288699600,5.87669970703125,-0.00733038317412138,0.4447098970413208,0.09346238523721695
1788050002304764200,5.89276416015625,0.08246681094169617,0.43249258399009705,0.07330382615327835
1788050002320825000,5.9088251953125,0.16737708449363708,0.4948008358478546,0.11239920556545258
1788050002336869400,5.924869384765625,0.23090706765651703,0.7226535677909851,0.14294247329235077
1788050002352822000,5.940822021484375,0.23640485107898712,0.8894197940826416,0.04948008432984352
1788050002368869000,5.956869140625,0.25534167885780334,0.9627236127853394,-0.17959438264369965
1788050002384936200,5.972936279296875,0.2816088795661926,0.9279043078422546,-0.5009095072746277
1788050002401011000,5.989010986328125,0.27550023794174194,0.8503243923187256,-0.7275404930114746
1788050002417111800,6.00511181640625,0.23884831368923187,0.7660250067710876,-0.8423831462860107
1788050002433065700,6.021065673828125,0.21991148591041565,0.656680166721344,-0.8313875794410706
1788050002449111600,6.037111572265625,0.1411098688840866,0.36224308609962463,-0.607200026512146
1788050002465177300,6.05317724609375,0.07757988572120667,0.35246923565864563,-0.26939156651496887
1788050002481252400,6.06925244140625,0.08735372871160507,0.33536502718925476,-0.05009094998240471
1788050002497263400,6.085263427734375,0.15882496535778046,0.3176499307155609,0.015882495790719986
1788050002513224700,6.101224609375,0.2620611786842346,0.31154128909111023,-0.1411098688840866
1788050002529286100,6.1172861328125,0.3799581825733185,0.25534167885780334,-0.33292156457901
1788050002545349600,6.133349609375,0.5002986192703247,0.11301007121801376,-0.44837507605552673
1788050002561399300,6.1493994140625,0.5369505286216736,-0.05619960278272629,-0.40256020426750183
1788050002577459500,6.16545947265625,0.5497786998748779,-0.2119702398777008,-0.2932153046131134
1788050002593433900,6.181433837890625,0.5571091175079346,-0.3390302062034607,-0.1612684279680252
1788050002609473500,6.1974736328125,0.4813618063926697,-0.3090978264808655,-0.06475171446800232
1788050002625541000,6.213541015625,0.3488040566444397,-0.1966986060142517,-0.048258353024721146
1788050002649246200,6.23724609375,0.2431243658065796,-0.07330382615327835,-0.17898350954055786
1788050002665561000,6.25356103515625,0.24434609711170197,-0.04581489413976669,-0.3139847218990326
1788050002681685200,6.269685302734375,0.2767219543457031,-0.039706241339445114,-0.44837507605552673
1788050002697689300,6.285689453125,0.32498031854629517,0.021991148591041565,-0.4990769028663635
1788050002713567700,6.301567626953125,0.36590829491615295,0.056810468435287476,-0.48869219422340393
1788050002729556700,6.317556640625,0.38728857040405273,0.07635815441608429,-0.4086688458919525
1788050002753888800,6.341888671875,0.3390302062034607,0.09162978827953339,-0.323147714138031
1788050002769942300,6.3579423828125,0.2993239760398865,0.09224065393209457,-0.3927863538265228
1788050002786009000,6.374009033203125,0.2474004179239273,0.08735372871160507,-0.5241223573684692
1788050002802075100,6.3900751953125,0.19303341209888458,0.07024950534105301,-0.6542366743087769
1788050002818120400,6.406120361328125,0.13866640627384186,-0.015882495790719986,-0.8319984674453735
1788050002834072300,6.422072265625,0.08002334833145142,-0.1319468915462494,-0.9101892113685608
1788050002850128000,6.4381279296875,0.00855211354792118,-0.17470745742321014,-0.8069530129432678
1788050002866194700,6.454194580078125,-0.0806342139840126,-0.2321287989616394,-0.5607742667198181
1788050002882270500,6.4702705078125,-0.1472185254096985,-0.3176499307155609,-0.342695415019989
1788050002898326500,6.486326416015625,-0.18936823308467865,-0.4178318381309509,-0.28038713335990906
1788050002914307800,6.502307861328125,-0.21380282938480377,-0.5271766781806946,-0.3127630054950714
1788050002930324700,6.51832470703125,-0.23029619455337524,-0.6139195561408997,-0.3995058834552765
1788050002946397000,6.53439697265625,-0.23457226157188416,-0.6884451508522034,-0.4905247986316681
1788050002962430700,6.5504306640625,-0.25045475363731384,-0.7055493593215942,-0.6114761233329773
1788050002978491600,6.56649169921875,-0.2767219543457031,-0.6530149579048157,-0.6860016584396362
1788050002994456000,6.5824560546875,-0.313373863697052,-0.5711590051651001,-0.7177666425704956
1788050003010509300,6.59850927734375,-0.38606682419776917,-0.5949827432632446,-0.7379252314567566
1788050003026587100,6.614587158203125,-0.5277875661849976,-0.6505714654922485,-0.7733554244041443
1788050003042633500,6.630633544921875,-0.626747727394104,-0.5931501388549805,-0.8735373020172119
1788050003058650000,6.646650146484375,-0.6621779203414917,-0.41661009192466736,-1.0005972385406494
1788050003074630400,6.66263037109375,-0.617584764957428,-0.025045474991202354,-1.140485405921936
1788050003090684000,6.678683837890625,-0.513126790523529,0.3139847218990326,-1.2651019096374512
1788050003106750000,6.69475,-0.3787364661693573,0.5161811113357544,-1.3359622955322266
1788050003122814700,6.710814697265625,-0.2217440903186798,0.5943718552589417,-1.3616186380386353
1788050003138850800,6.726850830078125,-0.1111774742603302,0.5424483418464661,-1.3048081398010254
1788050003154848800,6.742848876953125,-0.08918632566928864,0.35063666105270386,-1.1582005023956299
1788050003170866700,6.75886669921875,-0.1411098688840866,0.14049901068210602,-0.8796459436416626
1788050003186931700,6.774931640625,-0.22052235901355743,-0.060475658625364304,-0.656069278717041
1788050003202995500,6.790995361328125,-0.22479841113090515,-0.2565633952617645,-0.7159340381622314
1788050003219069400,6.8070693359375,-0.15454891324043274,-0.3634648323059082,-0.9523389339447021
1788050003235062300,6.823062255859375,-0.11911872029304504,-0.2828305959701538,-1.217454433441162
1788050003251102000,6.83910205078125,-0.27061331272125244,-0.06963863968849182,-1.3518447875976562
1788050003267172900,6.8551728515625,-0.49785518646240234,0.11056660860776901,-1.4269812107086182
1788050003283244000,6.871244140625,-0.5894849896430969,0.38606682419776917,-1.5503759384155273
1788050003299337500,6.88733740234375,-0.543059229850769,0.6536257863044739,-1.6841554641723633
1788050003315293400,6.90329345703125,-0.48319441080093384,0.7812966704368591,-1.7122552394866943
1788050003331343600,6.919343505859375,-0.3781255781650543,0.8747590184211731,-1.6126842498779297
1788050003347433700,6.935433837890625,-0.26083946228027344,0.7898487448692322,-1.5094480514526367
1788050003363465200,6.95146533203125,-0.1765400618314743,0.44165557622909546,-1.436144232749939
1788050003379565800,6.96756591796875,-0.12339477986097336,0.2718350291252136,-1.309084177017212
1788050003395518500,6.9835185546875,-0.07452555745840073,0.036651913076639175,-1.0714576244354248
1788050003411583000,6.9995830078125,-0.015271631069481373,-0.13561208546161652,-0.8313875794410706
1788050003427651300,7.0156513671875,0.0354301854968071,-0.303600013256073,-0.7214318513870239
1788050003443688000,7.03168798828125,0.10018189996480942,-0.5241223573684692,-0.7428121566772461
1788050003459759900,7.047759765625,0.16310101747512817,-0.684779942035675,-0.8393288254737854
1788050003475736600,7.063736572265625,0.18631389737129211,-0.6768386960029602,-0.8985827565193176
1788050003491810300,7.079810302734375,0.1973094791173935,-0.5277875661849976,-0.9291260242462158
1788050003507876900,7.095876953125,0.21563543379306793,-0.37568211555480957,-0.9065240025520325
1788050003523925200,7.11192529296875,0.2571742534637451,-0.30970868468284607,-0.797789990901947
1788050003539995400,7.127995361328125,0.304210901260376,-0.1667662113904953,-0.5778785347938538
1788050003555977700,7.143977783203125,0.29016098380088806,-0.13439035415649414,-0.29993483424186707
1788050003572048000,7.1600478515625,0.24862214922904968,-0.08796459436416626,0.03420845419168472
1788050003588116700,7.17611669921875,0.2620611786842346,0.018325956538319588,0.3396410644054413
1788050003604159000,7.192158935546875,0.3335324227809906,0.08552113175392151,0.608421802520752
1788050003620225500,7.2082255859375,0.4355469346046448,0.03481931984424591,0.7623597979545593
1788050003636212700,7.224212646484375,0.5161811113357544,-0.006108652334660292,0.8668177723884583
1788050003652303000,7.24030322265625,0.5870414972305298,0.07208210229873657,0.8778133392333984
1788050003668370200,7.2563701171875,0.6328563690185547,0.22602014243602753,0.6542366743087769
1788050003684432000,7.272431884765625,0.6591235995292664,0.29138273000717163,0.3078760802745819
1788050003700525000,7.288525146484375,0.6872233748435974,0.28038713335990906,-0.10018189996480942
1788050003716523500,7.3045234375,0.7214318513870239,0.19058994948863983,-0.2993239760398865
1788050003732618500,7.320618408203125,0.6701191663742065,0.003054326167330146,-0.22540926933288574
1788050003748686800,7.336686767578125,0.5962044596672058,-0.11301007121801376,-0.02076941914856434
1788050003764740900,7.352740966796875,0.5338962078094482,-0.16859880089759827,0.22113321721553802
1788050003780818200,7.368818115234375,0.5290092825889587,-0.14233160018920898,0.38240164518356323
1788050003796774700,7.384774658203125,0.5534439086914062,-0.0507018156349659,0.46547931432724
1788050003812824300,7.40082421875,0.5705481171607971,0.051312681287527084,0.5308418869972229
1788050003828895500,7.4168955078125,0.5589417219161987,0.07635815441608429,0.5723807215690613
1788050003844966400,7.43296630859375,0.5296201705932617,0.045204028487205505,0.5455026626586914
1788050003861058800,7.449058837890625,0.5216789245605469,-0.027488935738801956,0.4349360466003418
1788050003877019000,7.465018798828125,0.5082398653030396,-0.07757988572120667,0.2987131178379059
1788050003893086700,7.481086669921875,0.41599923372268677,-0.1417207419872284,0.192422553896904
1788050003909161500,7.497161376953125,0.3225368559360504,-0.2015855312347412,0.12889257073402405
1788050003925200000,7.513199951171875,0.23945917189121246,-0.2565633952617645,0.06658431142568588
1788050003941309000,7.529308837890625,0.21563543379306793,-0.2681698501110077,0.06658431142568588
1788050003957281800,7.54528173828125,0.24007004499435425,-0.25961771607398987,0.1160643994808197
1788050003973360600,7.561360595703125,0.2791654169559479,-0.23945917189121246,0.21624629199504852
1788050003989448700,7.57744873046875,0.2987131178379059,-0.17776179313659668,0.33597588539123535
1788050004005493500,7.593493408203125,0.2840523421764374,-0.10506882518529892,0.4031710624694824
1788050004021566000,7.60956591796875,0.24617868661880493,-0.08246681094169617,0.4129449129104614
1788050004037550300,7.62555029296875,0.21991148591041565,-0.07696902006864548,0.44837507605552673
1788050004053607400,7.641607421875,0.20097467303276062,-0.06658431142568588,0.5418374538421631
1788050004069674800,7.6576748046875,0.2125810980796814,-0.07269296050071716,0.6530149579048157
1788050004085739500,7.673739501953125,0.21135938167572021,-0.0555887371301651,0.7373143434524536
1788050004101834500,7.68983447265625,0.19608774781227112,-0.09040805697441101,0.7666358947753906
1788050004117827800,7.705827880859375,0.18020524084568024,-0.16493362188339233,0.7666358947753906
1788050004133887700,7.7218876953125,0.16798794269561768,-0.23151792585849762,0.7623597979545593
1788050004149960000,7.7379599609375,0.14844025671482086,-0.2822197377681732,0.7513642311096191
1788050004166034200,7.7540341796875,0.13072516024112701,-0.2981022298336029,0.7666358947753906
1788050004182127900,7.7701279296875,0.09834930300712585,-0.2938261926174164,0.7996225953102112
1788050004198128600,7.786128662109375,0.05192354694008827,-0.25045475363731384,0.8350527882575989
1788050004214185200,7.802185302734375,-0.00733038317412138,-0.19486601650714874,0.9291260242462158
1788050004230255400,7.81825537109375,-0.07696902006864548,-0.15760323405265808,1.0885618925094604
1788050004246317800,7.83431787109375,-0.1618792861700058,-0.13011430203914642,1.3341296911239624
1788050004262405000,7.850405029296875,-0.21930062770843506,-0.1007927656173706,1.5552629232406616
1788050004278366200,7.8663662109375,-0.26633724570274353,-0.13500121235847473,1.6865988969802856
1788050004294411300,7.882411376953125,-0.30543261766433716,-0.1472185254096985,1.880243182182312
1788050004310481200,7.898481201171875,-0.34086281061172485,-0.19058994948863983,2.1032090187072754
1788050004326547500,7.91454736328125,-0.3384193480014801,-0.24923302233219147,2.282803535461426
1788050004342636300,7.93063623046875,-0.30482175946235657,-0.47708576917648315,2.4495697021484375
1788050004358600000,7.946599853515625,-0.2779437005519867,-0.8802568316459656,2.5424211025238037
1788050004374669800,7.962669921875,-0.2577851414680481,-1.158811330795288,2.5283713340759277
1788050004390824700,7.97882470703125,-0.2577851414680481,-1.32863187789917,2.412306785583496
1788050004406865200,7.994865234375,-0.24678955972194672,-1.4074335098266602,2.2492058277130127
1788050004422976500,8.0109765625,-0.1771509200334549,-1.3683381080627441,2.0677788257598877
1788050004438949600,8.02694970703125,-0.13011430203914642,-1.1624765396118164,1.985922932624817
1788050004454983200,8.042983154296875,-0.10201449692249298,-0.8857545852661133,2.0146336555480957
1788050004471054000,8.05905419921875,-0.11789698898792267,-0.6921103000640869,2.152689218521118
1788050004487102700,8.075102783203125,-0.1771509200334549,-0.4550946056842804,2.324953079223633
1788050004503157800,8.09115771484375,-0.24190263450145721,-0.18997909128665924,2.445293664932251
1788050004519139000,8.10713916015625,-0.30543261766433716,-0.18509216606616974,2.3047945499420166
1788050004535211000,8.1232109375,-0.28527405858039856,-0.31581732630729675,1.9773707389831543
1788050004551279400,8.139279296875,-0.2119702398777008,-0.4184426963329315,1.6548339128494263
1788050004567318000,8.155318115234374,-0.17837265133857727,-0.3988949954509735,1.2699888944625854
1788050004583413200,8.171413330078124,-0.2480112910270691,-0.35552358627319336,0.9279043078422546
1788050004599402800,8.18740283203125,-0.313373863697052,-0.24862214922904968,0.7458664774894714
1788050004615486200,8.203486328125,-0.3903428912162781,-0.13744467496871948,0.6585127115249634
1788050004631554000,8.219553955078124,-0.47708576917648315,-0.06902777403593063,0.5821545720100403
1788050004647613000,8.235613037109376,-0.5497786998748779,-0.056810468435287476,0.475253164768219
1788050004663704800,8.251704833984375,-0.6157521605491638,-0.11789698898792267,0.3481931984424591
1788050004679699700,8.26769970703125,-0.6633996367454529,-0.17104226350784302,0.27611109614372253
1788050004695763200,8.28376318359375,-0.7305948138237,-0.20586158335208893,0.2993239760398865
1788050004711831000,8.2998310546875,-0.7751879692077637,-0.18936823308467865,0.3805690407752991
1788050004727859000,8.31585888671875,-0.808174729347229,-0.1466076523065567,0.42638394236564636
1788050004743946200,8.3319462890625,-0.7874053120613098,-0.15271630883216858,0.3634648323059082
1788050004759899400,8.3478994140625,-0.7580837607383728,-0.2278527319431305,0.2535090744495392
1788050004775951000,8.363951171875,-0.6493497490882874,-0.252287358045578,0.12095131725072861
1788050004792017400,8.380017333984375,-0.5198463201522827,-0.19058994948863983,-0.03787364438176155
1788050004808097300,8.39609716796875,-0.43127086758613586,-0.18448130786418915,-0.2431243658065796
1788050004824200400,8.412200439453125,-0.3219259977340698,-0.20463985204696655,-0.4795292317867279
1788050004840159500,8.428159423828125,-0.2480112910270691,-0.12461651116609573,-0.5149593949317932
1788050004856223500,8.444223388671874,-0.21930062770843506,-0.01771509274840355,-0.38606682419776917
1788050004872308700,8.460308837890626,-0.21868975460529327,0.12950342893600464,-0.16493362188339233
1788050004888341200,8.47634130859375,-0.2125810980796814,0.23457226157188416,0.009162978269159794
1788050004904366800,8.492366943359375,-0.15515977144241333,0.30543261766433716,0.13011430203914642
1788050004920348700,8.5083486328125,-0.09651670604944229,0.33475416898727417,0.2223549485206604
1788050004936430300,8.524430419921876,-0.009773843921720982,0.2840523421764374,0.28955012559890747
1788050004952522800,8.540522705078125,0.09529497474431992,0.2174680233001709,0.3188716471195221
1788050004968577300,8.556577392578125,0.19486601650714874,0.19792033731937408,0.28466320037841797
1788050004984609000,8.572609130859375,0.27977627515792847,0.1966986060142517,0.17898350954055786
1788050005000601900,8.588601806640625,0.3072652220726013,0.2724458873271942,0.10323622822761536
1788050005016612900,8.60461279296875,0.27977627515792847,0.3536909818649292,0.06230825558304787
1788050005032678400,8.620678466796875,0.22357667982578278,0.4703662395477295,0.033597588539123535
1788050005048746500,8.63674658203125,0.14477506279945374,0.5907067060470581,0.0555887371301651
1788050005064780800,8.65278076171875,0.07696902006864548,0.6695083379745483,0.13316862285137177
1788050005080775200,8.668775146484375,-0.009773843921720982,0.6597344875335693,0.20402899384498596
1788050005096785700,8.68478564453125,-0.06475171446800232,0.6029239892959595,0.12400564551353455
1788050005112852200,8.700852294921875,-0.09712757170200348,0.6194173693656921,-0.01466076634824276
1788050005128926700,8.7169267578125,-0.10567969083786011,0.6939429044723511,-0.08246681094169617
1788050005144979500,8.7329794921875,-0.06352998316287994,0.7354817390441895,-0.07696902006864548
1788050005160936700,8.748936767578124,0.03420845419168472,0.7049384713172913,-0.02871066704392433
1788050005176941800,8.76494189453125,0.12889257073402405,0.5845980644226074,-0.014049900695681572
1788050005193007600,8.781007568359374,0.2376265823841095,0.38179078698158264,-0.039706241339445114
1788050005209084200,8.797084228515626,0.2981022298336029,0.21868975460529327,-0.03298672288656235
1788050005225134800,8.813134765625,0.32559117674827576,0.13316862285137177,0.06719517707824707
1788050005241089800,8.82908984375,0.31642818450927734,0.10873401165008545,0.2718350291252136
1788050005257098800,8.8450986328125,0.294437050819397,0.08491026610136032,0.40744712948799133
1788050005273159200,8.8611591796875,0.2926044464111328,0.02932153269648552,0.3781255781650543
1788050005289233700,8.877233642578124,0.27977627515792847,-0.015882495790719986,0.22907446324825287
1788050005305330400,8.893330322265625,0.23396138846874237,0.01038470957428217,0.0757472887635231
1788050005321293000,8.90929296875,0.18814650177955627,0.06108652427792549,-0.06841690838336945
1788050005337311700,8.925311767578124,0.17043140530586243,0.09651670604944229,-0.19975294172763824
1788050005353379300,8.94137939453125,0.16310101747512817,0.09896016865968704,-0.34513887763023376
1788050005369427000,8.957427001953125,0.17592918872833252,0.0354301854968071,-0.4043927788734436
1788050005385486600,8.973486572265625,0.21074850857257843,-0.02382374368607998,-0.37140607833862305
1788050005401454000,8.9894541015625,0.2528982162475586,-0.08979719132184982,-0.2730567753314972
1788050005417523500,9.0055234375,0.2791654169559479,-0.11423180252313614,-0.15943582355976105
1788050005433588200,9.021588134765626,0.2687807083129883,-0.08918632566928864,-0.08002334833145142
1788050005449639700,9.0376396484375,0.22663100063800812,-0.039095375686883926,-0.04948008432984352
1788050005465714000,9.0537138671875,0.18814650177955627,-0.01160643994808197,-0.09529497474431992
1788050005481697500,9.069697509765625,0.182648703455925,-0.021991148591041565,-0.15454891324043274
1788050005497740300,9.085740234375,0.18325957655906677,-0.054367005825042725,-0.17959438264369965
1788050005513809000,9.101808837890625,0.1820378452539444,-0.10995574295520782,-0.18814650177955627
1788050005529872600,9.11787255859375,0.16493362188339233,-0.13988813757896423,-0.17898350954055786
1788050005545916000,9.133916015625,0.14294247329235077,-0.12400564551353455,-0.15943582355976105
1788050005561918200,9.149918212890626,0.11545353382825851,-0.10506882518529892,-0.1472185254096985
1788050005577973800,9.165973876953124,0.09712757170200348,-0.1258382350206375,-0.12522737681865692
1788050005594046500,9.18204638671875,0.08185594528913498,-0.1569923609495163,-0.08185594528913498
1788050005610120200,9.1981201171875,0.06291911751031876,-0.1765400618314743,0.0006108652451075613
1788050005626167000,9.2141669921875,0.04764748737215996,-0.19792033731937408,0.08307767659425735
1788050005642120200,9.2301201171875,0.033597588539123535,-0.2076941877603531,0.13500121235847473
1788050005658129200,9.246129150390624,0.02076941914856434,-0.2278527319431305,0.19425514340400696
1788050005674195000,9.26219482421875,-0.012217304669320583,-0.24984388053417206,0.24678955972194672
1788050005690222300,9.278222412109375,-0.048258353024721146,-0.294437050819397,0.2577851414680481
1788050005706277400,9.29427734375,-0.08918632566928864,-0.35185837745666504,0.21319197118282318
1788050005722244600,9.31024462890625,-0.10262536257505417,-0.39645153284072876,0.13500121235847473
1788050005738267000,9.326266845703126,-0.09407325088977814,-0.455705463886261,0.05864306539297104
1788050005754342700,9.3423427734375,-0.08674286305904388,-0.43799036741256714,0.024434609338641167
1788050005770376000,9.3583759765625,-0.09529497474431992,-0.4343251883983612,0.009162978269159794
1788050005786437600,9.374437744140625,-0.10873401165008545,-0.5180137157440186,-0.06902777403593063
1788050005802407200,9.3904072265625,-0.11056660860776901,-0.5595525503158569,-0.21868975460529327
1788050005818454000,9.4064541015625,-0.17043140530586243,-0.53328537940979,-0.3683517575263977
1788050005834530300,9.4225302734375,-0.2871066629886627,-0.42699480056762695,-0.41172316670417786
1788050005850563600,9.4385634765625,-0.37568211555480957,-0.2816088795661926,-0.34147366881370544
1788050005866667000,9.4546669921875,-0.4355469346046448,-0.06536258012056351,-0.13988813757896423
1788050005882627800,9.4706279296875,-0.4056145250797272,0.13072516024112701,0.12278391420841217
1788050005898698800,9.48669873046875,-0.32498031854629517,0.27977627515792847,0.35613444447517395
1788050005914781400,9.502781494140624,-0.2535090744495392,0.251676470041275,0.503963828086853
1788050005930839300,9.51883935546875,-0.16371189057826996,0.09834930300712585,0.607810914516449
1788050005946904600,9.534904541015624,-0.06475171446800232,-0.04642575979232788,0.6035348773002625
1788050005962887200,9.55088720703125,0.009773843921720982,-0.1160643994808197,0.5314527750015259
1788050005978927400,9.56692724609375,0.13988813757896423,-0.2064724564552307,0.4086688458919525
1788050005994986200,9.582986328125,0.21380282938480377,-0.18509216606616974,0.2736676335334778
1788050006011049500,9.599049560546876,0.22052235901355743,-0.15943582355976105,0.13439035415649414
1788050006027085000,9.6150849609375,0.18936823308467865,-0.17959438264369965,-0.09224065393209457
1788050006043083800,9.631083740234375,0.12461651116609573,-0.20097467303276062,-0.3585779070854187
1788050006059129900,9.6471298828125,0.036041051149368286,-0.19058994948863983,-0.5265658497810364
1788050006075187200,9.663187255859375,-0.09896016865968704,-0.0910189226269722,-0.5662720799446106
1788050006091249700,9.679249755859376,-0.23640485107898712,0.07452555745840073,-0.4758640229701996
1788050006107333000,9.6953330078125,-0.31581732630729675,0.18448130786418915,-0.3781255781650543
1788050006123281000,9.711281005859375,-0.3066543638706207,0.20952677726745605,-0.33597588539123535
1788050006139286300,9.727286376953124,-0.2370157092809677,0.17043140530586243,-0.3286454975605011
1788050006155348500,9.743348388671874,-0.13255776464939117,0.0507018156349659,-0.36590829491615295
1788050006171417900,9.75941796875,-0.0354301854968071,-0.06902777403593063,-0.4392121136188507
1788050006187508500,9.775508544921875,0.03237585723400116,-0.1667662113904953,-0.5552765130996704
1788050006203460400,9.79146044921875,0.0006108652451075613,-0.15027284622192383,-0.7141014933586121
1788050006219464200,9.807464111328125,-0.03787364438176155,-0.07208210229873657,-0.8845328688621521
1788050006235524000,9.823524169921875,-0.03481931984424591,0.06169738993048668,-1.0824532508850098
1788050006251559400,9.839559326171875,0.003054326167330146,0.19914206862449646,-1.2333369255065918
1788050006267660500,9.85566064453125,0.031154127791523933,0.26511552929878235,-1.2663236856460571
1788050006283531500,9.871531494140624,0.07880161702632904,0.32620203495025635,-1.1997393369674683
1788050006299591700,9.887591796875,0.13988813757896423,0.3433062732219696,-1.0726794004440308
1788050006315648500,9.9036484375,0.19058994948863983,0.3732386529445648,-0.921184778213501
1788050006331674000,9.919674072265625,0.18448130786418915,0.42088615894317627,-0.7086036801338196
1788050006347690200,9.935690185546875,0.11423180252313614,0.3903428912162781,-0.5589417219161987
1788050006363662000,9.951662109375,0.06169738993048668,0.28038713335990906,-0.5583308339118958
1788050006379737900,9.96773779296875,0.042760565876960754,0.19425514340400696,-0.6597344875335693
1788050006395803100,9.98380322265625,0.04581489413976669,0.08979719132184982,-0.8423831462860107
1788050006411849000,9.999848876953125,0.10751228034496307,0.02626720629632473,-1.076344609260559
1788050006427877600,10.015877685546876,0.16310101747512817,0.00855211354792118,-1.2748757600784302
1788050006443868000,10.031867919921876,0.23273965716362,0.012828170321881771,-1.4257594347000122
1788050006459953200,10.047953125,0.2577851414680481,0.019547687843441963,-1.5259413719177246
1788050006476021200,10.064021240234375,0.2718350291252136,0.08429940044879913,-1.5845844745635986
1788050006492085000,10.0800849609375,0.2840523421764374,0.1869247704744339,-1.576032280921936
1788050006508170500,10.09617041015625,0.17409659922122955,0.20952677726745605,-1.5418238639831543
1788050006524160800,10.112160888671875,0.03298672288656235,0.11362093687057495,-1.585806131362915
1788050006540212000,10.1282119140625,-0.01160643994808197,0.13377949595451355,-1.718363881111145
1788050006556273200,10.144273193359375,0.024434609338641167,0.3176499307155609,-1.8594738245010376
1788050006572340000,10.160340087890624,0.08674286305904388,0.588263213634491,-1.8942930698394775
1788050006588424000,10.176423828125,0.1618792861700058,0.7452555894851685,-1.8588629961013794
1788050006604368000,10.192367919921875,0.24434609711170197,0.826500654220581,-1.7873916625976562
1788050006620417800,10.208417724609374,0.32620203495025635,0.7018841505050659,-1.6395623683929443
1788050006636483600,10.224483642578125,0.3805690407752991,0.4703662395477295,-1.4679092168807983
1788050006652559400,10.240559326171875,0.4648684561252594,0.18020524084568024,-1.186300277709961
1788050006668618500,10.256618408203124,0.5601634383201599,0.05253441259264946,-0.7953465580940247
1788050006684573200,10.2725732421875,0.5821545720100403,0.001832595793530345,-0.48808133602142334
1788050006700636000,10.288635986328124,0.5564982295036316,-0.015271631069481373,-0.28038713335990906
1788050006716790000,10.3047900390625,0.5027421116828918,-0.08674286305904388,-0.24984388053417206
1788050006732823300,10.3208232421875,0.4245513379573822,-0.07757988572120667,-0.2938261926174164
1788050006748897800,10.336897705078124,0.36102136969566345,-0.01466076634824276,-0.3378084897994995
1788050006764860700,10.352860595703126,0.2987131178379059,0.05253441259264946,-0.3982841372489929
1788050006780939000,10.36893896484375,0.23335053026676178,0.11178833991289139,-0.4495968222618103
1788050006797022200,10.385022216796875,0.18448130786418915,0.08735372871160507,-0.4996877610683441
1788050006813061000,10.40106103515625,0.15027284622192383,-0.025045474991202354,-0.5448917746543884
1788050006829128400,10.41712841796875,0.1258382350206375,-0.14538592100143433,-0.48685958981513977
1788050006845106000,10.43310595703125,0.09896016865968704,-0.2064724564552307,-0.35552358627319336
1788050006861138400,10.449138427734376,0.07391469180583954,-0.21563543379306793,-0.18814650177955627
1788050006877203000,10.465202880859374,0.059864792972803116,-0.22907446324825287,-0.07208210229873657
1788050006893255000,10.4812548828125,0.048258353024721146,-0.2321287989616394,-0.03726277872920036
1788050006909327000,10.4973271484375,0.054367005825042725,-0.2638937830924988,-0.05742133408784866
1788050006925309700,10.513309814453125,0.06169738993048668,-0.30543261766433716,-0.08918632566928864
1788050006941320000,10.52931982421875,0.06414084881544113,-0.31031954288482666,-0.0959058403968811
1788050006957385700,10.5453857421875,0.054367005825042725,-0.29993483424186707,-0.10751228034496307
1788050006973457700,10.561457763671875,0.0354301854968071,-0.2968805134296417,-0.12950342893600464
1788050006989499100,10.5774990234375,-0.009773843921720982,-0.28955012559890747,-0.16310101747512817
1788050007005495300,10.593495361328126,-0.0659734457731247,-0.252287358045578,-0.18570303916931152
1788050007021499000,10.609498779296874,-0.1417207419872284,-0.16982053220272064,-0.2015855312347412
1788050007037561300,10.625561279296875,-0.22357667982578278,-0.12950342893600464,-0.20463985204696655
1788050007053613000,10.641613037109375,-0.30054569244384766,-0.12828169763088226,-0.18631389737129211
1788050007069709800,10.657709716796875,-0.3842342495918274,-0.11972958594560623,-0.11728613078594208
1788050007085660400,10.673660400390625,-0.4440990388393402,-0.15515977144241333,-0.022602014243602753
1788050007101712600,10.689712646484375,-0.48258355259895325,-0.28466320037841797,0.06658431142568588
1788050007117772300,10.705772216796875,-0.5161811113357544,-0.37629300355911255,0.13805554807186127
1788050007133795800,10.7217958984375,-0.5357288122177124,-0.4660901725292206,0.17531833052635193
1788050007149857000,10.73785693359375,-0.5229006409645081,-0.4807509481906891,0.1459967941045761
1788050007165824500,10.753824462890625,-0.5106833577156067,-0.4141666293144226,0.0910189226269722
1788050007181837300,10.76983740234375,-0.5009095072746277,-0.3078760802745819,0.021991148591041565
1788050007197898800,10.785898681640624,-0.4954117238521576,-0.20036379992961884,-0.007941247895359993
1788050007213937700,10.801937744140625,-0.4801400899887085,-0.1111774742603302,-0.010995574295520782
1788050007229949000,10.817948974609376,-0.46792277693748474,-0.16371189057826996,-0.03481931984424591
1788050007245910500,10.83391064453125,-0.4996877610683441,-0.3646865487098694,-0.14538592100143433
1788050007261985800,10.84998583984375,-0.5265658497810364,-0.4899139404296875,-0.2871066629886627
1788050007278050300,10.86605029296875,-0.5320636034011841,-0.48808133602142334,-0.3897320330142975
1788050007294125000,10.882125,-0.543059229850769,-0.32620203495025635,-0.36651915311813354
1788050007310175700,10.89817578125,-0.5265658497810364,-0.0806342139840126,-0.19914206862449646
1788050007326146000,10.91414599609375,-0.49235737323760986,0.06963863968849182,0.005497787147760391
1788050007342226000,10.930225830078125,-0.4648684561252594,0.09834930300712585,0.22052235901355743
1788050007358293000,10.94629296875,-0.4434881806373596,0.06352998316287994,0.3604104816913605
1788050007374335700,10.962335693359375,-0.4190535545349121,0.08979719132184982,0.42638394236564636
1788050007390400800,10.97840087890625,-0.40256020426750183,0.1215621829032898,0.4538728892803192
1788050007406292000,10.9942919921875,-0.3805690407752991,0.1062905490398407,0.4294382631778717
1788050007422348000,11.01034814453125,-0.34513887763023376,0.0659734457731247,0.3683517575263977
1788050007438412300,11.026412353515624,-0.2919935882091522,0.009773843921720982,0.2675589919090271
1788050007454483700,11.042483642578125,-0.242513507604599,-0.06719517707824707,0.16249015927314758
1788050007470574600,11.05857470703125,-0.21319197118282318,-0.1313360333442688,0.09468411654233932
1788050007486571300,11.0745712890625,-0.19425514340400696,-0.2431243658065796,0.021991148591041565
1788050007502676500,11.090676513671875,-0.19608774781227112,-0.38117989897727966,-0.08429940044879913
1788050007518744300,11.106744384765625,-0.21013765037059784,-0.4398229718208313,-0.1716531366109848
1788050007534821400,11.1228212890625,-0.23090706765651703,-0.4001167416572571,-0.15943582355976105
1788050007550914000,11.1389140625,-0.2669481039047241,-0.28588494658470154,-0.05253441259264946
1788050007566873000,11.154873046875,-0.2981022298336029,-0.1765400618314743,0.056810468435287476
1788050007582977800,11.170977783203124,-0.2926044464111328,-0.1258382350206375,0.11178833991289139
1788050007599049500,11.187049560546875,-0.26083946228027344,-0.10201449692249298,0.11667526513338089
1788050007615127600,11.20312744140625,-0.22052235901355743,-0.13561208546161652,0.0708603709936142
1788050007631233300,11.2192333984375,-0.182648703455925,-0.13377949595451355,0.022602014243602753
1788050007647189200,11.235189208984375,-0.14782938361167908,-0.11972958594560623,-0.03176499158143997
1788050007663254800,11.2512548828125,-0.12522737681865692,-0.10018189996480942,-0.10506882518529892
1788050007679328000,11.267327880859375,-0.11545353382825851,-0.07330382615327835,-0.18997909128665924
1788050007695359500,11.283359375,-0.12034045159816742,-0.056810468435287476,-0.22968533635139465
1788050007711422500,11.29942236328125,-0.13011430203914642,-0.06169738993048668,-0.2021963894367218
1788050007727395600,11.3153955078125,-0.14049901068210602,-0.06169738993048668,-0.13866640627384186
1788050007743475700,11.331475830078125,-0.13439035415649414,-0.04703662544488907,-0.07880161702632904
1788050007759557000,11.34755712890625,-0.11056660860776901,-0.00733038317412138,-0.021380282938480377
1788050007775599400,11.363599365234375,-0.07819075137376785,0.022602014243602753,0.018936822190880775
1788050007791661300,11.379661376953125,-0.054367005825042725,0.05192354694008827,0.04886921867728233
1788050007807636200,11.39563623046875,-0.024434609338641167,0.06902777403593063,0.0757472887635231
1788050007823694300,11.4116943359375,0.014049900695681572,0.10873401165008545,0.0659734457731247
1788050007839763000,11.427762939453125,0.060475658625364304,0.18020524084568024,0.031154127791523933
1788050007855826000,11.443825927734375,0.1062905490398407,0.23273965716362,-0.006108652334660292
1788050007871874800,11.459874755859374,0.16432274878025055,0.2840523421764374,-0.02076941914856434
1788050007887873300,11.475873291015626,0.2168571650981903,0.3384193480014801,-0.00855211354792118
1788050007903880200,11.491880126953125,0.2590068578720093,0.3640756905078888,0
1788050007919947500,11.507947509765625,0.2871066629886627,0.34697145223617554,0.009162978269159794
1788050007936024600,11.524024658203125,0.28588494658470154,0.30970868468284607,0.006108652334660292
1788050007952118800,11.540118896484374,0.26450464129447937,0.24495697021484375,-0.010995574295520782
1788050007968116000,11.556115966796876,0.21380282938480377,0.15882496535778046,-0.039706241339445114
1788050007984122400,11.572122314453125,0.1466076523065567,0.06902777403593063,-0.0507018156349659
1788050008000192300,11.588192138671875,0.0959058403968811,0.012828170321881771,-0.03298672288656235
1788050008016263000,11.604262939453125,0.04398229718208313,-0.01160643994808197,0.009162978269159794
1788050008032368000,11.6203681640625,0.0006108652451075613,-0.01710422709584236,0.06780604273080826
1788050008048321500,11.636321533203125,-0.02382374368607998,-0.02932153269648552,0.1160643994808197
1788050008064382200,11.65238232421875,-0.03420845419168472,-0.036041051149368286,0.12828169763088226
1788050008080452600,11.66845263671875,-0.019547687843441963,-0.03848451003432274,0.10323622822761536
1788050008096489200,11.6844892578125,0.01160643994808197,-0.039095375686883926,0.04886921867728233
1788050008112546000,11.700546142578125,0.039095375686883926,-0.0354301854968071,0.0024434609804302454
1788050008128517600,11.716517578125,0.06780604273080826,-0.028099801391363144,-0.03787364438176155
1788050008144592100,11.732592041015625,0.08124507963657379,-0.0006108652451075613,-0.0555887371301651
1788050008160663600,11.74866357421875,0.08002334833145142,0.009162978269159794,-0.05864306539297104
1788050008176706300,11.764706298828125,0.08918632566928864,0.00366519158706069,-0.04214970022439957
1788050008192773600,11.780773681640625,0.09468411654233932,0.00427605677396059,-0.014049900695681572
1788050008208746800,11.796746826171875,0.09285151958465576,-0.012217304669320583,0.006108652334660292
1788050008224832300,11.812832275390624,0.09468411654233932,-0.03298672288656235,0.019547687843441963
1788050008240904200,11.828904296875,0.10751228034496307,-0.06780604273080826,0.04948008432984352
1788050008256955000,11.844954833984374,0.11911872029304504,-0.07757988572120667,0.08124507963657379
1788050008272983000,11.860983154296875,0.13011430203914642,-0.08002334833145142,0.09285151958465576
1788050008288984300,11.876984375,0.13988813757896423,-0.08491026610136032,0.08185594528913498
1788050008305025500,11.893025634765625,0.152105450630188,-0.08429940044879913,0.06108652427792549
1788050008321093600,11.90909375,0.15271630883216858,-0.1007927656173706,0.0507018156349659
1788050008337153000,11.925153076171876,0.1411098688840866,-0.11545353382825851,0.039706241339445114
1788050008353236500,11.941236572265625,0.12339477986097336,-0.10995574295520782,0.02626720629632473
1788050008369223700,11.9572236328125,0.10323622822761536,-0.1007927656173706,0.009773843921720982
1788050008385319000,11.97331884765625,0.08429940044879913,-0.08918632566928864,0.001832595793530345
1788050008401387000,11.989386962890626,0.06658431142568588,-0.06963863968849182,0.0006108652451075613
1788050008417438500,12.0054384765625,0.05253441259264946,-0.06719517707824707,-0.00366519158706069
1788050008433476900,12.021476806640624,0.04886921867728233,-0.06475171446800232,0.00427605677396059
1788050008449472300,12.03747216796875,0.05009094998240471,-0.0708603709936142,0.006719517521560192
1788050008465576000,12.053575927734375,0.04398229718208313,-0.08368854224681854,-0.001832595793530345
1788050008481643500,12.0696435546875,0.03420845419168472,-0.10201449692249298,-0.012828170321881771
1788050008497723100,12.08572314453125,0.01771509274840355,-0.12522737681865692,-0.015271631069481373
1788050008513776600,12.101776611328125,-0.001832595793530345,-0.14294247329235077,-0.009162978269159794
1788050008529734000,12.11773388671875,-0.021991148591041565,-0.1508837193250656,0.0012217304902151227
1788050008545793800,12.133793701171875,-0.05253441259264946,-0.13500121235847473,-0.0012217304902151227
1788050008561863000,12.14986279296875,-0.09040805697441101,-0.09896016865968704,-0.02932153269648552
1788050008577900500,12.165900634765626,-0.11728613078594208,-0.039706241339445114,-0.05619960278272629
1788050008593960400,12.18196044921875,-0.13561208546161652,0.019547687843441963,-0.04764748737215996
1788050008609931000,12.197930908203125,-0.1661553531885147,0.0659734457731247,-0.010995574295520782
1788050008625950200,12.2139501953125,-0.19792033731937408,0.08368854224681854,0.030543262138962746
1788050008642029600,12.230029541015625,-0.20952677726745605,0.08246681094169617,0.06841690838336945
1788050008658075000,12.246074951171876,-0.2321287989616394,0.07024950534105301,0.08857546001672745
1788050008674105300,12.262105224609375,-0.2840523421764374,0.039095375686883926,0.0659734457731247
1788050008690085600,12.278085693359374,-0.323147714138031,0.012828170321881771,0.039095375686883926
1788050008706115800,12.29411572265625,-0.36651915311813354,-0.01771509274840355,0.004886921960860491
1788050008722206200,12.310206298828126,-0.423329621553421,-0.04398229718208313,-0.01466076634824276
1788050008738261800,12.32626171875,-0.48319441080093384,-0.06719517707824707,-0.012828170321881771
1788050008754289000,12.342288818359375,-0.5632177591323853,-0.09224065393209457,0.0012217304902151227
1788050008770274000,12.358274169921875,-0.6188064813613892,-0.14844025671482086,0.03481931984424591
1788050008786333400,12.37433349609375,-0.6817256212234497,-0.2119702398777008,0.08307767659425735
1788050008802404400,12.390404296875,-0.7422012686729431,-0.2730567753314972,0.1111774742603302
1788050008818465500,12.406465576171875,-0.8228355050086975,-0.34025195240974426,0.1160643994808197
1788050008834503200,12.422503173828124,-0.9034696817398071,-0.3787364661693573,0.09712757170200348
1788050008850489300,12.4384892578125,-0.9651671051979065,-0.3732386529445648,0.08002334833145142
1788050008866549000,12.454549072265625,-1.036027431488037,-0.37690386176109314,0.036651913076639175
1788050008882617600,12.47061767578125,-1.1044443845748901,-0.4031710624694824,-0.03787364438176155
1788050008898683000,12.486682861328125,-1.1679743528366089,-0.42271876335144043,-0.09346238523721695
1788050008914771700,12.502771728515626,-1.2608258724212646,-0.42088615894317627,-0.1270599663257599
1788050008930765000,12.51876513671875,-1.348179578781128,-0.4306600093841553,-0.12339477986097336
1788050008946822000,12.53482177734375,-1.4373658895492554,-0.4642575979232788,-0.09957103431224823
1788050008962889000,12.550888916015625,-1.5015068054199219,-0.5002986192703247,-0.0708603709936142
1788050008978963500,12.56696337890625,-1.5619823932647705,-0.5601634383201599,-0.03481931984424591
1788050008995062800,12.583062744140625,-1.6084082126617432,-0.618195652961731,0.013439035043120384
1788050009011017500,12.599017578125,-1.6420058012008667,-0.6774495840072632,0.05619960278272629
1788050009027074600,12.615074462890625,-1.6798794269561768,-0.7415903806686401,0.08918632566928864
1788050009043141600,12.6311416015625,-1.7140878438949585,-0.7470881938934326,0.10323622822761536
1788050009059220700,12.647220703125,-1.7427985668182373,-0.7397578358650208,0.10262536257505417
1788050009075319300,12.6633193359375,-1.7696765661239624,-0.740368664264679,0.09040805697441101
1788050009091280100,12.679280029296875,-1.8038851022720337,-0.7617489695549011,0.07757988572120667
1788050009107346400,12.695346435546876,-1.833817481994629,-0.826500654220581,0.07024950534105301
1788050009123415800,12.711415771484376,-1.8643606901168823,-0.9010262489318848,0.07024950534105301
1788050009139452700,12.72745263671875,-1.9120081663131714,-0.9908234477043152,0.06108652427792549
1788050009155563300,12.743563232421875,-1.9706512689590454,-1.0708467960357666,0.033597588539123535
1788050009171533800,12.759533935546875,-2.0219640731811523,-1.1136072874069214,-0.021380282938480377
1788050009187614000,12.775614013671875,-2.0531179904937744,-1.1093312501907349,-0.09224065393209457
1788050009203683000,12.79168310546875,-2.0732767581939697,-1.0757336616516113,-0.13500121235847473
1788050009219727000,12.80772705078125,-2.072054862976074,-1.0531316995620728,-0.12400564551353455
1788050009235799300,12.82379931640625,-2.0427334308624268,-1.062294602394104,-0.07696902006864548
1788050009251775700,12.839775634765624,-1.9926424026489258,-1.0806206464767456,-0.01160643994808197
1788050009267860200,12.855860107421876,-1.958433985710144,-1.0690141916275024,0.04459316283464432
1788050009283929300,12.871929443359376,-1.9407188892364502,-0.9517280459403992,0.051312681287527084
1788050009299987000,12.887987060546875,-1.9309450387954712,-0.8814785480499268,-0.01710422709584236
1788050009316020500,12.9040205078125,-1.929112434387207,-0.8203920125961304,-0.10445795953273773
1788050009332002800,12.9200029296875,-1.9211711883544922,-0.7837401032447815,-0.1472185254096985
1788050009348094500,12.936094482421876,-1.9046778678894043,-0.6786713004112244,-0.15760323405265808
1788050009364160000,12.952159912109375,-1.872912883758545,-0.5589417219161987,-0.1667662113904953
1788050009380223000,12.968222900390625,-1.8264870643615723,-0.5106833577156067,-0.17959438264369965
1788050009396308700,12.984308837890625,-1.7470746040344238,-0.513737678527832,-0.1716531366109848
1788050009412296400,13.00029638671875,-1.670716404914856,-0.5821545720100403,-0.11239920556545258
1788050009428399400,13.0163994140625,-1.6126842498779297,-0.6707300543785095,-0.006719517521560192
1788050009444468000,13.032468017578125,-1.5748106241226196,-0.7079927921295166,0.09162978827953339
1788050009460542000,13.0485419921875,-1.5320500135421753,-0.6713408827781677,0.1814269721508026
1788050009476639500,13.064639404296875,-1.4929546117782593,-0.5919284224510193,0.21074850857257843
1788050009492588500,13.080588623046875,-1.4599679708480835,-0.5112941861152649,0.21319197118282318
1788050009508611300,13.096611328125,-1.4330898523330688,-0.4349360466003418,0.21624629199504852
1788050009524704300,13.112704345703126,-1.4135421514511108,-0.3854559659957886,0.2021963894367218
1788050009540731400,13.1287314453125,-1.4007140398025513,-0.3634648323059082,0.17043140530586243
1788050009556791600,13.14479150390625,-1.38849675655365,-0.37140607833862305,0.12217304855585098
1788050009572764700,13.1607646484375,-1.376279354095459,-0.37201693654060364,0.07330382615327835
1788050009588791000,13.176791015625,-1.367727279663086,-0.33597588539123535,0.0403171069920063
1788050009604872200,13.1928720703125,-1.3524556159973145,-0.2779437005519867,0.012828170321881771
1788050009620919300,13.208919189453125,-1.3176363706588745,-0.21807889640331268,-0.01160643994808197
1788050009636939500,13.224939453125,-1.2834278345108032,-0.19547687470912933,-0.0354301854968071
1788050009652913400,13.240913330078126,-1.2400563955307007,-0.19364428520202637,-0.04398229718208313
1788050009668947000,13.256947021484375,-1.1911872625350952,-0.2064724564552307,-0.031154127791523933
1788050009685035800,13.273035888671876,-1.1233811378479004,-0.21624629199504852,-0.014049900695681572
1788050009701091800,13.289091796875,-1.047023057937622,-0.19120082259178162,0.00427605677396059
1788050009717126400,13.30512646484375,-0.9560040831565857,-0.14049901068210602,0.025045474991202354
1788050009733121300,13.321121337890625,-0.8570439219474792,-0.0708603709936142,0.019547687843441963
1788050009749130500,13.337130615234376,-0.7782423496246338,-0.004886921960860491,-0.007941247895359993
1788050009765193700,13.35319384765625,-0.6933320760726929,0.025656340643763542,-0.03420845419168472
1788050009781260800,13.3692607421875,-0.6285803318023682,-0.018936822190880775,-0.03481931984424591
1788050009797295400,13.38529541015625,-0.5949827432632446,-0.09834930300712585,-0.03176499158143997
1788050009813294600,13.401294677734375,-0.5772676467895508,-0.1820378452539444,-0.03787364438176155
1788050009829308200,13.41730810546875,-0.5619960427284241,-0.1716531366109848,-0.05375614017248154
1788050009845379800,13.4333798828125,-0.5345070958137512,-0.08368854224681854,-0.05925392732024193
1788050009861456400,13.449456298828125,-0.4893030524253845,0.02932153269648552,-0.04459316283464432
1788050009877511200,13.46551123046875,-0.42577308416366577,0.07452555745840073,-0.005497787147760391
1788050009893479200,13.481479248046876,-0.35552358627319336,0.03176499158143997,0.04703662544488907
1788050009909497300,13.497497314453126,-0.3023782968521118,-0.030543262138962746,0.09529497474431992
1788050009925569300,13.5135693359375,-0.27122417092323303,-0.09773843735456467,0.12828169763088226
1788050009941601800,13.529601806640626,-0.24007004499435425,-0.15393804013729095,0.1160643994808197
1788050009957656600,13.545656494140625,-0.22052235901355743,-0.16859880089759827,0.07635815441608429
1788050009973627000,13.561626953125,-0.20463985204696655,-0.15821409225463867,0.01038470957428217
1788050009989640200,13.57764013671875,-0.20036379992961884,-0.13561208546161652,-0.04642575979232788
1788050010005709800,13.593709716796875,-0.20097467303276062,-0.08552113175392151,-0.08246681094169617
1788050010021753300,13.60975341796875,-0.18570303916931152,-0.05009094998240471,-0.09407325088977814
1788050010037774000,13.625774169921876,-0.16859880089759827,-0.018325956538319588,-0.07147123664617538
1788050010053748200,13.641748291015626,-0.1612684279680252,-0.009162978269159794,-0.04642575979232788
1788050010069775400,13.657775390625,-0.14844025671482086,-0.01160643994808197,-0.02687807008624077
1788050010085842000,13.673842041015625,-0.1313360333442688,0.0012217304902151227,-0.03420845419168472
1788050010101901300,13.6899013671875,-0.1111774742603302,0.02321287989616394,-0.06719517707824707
1788050010117932500,13.7059326171875,-0.09773843735456467,0.033597588539123535,-0.08979719132184982
1788050010133918200,13.721918212890625,-0.09346238523721695,0.036651913076639175,-0.08552113175392151
1788050010150004700,13.738004638671875,-0.08674286305904388,-0.004886921960860491,-0.04948008432984352
1788050010166071600,13.754071533203126,-0.08735372871160507,-0.054367005825042725,0.00733038317412138
1788050010182125000,13.770125,-0.08674286305904388,-0.08185594528913498,0.07696902006864548
1788050010198206500,13.78620654296875,-0.0861319974064827,-0.0861319974064827,0.09162978827953339
1788050010214193700,13.802193603515626,-0.0806342139840126,-0.08491026610136032,0.06536258012056351
1788050010230242800,13.818242919921875,-0.0659734457731247,-0.0861319974064827,0.02932153269648552
1788050010246308600,13.83430859375,-0.0507018156349659,-0.07696902006864548,0.0012217304902151227
1788050010262371600,13.85037158203125,-0.03848451003432274,-0.08185594528913498,-0.022602014243602753
1788050010278408400,13.866408447265625,-0.027488935738801956,-0.08674286305904388,-0.02626720629632473
1788050010294408700,13.88240869140625,-0.01771509274840355,-0.09468411654233932,-0.013439035043120384
1788050010310464500,13.898464599609374,-0.006108652334660292,-0.1014036312699318,0.00427605677396059
1788050010326532900,13.914532958984376,0.0012217304902151227,-0.1014036312699318,0.009773843921720982
1788050010342610700,13.930610595703126,0.0024434609804302454,-0.10018189996480942,-0.010995574295520782
1788050010358665000,13.9466650390625,0.016493361443281174,-0.08002334833145142,-0.021380282938480377
1788050010374626000,13.9626259765625,0.025656340643763542,-0.056810468435287476,-0.016493361443281174
1788050010390633700,13.9786337890625,0.014049900695681572,-0.06536258012056351,-0.007941247895359993
1788050010406700500,13.994700439453124,-0.02932153269648552,-0.0708603709936142,-0.01038470957428217
1788050010422729500,14.0107294921875,-0.04398229718208313,-0.10323622822761536,-0.00733038317412138
1788050010438786300,14.026786376953124,-0.04642575979232788,-0.15454891324043274,0.01710422709584236
1788050010454752300,14.042752197265624,-0.05497787147760391,-0.1771509200334549,0.04092797264456749
1788050010470776300,14.0587763671875,-0.04948008432984352,-0.18509216606616974,0.0659734457731247
1788050010486855000,14.07485498046875,-0.06536258012056351,-0.21135938167572021,0.056810468435287476
1788050010502894600,14.09089453125,-0.060475658625364304,-0.20830504596233368,0.015882495790719986
1788050010518958300,14.106958251953126,-0.05742133408784866,-0.23518311977386475,-0.10018189996480942
1788050010534931500,14.122931396484375,-0.06902777403593063,-0.23884831368923187,-0.21441370248794556
1788050010550964000,14.1389638671875,-0.11423180252313614,-0.23518311977386475,-0.3066543638706207
1788050010567051800,14.1550517578125,-0.20891591906547546,-0.24678955972194672,-0.3072652220726013
1788050010583104000,14.17110400390625,-0.22846360504627228,-0.16004669666290283,-0.22968533635139465
1788050010599176400,14.187176513671876,-0.1514945775270462,-0.09346238523721695,-0.08368854224681854
1788050010615153000,14.20315283203125,-0.042760565876960754,-0.08674286305904388,0.06902777403593063
1788050010631193300,14.219193359375,0.019547687843441963,-0.11850785464048386,0.15943582355976105
1788050010647282700,14.23528271484375,0.04642575979232788,-0.11850785464048386,0.19608774781227112
1788050010663343000,14.251343017578124,0.06169738993048668,-0.09957103431224823,0.15577064454555511
1788050010679377700,14.267377685546874,0.07819075137376785,-0.0806342139840126,0.06536258012056351
1788050010695374600,14.28337451171875,0.08429940044879913,-0.05803219974040985,-0.009773843921720982
1788050010711389000,14.299388916015625,0.08979719132184982,-0.039706241339445114,-0.06352998316287994
1788050010727457500,14.31545751953125,0.1014036312699318,-0.04703662544488907,-0.07696902006864548
1788050010743531000,14.331531005859375,0.09285151958465576,-0.07147123664617538,-0.059864792972803116
1788050010759603700,14.347603759765626,0.06902777403593063,-0.13500121235847473,-0.018936822190880775
1788050010775602700,14.363602783203126,0.039706241339445114,-0.21013765037059784,0.030543262138962746
1788050010791632100,14.379632080078125,0.006719517521560192,-0.24190263450145721,0.07452555745840073
1788050010807707000,14.395706787109376,-0.02871066704392433,-0.2321287989616394,0.09468411654233932
1788050010823790000,14.4117900390625,-0.06963863968849182,-0.18081611394882202,0.054367005825042725
1788050010839848000,14.427847900390624,-0.09834930300712585,-0.11972958594560623,-0.01160643994808197
1788050010855807500,14.443807373046875,-0.11850785464048386,-0.054367005825042725,-0.0708603709936142
1788050010871821000,14.459821044921876,-0.13744467496871948,0.010995574295520782,-0.08674286305904388
1788050010887891700,14.4758916015625,-0.14538592100143433,0.060475658625364304,-0.08491026610136032
1788050010903924000,14.491924072265626,-0.14355333149433136,0.08918632566928864,-0.08491026610136032
1788050010919988500,14.507988525390624,-0.13927727937698364,0.08124507963657379,-0.07208210229873657
1788050010935960300,14.523960205078126,-0.12400564551353455,0.05864306539297104,-0.029932396486401558
1788050010951986400,14.539986328125,-0.1264491081237793,0.022602014243602753,0.02382374368607998
1788050010968059400,14.556059326171875,-0.1215621829032898,-0.005497787147760391,0.09896016865968704
1788050010984105700,14.572105712890625,-0.11423180252313614,-0.015882495790719986,0.16982053220272064
1788050011000129300,14.58812939453125,-0.11056660860776901,-0.022602014243602753,0.2278527319431305
1788050011016115700,14.60411572265625,-0.1007927656173706,-0.015271631069481373,0.28038713335990906
1788050011032155000,14.62015478515625,-0.09346238523721695,-0.019547687843441963,0.2981022298336029
1788050011048231700,14.636231689453124,-0.09285151958465576,-0.03298672288656235,0.294437050819397
1788050011064292600,14.652292724609374,-0.09896016865968704,-0.08491026610136032,0.25045475363731384
1788050011080328400,14.668328369140625,-0.09285151958465576,-0.16920967400074005,0.20341812074184418
1788050011096321800,14.68432177734375,-0.08552113175392151,-0.22846360504627228,0.1814269721508026
1788050011112367400,14.700367431640625,-0.09773843735456467,-0.27122417092323303,0.1765400618314743
1788050011128440300,14.7164404296875,-0.10934487730264664,-0.2779437005519867,0.1661553531885147
1788050011144505300,14.73250537109375,-0.1160643994808197,-0.2541199326515198,0.16249015927314758
1788050011160542200,14.748542236328126,-0.12522737681865692,-0.21441370248794556,0.13255776464939117
1788050011176540000,14.764539794921875,-0.11972958594560623,-0.14844025671482086,0.04459316283464432
1788050011192594700,14.7805947265625,-0.10262536257505417,-0.051312681287527084,-0.06475171446800232
1788050011208669700,14.796669677734375,-0.06230825558304787,0.07452555745840073,-0.11178833991289139
1788050011224736800,14.81273681640625,0.0012217304902151227,0.20525072515010834,-0.08429940044879913
1788050011240780800,14.82878076171875,0.0708603709936142,0.2687807083129883,0.014049900695681572
1788050011256790500,14.84479052734375,0.13561208546161652,0.2541199326515198,0.12828169763088226
1788050011272850400,14.860850341796874,0.18448130786418915,0.20525072515010834,0.20952677726745605
1788050011288924000,14.876923828125,0.2480112910270691,0.14355333149433136,0.2834414839744568
1788050011305003000,14.8930029296875,0.2816088795661926,0.1160643994808197,0.33597588539123535
1788050011321050600,14.909050537109374,0.2828305959701538,0.09224065393209457,0.3439171314239502
1788050011337007900,14.9250078125,0.25473082065582275,0.060475658625364304,0.3237585723400116
1788050011353023000,14.94102294921875,0.20830504596233368,0.060475658625364304,0.31581732630729675
1788050011369093000,14.957093017578124,0.15821409225463867,0.06475171446800232,0.31520646810531616
1788050011385123800,14.973123779296875,0.09285151958465576,0.07269296050071716,0.3182607889175415
1788050011401184000,14.98918408203125,0.04092797264456749,0.08002334833145142,0.313373863697052
1788050011417152300,15.00515234375,0.016493361443281174,0.060475658625364304,0.31031954288482666
1788050011433171200,15.021171142578124,-0.013439035043120384,0.03237585723400116,0.30115658044815063
1788050011449246500,15.03724658203125,-0.02076941914856434,0.02626720629632473,0.29626965522766113
1788050011465288700,15.053288818359375,-0.014049900695681572,0.07513642311096191,0.2993239760398865
1788050011481309700,15.069309814453124,0.0024434609804302454,0.16737708449363708,0.3225368559360504
1788050011497288200,15.0852880859375,0.03298672288656235,0.2370157092809677,0.3695734739303589
1788050011513318100,15.101318115234376,0.06169738993048668,0.28038713335990906,0.44165557622909546
1788050011529404000,15.11740380859375,0.09224065393209457,0.3176499307155609,0.5167919993400574
1788050011545451800,15.13345166015625,0.12767083942890167,0.3439171314239502,0.5992587804794312
1788050011561471200,15.14947119140625,0.16982053220272064,0.3878994286060333,0.6328563690185547
1788050011577451800,15.16545166015625,0.1918116807937622,0.40256020426750183,0.6609562039375305
1788050011593484000,15.181484130859374,0.1722639948129654,0.3579670190811157,0.646906316280365
1788050011609551000,15.197551025390625,0.18570303916931152,0.30543261766433716,0.5314527750015259
1788050011625611500,15.213611572265625,0.23151792585849762,0.25534167885780334,0.4447098970413208
1788050011641670000,15.229669921875,0.27550023794174194,0.19975294172763824,0.44654250144958496
1788050011657658400,15.245658447265624,0.3017674386501312,0.10506882518529892,0.5510004758834839
1788050011673700600,15.26170068359375,0.3445279896259308,0.05253441259264946,0.7483099102973938
1788050011689858600,15.277858642578124,0.36651915311813354,0.02932153269648552,0.9456194043159485
1788050011705917000,15.2939169921875,0.37629300355911255,0.019547687843441963,1.1203268766403198
1788050011721996500,15.30999658203125,0.39706242084503174,0.07208210229873657,1.207680583000183
1788050011737990400,15.325990478515624,0.4239404797554016,0.16249015927314758,1.246165156364441
1788050011754040800,15.342040771484376,0.42638394236564636,0.2742784917354584,1.263269305229187
1788050011770111500,15.358111572265624,0.4300491213798523,0.30970868468284607,1.29381263256073
1788050011786183200,15.37418310546875,0.423329621553421,0.2480112910270691,1.348179578781128
1788050011802227200,15.390227294921875,0.3982841372489929,0.07269296050071716,1.3829989433288574
1788050011818182100,15.40618212890625,0.37140607833862305,-0.18570303916931152,1.3616186380386353
1788050011834195500,15.422195556640625,0.35063666105270386,-0.40683624148368835,1.3494013547897339
1788050011850264000,15.43826416015625,0.3084869384765625,-0.5149593949317932,1.3933836221694946
1788050011866294300,15.454294189453124,0.251676470041275,-0.5442809462547302,1.4679092168807983
1788050011882347500,15.470347412109374,0.2076941877603531,-0.4996877610683441,1.5473216772079468
1788050011898309600,15.4863095703125,0.1514945775270462,-0.3738495409488678,1.632842779159546
1788050011914367500,15.502367431640625,0.08857546001672745,-0.17409659922122955,1.6890424489974976
1788050011930438400,15.5184384765625,0.039706241339445114,-0.014049900695681572,1.6187928915023804
1788050011946472400,15.534472412109375,0.012828170321881771,0.010995574295520782,1.5271631479263306
1788050011962583600,15.55058349609375,0.014049900695681572,0.0354301854968071,1.4850133657455444
1788050011978556200,15.56655615234375,0.0403171069920063,-0.02076941914856434,1.4489723443984985
1788050011994600700,15.5826005859375,0.054367005825042725,-0.1514945775270462,1.4074335098266602
1788050012010673700,15.598673583984375,0.04581489413976669,-0.2730567753314972,1.3903292417526245
1788050012026712800,15.614712890625,0.033597588539123535,-0.21441370248794556,1.3555099964141846
1788050012042778400,15.6307783203125,0.04398229718208313,-0.20402899384498596,1.2400563955307007
1788050012058756600,15.646756591796875,0.06902777403593063,-0.1368338167667389,1.037249207496643
1788050012074796300,15.66279638671875,0.06963863968849182,-0.01710422709584236,0.8772025108337402
1788050012090866700,15.67886669921875,0.06230825558304787,0.06963863968849182,0.8136724829673767
1788050012106922500,15.694922607421875,0.02932153269648552,0.0806342139840126,0.8307767510414124
1788050012122997000,15.7109970703125,0.001832595793530345,0.12217304855585098,0.9254608750343323
1788050012138987300,15.7269873046875,0.00733038317412138,0.12828169763088226,1.0219775438308716
1788050012155035000,15.743034912109374,0.01466076634824276,0.06475171446800232,1.0671815872192383
1788050012171107600,15.759107666015625,0.04092797264456749,-0.039095375686883926,1.0879509449005127
1788050012187178000,15.775177978515625,0.09346238523721695,-0.17470745742321014,1.0482447147369385
1788050012203219000,15.791218994140625,0.12217304855585098,-0.2919935882091522,1.0012081861495972
1788050012219179800,15.8071796875,0.11178833991289139,-0.29077184200286865,0.998153805732727
1788050012235232000,15.82323193359375,0.05375614017248154,-0.23090706765651703,1.018923282623291
1788050012251302700,15.839302734375,-0.01038470957428217,-0.3878994286060333,0.9199630618095398
1788050012267366400,15.855366455078125,-0.018936822190880775,-0.5864306092262268,0.7171558141708374
1788050012283456300,15.871456298828125,-0.042760565876960754,-0.675616979598999,0.4697553813457489
1788050012299457500,15.88745751953125,-0.08246681094169617,-0.6426302194595337,0.2993239760398865
1788050012315467500,15.903467529296876,-0.11362093687057495,-0.6212499737739563,0.2174680233001709
1788050012331538200,15.9195380859375,-0.13255776464939117,-0.5992587804794312,0.16982053220272064
1788050012347606800,15.935606689453126,-0.1362229436635971,-0.5455026626586914,0.18448130786418915
1788050012363705000,15.951705078125,-0.14233160018920898,-0.4495968222618103,0.27977627515792847
1788050012379673900,15.967673828125,-0.14233160018920898,-0.2675589919090271,0.39706242084503174
1788050012395696600,15.983696533203124,-0.13439035415649414,-0.1466076523065567,0.4508185386657715
1788050012411775500,15.999775390625,-0.12400564551353455,-0.16065755486488342,0.5070181488990784
1788050012427812400,16.015812255859377,-0.11178833991289139,-0.21074850857257843,0.608421802520752
1788050012443911000,16.031910888671874,-0.08368854224681854,-0.31642818450927734,0.6261368989944458
1788050012459870000,16.047869873046874,-0.0708603709936142,-0.4331034719944,0.5357288122177124
1788050012475929600,16.0639296875,-0.09651670604944229,-0.46364670991897583,0.4098905920982361
1788050012492007200,16.080007080078126,-0.15821409225463867,-0.42760565876960754,0.1875356286764145
1788050012508035600,16.09603564453125,-0.22968533635139465,-0.3933972120285034,-0.09651670604944229
1788050012524046800,16.112046875,-0.2785545587539673,-0.3396410644054413,-0.3090978264808655
1788050012540014300,16.128014404296874,-0.3280346393585205,-0.2571742534637451,-0.4355469346046448
1788050012556059400,16.144059326171874,-0.3640756905078888,-0.18448130786418915,-0.4343251883983612
1788050012572123600,16.16012353515625,-0.3793473243713379,-0.12095131725072861,-0.3628539443016052
1788050012588169500,16.17616943359375,-0.35613444447517395,-0.051312681287527084,-0.251676470041275
1788050012604249000,16.1922490234375,-0.2993239760398865,-0.02871066704392433,-0.15943582355976105
1788050012620242700,16.20824267578125,-0.21563543379306793,-0.03787364438176155,-0.060475658625364304
1788050012636256000,16.224256103515625,-0.14355333149433136,-0.06902777403593063,0.009773843921720982
1788050012652327000,16.240326904296875,-0.08674286305904388,-0.11301007121801376,0.06169738993048668
1788050012668406800,16.25640673828125,-0.07452555745840073,-0.12828169763088226,0.0708603709936142
1788050012684496600,16.27249658203125,-0.08124507963657379,-0.13377949595451355,0.04703662544488907
1788050012700449300,16.28844921875,-0.08918632566928864,-0.0959058403968811,-0.02076941914856434
1788050012716462800,16.304462890625,-0.08307767659425735,-0.013439035043120384,-0.09407325088977814
1788050012732568600,16.320568603515625,-0.07941248267889023,0.04092797264456749,-0.11728613078594208
1788050012748601000,16.33660107421875,-0.08002334833145142,0.04948008432984352,-0.07696902006864548
1788050012764661200,16.3526611328125,-0.08491026610136032,0.028099801391363144,0.04337143152952194
1788050012780627500,16.36862744140625,-0.09529497474431992,0.02871066704392433,0.16004669666290283
1788050012796644600,16.38464453125,-0.08979719132184982,0.1062905490398407,0.2528982162475586
1788050012812714500,16.400714599609376,-0.07880161702632904,0.1973094791173935,0.2871066629886627
1788050012828761600,16.41676171875,-0.06719517707824707,0.2382374405860901,0.29138273000717163
1788050012844828400,16.432828369140626,-0.021991148591041565,0.22663100063800812,0.25045475363731384
1788050012860805000,16.44880517578125,0.033597588539123535,0.18509216606616974,0.15882496535778046
1788050012876829200,16.4648291015625,0.07269296050071716,0.17959438264369965,0.08735372871160507
1788050012892902100,16.480902099609374,0.07208210229873657,0.22296582162380219,0.08796459436416626
1788050012908948700,16.49694873046875,0.04581489413976669,0.3072652220726013,0.15760323405265808
1788050012925013500,16.513013427734375,0.0024434609804302454,0.39767327904701233,0.3078760802745819
1788050012941017900,16.529017822265626,-0.0708603709936142,0.403781920671463,0.45814892649650574
1788050012957098800,16.5450986328125,-0.10873401165008545,0.3689626157283783,0.43615779280662537
1788050012973175600,16.561175537109374,-0.10445795953273773,0.3799581825733185,0.24068090319633484
1788050012989220000,16.57722021484375,-0.10506882518529892,0.375071257352829,0.07757988572120667
1788050013005296400,16.59329638671875,-0.07819075137376785,0.3237585723400116,-0.05375614017248154
1788050013021276000,16.60927587890625,-0.019547687843441963,0.23518311977386475,-0.12339477986097336
1788050013037361700,16.625361572265625,0.0403171069920063,0.09957103431224823,-0.10323622822761536
1788050013053437200,16.641437255859376,0.07513642311096191,0.006108652334660292,-0.018325956538319588
1788050013069497300,16.657497314453124,0.09529497474431992,-0.004886921960860491,0.11789698898792267
1788050013085585000,16.6735849609375,0.08429940044879913,0.06902777403593063,0.2535090744495392
1788050013101589000,16.689589111328125,0.0757472887635231,0.11423180252313614,0.2938261926174164
1788050013117682700,16.7056826171875,0.08857546001672745,0.14049901068210602,0.21930062770843506
1788050013133752600,16.721752685546875,0.13927727937698364,0.11545353382825851,0.05803219974040985
1788050013149807000,16.73780712890625,0.182648703455925,0.08796459436416626,-0.0910189226269722
1788050013165894100,16.75389404296875,0.2223549485206604,0.05742133408784866,-0.22418753802776337
1788050013181850600,16.7698505859375,0.2577851414680481,0.03237585723400116,-0.33597588539123535
1788050013197950000,16.785949951171876,0.28588494658470154,0.01710422709584236,-0.40622538328170776
1788050013214018300,16.802018310546874,0.2883284091949463,0.00427605677396059,-0.43127086758613586
1788050013230114300,16.8181142578125,0.2730567753314972,0.013439035043120384,-0.4502076804637909
1788050013246215700,16.834215576171875,0.2541199326515198,0.01466076634824276,-0.44776421785354614
1788050013262178300,16.85017822265625,0.2382374405860901,0,-0.40683624148368835
1788050013278202400,16.866202392578124,0.19975294172763824,-0.00427605677396059,-0.31031954288482666
1788050013294274800,16.88227490234375,0.1472185254096985,0,-0.20402899384498596
1788050013310320600,16.898320556640623,0.12095131725072861,0.004886921960860491,-0.15882496535778046
1788050013326428000,16.914427978515626,0.1062905490398407,0.015271631069481373,-0.1612684279680252
1788050013342394600,16.93039453125,0.10995574295520782,0.03298672288656235,-0.18570303916931152
1788050013358466600,16.946466552734375,0.12339477986097336,0.048258353024721146,-0.22663100063800812
1788050013374550000,16.962550048828124,0.12278391420841217,0.04703662544488907,-0.24007004499435425
1788050013390596900,16.978596923828125,0.10506882518529892,0.03237585723400116,-0.2217440903186798
1788050013406620000,16.994619873046876,0.08735372871160507,-0.036651913076639175,-0.18509216606616974
1788050013422599000,17.010598876953125,0.08368854224681854,-0.1014036312699318,-0.1417207419872284
1788050013438635500,17.026635498046875,0.09040805697441101,-0.1765400618314743,-0.06719517707824707
1788050013454727000,17.042726806640626,0.0959058403968811,-0.2535090744495392,0.00733038317412138
1788050013470781400,17.058781494140625,0.10690141469240189,-0.313373863697052,0.0507018156349659
1788050013486809600,17.0748095703125,0.1160643994808197,-0.3677408695220947,0.06658431142568588
1788050013502799000,17.090799072265625,0.10567969083786011,-0.40194934606552124,0.06352998316287994
1788050013518815000,17.10681494140625,0.06230825558304787,-0.3689626157283783,0.05925392732024193
1788050013534886700,17.12288671875,0.009162978269159794,-0.3090978264808655,0.04764748737215996
1788050013550957300,17.138957275390624,-0.06536258012056351,-0.22907446324825287,0.012828170321881771
1788050013567001300,17.15500146484375,-0.11789698898792267,-0.19486601650714874,-0.03420845419168472
1788050013582997500,17.17099755859375,-0.13866640627384186,-0.15760323405265808,-0.04214970022439957
1788050013599008500,17.187008544921873,-0.14416420459747314,-0.0659734457731247,0.005497787147760391
1788050013615078700,17.20307861328125,-0.13011430203914642,-0.019547687843441963,0.04886921867728233
1788050013631154700,17.21915478515625,-0.10445795953273773,-0.11850785464048386,-0.015882495790719986
1788050013647208000,17.2352080078125,-0.030543262138962746,-0.2474004179239273,-0.22602014243602753
1788050013663168500,17.25116845703125,-0.05742133408784866,-0.27061331272125244,-0.4331034719944
1788050013679221500,17.267221435546876,-0.12400564551353455,-0.20952677726745605,-0.5412266254425049
1788050013695290600,17.28329052734375,-0.18081611394882202,-0.13500121235847473,-0.5626068711280823
1788050013711361500,17.299361572265624,-0.2590068578720093,-0.12095131725072861,-0.4141666293144226
1788050013727458000,17.3154580078125,-0.323147714138031,-0.14844025671482086,-0.15332718193531036
1788050013743423000,17.331423095703126,-0.2968805134296417,-0.2125810980796814,0.02321287989616394
1788050013759479800,17.347479736328125,-0.242513507604599,-0.2675589919090271,0.06780604273080826
1788050013775553500,17.363553466796876,-0.1667662113904953,-0.31031954288482666,-0.014049900695681572
1788050013791632100,17.379632080078125,-0.10384709388017654,-0.3579670190811157,-0.13500121235847473
1788050013807732700,17.395732666015626,-0.06780604273080826,-0.38240164518356323,-0.2877175211906433
1788050013823703300,17.411703369140625,-0.05619960278272629,-0.4105014503002167,-0.46792277693748474
1788050013839732200,17.427732177734374,-0.05009094998240471,-0.48197266459465027,-0.6475171446800232
1788050013855798000,17.443798095703126,-0.06902777403593063,-0.5497786998748779,-0.8387179970741272
1788050013871834600,17.459834716796873,-0.1215621829032898,-0.5699372887611389,-1.0018190145492554
1788050013887941400,17.47594140625,-0.20402899384498596,-0.53328537940979,-1.0891727209091187
1788050013903909600,17.49190966796875,-0.31581732630729675,-0.44104471802711487,-1.1203268766403198
1788050013919985200,17.507985107421874,-0.4050036668777466,-0.3677408695220947,-1.1032226085662842
1788050013936053800,17.5240537109375,-0.44104471802711487,-0.3445279896259308,-1.0989465713500977
1788050013952109800,17.54010986328125,-0.44593164324760437,-0.37262779474258423,-1.1191051006317139
1788050013968135400,17.556135498046874,-0.413555771112442,-0.40683624148368835,-1.056796908378601
1788050013984118500,17.572118408203124,-0.3640756905078888,-0.3378084897994995,-0.931569516658783
1788050014000160000,17.588159912109376,-0.3017674386501312,-0.3090978264808655,-0.8900306820869446
1788050014016233700,17.604233642578127,-0.18814650177955627,-0.3090978264808655,-0.941343367099762
1788050014032286500,17.620286376953125,-0.0757472887635231,-0.2919935882091522,-1.036027431488037
1788050014048365600,17.636365478515625,-0.00855211354792118,-0.23579397797584534,-1.102611780166626
1788050014064356900,17.65235693359375,0.001832595793530345,-0.2370157092809677,-1.1539244651794434
1788050014080443000,17.66844287109375,-0.015882495790719986,-0.26083946228027344,-1.1178834438323975
1788050014096509000,17.684509033203124,-0.051312681287527084,-0.2125810980796814,-1.037249207496643
1788050014112564500,17.700564453125,-0.09346238523721695,-0.13866640627384186,-0.9853256344795227
1788050014128650500,17.716650390625,-0.13988813757896423,0.06475171446800232,-0.9169087409973145
1788050014144644000,17.73264404296875,-0.1514945775270462,0.313373863697052,-0.8729264140129089
1788050014160748300,17.748748291015627,-0.11239920556545258,0.39095374941825867,-0.9425650835037231
1788050014176818700,17.764818603515625,-0.033597588539123535,0.2974913716316223,-1.0531316995620728
1788050014192854800,17.780854736328124,0.04398229718208313,0.21991148591041565,-1.0024298429489136
1788050014208909000,17.796908935546874,0.10201449692249298,0.1869247704744339,-0.8680394887924194
1788050014224867000,17.8128671875,0.16065755486488342,0.12522737681865692,-0.8203920125961304
1788050014240884500,17.828884521484376,0.24862214922904968,0.10751228034496307,-0.9199630618095398
1788050014256957000,17.84495703125,0.30543261766433716,0.14966198801994324,-1.0250319242477417
1788050014272994000,17.860994140625,0.33475416898727417,0.192422553896904,-1.1349875926971436
1788050014289053700,17.8770537109375,0.34758231043815613,0.23579397797584534,-1.2516628503799438
1788050014305024500,17.8930244140625,0.32620203495025635,0.2773328125476837,-1.2962560653686523
1788050014321091600,17.909091552734374,0.26939156651496887,0.304210901260376,-1.2553280591964722
1788050014337175300,17.92517529296875,0.1820378452539444,0.38117989897727966,-1.1661417484283447
1788050014353213700,17.941213623046874,0.13316862285137177,0.49785518646240234,-1.076344609260559
1788050014369276000,17.95727587890625,0.15271630883216858,0.5009095072746277,-1.083064079284668
1788050014385249000,17.9732490234375,0.2125810980796814,0.4612032473087311,-1.1636983156204224
1788050014401279200,17.989279296875,0.27488934993743896,0.36713001132011414,-1.2699888944625854
1788050014417370400,18.005370361328126,0.3481931984424591,0.3084869384765625,-1.3115277290344238
1788050014433425400,18.02142529296875,0.484416127204895,0.39156460762023926,-1.2406673431396484
1788050014449529300,18.037529296875,0.5998696684837341,0.4917465150356293,-1.0323622226715088
1788050014465490000,18.053489990234375,0.646295428276062,0.5277875661849976,-0.7483099102973938
1788050014481504500,18.06950439453125,0.6450737118721008,0.44776421785354614,-0.5125159621238708
1788050014497574100,18.08557421875,0.6298020482063293,0.2382374405860901,-0.34147366881370544
1788050014513635300,18.10163525390625,0.6212499737739563,0.039095375686883926,-0.31093040108680725
1788050014529708000,18.1177080078125,0.5998696684837341,-0.09773843735456467,-0.3891211748123169
1788050014545696500,18.133696533203125,0.5528330206871033,-0.15332718193531036,-0.5192354321479797
1788050014561703700,18.14970361328125,0.5094616413116455,-0.07880161702632904,-0.6572909951210022
1788050014577769500,18.16576953125,0.48258355259895325,0.025656340643763542,-0.8112290501594543
1788050014593835500,18.18183544921875,0.45204028487205505,0.12339477986097336,-1.053742527961731
1788050014609881000,18.197881103515623,0.42210787534713745,0.16371189057826996,-1.3084733486175537
1788050014625876500,18.21387646484375,0.37751471996307373,0.19608774781227112,-1.4300355911254883
1788050014641933000,18.22993310546875,0.2791654169559479,0.1966986060142517,-1.4208725690841675
1788050014658003000,18.2460029296875,0.14538592100143433,0.242513507604599,-1.2699888944625854
1788050014674080300,18.262080322265625,0.036651913076639175,0.24984388053417206,-1.037249207496643
1788050014690141200,18.27814111328125,-0.05009094998240471,0.29565876722335815,-0.8503243923187256
1788050014706094000,18.294093994140624,-0.10995574295520782,0.3017674386501312,-0.7055493593215942
1788050014722121200,18.310121337890624,-0.12034045159816742,0.2968805134296417,-0.6713408827781677
1788050014738192400,18.3261923828125,-0.11972958594560623,0.2736676335334778,-0.7214318513870239
1788050014754229000,18.34222900390625,-0.14538592100143433,0.21319197118282318,-0.7855727076530457
1788050014770292700,18.358292724609374,-0.15943582355976105,0.10262536257505417,-0.7586946487426758
1788050014786311700,18.374311767578124,-0.14782938361167908,-0.0507018156349659,-0.6640105247497559
1788050014802381300,18.39038134765625,-0.13072516024112701,-0.22479841113090515,-0.5375614166259766
1788050014818451200,18.406451171875,-0.10751228034496307,-0.3139847218990326,-0.4550946056842804
1788050014834499800,18.422499755859373,-0.07696902006864548,-0.40072759985923767,-0.4648684561252594
1788050014850575600,18.43857568359375,-0.05375614017248154,-0.4758640229701996,-0.5015203952789307
1788050014866557700,18.4545576171875,-0.08307767659425735,-0.5406157374382019,-0.5259549617767334
1788050014882645000,18.47064501953125,-0.1258382350206375,-0.5754350423812866,-0.5167919993400574
1788050014898717000,18.486717041015623,-0.152105450630188,-0.5852088928222656,-0.47342056035995483
1788050014914769000,18.502768798828125,-0.24495697021484375,-0.5833762884140015,-0.3885102868080139
1788050014930848300,18.51884814453125,-0.3585779070854187,-0.5448917746543884,-0.2883284091949463
1788050014946834700,18.534834716796876,-0.4447098970413208,-0.4495968222618103,-0.23029619455337524
1788050014962926000,18.550926025390623,-0.5119050741195679,-0.3243694305419922,-0.23457226157188416
1788050014978995200,18.5669951171875,-0.5345070958137512,-0.16249015927314758,-0.2993239760398865
1788050014995057700,18.5830576171875,-0.5320636034011841,-0.042760565876960754,-0.4050036668777466
1788050015011140900,18.599140869140626,-0.5174028873443604,0.00855211354792118,-0.5094616413116455
1788050015027130600,18.615130615234374,-0.5119050741195679,-0.09468411654233932,-0.6713408827781677
1788050015043228700,18.631228759765627,-0.5357288122177124,-0.24190263450145721,-0.8820894360542297
1788050015059295700,18.647295654296876,-0.5491678714752197,-0.27061331272125244,-1.0348057746887207
1788050015075364000,18.663364013671874,-0.5613851547241211,-0.2376265823841095,-1.1398745775222778
1788050015091449000,18.679448974609375,-0.5613851547241211,-0.1508837193250656,-1.1178834438323975
1788050015107452000,18.695451904296874,-0.5503895878791809,-0.06230825558304787,-0.988990843296051
1788050015123564800,18.711564697265626,-0.5222898125648499,0.03298672288656235,-0.759305477142334
1788050015139636200,18.72763623046875,-0.4990769028663635,0.1111774742603302,-0.5009095072746277
1788050015155710500,18.74371044921875,-0.46792277693748474,0.10018189996480942,-0.2370157092809677
1788050015171810800,18.759810791015624,-0.4386012554168701,0.04642575979232788,-0.05742133408784866
1788050015187773700,18.775773681640626,-0.4239404797554016,-0.1319468915462494,0.0659734457731247
1788050015203829800,18.791829833984377,-0.44226643443107605,-0.3384193480014801,0.07391469180583954
1788050015219901200,18.807901123046875,-0.4642575979232788,-0.5064072608947754,-0.03481931984424591
1788050015235934200,18.823934326171877,-0.4740314185619354,-0.6108652353286743,-0.26939156651496887
1788050015252039700,18.840039794921875,-0.4648684561252594,-0.5809328556060791,-0.5687155723571777
1788050015268005600,18.856005615234373,-0.45142942667007446,-0.45142942667007446,-0.7745771408081055
1788050015284081400,18.872081298828125,-0.4502076804637909,-0.182648703455925,-0.8949176073074341
1788050015300163800,18.888163818359374,-0.43188172578811646,0.1160643994808197,-0.8765916228294373
1788050015316204800,18.904204833984377,-0.3836233615875244,0.3738495409488678,-0.7348709106445312
1788050015332276700,18.92027685546875,-0.33169981837272644,0.49846604466438293,-0.5571091175079346
1788050015348254700,18.936254638671876,-0.294437050819397,0.47708576917648315,-0.35124751925468445
1788050015364344000,18.952343994140627,-0.2773328125476837,0.35735616087913513,-0.16982053220272064
1788050015380435700,18.968435791015626,-0.251676470041275,0.2730567753314972,-0.056810468435287476
1788050015396488000,18.984488037109376,-0.21930062770843506,0.152105450630188,-0.04398229718208313
1788050015412562700,19.000562744140623,-0.18325957655906677,0.05864306539297104,-0.13011430203914642
1788050015428553700,19.0165537109375,-0.17470745742321014,0.0012217304902151227,-0.24129177629947662
1788050015444612900,19.03261279296875,-0.15332718193531036,-0.03726277872920036,-0.35185837745666504
1788050015460682500,19.0486826171875,-0.11728613078594208,-0.04214970022439957,-0.4300491213798523
1788050015476746000,19.06474609375,-0.08918632566928864,-0.009162978269159794,-0.4746423065662384
1788050015492839700,19.080839599609376,-0.07880161702632904,0.015271631069481373,-0.5027421116828918
1788050015508792000,19.0967919921875,-0.05864306539297104,0.03726277872920036,-0.5320636034011841
1788050015524846300,19.112846435546874,-0.02015855349600315,0.09651670604944229,-0.5174028873443604
1788050015540916500,19.12891650390625,0.009773843921720982,0.14355333149433136,-0.46303585171699524
1788050015556992300,19.1449921875,0.059864792972803116,0.15577064454555511,-0.36163222789764404
1788050015573095700,19.161095703125,0.1258382350206375,0.15271630883216858,-0.23273965716362
1788050015589049000,19.177049072265625,0.182648703455925,0.1270599663257599,-0.13255776464939117
1788050015605110000,19.193110107421877,0.2278527319431305,0.04703662544488907,-0.07269296050071716
1788050015621177900,19.209177734375,0.28527405858039856,-0.042760565876960754,-0.039706241339445114
1788050015637208600,19.22520849609375,0.3292563557624817,-0.14477506279945374,-0.03420845419168472
1788050015653320000,19.24131982421875,0.3836233615875244,-0.24495697021484375,-0.03237585723400116
1788050015669282800,19.25728271484375,0.43615779280662537,-0.28038713335990906,-0.014049900695681572
1788050015685354800,19.273354736328123,0.4911356568336487,-0.2816088795661926,0.024434609338641167
1788050015701526300,19.2895263671875,0.5051855444908142,-0.3341432809829712,0.05009094998240471
1788050015717564000,19.30556396484375,0.4966334402561188,-0.4440990388393402,0.039706241339445114
1788050015733610800,19.32161083984375,0.48258355259895325,-0.5326744914054871,0.00427605677396059
1788050015749580000,19.337580078125,0.4605923891067505,-0.5308418869972229,0.009773843921720982
1788050015765639200,19.35363916015625,0.43799036741256714,-0.4251621961593628,0.0861319974064827
1788050015781708300,19.369708251953124,0.45326200127601624,-0.2119702398777008,0.22357667982578278
1788050015797740800,19.38574072265625,0.475253164768219,-0.018936822190880775,0.33108896017074585
1788050015813811700,19.401811767578124,0.5082398653030396,0.12339477986097336,0.3695734739303589
1788050015829785900,19.417785888671876,0.5522221922874451,0.22357667982578278,0.32559117674827576
1788050015845866200,19.4338662109375,0.6206390857696533,0.19975294172763824,0.2816088795661926
1788050015861929500,19.449929443359373,0.6713408827781677,0.10262536257505417,0.29504790902137756
1788050015877981700,19.465981689453123,0.7153232097625732,-0.024434609338641167,0.36651915311813354
1788050015894057700,19.4820576171875,0.7568620443344116,-0.16065755486488342,0.44654250144958496
1788050015910038800,19.498038818359376,0.7770205736160278,-0.2070833146572113,0.48380526900291443
1788050015926129700,19.514129638671875,0.7525860071182251,-0.19547687470912933,0.4550946056842804
1788050015942196200,19.5301962890625,0.7342600226402283,-0.17592918872833252,0.3170390725135803
1788050015958238200,19.54623828125,0.750142514705658,-0.16798794269561768,0.14966198801994324
1788050015974318300,19.562318359375,0.770301103591919,-0.1459967941045761,-0.0757472887635231
1788050015990307300,19.578307373046876,0.7428121566772461,-0.13072516024112701,-0.31581732630729675
1788050016006407200,19.5944072265625,0.6731734871864319,-0.12217304855585098,-0.49296826124191284
1788050016022476000,19.61047607421875,0.5870414972305298,-0.1160643994808197,-0.5229006409645081
1788050016038547700,19.626547607421877,0.46303585171699524,-0.0959058403968811,-0.41661009192466736
1788050016054644000,19.64264404296875,0.35246923565864563,-0.05619960278272629,-0.22663100063800812
1788050016070643700,19.658643798828123,0.2968805134296417,-0.018936822190880775,-0.07696902006864548
1788050016086747000,19.674746826171877,0.2632829248905182,0.030543262138962746,0.006719517521560192
1788050016102814500,19.690814453125,0.23396138846874237,0.06963863968849182,-0.022602014243602753
1788050016118891500,19.7068916015625,0.19792033731937408,0.07819075137376785,-0.11972958594560623
1788050016134992000,19.722991943359375,0.16493362188339233,0.07391469180583954,-0.21807889640331268
