time,seconds_elapsed,z,y,x
1788049996540581400,0.128581298828125,9.93593692779541,-0.751779317855835,0.28730419278144836
1788049996556177700,0.144177734375,9.849745750427246,-0.7230489253997803,0.3208230137825012
1788049996572173300,0.16017333984375,9.782708168029785,-0.7015010714530945,0.2777273952960968
1788049996588760300,0.17676025390625,9.730035781860352,-0.706289529800415,0.21308395266532898
1788049996604235000,0.192235107421875,9.794678688049316,-0.706289529800415,0.2346317619085312
1788049996620579800,0.208579833984375,9.854534149169922,-0.7374141216278076,0.2106897532939911
1788049996636396800,0.224396728515625,9.86889934539795,-0.7326257228851318,0.17956513166427612
1788049996652354000,0.24035400390625,9.821015357971191,-0.706289529800415,0.17238251864910126
1788049996668610000,0.256610107421875,9.787496566772461,-0.7182605266571045,0.19632454216480255
1788049996684391200,0.27239111328125,9.792284965515137,-0.706289529800415,0.16759411990642548
1788049996700753700,0.288753662109375,9.775525093078613,-0.727837324142456,0.1843535304069519
1788049996716540700,0.304540771484375,9.876082420349121,-0.7254431247711182,0.2082955539226532
1788049996732536000,0.3205361328125,9.947908401489258,-0.7326257228851318,0.23702596127986908
1788049996748806000,0.336805908203125,10.038887977600098,-0.7230489253997803,0.16519992053508759
1788049996764535300,0.352535400390625,9.986215591430664,-0.7230489253997803,0.17238251864910126
1788049996780919600,0.36891943359375,9.955090522766113,-0.7158663272857666,0.16759411990642548
1788049996796730000,0.384730224609375,9.919178009033203,-0.7326257228851318,0.16998831927776337
1788049996812732000,0.40073193359375,9.885659217834473,-0.7110779285430908,0.1843535304069519
1788049996829039600,0.41703955078125,9.861717224121094,-0.7134721279144287,0.15562310814857483
1788049996845200100,0.4332001953125,9.835380554199219,-0.6967126727104187,0.09576806426048279
1788049996861098500,0.449098388671875,9.84495735168457,-0.6991068720817566,0.14365209639072418
1788049996876867800,0.464867919921875,9.813833236694336,-0.7158663272857666,0.19393034279346466
1788049996892865000,0.480864990234375,9.785101890563965,-0.6943184733390808,0.1412578970193863
1788049996909147000,0.49714697265625,9.787496566772461,-0.6919242739677429,0.038307227194309235
1788049996924918500,0.51291845703125,9.96945571899414,-0.7589619159698486,0.12928688526153564
1788049996941321200,0.5293212890625,10.022128105163574,-0.7661445140838623,0.181959331035614
1788049996957065200,0.545065185546875,9.897629737854004,-0.730231523513794,0.15562310814857483
1788049996973071000,0.561071044921875,9.78989028930664,-0.7015010714530945,0.1412578970193863
1788049996989364500,0.577364501953125,9.775525093078613,-0.706289529800415,0.15801730751991272
1788049997005149000,0.59314892578125,9.895236015319824,-0.7206547260284424,0.15322890877723694
1788049997021556700,0.609556640625,9.981427192687988,-0.7230489253997803,0.0933738648891449
1788049997037319700,0.625319580078125,9.950302124023438,-0.727837324142456,0.12689268589019775
1788049997053316900,0.64131689453125,9.873687744140625,-0.7565677165985107,0.13168109953403473
1788049997069593600,0.657593505859375,9.761159896850586,-0.7757213711738586,0.15801730751991272
1788049997085381600,0.673381591796875,9.742006301879883,-0.7805097699165344,0.15562310814857483
1788049997101966800,0.689966796875,9.785101890563965,-0.7829039692878723,0.07900865375995636
1788049997117539600,0.70553955078125,9.825803756713867,-0.790086567401886,0.10773907601833344
1788049997133421000,0.721421142578125,9.847352027893066,-0.828393816947937,0.16519992053508759
1788049997149704400,0.737704345703125,9.864110946655273,-0.828393816947937,0.16759411990642548
1788049997165541600,0.753541748046875,9.909601211547852,-0.7661445140838623,0.2059013396501541
1788049997181835500,0.76983544921875,9.904812812805176,-0.7134721279144287,0.1604115068912506
1788049997197612500,0.785612548828125,9.885659217834473,-0.6991068720817566,0.090979665517807
1788049997213619500,0.801619384765625,9.928754806518555,-0.6823474764823914,0.13168109953403473
1788049997229876000,0.8178759765625,9.988609313964844,-0.6536170840263367,0.12449848651885986
1788049997245660200,0.83366015625,9.926360130310059,-0.6129156351089478,0.05746084079146385
1788049997262005200,0.850005126953125,9.818621635437012,-0.6272808313369751,0.09816227108240128
1788049997277759700,0.865759765625,9.768342971801758,-0.6320692300796509,0.16519992053508759
1788049997293760300,0.88176025390625,9.75637149810791,-0.6440402865409851,0.16519992053508759
1788049997310024200,0.898024169921875,9.801861763000488,-0.6799532771110535,0.1628057211637497
1788049997325798400,0.91379833984375,9.880870819091797,-0.6967126727104187,0.17477671802043915
1788049997342165000,0.9301650390625,9.955090522766113,-0.7350199222564697,0.14844051003456116
1788049997358383600,0.946383544921875,9.988609313964844,-0.7254431247711182,0.1364694982767105
1788049997373877200,0.961877197265625,9.895236015319824,-0.7398083209991455,0.1628057211637497
1788049997390155000,0.978155029296875,9.775525093078613,-0.7326257228851318,0.12928688526153564
1788049997405932300,0.993932373046875,9.68933391571045,-0.727837324142456,0.08858546614646912
1788049997422293500,1.01029345703125,9.667786598205566,-0.7445967197418213,0.014365210197865963
1788049997438073900,1.026073974609375,9.768342971801758,-0.7541735172271729,0.023942016065120697
1788049997454090800,1.0420908203125,9.885659217834473,-0.7781155705451965,0.07422025501728058
1788049997470410800,1.05841064453125,9.897629737854004,-0.7829039692878723,0.11013327538967133
1788049997486120400,1.074120361328125,9.859322547912598,-0.7422025203704834,0.016759412363171577
1788049997502471000,1.090470947265625,9.859322547912598,-0.7398083209991455,-0.033518824726343155
1788049997518264800,1.106264892578125,9.983820915222168,-0.751779317855835,0.06224924325942993
1788049997534272800,1.122272705078125,9.981427192687988,-0.7422025203704834,0.08379705995321274
1788049997550562600,1.1385625,9.864110946655273,-0.6991068720817566,0.08858546614646912
1788049997566448600,1.15444873046875,9.797073364257812,-0.6847416758537292,0.11013327538967133
1788049997582886400,1.170886474609375,9.830592155456543,-0.6655880808830261,0.09816227108240128
1788049997598497800,1.186497802734375,9.897629737854004,-0.6584054827690125,0.05506663769483566
1788049997614557000,1.202556884765625,9.909601211547852,-0.6607996821403503,0.026336219161748886
1788049997630735000,1.218735107421875,9.931148529052734,-0.6799532771110535,0.05027823522686958
1788049997646541000,1.234541015625,9.888052940368652,-0.7110779285430908,0.07900865375995636
1788049997663062000,1.25106201171875,9.787496566772461,-0.727837324142456,0.07182604819536209
1788049997678638600,1.266638671875,9.758766174316406,-0.7254431247711182,0.021547814831137657
1788049997694662700,1.28266259765625,9.821015357971191,-0.7709329724311829,0.05985504388809204
1788049997710881500,1.298881591796875,9.983820915222168,-0.7733271718025208,0.0694318488240242
1788049997726648600,1.314648681640625,9.95748519897461,-0.7996633648872375,0.090979665517807
1788049997743031300,1.33103125,9.859322547912598,-0.7637503147125244,0.0933738648891449
1788049997758784300,1.3467841796875,9.828198432922363,-0.7637503147125244,0.13407529890537262
1788049997774752500,1.36275244140625,9.787496566772461,-0.768538773059845,0.07422025501728058
1788049997791078700,1.37907861328125,9.84256362915039,-0.7852981686592102,0.08140286058187485
1788049997806806000,1.394805908203125,9.856928825378418,-0.7709329724311829,0.07182604819536209
1788049997823286500,1.41128662109375,9.864110946655273,-0.7326257228851318,0.05506663769483566
1788049997839060200,1.427060302734375,9.801861763000488,-0.706289529800415,0.06703764945268631
1788049997855011600,1.443011474609375,9.761159896850586,-0.6919242739677429,0.07900865375995636
1788049997871217700,1.4592177734375,9.816226959228516,-0.7230489253997803,0.08858546614646912
1788049997887006500,1.47500634765625,9.9000244140625,-0.730231523513794,0.10295066982507706
1788049997903395800,1.491395751953125,10.019734382629395,-0.7637503147125244,0.09816227108240128
1788049997919648500,1.5076484375,10.065223693847656,-0.7733271718025208,0.08619125932455063
1788049997935203800,1.523203857421875,10.103530883789062,-0.768538773059845,0.12449848651885986
1788049997951492000,1.5394921875,10.007762908935547,-0.7661445140838623,0.1173158809542656
1788049997967239400,1.555239501953125,9.852140426635742,-0.7374141216278076,0.090979665517807
1788049997983651800,1.57165185546875,9.758766174316406,-0.727837324142456,0.10773907601833344
1788049997999550000,1.587550048828125,9.739612579345703,-0.7134721279144287,0.08619125932455063
1788049998015443000,1.60344287109375,9.780313491821289,-0.768538773059845,0.090979665517807
1788049998031774200,1.619774169921875,9.945513725280762,-0.768538773059845,0.10773907601833344
1788049998047800000,1.635800048828125,9.986215591430664,-0.7422025203704834,0.08379705995321274
1788049998064099000,1.65209912109375,9.873687744140625,-0.7206547260284424,0.043095629662275314
1788049998079878100,1.667878173828125,9.78989028930664,-0.7326257228851318,0.009576806798577309
1788049998095958000,1.6839580078125,9.916783332824707,-0.7589619159698486,0.090979665517807
1788049998112113000,1.70011279296875,9.914389610290527,-0.7589619159698486,0.14365209639072418
1788049998127767800,1.715767822265625,9.861717224121094,-0.7254431247711182,0.12210428714752197
1788049998144321300,1.7323212890625,9.806650161743164,-0.6847416758537292,0.09816227108240128
1788049998160080000,1.748079833984375,9.825803756713867,-0.6799532771110535,0.07900865375995636
1788049998176400000,1.76439990234375,9.828198432922363,-0.6823474764823914,0.0694318488240242
1788049998192192800,1.78019287109375,9.871294021606445,-0.6847416758537292,0.040701430290937424
1788049998208002800,1.7960029296875,9.823410034179688,-0.667982280254364,0.035913024097681046
1788049998224546000,1.812546142578125,9.86889934539795,-0.6919242739677429,0.10534487664699554
1788049998240139500,1.828139404296875,9.837775230407715,-0.6967126727104187,0.11971008777618408
1788049998256125000,1.844125,9.787496566772461,-0.6368576288223267,0.009576806798577309
1788049998272679000,1.860678955078125,9.75397777557373,-0.6129156351089478,-0.07182604819536209
1788049998288229600,1.876229736328125,9.765948295593262,-0.5746083855628967,-0.05267243832349777
1788049998304661800,1.892661865234375,9.806650161743164,-0.5410895943641663,-0.043095629662275314
1788049998320391000,1.908390869140625,9.821015357971191,-0.5841852426528931,-0.10295066982507706
1788049998336380000,1.9243798828125,9.911994934082031,-0.6320692300796509,-0.090979665517807
1788049998352700700,1.94070068359375,9.907206535339355,-0.6943184733390808,-0.0454898327589035
1788049998368443600,1.956443603515625,10.019734382629395,-0.7015010714530945,0.011971008032560349
1788049998384745200,1.9727451171875,10.146626472473145,-0.7326257228851318,0.031124621629714966
1788049998400547600,1.988547607421875,10.194510459899902,-0.6823474764823914,0.05746084079146385
1788049998416584400,2.00458447265625,10.050858497619629,-0.5913678407669067,0.10295066982507706
1788049998433079600,2.02107958984375,9.916783332824707,-0.5123591423034668,0.1173158809542656
1788049998448650800,2.036650634765625,9.749189376831055,-0.43095630407333374,0.13407529890537262
1788049998465021400,2.053021484375,9.658209800720215,-0.4165911078453064,0.040701430290937424
1788049998480909800,2.068909912109375,9.718064308166504,-0.40222588181495667,-0.009576806798577309
1788049998496758000,2.084758056640625,9.892841339111328,-0.3926490843296051,-0.028730420395731926
1788049998513009700,2.101009765625,9.9000244140625,-0.42377370595932007,-0.1388636976480484
1788049998528848100,2.11684814453125,9.9000244140625,-0.44771572947502136,-0.16759411990642548
1788049998545191200,2.133191162109375,9.821015357971191,-0.5147533416748047,-0.20350714027881622
1788049998561038000,2.1490380859375,9.830592155456543,-0.5554547905921936,-0.2106897532939911
1788049998577028900,2.16502880859375,9.66299819946289,-0.5410895943641663,-0.2513911724090576
1788049998593197800,2.18119775390625,9.976638793945312,-0.44771572947502136,-0.33997663855552673
1788049998609145600,2.1971455078125,10.177751541137695,-0.49559974670410156,-0.22026655077934265
1788049998625573600,2.21357373046875,10.005369186401367,-0.5003881454467773,-0.10773907601833344
1788049998641409000,2.229408935546875,9.730035781860352,-0.4884171485900879,-0.023942016065120697
1788049998657197000,2.245197021484375,9.660603523254395,-0.47644615173339844,-0.033518824726343155
1788049998673578200,2.261578125,9.715670585632324,-0.4668693244457245,0.11013327538967133
1788049998689193500,2.277193359375,9.830592155456543,-0.42616790533065796,0.3016694188117981
1788049998705628400,2.29362841796875,9.861717224121094,-0.2585737705230713,0.40701428055763245
1788049998721353000,2.30935302734375,9.624691009521484,-0.17717093229293823,0.40940847992897034
1788049998737816600,2.325816650390625,9.373299598693848,-0.15801730751991272,0.3902548849582672
1788049998753691400,2.34169140625,9.404424667358398,-0.21547815203666687,0.2944868206977844
1788049998769432800,2.357432861328125,9.746794700622559,-0.3758896589279175,0.2106897532939911
1788049998786004000,2.37400390625,10.08437728881836,-0.4836287498474121,0.12928688526153564
1788049998801817300,2.3898173828125,10.08198356628418,-0.5841852426528931,0.05267243832349777
1788049998817604400,2.405604248046875,10.08198356628418,-0.5961562395095825,0.023942016065120697
1788049998834020600,2.4220205078125,9.852140426635742,-0.5171475410461426,-0.10055647045373917
1788049998849756400,2.43775634765625,9.670180320739746,-0.395043283700943,-0.22505496442317963
1788049998866079000,2.454078857421875,9.713275909423828,-0.35913026332855225,-0.22505496442317963
1788049998881900000,2.469900146484375,9.959878921508789,-0.33039984107017517,-0.20111294090747833
1788049998898195000,2.48619482421875,10.010157585144043,-0.36152446269989014,-0.11252748221158981
1788049998914147800,2.50214794921875,10.0580415725708,-0.4572925269603729,0.10534487664699554
1788049998929932300,2.517932373046875,10.287884712219238,-0.4836287498474121,0.33039984107017517
1788049998946307000,2.53430712890625,10.445901870727539,-0.40462008118629456,0.3495534360408783
1788049998962092300,2.55009228515625,10.498574256896973,-0.26096799969673157,0.3280056416988373
1788049998978155800,2.56615576171875,10.445901870727539,-0.35913026332855225,0.35913026332855225
1788049998994728000,2.58272802734375,10.36449909210205,-0.4405331015586853,0.4118026793003082
1788049999010237400,2.598237548828125,10.431536674499512,-0.5434837937355042,0.26336219906806946
1788049999026674200,2.614674072265625,10.51054573059082,-0.6248866319656372,0.26575639843940735
1788049999042470100,2.63047021484375,10.44350814819336,-0.646434485912323,0.2992752194404602
1788049999058430200,2.64643017578125,10.27591323852539,-0.5434837937355042,0.2346317619085312
1788049999074841300,2.66284130859375,9.864110946655273,-0.5003881454467773,0.11013327538967133
1788049999090477800,2.678477783203125,9.749189376831055,-0.6248866319656372,0.26096799969673157
1788049999106910500,2.694910400390625,9.988609313964844,-0.7829039692878723,0.26575639843940735
1788049999122654500,2.710654541015625,10.398017883300781,-0.8547300100326538,0.24660277366638184
1788049999138714400,2.72671435546875,10.620678901672363,-0.8403648138046265,0.2585737705230713
1788049999154932200,2.74293212890625,10.460267066955566,-0.667982280254364,0.27054479718208313
1788049999170728400,2.758728515625,9.885659217834473,-0.4836287498474121,0.272938996553421
1788049999187191600,2.775191650390625,9.150638580322266,-0.3998316824436188,0.2585737705230713
1788049999202835000,2.7908349609375,8.530540466308594,-0.16998831927776337,0.272938996553421
1788049999218819800,2.80681982421875,8.26239013671875,0.18914192914962769,0.11252748221158981
1788049999235096600,2.8230966796875,8.006210327148438,0.5434837937355042,0.08619125932455063
1788049999251389000,2.839388916015625,7.766790390014648,0.8164227604866028,0.181959331035614
1788049999267305500,2.855305419921875,7.8960771560668945,0.8188169598579407,0.20350714027881622
1788049999283050800,2.87105078125,8.633491516113281,0.6751648783683777,0.28730419278144836
1788049999299062300,2.887062255859375,9.53849983215332,0.3758896589279175,0.47644615173339844
1788049999315355600,2.903355712890625,10.481815338134766,-0.19393034279346466,0.8020575642585754
1788049999331117800,2.919117919921875,11.310209274291992,-0.790086567401886,0.9193734526634216
1788049999347497700,2.935497802734375,11.791443824768066,-1.0247182846069336,0.7637503147125244
1788049999363237000,2.951237060546875,12.006921768188477,-0.9552865028381348,0.6655880808830261
1788049999379261700,2.96726171875,11.911153793334961,-0.7254431247711182,0.6584054827690125
1788049999395783700,2.98378369140625,11.405977249145508,-0.47644615173339844,0.7422025203704834
1788049999411343400,2.99934326171875,10.453084945678711,-0.17717093229293823,0.608127236366272
1788049999427804200,3.01580419921875,9.682151794433594,0.011971008032560349,0.5315127968788147
1788049999443469000,3.031468994140625,8.939949035644531,0.3232172429561615,0.47884035110473633
1788049999459459000,3.047458984375,8.729259490966797,0.6967126727104187,0.3280056416988373
1788049999475744000,3.063743896484375,8.868123054504395,0.8259995579719543,0.24660277366638184
1788049999491503000,3.079503173828125,9.210494041442871,0.363918662071228,-0.10055647045373917
1788049999508106200,3.096106201171875,10.086771965026855,-0.2059013396501541,-0.23942017555236816
1788049999523740000,3.111739990234375,11.240777015686035,-0.9169792532920837,-0.6033388376235962
1788049999539751700,3.127751708984375,12.389993667602539,-1.53707754611969,-0.667982280254364
1788049999556254700,3.144254638671875,12.9741792678833,-1.802833914756775,-0.45250412821769714
1788049999571971800,3.159971923828125,12.368446350097656,-1.6160861253738403,-0.2849099934101105
1788049999588180000,3.176179931640625,10.886435508728027,-1.3407529592514038,-0.2968810200691223
1788049999603949800,3.19194970703125,9.404424667358398,-1.048660397529602,-0.43095630407333374
1788049999619927800,3.207927734375,8.26478385925293,-0.8068459630012512,-0.6799532771110535
1788049999636105000,3.22410498046875,7.943961143493652,-0.6943184733390808,-0.8619126081466675
1788049999651902500,3.23990234375,8.188169479370117,-0.6799532771110535,-0.9265560507774353
1788049999668367600,3.25636767578125,8.757989883422852,-0.7230489253997803,-1.2114660739898682
1788049999684114700,3.27211474609375,9.308655738830566,-0.9409212470054626,-1.3455413579940796
1788049999700187600,3.288187744140625,9.797073364257812,-1.113303780555725,-1.1803414821624756
1788049999716472300,3.304472412109375,10.02452278137207,-1.2880805730819702,-0.8930372595787048
1788049999732169700,3.320169677734375,10.079588890075684,-1.4963760375976562,-0.4884171485900879
1788049999748531500,3.336531494140625,10.14902114868164,-1.6184803247451782,0.05506663769483566
1788049999764521700,3.352521728515625,9.99100399017334,-1.3742717504501343,-0.023942016065120697
1788049999780288000,3.3682880859375,9.871294021606445,-0.993593692779541,-0.035913024097681046
1788049999796593000,3.384593017578125,9.706093788146973,-0.8906430602073669,0.047884032130241394
1788049999812861200,3.400861083984375,9.548076629638672,-0.6584054827690125,0.08379705995321274
1788049999828785200,3.41678515625,9.222464561462402,-0.4692635238170624,-0.05027823522686958
1788049999844605000,3.43260498046875,8.69095230102539,-0.35673606395721436,-0.45010992884635925
1788049999860583400,3.44858349609375,8.365341186523438,-0.06224924325942993,0.040701430290937424
1788049999876937500,3.4649375,8.681375503540039,-0.07900865375995636,-0.1843535304069519
1788049999892610300,3.4806103515625,9.32541561126709,-0.12449848651885986,-0.5961562395095825
1788049999909160700,3.49716064453125,9.739612579345703,-0.090979665517807,-0.5746083855628967
1788049999925208300,3.513208251953125,9.959878921508789,-0.15322890877723694,-0.6200982332229614
1788049999940833300,3.528833251953125,9.919178009033203,-0.12449848651885986,-0.6224924325942993
1788049999957155800,3.54515576171875,9.787496566772461,-0.08140286058187485,-0.6320692300796509
1788049999973092900,3.5610927734375,9.732429504394531,0.05267243832349777,-0.7398083209991455
1788049999989374000,3.5773740234375,9.75637149810791,0.17238251864910126,-0.6871358752250671
1788050000005285000,3.59328515625,9.81143856048584,0.3471592366695404,-0.5315127968788147
1788050000021136000,3.609135986328125,9.806650161743164,0.2585737705230713,-0.16998831927776337
1788050000037626000,3.625626220703125,9.854534149169922,0.38546648621559143,-0.13407529890537262
1788050000053233400,3.6412333984375,9.804255485534668,0.5937620401382446,-0.13168109953403473
1788050000069826800,3.657826904296875,9.742006301879883,0.5578489899635315,-0.14604631066322327
1788050000085451500,3.673451416015625,9.734824180603027,0.5195417404174805,-0.22266076505184174
1788050000101827000,3.6898271484375,9.840168952941895,0.5315127968788147,-0.28969839215278625
1788050000117752800,3.7057529296875,10.163386344909668,0.40940847992897034,-0.33758243918418884
1788050000133681400,3.721681396484375,10.769119262695312,0.24420857429504395,-0.35913026332855225
1788050000150086100,3.738086181640625,11.197681427001953,0.040701430290937424,-0.4213795065879822
1788050000165747500,3.75374755859375,11.281478881835938,-0.1604115068912506,-0.42856210470199585
1788050000181753600,3.769753662109375,10.821791648864746,-0.13407529890537262,-0.38546648621559143
1788050000198053400,3.786053466796875,10.345345497131348,0.14365209639072418,-0.47644615173339844
1788050000213851100,3.80185107421875,10.213664054870605,0.40462008118629456,-0.35913026332855225
1788050000230251300,3.818251220703125,10.498574256896973,0.07182604819536209,-0.014365210197865963
1788050000246130400,3.83413037109375,10.836156845092773,-0.14844051003456116,0.28730419278144836
1788050000261998600,3.84999853515625,11.259930610656738,-0.4165911078453064,0.2585737705230713
1788050000278328800,3.866328857421875,11.623848915100098,-0.7781155705451965,0.2585737705230713
1788050000294083800,3.882083740234375,11.710040092468262,-0.8858546018600464,0.16759411990642548
1788050000310495000,3.898494873046875,11.14500904083252,-0.646434485912323,0.040701430290937424
1788050000326709500,3.91470947265625,10.153809547424316,-0.40940847992897034,-0.12210428714752197
1788050000342252000,3.930251953125,9.011775016784668,-0.24181437492370605,-0.09576806426048279
1788050000358604800,3.946604736328125,8.370129585266113,-0.1388636976480484,0.10773907601833344
1788050000374315800,3.962315673828125,7.915230751037598,0.004788403399288654,0.42856210470199585
1788050000390882300,3.97888232421875,7.800309181213379,0.043095629662275314,0.7613561153411865
1788050000406660900,3.994660888671875,8.030152320861816,0.011971008032560349,1.1659762859344482
1788050000422534100,4.0105341796875,8.212111473083496,-0.21787235140800476,1.173158884048462
1788050000438951400,4.026951416015625,8.554482460021973,-0.730231523513794,0.9983820915222168
1788050000454839300,4.04283935546875,8.87291145324707,-1.482010841369629,1.2114660739898682
1788050000471055400,4.059055419921875,9.485827445983887,-2.0039467811584473,0.9864110946655273
1788050000486751500,4.07475146484375,10.469843864440918,-2.2912509441375732,0.6943184733390808
1788050000502730500,4.09073046875,11.353304862976074,-2.0254945755004883,0.40701428055763245
1788050000518982700,4.106982666015625,11.346121788024902,-1.5059528350830078,0.2944868206977844
1788050000534802700,4.122802734375,10.718840599060059,-1.2545616626739502,0.33279404044151306
1788050000551169000,4.1391689453125,9.691728591918945,-0.7589619159698486,0.43095630407333374
1788050000566945500,4.154945556640625,8.868123054504395,-0.49320554733276367,0.3256114423274994
1788050000582935800,4.170935791015625,8.29590892791748,-0.3734954595565796,-0.1412578970193863
1788050000599242500,4.187242431640625,8.216899871826172,-0.24181437492370605,-0.31842881441116333
1788050000615016200,4.20301611328125,8.611943244934082,-0.10055647045373917,-0.3758896589279175
1788050000631555800,4.219555908203125,9.320627212524414,-0.026336219161748886,0.009576806798577309
1788050000647193000,4.235193115234375,9.75637149810791,-0.033518824726343155,0.19632454216480255
1788050000663165200,4.251165283203125,9.945513725280762,-0.002394201699644327,0.20111294090747833
1788050000679562800,4.267562744140625,9.837775230407715,-0.035913024097681046,0.26096799969673157
1788050000695399200,4.283399169921875,9.945513725280762,-0.009576806798577309,0.28969839215278625
1788050000711590000,4.29958984375,10.218452453613281,0.08140286058187485,0.3471592366695404
1788050000727510500,4.315510498046875,10.139444351196289,-0.05267243832349777,0.35673606395721436
1788050000743371500,4.33137158203125,10.022128105163574,0.19153612852096558,0.18914192914962769
1788050000759657000,4.347656982421875,10.02691650390625,0.40462008118629456,0.22026655077934265
1788050000775444500,4.363444580078125,9.943120002746582,0.5027823448181152,0.42616790533065796
1788050000791900200,4.379900146484375,9.794678688049316,0.6320692300796509,0.31124621629714966
1788050000807647200,4.395647216796875,9.718064308166504,0.646434485912323,-0.17717093229293823
1788050000823668500,4.41166845703125,10.316615104675293,0.6823474764823914,-0.40462008118629456
1788050000840141300,4.428141357421875,10.96544361114502,0.7158663272857666,-0.13168109953403473
1788050000855748400,4.443748291015625,11.133037567138672,0.7948749661445618,0.2849099934101105
1788050000872358700,4.460358642578125,10.922348022460938,0.5793967843055725,0.2322375625371933
1788050000888438500,4.4764384765625,10.699687004089355,0.3734954595565796,0.2106897532939911
1788050000904020700,4.492020751953125,10.400412559509277,0.19871874153614044,0.3016694188117981
1788050000920311600,4.5083115234375,10.292673110961914,0.3232172429561615,0.026336219161748886
1788050000936139000,4.524138916015625,10.26394271850586,0.9600749015808105,-0.004788403399288654
1788050000952602400,4.540602294921875,10.050858497619629,1.113303780555725,0.4357447028160095
1788050000968403700,4.55640380859375,10.079588890075684,0.6823474764823914,0.2825157940387726
1788050000984642000,4.57264208984375,10.158597946166992,0.5363011956214905,-0.2059013396501541
1788050001000583400,4.58858349609375,10.682928085327148,0.4118026793003082,-0.5195417404174805
1788050001016386300,4.60438623046875,11.611878395080566,0.090979665517807,-0.5530605912208557
1788050001032844800,4.6208447265625,12.114660263061523,-0.363918662071228,-0.3256114423274994
1788050001048640800,4.636640869140625,12.033257484436035,-0.4692635238170624,-0.5363011956214905
1788050001064648000,4.65264794921875,11.568782806396484,-0.44532153010368347,-0.7493851184844971
1788050001080926700,4.6689267578125,10.757147789001465,-0.30885201692581177,-0.6584054827690125
1788050001096677000,4.684677001953125,9.971850395202637,-0.021547814831137657,-0.20111294090747833
1788050001113173500,4.701173583984375,9.093177795410156,0.047884032130241394,-0.363918662071228
1788050001128860700,4.716860595703125,8.348581314086914,0.22266076505184174,-0.7469909191131592
1788050001145384200,4.73338427734375,8.192957878112793,0.4429273009300232,-1.1324573755264282
1788050001161175600,4.749175537109375,8.130708694458008,0.45010992884635925,-0.7805097699165344
1788050001176956200,4.7649560546875,7.8529815673828125,0.28969839215278625,-0.44532153010368347
1788050001193372200,4.7813720703125,7.843404769897461,-0.17956513166427612,-0.0933738648891449
1788050001209144000,4.79714404296875,8.10437297821045,-0.395043283700943,0.05506663769483566
1788050001225156000,4.813156005859375,9.01895809173584,-0.3734954595565796,0.016759412363171577
1788050001241590800,4.8295908203125,9.90241813659668,-0.5841852426528931,0.26096799969673157
1788050001257251800,4.845251953125,10.369287490844727,-0.33758243918418884,0.42616790533065796
1788050001273634300,4.86163427734375,9.821015357971191,-0.22266076505184174,0.8020575642585754
1788050001289411000,4.8774111328125,8.868123054504395,-0.33039984107017517,1.1563993692398071
1788050001305425000,4.8934248046875,9.016563415527344,-0.1388636976480484,0.6943184733390808
1788050001321689000,4.909689208984375,9.155426979064941,-0.10534487664699554,0.9002198576927185
1788050001337654800,4.92565478515625,8.96149730682373,0.15801730751991272,0.7757213711738586
1788050001354050300,4.94205029296875,9.074024200439453,0.2346317619085312,0.7254431247711182
1788050001369832700,4.957832763671875,9.241618156433105,0.2992752194404602,0.667982280254364
1788050001385689000,4.973689208984375,9.660603523254395,0.31364041566848755,0.4572925269603729
1788050001402197800,4.99019775390625,9.959878921508789,0.2849099934101105,0.2777273952960968
1788050001417669400,5.00566943359375,10.180145263671875,0.24660277366638184,0.20111294090747833
1788050001434076700,5.02207666015625,10.886435508728027,0.31124621629714966,0.16998831927776337
1788050001450335200,5.038335205078125,11.688492774963379,0.35673606395721436,0.3208230137825012
1788050001465845500,5.053845458984375,12.267889976501465,0.3902548849582672,0.4572925269603729
1788050001482109200,5.070109130859375,12.114660263061523,0.3734954595565796,0.42856210470199585
1788050001497954000,5.0859541015625,11.805809020996094,0.6129156351089478,0.29209262132644653
1788050001514313200,5.102313232421875,12.36605167388916,0.9888052940368652,0.37828385829925537
1788050001530077700,5.11807763671875,12.643778800964355,1.213860273361206,0.6967126727104187
1788050001546142200,5.13414208984375,12.255918502807617,1.216254472732544,0.4692635238170624
1788050001562367500,5.150367431640625,11.429919242858887,1.091755986213684,-0.12210428714752197
1788050001578201000,5.166201171875,11.422736167907715,1.1851298809051514,-0.4405331015586853
1788050001594454800,5.182454833984375,10.910377502441406,1.7956513166427612,0.0071826050989329815
1788050001610219000,5.198218994140625,10.800244331359863,2.2433669567108154,-0.395043283700943
1788050001626237000,5.21423681640625,10.690110206604004,2.315192937850952,-0.3926490843296051
1788050001642540300,5.230540283203125,10.668562889099121,2.477998733520508,-0.2968810200691223
1788050001658281200,5.24628125,10.591948509216309,2.873042106628418,-0.26336219906806946
1788050001674710500,5.26271044921875,10.017339706420898,3.4093432426452637,-0.09816227108240128
1788050001690464800,5.27846484375,9.864110946655273,3.450044631958008,0.05027823522686958
1788050001706947600,5.294947509765625,9.72285270690918,3.7900211811065674,0.06224924325942993
1788050001722782000,5.310781982421875,10.553641319274902,4.120420932769775,-0.3687070608139038
1788050001738521300,5.326521240234375,9.9000244140625,3.529053211212158,0.38546648621559143
1788050001754923000,5.342923095703125,9.986215591430664,3.222595453262329,0.021547814831137657
1788050001770663000,5.358662841796875,10.192116737365723,3.3470940589904785,0.22505496442317963
1788050001786718700,5.37471875,9.32302188873291,3.2752678394317627,0.5410895943641663
1788050001803060000,5.39106005859375,8.662221908569336,3.44765043258667,-0.014365210197865963
1788050001818764800,5.406764892578125,8.276755332946777,3.9839515686035156,-0.17238251864910126
1788050001835131600,5.423131591796875,7.7428483963012695,4.32871675491333,-0.22505496442317963
1788050001850899500,5.4388994140625,7.3454108238220215,4.592078685760498,-0.3878606855869293
1788050001866909400,5.454909423828125,6.399701118469238,4.888959884643555,-0.1412578970193863
1788050001883311900,5.471311767578125,5.9735331535339355,5.439626216888428,-0.13407529890537262
1788050001899075000,5.487074951171875,6.481103897094727,5.961562156677246,-0.5961562395095825
1788050001915409200,5.5034091796875,7.395689010620117,5.3127336502075195,0.4884171485900879
1788050001931199500,5.519199462890625,8.288725852966309,5.233725070953369,0.5937620401382446
1788050001947124000,5.5351240234375,8.669404029846191,5.315127849578857,0.2849099934101105
1788050001963718400,5.551718505859375,8.501810073852539,5.233725070953369,0.2059013396501541
1788050001979174400,5.56717431640625,7.726089000701904,5.252878665924072,0.21308395266532898
1788050001995605200,5.583605224609375,6.44279670715332,5.288791656494141,0.090979665517807
1788050002011481600,5.599481689453125,5.738901615142822,5.480327606201172,-0.2777273952960968
1788050002027366400,5.615366455078125,5.406107425689697,5.57370138168335,-0.31603461503982544
1788050002043647200,5.631647216796875,5.537788391113281,5.896918773651123,-0.17238251864910126
1788050002059460000,5.647460205078125,6.13633918762207,6.098031520843506,0.06703764945268631
1788050002075960600,5.663960693359375,5.985504150390625,6.404489517211914,0.31364041566848755
1788050002091574800,5.67957470703125,5.284003257751465,6.665457725524902,0.3519476354122162
1788050002107599600,5.695599609375,4.659116744995117,6.892906665802002,0.12928688526153564
1788050002123862500,5.711862548828125,4.390965938568115,6.871358871459961,0.09816227108240128
1788050002140094000,5.728093994140625,4.481945514678955,7.24485445022583,-0.6129156351089478
1788050002156062500,5.7440625,4.637568473815918,7.275979042053223,-0.7733271718025208
1788050002171769300,5.759769287109375,5.374982833862305,7.091625213623047,-0.021547814831137657
1788050002187897900,5.77589794921875,6.1770405769348145,7.2352776527404785,0.40940847992897034
1788050002204096000,5.792095947265625,6.701370716094971,7.390900611877441,0.5841852426528931
1788050002220335000,5.808335205078125,6.485892295837402,7.374141216278076,0.5482721924781799
1788050002236284700,5.82428466796875,5.849034786224365,7.759607791900635,0.33758243918418884
1788050002252221200,5.84022119140625,5.544970989227295,8.020575523376465,0.07182604819536209
1788050002268069400,5.8560693359375,6.004657745361328,8.018181800842285,-0.35434186458587646
1788050002284507100,5.872507080078125,6.698976516723633,7.91283655166626,-0.4381389021873474
1788050002300010800,5.8880107421875,7.376535415649414,7.910442352294922,-0.4572925269603729
1788050002316448300,5.9044482421875,7.422025203704834,8.10437297821045,-0.5746083855628967
1788050002332105000,5.92010498046875,6.629544734954834,8.473079681396484,-0.47644615173339844
1788050002348269800,5.936269775390625,5.834669589996338,8.49941635131836,-0.4118026793003082
1788050002364676000,5.952676025390625,5.389348030090332,8.619126319885254,-0.7182605266571045
1788050002380386000,5.968385986328125,5.781997203826904,8.71728801727295,-1.0678139925003052
1788050002396678700,5.9846787109375,6.7061591148376465,8.501810073852539,-1.2521674633026123
1788050002412484600,6.000484619140625,7.82185697555542,8.034940719604492,-1.2066776752471924
1788050002428620500,6.01662060546875,8.815450668334961,7.60637903213501,-1.2425906658172607
1788050002444626700,6.032626708984375,9.14585018157959,7.496245384216309,-0.9074024558067322
1788050002460411600,6.04841162109375,8.875306129455566,7.0557122230529785,-1.3407529592514038
1788050002477017000,6.06501708984375,7.977479934692383,6.847416877746582,-2.008735179901123
1788050002492589800,6.08058984375,6.75883150100708,6.631938934326172,-2.4636335372924805
1788050002508593400,6.096593505859375,6.162675380706787,6.485892295837402,-2.8562827110290527
1788050002524829700,6.11282958984375,6.50025749206543,6.327875137329102,-3.043030261993408
1788050002540601300,6.128601318359375,7.225700855255127,6.189011573791504,-2.6168625354766846
1788050002556976400,6.144976318359375,7.73087739944458,5.980715751647949,-2.0685901641845703
1788050002572880000,6.1608798828125,7.9846625328063965,5.901707172393799,-1.7381904125213623
1788050002588769000,6.17676904296875,7.893682956695557,5.892130374908447,-0.9457096457481384
1788050002605235000,6.19323486328125,7.570465564727783,6.066906929016113,0
1788050002620864300,6.2088642578125,6.959944248199463,6.090848922729492,0.40940847992897034
1788050002637229000,6.22522900390625,6.229712963104248,6.069301128387451,0.3519476354122162
1788050002652884500,6.240884521484375,5.681440830230713,5.9735331535339355,0.1604115068912506
1788050002668916200,6.256916259765625,5.583278179168701,5.995080947875977,0.009576806798577309
1788050002685235200,6.273235107421875,5.846640586853027,5.913678169250488,0.016759412363171577
1788050002700971300,6.28897119140625,6.222530364990234,5.9519853591918945,0.10295066982507706
1788050002717373700,6.305373779296875,6.5696892738342285,6.01423454284668,0.2059013396501541
1788050002733640200,6.32164013671875,6.607996463775635,5.990292549133301,0.28969839215278625
1788050002749162200,6.337162353515625,6.172252178192139,6.050147533416748,0.15083470940589905
1788050002765639700,6.3536396484375,5.8442463874816895,6.124367713928223,0.08619125932455063
1788050002781628000,6.3696279296875,5.717353820800781,6.179434776306152,0.10534487664699554
1788050002797633000,6.385633056640625,5.609614372253418,6.179434776306152,0.033518824726343155
1788050002813366000,6.401365966796875,6.165069580078125,6.203376770019531,-0.0933738648891449
1788050002829351000,6.417350830078125,7.465120792388916,6.030993938446045,0.08140286058187485
1788050002845645300,6.433645263671875,8.42040729522705,6.00226354598999,0.10295066982507706
1788050002861547300,6.44954736328125,8.700529098510742,6.270414352416992,-0.016759412363171577
1788050002877811000,6.46581103515625,8.17380428314209,6.586448669433594,0.12689268589019775
1788050002893583400,6.481583251953125,7.793126583099365,6.840234279632568,0.1412578970193863
1788050002909962200,6.497962158203125,7.86734676361084,6.962338447570801,0.038307227194309235
1788050002925880300,6.51388037109375,8.233659744262695,6.92881965637207,-0.004788403399288654
1788050002941630200,6.529630126953125,8.544905662536621,6.868964672088623,0.033518824726343155
1788050002957937200,6.545937255859375,8.844181060791016,6.67982292175293,0.1604115068912506
1788050002973712000,6.5617119140625,9.121908187866211,6.658275127410889,0.19871874153614044
1788050002989722600,6.57772265625,9.050082206726074,6.885724067687988,0.4213795065879822
1788050003005987600,6.593987548828125,9.32302188873291,7.134721279144287,0.9528923034667969
1788050003021800200,6.60980029296875,9.378087997436523,6.490680694580078,1.3503297567367554
1788050003038397000,6.62639697265625,9.255983352661133,6.01423454284668,0.9385270476341248
1788050003054024200,6.642024169921875,9.157821655273438,5.480327606201172,0.5171475410461426
1788050003069939200,6.657939208984375,9.29189682006836,4.532223701477051,-0.28730419278144836
1788050003086181600,6.674181640625,8.978256225585938,4.022258758544922,-0.9528923034667969
1788050003102014000,6.690013916015625,8.578424453735352,3.794809579849243,-1.139639973640442
1788050003118383000,6.706383056640625,8.429984092712402,3.5458126068115234,-0.9193734526634216
1788050003134090800,6.7220908203125,8.71489429473877,3.40216064453125,-0.6727706789970398
1788050003150255600,6.738255615234375,9.425971984863281,3.2345664501190186,-0.38067805767059326
1788050003166709000,6.754708984375,9.490615844726562,3.1292216777801514,0.08619125932455063
1788050003182151000,6.77015087890625,8.69334602355957,2.829946517944336,0.2561795711517334
1788050003198683100,6.78668310546875,7.539340972900391,2.918531894683838,0.002394201699644327
1788050003214345200,6.80234521484375,6.931213855743408,3.045424461364746,0.35434186458587646
1788050003230392000,6.81839208984375,7.797914981842041,3.2561142444610596,1.6184803247451782
1788050003246657000,6.834656982421875,8.60236644744873,3.177105665206909,3.406949043273926
1788050003262725400,6.850725341796875,8.504204750061035,2.33913516998291,2.674323320388794
1788050003278845200,6.86684521484375,8.65743350982666,1.5155296325683594,0.6224924325942993
1788050003295056600,6.883056640625,9.327810287475586,1.1563993692398071,-0.47165772318840027
1788050003310620200,6.8986201171875,9.840168952941895,0.8307880163192749,-1.091755986213684
1788050003326976500,6.9149765625,9.84495735168457,0.6105214357376099,-1.4484920501708984
1788050003342690300,6.930690185546875,9.727641105651855,0.7757213711738586,-1.556231141090393
1788050003359160300,6.947160400390625,9.974244117736816,1.1468225717544556,-1.3718775510787964
1788050003374849500,6.962849609375,10.170568466186523,1.3048399686813354,-1.2042834758758545
1788050003391112200,6.9791123046875,10.51054573059082,1.256955862045288,-1.1013327836990356
1788050003407104800,6.995104736328125,10.000580787658691,1.2713210582733154,-1.2545616626739502
1788050003423164000,7.011163818359375,9.181763648986816,1.3670891523361206,-1.194706678390503
1788050003439298000,7.027298095703125,8.501810073852539,1.335964560508728,-1.173158884048462
1788050003455110000,7.04310986328125,8.793902397155762,1.1779472827911377,-1.0079588890075684
1788050003471076000,7.059076171875,9.404424667358398,0.8858546018600464,-0.8020575642585754
1788050003487368700,7.07536865234375,9.885659217834473,0.4668693244457245,-0.6584054827690125
1788050003503166700,7.091166748046875,10.460267066955566,0.35434186458587646,-0.6847416758537292
1788050003519518700,7.107518798828125,11.010933876037598,0.5147533416748047,-0.7015010714530945
1788050003535257900,7.1232578125,11.238382339477539,0.5650315880775452,-0.3974374830722809
1788050003551710700,7.139710693359375,11.887211799621582,0.6512228846549988,-0.0694318488240242
1788050003567580000,7.155579833984375,12.392388343811035,0.667982280254364,-0.15801730751991272
1788050003583346400,7.171346435546875,12.373234748840332,0.5267243981361389,-0.5363011956214905
1788050003599657700,7.18765771484375,11.959037780761719,0.33039984107017517,-0.8379706144332886
1788050003615451100,7.203451171875,11.858481407165527,0.24899697303771973,-0.7350199222564697
1788050003631447000,7.219447021484375,11.695674896240234,0.31124621629714966,-0.49799394607543945
1788050003647765200,7.23576513671875,10.860098838806152,0.7948749661445618,-0.38307225704193115
1788050003663531300,7.25153125,9.658209800720215,1.6041151285171509,-0.2777273952960968
1788050003679952400,7.267952392578125,9.172186851501465,1.5610195398330688,-0.19632454216480255
1788050003695776800,7.28377685546875,10.038887977600098,1.1037269830703735,-0.5554547905921936
1788050003711764500,7.299764404296875,11.798625946044922,0.7374141216278076,-0.6631938815116882
1788050003728075300,7.3160751953125,13.19205093383789,0.24420857429504395,-0.2992752194404602
1788050003743848400,7.331848388671875,13.572729110717773,-0.20111294090747833,-0.23942017555236816
1788050003760258000,7.348258056640625,12.878411293029785,-0.35434186458587646,-0.43335050344467163
1788050003776035300,7.364035400390625,11.736376762390137,-0.36152446269989014,-0.6823474764823914
1788050003792084500,7.38008447265625,10.690110206604004,-0.19153612852096558,-0.7972691655158997
1788050003808637400,7.396637451171875,9.708487510681152,0.16519992053508759,-0.7398083209991455
1788050003824151300,7.4121513671875,8.822632789611816,0.42856210470199585,-0.5291185975074768
1788050003840544000,7.4285439453125,8.24084186553955,0.4644751250743866,-0.5123591423034668
1788050003856782300,7.4447822265625,8.061277389526367,0.4644751250743866,-0.6751648783683777
1788050003872358000,7.46035791015625,8.33182144165039,0.3926490843296051,-0.5674257874488831
1788050003888573200,7.4765732421875,8.702922821044922,0.3495534360408783,-0.22505496442317963
1788050003904567800,7.49256787109375,8.954314231872559,0.22266076505184174,-0.20350714027881622
1788050003920784400,7.508784423828125,9.181763648986816,0.1412578970193863,-0.26336219906806946
1788050003936574200,7.52457421875,9.519346237182617,0.0933738648891449,-0.3280056416988373
1788050003952665000,7.5406650390625,9.780313491821289,0.23942017555236816,-0.33997663855552673
1788050003968893000,7.556892822265625,9.981427192687988,0.507570743560791,-0.16998831927776337
1788050003984786700,7.57278662109375,9.892841339111328,0.7565677165985107,0.0694318488240242
1788050004001076000,7.589075927734375,9.461885452270508,0.9433154463768005,0.1364694982767105
1788050004016857300,7.604857421875,9.368511199951172,1.3527239561080933,-0.05027823522686958
1788050004032893700,7.620893798828125,9.488221168518066,1.5107412338256836,-0.22266076505184174
1788050004049172000,7.637171875,9.615114212036133,1.53707754611969,-0.3926490843296051
1788050004065152500,7.653152587890625,9.603142738342285,1.7046716213226318,-0.5123591423034668
1788050004081359000,7.669359130859375,9.265560150146484,1.9369091987609863,-0.2944868206977844
1788050004097145300,7.685145263671875,9.071630477905273,2.3271639347076416,-0.11013327538967133
1788050004113592000,7.701592041015625,8.920795440673828,2.6862943172454834,0.08379705995321274
1788050004129435000,7.717434814453125,8.942343711853027,2.851494312286377,0.15322890877723694
1788050004145230600,7.733230712890625,9.253589630126953,2.8826189041137695,-0.06224924325942993
1788050004161719800,7.7497197265625,9.583989143371582,2.9017724990844727,-0.33758243918418884
1788050004177883100,7.765883056640625,9.749189376831055,2.894589900970459,-0.26815059781074524
1788050004193453300,7.781453369140625,10.067618370056152,2.9903578758239746,0.06464344263076782
1788050004209913300,7.797913330078125,10.867281913757324,3.1220390796661377,0.38546648621559143
1788050004225752000,7.813751953125,11.738770484924316,3.220201253890991,0.4692635238170624
1788050004241918500,7.82991845703125,12.289437294006348,3.287238836288452,0.1867477297782898
1788050004257715500,7.845715576171875,12.227188110351562,3.5003228187561035,-0.12449848651885986
1788050004273740500,7.861740478515625,12.445060729980469,3.7397429943084717,-0.31124621629714966
1788050004290076700,7.87807666015625,12.538434028625488,3.77565598487854,-0.4644751250743866
1788050004305718000,7.893718017578125,12.239158630371094,3.912125587463379,-0.5386953949928284
1788050004322199800,7.91019970703125,11.741165161132812,4.486733913421631,-0.5913678407669067
1788050004337953500,7.92595361328125,11.27190113067627,4.910507678985596,-0.5315127968788147
1788050004353937400,7.9419375,10.78587818145752,5.157110691070557,-0.47644615173339844
1788050004370470700,7.958470703125,9.797073364257812,5.643133640289307,-0.3280056416988373
1788050004386201300,7.974201416015625,9.138668060302734,6.038176536560059,0.08379705995321274
1788050004402479000,7.99047900390625,8.724471092224121,5.913678169250488,0.0454898327589035
1788050004418288000,8.0062880859375,8.56645393371582,5.74129581451416,0.47165772318840027
1788050004434309400,8.022309326171875,8.482656478881836,5.51624059677124,1.0414776802062988
1788050004450604800,8.038604736328125,8.513781547546387,5.260061264038086,1.6950948238372803
1788050004466317000,8.054317138671875,7.745242595672607,5.20978307723999,2.2170307636260986
1788050004482726400,8.070726318359375,6.512228488922119,5.16429328918457,2.1763293743133545
1788050004498457300,8.086457275390625,4.965574264526367,5.054159641265869,2.4133553504943848
1788050004514724000,8.10272412109375,3.56017804145813,5.683835029602051,2.233790159225464
1788050004530952400,8.118952392578125,3.0813376903533936,6.48828649520874,1.525106430053711
1788050004546685200,8.134685302734376,2.7269957065582275,6.9695210456848145,1.1899182796478271
1788050004563083300,8.151083251953125,3.0550012588500977,6.775590896606445,2.123656988143921
1788050004578809900,8.166809814453124,3.799597978591919,6.825869083404541,2.585737943649292
1788050004594875400,8.18287548828125,4.778826713562012,6.7277069091796875,2.3750481605529785
1788050004611030000,8.199030029296875,5.197812080383301,6.555324077606201,1.886630892753601
1788050004627220700,8.215220703125,4.967968463897705,6.5481414794921875,1.5418659448623657
1788050004643285500,8.231285400390625,4.572925090789795,6.555324077606201,1.1013327836990356
1788050004658960000,8.2469599609375,4.683058738708496,6.624756336212158,0.8690952062606812
1788050004675488500,8.263488525390626,4.932055473327637,6.665457725524902,0.8643068075180054
1788050004691370000,8.279369873046875,5.061342239379883,6.732495307922363,0.8475474119186401
1788050004707099400,8.295099365234375,4.637568473815918,6.955155849456787,0.6536170840263367
1788050004723442400,8.3114423828125,3.823540210723877,7.259219646453857,0.4141969084739685
1788050004739227100,8.32722705078125,3.2369606494903564,7.546523571014404,0.22505496442317963
1788050004755230500,8.34323046875,3.00711727142334,7.841010570526123,0.05985504388809204
1788050004771583200,8.359583251953126,2.628833532333374,8.178592681884766,-0.22505496442317963
1788050004787260000,8.375260009765626,2.0829553604125977,8.238448143005371,-0.1173158809542656
1788050004803656400,8.391656494140625,2.0254945755004883,8.348581314086914,-0.014365210197865963
1788050004819649000,8.40764892578125,3.292027235031128,8.437167167663574,0.043095629662275314
1788050004835554000,8.423553955078125,4.666299343109131,8.418013572692871,0.26575639843940735
1788050004851950300,8.439950439453124,5.592854976654053,8.504204750061035,0.38067805767059326
1788050004867570400,8.4555703125,5.523423194885254,8.65743350982666,0.3064578175544739
1788050004884105000,8.47210498046875,5.293580055236816,8.760383605957031,-0.016759412363171577
1788050004899698000,8.487697998046874,5.231330871582031,8.899248123168945,-0.16998831927776337
1788050004915661600,8.50366162109375,5.015852451324463,9.07641887664795,-0.38307225704193115
1788050004932226600,8.5202265625,4.548983097076416,9.277531623840332,-0.5674257874488831
1788050004947705300,8.535705322265626,4.120420932769775,9.437943458557129,-0.7445967197418213
1788050004964112400,8.5521123046875,3.7181951999664307,9.57441234588623,-0.524330198764801
1788050004979820800,8.56782080078125,3.885789394378662,9.718064308166504,-0.10055647045373917
1788050004995847000,8.583846923828125,4.280832767486572,9.708487510681152,0.3663128614425659
1788050005012122000,8.6001220703125,4.666299343109131,9.579200744628906,0.5530605912208557
1788050005027841800,8.615841796875,4.970362663269043,9.493009567260742,0.4884171485900879
1788050005044328400,8.632328369140625,5.142745018005371,9.586383819580078,0.23702596127986908
1788050005059992300,8.647992431640626,5.092466831207275,9.849745750427246,0.06703764945268631
1788050005076095500,8.664095458984375,4.776432514190674,9.856928825378418,-0.0933738648891449
1788050005092288300,8.680288330078126,4.383783340454102,9.988609313964844,-0.45010992884635925
1788050005108028700,8.696028564453124,4.496310710906982,10.06043529510498,-0.7038952708244324
1788050005124412700,8.71241259765625,5.027823448181152,10.000580787658691,-1.2090718746185303
1788050005140194600,8.728194580078124,5.56173038482666,9.835380554199219,-1.764526605606079
1788050005156175000,8.744175048828126,5.580883979797363,9.555258750915527,-2.011129379272461
1788050005172465400,8.76046533203125,5.4252610206604,9.370905876159668,-2.140416383743286
1788050005188672800,8.7766728515625,5.530605792999268,8.973467826843262,-1.7046716213226318
1788050005204617200,8.7926171875,5.932831764221191,8.544905662536621,-1.237802267074585
1788050005220377000,8.808377197265624,6.102819919586182,8.197746276855469,-0.7637503147125244
1788050005236383200,8.82438330078125,5.468356609344482,7.979874134063721,-0.33518823981285095
1788050005252708600,8.84070849609375,4.371812343597412,7.920019149780273,-0.1628057211637497
1788050005268425200,8.85642529296875,3.428496837615967,8.003816604614258,-0.08379705995321274
1788050005284807400,8.872807373046875,3.0789434909820557,8.147468566894531,0.1843535304069519
1788050005300721200,8.88872119140625,3.162740468978882,8.216899871826172,0.3495534360408783
1788050005316643600,8.9046435546875,3.1100680828094482,8.180987358093262,0.3519476354122162
1788050005333005600,8.921005615234375,3.3231520652770996,8.054094314575195,0.2944868206977844
1788050005348710100,8.936710205078125,4.050989151000977,7.936778545379639,0.19153612852096558
1788050005364984300,8.952984375,5.137956619262695,7.953537940979004,0.028730420395731926
1788050005380769500,8.96876953125,5.758055210113525,7.886500358581543,0.0071826050989329815
1788050005396787700,8.98478759765625,6.00226354598999,7.903259754180908,0.08140286058187485
1788050005413069600,9.001069580078125,5.674258232116699,7.836222171783447,0.28730419278144836
1788050005428844300,9.01684423828125,4.967968463897705,7.781155586242676,0.43095630407333374
1788050005445405000,9.033405029296874,4.185064792633057,7.8098859786987305,0.45010992884635925
1788050005461021200,9.049021240234374,3.7445313930511475,7.939172744750977,0.2849099934101105
1788050005477048300,9.06504833984375,3.756502389907837,8.1139497756958,0.1364694982767105
1788050005493242600,9.08124267578125,3.9432501792907715,8.281543731689453,0.043095629662275314
1788050005509035300,9.09703515625,4.05817174911499,8.38449478149414,0.06224924325942993
1788050005525371100,9.11337109375,4.240131378173828,8.451532363891602,0.13407529890537262
1788050005541156400,9.12915625,4.359841346740723,8.573636054992676,0.10773907601833344
1788050005557164000,9.1451640625,4.55616569519043,8.609549522399902,-0.07182604819536209
1788050005573516000,9.16151611328125,4.790797710418701,8.674192428588867,-0.16519992053508759
1788050005589233400,9.1772333984375,5.137956619262695,8.738836288452148,-0.12928688526153564
1788050005605633000,9.193633056640625,5.279214859008789,8.813055992126465,-0.12689268589019775
1788050005621389000,9.20938916015625,5.188235282897949,8.937555313110352,-0.18914192914962769
1788050005637390300,9.225390380859375,5.147533416748047,9.153033256530762,-0.1843535304069519
1788050005653741000,9.241740966796876,4.967968463897705,9.32302188873291,-0.08140286058187485
1788050005669377000,9.257376953125,4.726154327392578,9.425971984863281,0.07661445438861847
1788050005685806000,9.27380615234375,4.4508209228515625,9.53849983215332,0.0933738648891449
1788050005701966800,9.289966796875,4.235342979431152,9.691728591918945,-0.06224924325942993
1788050005717557500,9.3055576171875,4.218583583831787,9.797073364257812,-0.19871874153614044
1788050005733764000,9.32176416015625,4.4508209228515625,9.916783332824707,-0.17717093229293823
1788050005749525500,9.337525390625,4.599261283874512,10.182539939880371,-0.1843535304069519
1788050005765876200,9.353876220703125,4.654327869415283,10.587160110473633,-0.035913024097681046
1788050005781636400,9.36963623046875,4.546588897705078,10.522516250610352,0.1843535304069519
1788050005797662500,9.385662353515626,4.692635536193848,10.431536674499512,0.5530605912208557
1788050005813958100,9.401958251953126,5.34625244140625,10.093954086303711,1.0223240852355957
1788050005829701000,9.417701171875,6.354211330413818,9.469067573547363,1.2114660739898682
1788050005846079500,9.43407958984375,7.206547260284424,8.858546257019043,1.0007762908935547
1788050005861947400,9.449947509765625,7.51779317855835,8.391676902770996,0.49799394607543945
1788050005877877500,9.46587744140625,7.271190643310547,8.073247909545898,-0.0933738648891449
1788050005894156300,9.48215625,6.567295074462891,7.805097579956055,-0.3519476354122162
1788050005909982000,9.49798193359375,5.497087001800537,7.709329605102539,-0.6153098344802856
1788050005926375000,9.514375,4.481945514678955,7.666234016418457,-0.7876923680305481
1788050005942113500,9.530113525390625,3.529053211212158,7.807491779327393,-0.7781155705451965
1788050005958112300,9.5461123046875,3.4380736351013184,7.970297336578369,-0.6272808313369751
1788050005974386400,9.562386474609376,3.162740468978882,8.003816604614258,-0.38067805767059326
1788050005990159000,9.5781591796875,3.1651346683502197,8.08282470703125,0.1388636976480484
1788050006006815200,9.594815185546874,3.0573954582214355,8.020575523376465,0.6344634294509888
1788050006022305300,9.61030517578125,3.066972494125366,8.020575523376465,0.9145850539207458
1788050006038324700,9.62632470703125,3.6798880100250244,7.920019149780273,1.139639973640442
1788050006054597400,9.642597412109374,4.8482584953308105,7.869740962982178,1.2761094570159912
1788050006070369800,9.658369873046874,5.832275390625,7.833827972412109,1.1755530834197998
1788050006086757400,9.67475732421875,6.157886981964111,7.726089000701904,0.768538773059845
1788050006110942700,9.698942626953125,5.66228723526001,7.527369976043701,-0.4908113479614258
1788050006126927400,9.71492724609375,5.03021764755249,7.390900611877441,-1.0965443849563599
1788050006142581000,9.7305810546875,4.398148536682129,7.295132637023926,-1.4460978507995605
1788050006158582500,9.74658251953125,3.8067808151245117,7.254431247711182,-1.5418659448623657
1788050006174855200,9.762855224609375,3.354276657104492,7.383718013763428,-0.8690952062606812
1788050006190677800,9.778677734375,3.093308687210083,7.6782050132751465,0.12689268589019775
1788050006206985700,9.79498583984375,3.0310592651367188,7.829039573669434,0.545877993106842
1788050006222743800,9.810743896484375,3.313575267791748,7.7763671875,0.26575639843940735
1788050006238704000,9.8267041015625,3.993528366088867,7.694964408874512,0.07422025501728058
1788050006255003000,9.8430029296875,5.011064052581787,7.608773231506348,0.2777273952960968
1788050006270862600,9.858862548828125,5.731719017028809,7.553706169128418,0.21308395266532898
1788050006287189800,9.875189697265625,6.320692539215088,7.441178798675537,0.043095629662275314
1788050006302915600,9.89091552734375,6.931213855743408,7.41484260559082,-0.1364694982767105
1788050006318849000,9.90684912109375,7.089231014251709,7.436390399932861,-0.10534487664699554
1788050006335136300,9.92313623046875,6.53377628326416,7.620744228363037,0.038307227194309235
1788050006350921500,9.93892138671875,5.779603004455566,7.86734676361084,-0.028730420395731926
1788050006367531500,9.955531494140626,5.343858242034912,8.08282470703125,0.07661445438861847
1788050006383057000,9.971056884765625,5.051765441894531,8.245630264282227,0.07182604819536209
1788050006399021600,9.987021484375,4.900930881500244,8.152256965637207,-0.10295066982507706
1788050006415307500,10.0033076171875,5.463568210601807,8.147468566894531,0.1149216815829277
1788050006431058400,10.019058349609375,6.102819919586182,7.9846625328063965,0.16998831927776337
1788050006447644400,10.03564453125,6.624756336212158,7.623138427734375,0.31603461503982544
1788050006463256800,10.0512568359375,7.2783732414245605,7.283161640167236,0.5123591423034668
1788050006479225900,10.067225830078126,8.001421928405762,7.074865818023682,0.3758896589279175
1788050006495504100,10.083504150390626,8.094796180725098,6.955155849456787,0.6967126727104187
1788050006511394300,10.099394287109375,7.65186882019043,6.864176273345947,0.6009446382522583
1788050006527772400,10.1157724609375,7.436390399932861,6.490680694580078,0.08858546614646912
1788050006543918300,10.13191845703125,8.248024940490723,6.112396717071533,-0.26096799969673157
1788050006559518700,10.147518798828125,9.35654067993164,5.683835029602051,-0.3280056416988373
1788050006576100900,10.164100830078125,10.120290756225586,5.197812080383301,-0.5363011956214905
1788050006591638000,10.179637939453125,10.292673110961914,4.6040496826171875,-0.6512228846549988
1788050006608030700,10.19603076171875,10.527304649353027,4.1156325340271,-0.7757213711738586
1788050006623776800,10.21177685546875,10.417171478271484,3.5386300086975098,-0.9050082564353943
1788050006639747800,10.227747802734376,10.60391902923584,3.2824504375457764,-1.3311761617660522
1788050006656112600,10.244112548828125,10.943896293640137,3.1699230670928955,-1.2497732639312744
1788050006672379600,10.260379638671875,10.699687004089355,3.1747114658355713,-0.6009446382522583
1788050006688408300,10.276408203125,9.837775230407715,3.292027235031128,-0.3232172429561615
1788050006703980500,10.29198046875,9.260771751403809,3.2609026432037354,-0.2777273952960968
1788050006720289500,10.30828955078125,8.944737434387207,3.3446998596191406,-0.35913026332855225
1788050006736391400,10.324391357421876,9.038111686706543,3.3638534545898438,-0.3256114423274994
1788050006752099300,10.340099365234375,9.409213066101074,3.287238836288452,-0.2322375625371933
1788050006768527000,10.356527099609375,9.655815124511719,3.246537446975708,-0.05746084079146385
1788050006784470300,10.37247021484375,9.75397777557373,3.227383852005005,0
1788050006800340200,10.38834033203125,10.010157585144043,3.160346269607544,-0.021547814831137657
1788050006816613600,10.404613525390625,10.623072624206543,3.0334534645080566,0.047884032130241394
1788050006832392200,10.42039208984375,10.826580047607422,2.918531894683838,-0.009576806798577309
1788050006848696000,10.436696044921876,10.36449909210205,2.918531894683838,-0.11013327538967133
1788050006864499700,10.452499755859375,9.634267807006836,3.0190882682800293,-0.07422025501728058
1788050006880390100,10.46839013671875,8.702922821044922,3.0861260890960693,0.0071826050989329815
1788050006896752600,10.484752685546875,8.1139497756958,3.203441858291626,-0.06224924325942993
1788050006912578800,10.500578857421875,7.9415669441223145,3.3901896476745605,-0.09576806426048279
1788050006929149700,10.517149658203126,8.078036308288574,3.4524388313293457,-0.05746084079146385
1788050006944682800,10.532682861328125,8.224082946777344,3.5434184074401855,-0.0071826050989329815
1788050006960789200,10.548789306640625,8.374917984008789,3.5865142345428467,-0.016759412363171577
1788050006976996000,10.56499609375,8.506598472595215,3.5889084339141846,0.035913024097681046
1788050006992794600,10.580794677734374,8.793902397155762,3.5194764137268066,0.090979665517807
1788050007009082600,10.59708251953125,9.2033109664917,3.404554843902588,0.09816227108240128
1788050007024802600,10.612802490234374,9.481039047241211,3.3039982318878174,0.05027823522686958
1788050007040824800,10.628824951171875,9.734824180603027,3.155557870864868,0.05267243832349777
1788050007057229300,10.645229248046874,9.923966407775879,3.1723172664642334,-0.026336219161748886
1788050007072871200,10.66087109375,9.916783332824707,3.272873640060425,-0.14365209639072418
1788050007089294600,10.677294677734375,9.964667320251465,3.421314239501953,-0.22266076505184174
1788050007105054000,10.693053955078126,9.95748519897461,3.464409828186035,-0.24899697303771973
1788050007120995800,10.708995849609375,9.782708168029785,3.529053211212158,-0.2346317619085312
1788050007137575000,10.725574951171875,9.500192642211914,3.5410242080688477,0
1788050007153135000,10.741135009765625,9.327810287475586,3.507505416870117,0.363918662071228
1788050007169670000,10.757669921875,9.346963882446289,3.383007049560547,0.4644751250743866
1788050007185677000,10.773677001953125,9.514557838439941,3.308786630630493,0.2106897532939911
1788050007201571800,10.78957177734375,9.703699111938477,3.581725835800171,-0.2537853717803955
1788050007217443000,10.805443115234375,9.907206535339355,4.3191399574279785,-0.3256114423274994
1788050007233330200,10.821330078125,10.055646896362305,4.213795185089111,0.090979665517807
1788050007249769200,10.837769287109374,10.398017883300781,3.7493197917938232,0.23942017555236816
1788050007265600300,10.853600341796875,11.097125053405762,3.5434184074401855,0.19393034279346466
1788050007281343500,10.869343505859375,11.875240325927734,3.114856481552124,0.48602294921875
1788050007297886500,10.885886474609375,12.2990140914917,2.7102363109588623,0.45250412821769714
1788050007313561300,10.901561279296875,11.99255657196045,2.580949544906616,0.4118026793003082
1788050007329757000,10.9177568359375,11.130643844604492,2.583343744277954,0.4644751250743866
1788050007345689300,10.933689453125,9.93593692779541,2.52109432220459,0.3878606855869293
1788050007361962200,10.949962158203125,8.916007041931152,2.5043349266052246,0.26815059781074524
1788050007377829600,10.96582958984375,8.11634349822998,2.6144683361053467,0.2537853717803955
1788050007393774600,10.981774658203125,7.6782050132751465,2.693476915359497,0.26575639843940735
1788050007410040600,10.99804052734375,7.60637903213501,2.75812029838562,0.24420857429504395
1788050007425713400,11.01371337890625,7.841010570526123,2.741360902786255,0.21547815203666687
1788050007442188800,11.030188720703125,8.312667846679688,2.612074136734009,0.2537853717803955
1788050007458007600,11.046007568359375,8.887276649475098,2.4420857429504395,0.38067805767059326
1788050007473854000,11.06185400390625,9.363722801208496,2.279279947280884,0.5913678407669067
1788050007490304000,11.078303955078125,9.732429504394531,2.0039467811584473,0.8212111592292786
1788050007506184200,11.09418408203125,10.218452453613281,1.7908629179000854,0.9002198576927185
1788050007522057000,11.110056884765624,10.647014617919922,1.7262194156646729,0.9074024558067322
1788050007538372400,11.126372314453125,10.793061256408691,1.7190368175506592,0.9696516990661621
1788050007554267400,11.142267333984375,10.465055465698242,1.7764976024627686,0.9672574996948242
1788050007570688300,11.158688232421875,9.830592155456543,1.9704279899597168,0.8355764150619507
1788050007586380300,11.17438037109375,9.083600997924805,2.1739351749420166,0.7829039692878723
1788050007602591700,11.190591796875,8.588001251220703,2.3056161403656006,0.828393816947937
1788050007618706200,11.2067060546875,8.248024940490723,2.4636335372924805,0.8188169598579407
1788050007634724600,11.222724609375,8.094796180725098,2.537853717803955,0.871489405632019
1788050007650851800,11.238851806640625,8.032546997070312,2.580949544906616,0.8930372595787048
1788050007666617900,11.254617919921875,8.212111473083496,2.535459518432617,0.912190854549408
1788050007682567700,11.270567626953126,8.743624687194824,2.5234885215759277,0.8619126081466675
1788050007698854400,11.2868544921875,9.378087997436523,2.451662540435791,0.6727706789970398
1788050007714692600,11.302692626953124,9.725247383117676,2.300827741622925,0.524330198764801
1788050007731179800,11.3191796875,9.907206535339355,2.2697031497955322,0.37828385829925537
1788050007747331300,11.335331298828125,9.943120002746582,2.2697031497955322,0.26096799969673157
1788050007762841900,11.350841796875,9.923966407775879,2.382230758666992,0.2561795711517334
1788050007779079400,11.367079345703125,9.80904483795166,2.585737943649292,0.3495534360408783
1788050007795070700,11.38307080078125,9.607931137084961,2.7964274883270264,0.3711012601852417
1788050007811255600,11.399255615234376,9.38048267364502,2.9903578758239746,0.35673606395721436
1788050007827124200,11.415124267578125,9.23682975769043,3.1675288677215576,0.24899697303771973
1788050007843034000,11.4310341796875,9.210494041442871,3.308786630630493,0.1412578970193863
1788050007859432000,11.447431884765624,9.473855972290039,3.399766445159912,-0.016759412363171577
1788050007875155700,11.46315576171875,9.68933391571045,3.442862033843994,-0.11252748221158981
1788050007891562200,11.479562255859374,9.801861763000488,3.49314022064209,-0.2944868206977844
1788050007907295200,11.495295166015625,9.921571731567383,3.4955344200134277,-0.33039984107017517
1788050007923260000,11.511260009765625,9.938331604003906,3.4524388313293457,-0.29209262132644653
1788050007939660000,11.527659912109375,9.940725326538086,3.3854012489318848,-0.2106897532939911
1788050007955431400,11.543431396484374,9.983820915222168,3.315969467163086,-0.06703764945268631
1788050007971731700,11.559731689453125,10.079588890075684,3.203441858291626,-0.05985504388809204
1788050007987530500,11.575530517578125,10.134655952453613,3.0885202884674072,-0.040701430290937424
1788050008003933700,11.59193359375,10.079588890075684,3.064578056335449,0.016759412363171577
1788050008019740000,11.607739990234375,9.916783332824707,3.0573954582214355,0.1149216815829277
1788050008035574000,11.623573974609375,9.653421401977539,3.0526070594787598,0.17956513166427612
1788050008051979000,11.63997900390625,9.349357604980469,3.134010076522827,0.15801730751991272
1788050008067751200,11.655751220703126,9.002198219299316,3.220201253890991,0.12210428714752197
1788050008083703300,11.671703369140625,8.848969459533691,3.251325845718384,0.08858546614646912
1788050008100010500,11.688010498046875,8.825027465820312,3.2393548488616943,-0.002394201699644327
1788050008115787500,11.70378759765625,8.980650901794434,3.201047658920288,-0.002394201699644327
1788050008132149500,11.7201494140625,9.198522567749023,3.112462282180786,0.011971008032560349
1788050008147965200,11.735965087890625,9.41639518737793,3.050212860107422,0.023942016065120697
1788050008164040000,11.7520400390625,9.607931137084961,3.0789434909820557,-0.06703764945268631
1788050008180212200,11.768212158203125,9.744400978088379,3.050212860107422,-0.10055647045373917
1788050008196027600,11.784027587890625,9.773131370544434,2.983175277709961,-0.090979665517807
1788050008212566800,11.80056689453125,9.75397777557373,3.00711727142334,-0.17238251864910126
1788050008228317700,11.816317626953126,9.706093788146973,3.0550012588500977,-0.2106897532939911
1788050008244595200,11.83259521484375,9.548076629638672,3.1052796840667725,-0.21547815203666687
1788050008260725000,11.84872509765625,9.375694274902344,3.179499864578247,-0.15083470940589905
1788050008276505900,11.864505859375,9.188945770263672,3.2369606494903564,-0.1149216815829277
1788050008292629000,11.88062890625,9.100360870361328,3.272873640060425,-0.12928688526153564
1788050008308413000,11.896412841796876,9.11233139038086,3.265691041946411,-0.021547814831137657
1788050008324689000,11.91268896484375,9.169792175292969,3.2585084438323975,0.06224924325942993
1788050008340881400,11.92888134765625,9.184157371520996,3.205836057662964,0.16519992053508759
1788050008356501500,11.94450146484375,9.253589630126953,3.155557870864868,0.1604115068912506
1788050008373015800,11.961015869140626,9.30386734008789,3.162740468978882,0.12928688526153564
1788050008388691500,11.97669140625,9.289502143859863,3.1507694721221924,0.11252748221158981
1788050008404778200,11.9927783203125,9.296685218811035,3.1244332790374756,0.09816227108240128
1788050008420974800,12.008974853515625,9.277531623840332,3.1507694721221924,0.035913024097681046
1788050008436758800,12.0247587890625,9.260771751403809,3.117250680923462,0.004788403399288654
1788050008453095400,12.041095458984374,9.23443603515625,3.1483752727508545,0.05746084079146385
1788050008468974800,12.056974853515625,9.258378028869629,3.1531636714935303,0.1149216815829277
1788050008484935700,12.072935791015626,9.349357604980469,3.1459810733795166,0.24420857429504395
1788050008501238500,12.089238525390625,9.402029991149902,3.1220390796661377,0.3878606855869293
1788050008517540900,12.105540771484375,9.433155059814453,3.1507694721221924,0.4812345504760742
1788050008533575400,12.121575439453125,9.38048267364502,3.203441858291626,0.5746083855628967
1788050008549299200,12.13729931640625,9.299078941345215,3.2345664501190186,0.706289529800415
1788050008565138400,12.153138427734374,9.279925346374512,3.3016040325164795,0.6919242739677429
1788050008581440800,12.169440673828126,9.433155059814453,3.2632968425750732,0.7206547260284424
1788050008597238000,12.185238037109375,9.524134635925293,3.227383852005005,0.7326257228851318
1788050008613779700,12.20177978515625,9.536105155944824,3.24414324760437,0.6009446382522583
1788050008629349600,12.217349609375,9.423578262329102,3.3063924312591553,0.42616790533065796
1788050008645237000,12.233237060546875,9.258378028869629,3.354276657104492,0.40462008118629456
1788050008661831700,12.249831787109375,9.105149269104004,3.445256233215332,0.43335050344467163
1788050008677312000,12.26531201171875,9.07641887664795,3.4308910369873047,0.42377370595932007
1788050008693759000,12.281759033203125,9.184157371520996,3.3710360527038574,0.4118026793003082
1788050008709526500,12.297526611328125,9.406818389892578,3.2992098331451416,0.42377370595932007
1788050008725452800,12.313452880859375,9.615114212036133,3.177105665206909,0.40701428055763245
1788050008741735200,12.329735107421875,9.75637149810791,3.064578056335449,0.4165911078453064
1788050008757613300,12.34561328125,9.967061996459961,2.9879636764526367,0.31124621629714966
1788050008774115300,12.362115234375,9.976638793945312,2.980781078338623,0.40222588181495667
1788050008789690000,12.377690185546875,9.785101890563965,3.0095114707946777,0.524330198764801
1788050008805661400,12.393661376953125,9.536105155944824,3.026270866394043,0.7134721279144287
1788050008822243600,12.41024365234375,9.342175483703613,3.028665065765381,0.8427590131759644
1788050008837741300,12.4257412109375,9.160215377807617,3.0789434909820557,0.871489405632019
1788050008854181400,12.442181396484376,8.966285705566406,3.0837318897247314,0.7996633648872375
1788050008869902800,12.45790283203125,8.959102630615234,3.0166940689086914,0.6871358752250671
1788050008885860600,12.473860595703124,9.121908187866211,2.935291290283203,0.6799532771110535
1788050008902170000,12.490170166015625,9.366117477416992,2.8443117141723633,0.6536170840263367
1788050008918034200,12.5060341796875,9.660603523254395,2.7317841053009033,0.5793967843055725
1788050008934456000,12.5224560546875,9.861717224121094,2.604891538619995,0.4118026793003082
1788050008950212000,12.538212158203125,9.907206535339355,2.559401512145996,0.26815059781074524
1788050008966338800,12.5543388671875,9.916783332824707,2.4612393379211426,0.12210428714752197
1788050008982507300,12.57050732421875,9.86650562286377,2.4420857429504395,0.028730420395731926
1788050008998284300,12.5862841796875,9.821015357971191,2.434903144836426,-0.023942016065120697
1788050009014690600,12.602690673828125,9.720458984375,2.427720546722412,-0.011971008032560349
1788050009030363400,12.61836328125,9.576807022094727,2.4013843536376953,0.011971008032560349
1788050009046414800,12.634414794921875,9.528923034667969,2.3798365592956543,-0.05506663769483566
1788050009062848500,12.6508486328125,9.617507934570312,2.3319525718688965,-0.07661445438861847
1788050009079085000,12.6670849609375,9.718064308166504,2.31758713722229,-0.07900865375995636
1788050009094867500,12.682867431640625,9.852140426635742,2.3295583724975586,-0.16998831927776337
1788050009110867500,12.698867431640625,9.96945571899414,2.3535003662109375,-0.1173158809542656
1788050009126790000,12.714789794921876,10.062829971313477,2.38462495803833,-0.031124621629714966
1788050009142938000,12.730938232421876,10.14902114868164,2.3367409706115723,0.17238251864910126
1788050009158906400,12.74690625,10.182539939880371,2.123656988143921,0.38307225704193115
1788050009175324000,12.763323974609374,10.27591323852539,1.944091796875,0.40222588181495667
1788050009191048400,12.77904833984375,10.357316970825195,1.7549498081207275,0.4908113479614258
1788050009206953000,12.794952880859375,10.512939453125,1.6041151285171509,0.45010992884635925
1788050009223233800,12.81123388671875,10.651803016662598,1.5897499322891235,0.3663128614425659
1788050009239217400,12.827217529296876,10.548852920532227,1.680729627609253,0.3447650372982025
1788050009255419400,12.84341943359375,10.125079154968262,1.8363527059555054,0.5770025849342346
1788050009271338200,12.859338134765625,9.5624418258667,2.0254945755004883,0.8379706144332886
1788050009287224600,12.875224609375,9.011775016784668,2.1930887699127197,1.1013327836990356
1788050009303465700,12.8914658203125,8.640673637390137,2.432508945465088,1.137245774269104
1788050009319566300,12.90756640625,8.848969459533691,2.540247917175293,1.192312479019165
1788050009335877600,12.923877685546875,9.32541561126709,2.6144683361053467,1.1875240802764893
1788050009351466800,12.939466796875,9.59835433959961,2.738966703414917,1.1013327836990356
1788050009367480800,12.955480712890624,9.758766174316406,2.760514497756958,0.7637503147125244
1788050009384005000,12.972005126953125,9.959878921508789,2.7437551021575928,0.395043283700943
1788050009399577600,12.98757763671875,10.235212326049805,2.7557260990142822,0.15083470940589905
1788050009416094500,13.004094482421875,10.47942066192627,2.782062292098999,0.040701430290937424
1788050009431779300,13.019779296875,10.374075889587402,2.762908697128296,0.05506663769483566
1788050009447780900,13.03578076171875,10.077195167541504,2.7772738933563232,0.05506663769483566
1788050009464046600,13.052046630859374,9.646238327026367,2.8562827110290527,0.10295066982507706
1788050009479908400,13.067908447265625,9.35654067993164,2.9544448852539062,0.1173158809542656
1788050009496309200,13.084309326171875,9.064447402954102,3.1100680828094482,0.14604631066322327
1788050009512036000,13.1000361328125,8.786720275878906,3.220201253890991,0.1364694982767105
1788050009527959300,13.115959228515624,8.5903959274292,3.2609026432037354,0.028730420395731926
1788050009544513500,13.132513427734375,8.537723541259766,3.2321722507476807,-0.06703764945268631
1788050009560049400,13.14804931640625,8.547300338745117,3.294421434402466,-0.10295066982507706
1788050009576615000,13.164614990234375,8.60236644744873,3.2537200450897217,-0.15322890877723694
1788050009592646000,13.18064599609375,8.681375503540039,3.2632968425750732,-0.20111294090747833
1788050009608273000,13.19627294921875,8.743624687194824,3.28963303565979,-0.33039984107017517
1788050009624678100,13.21267822265625,8.832210540771484,3.270479440689087,-0.4213795065879822
1788050009640204800,13.228204833984375,8.990227699279785,3.287238836288452,-0.42616790533065796
1788050009656665000,13.2446650390625,9.028534889221191,3.2848446369171143,-0.47165772318840027
1788050009672357400,13.260357421875,9.026140213012695,3.339911460876465,-0.5841852426528931
1788050009688325000,13.2763251953125,9.026140213012695,3.423708438873291,-0.6823474764823914
1788050009704737000,13.292737060546875,9.05487060546875,3.485957622528076,-0.6799532771110535
1788050009720396000,13.30839599609375,8.995016098022461,3.5913026332855225,-0.6943184733390808
1788050009736732200,13.324732177734376,9.038111686706543,3.6176388263702393,-0.6775590777397156
1788050009752675300,13.34067529296875,9.244012832641602,3.6607344150543213,-0.7398083209991455
1788050009768489500,13.356489501953124,9.375694274902344,3.7253777980804443,-0.8307880163192749
1788050009784773600,13.372773681640625,9.457097053527832,3.8283286094665527,-0.7948749661445618
1788050009800613600,13.388613525390625,9.512163162231445,3.7181951999664307,-0.6200982332229614
1788050009817012000,13.405011962890624,9.583989143371582,3.5913026332855225,-0.524330198764801
1788050009832703500,13.420703369140625,9.655815124511719,3.5218706130981445,-0.6416460275650024
1788050009848664000,13.4366640625,9.749189376831055,3.442862033843994,-0.8236053586006165
1788050009864976600,13.4529765625,9.730035781860352,3.3734302520751953,-1.0869675874710083
1788050009880737000,13.468737060546875,9.655815124511719,3.4189200401306152,-1.335964560508728
1788050009897322200,13.485322265625,9.425971984863281,3.5386300086975098,-1.4652514457702637
1788050009912948000,13.500947998046875,9.121908187866211,3.622427225112915,-1.3503297567367554
1788050009928862700,13.51686279296875,8.815450668334961,3.713406801223755,-1.3192051649093628
1788050009945123600,13.53312353515625,8.638279914855957,3.7277719974517822,-1.2856862545013428
1788050009960912600,13.54891259765625,8.540117263793945,3.7038300037384033,-1.1851298809051514
1788050009977354800,13.565354736328125,8.628703117370605,3.6822822093963623,-1.0845733880996704
1788050009993047000,13.581047119140624,8.774748802185059,3.620033025741577,-1.01753568649292
1788050010009161200,13.5971611328125,9.114726066589355,3.5673606395721436,-1.1037269830703735
1788050010025256000,13.613255859375,9.373299598693848,3.512293815612793,-1.1683704853057861
1788050010040989000,13.628989013671875,9.526528358459473,3.485957622528076,-1.1252747774124146
1788050010057350700,13.6453505859375,9.591172218322754,3.4739866256713867,-1.1276689767837524
1788050010073333800,13.661333740234374,9.53849983215332,3.4404678344726562,-1.0965443849563599
1788050010089082000,13.67708203125,9.579200744628906,3.354276657104492,-1.0821791887283325
1788050010105415200,13.693415283203125,9.761159896850586,3.246537446975708,-1.0845733880996704
1788050010121166600,13.70916650390625,9.976638793945312,3.155557870864868,-1.070208191871643
1788050010137602300,13.725602294921876,10.144232749938965,3.1076738834381104,-1.039083480834961
1788050010153799700,13.741799560546875,10.108319282531738,3.1076738834381104,-0.9720458984375
1788050010169822200,13.757822265625,9.782708168029785,3.1531636714935303,-0.9026140570640564
1788050010185753600,13.773753662109375,9.368511199951172,3.1531636714935303,-0.8762778043746948
1788050010201798100,13.789798095703125,8.966285705566406,3.222595453262329,-0.9600749015808105
1788050010217864400,13.805864501953126,8.829815864562988,3.3446998596191406,-0.9816226959228516
1788050010233987600,13.821987548828124,8.786720275878906,3.3925838470458984,-0.9768342971801758
1788050010249650200,13.837650146484375,8.80587387084961,3.4117374420166016,-0.9217676520347595
1788050010265997000,13.8539970703125,8.949525833129883,3.4763808250427246,-0.9409212470054626
1788050010281809400,13.869809326171875,9.07641887664795,3.4787750244140625,-0.9481038451194763
1788050010298219300,13.88621923828125,9.105149269104004,3.490746021270752,-0.9576807022094727
1788050010313809000,13.901808837890625,9.069235801696777,3.507505416870117,-0.9193734526634216
1788050010330160600,13.91816064453125,9.02135181427002,3.469198226928711,-0.9026140570640564
1788050010346381800,13.9343818359375,9.141061782836914,3.4332852363586426,-1.0271124839782715
1788050010362044700,13.950044677734375,9.301473617553711,3.40216064453125,-1.0223240852355957
1788050010378304800,13.9663046875,9.373299598693848,3.3877954483032227,-0.8020575642585754
1788050010393923000,13.981923095703126,9.277531623840332,3.4524388313293457,-0.7709329724311829
1788050010410387500,13.998387451171874,9.387664794921875,3.423708438873291,-0.8571242094039917
1788050010426207000,14.01420703125,9.397241592407227,3.3949780464172363,-0.9481038451194763
1788050010441985000,14.029985107421876,9.351752281188965,3.380612850189209,-0.8571242094039917
1788050010458438000,14.04643798828125,9.32541561126709,3.4739866256713867,-0.8595184087753296
1788050010474134500,14.062134521484374,8.901641845703125,3.6822822093963623,-0.545877993106842
1788050010490128000,14.0781279296875,8.803479194641113,3.995922565460205,-0.8427590131759644
1788050010506392000,14.09439208984375,8.59997272491455,3.8810009956359863,-0.6512228846549988
1788050010522202000,14.1102021484375,8.71489429473877,3.794809579849243,-0.44532153010368347
1788050010538635300,14.12663525390625,9.255983352661133,3.641580820083618,-0.20111294090747833
1788050010554340400,14.14234033203125,9.940725326538086,3.641580820083618,0.21787235140800476
1788050010570348500,14.1583486328125,10.376470565795898,3.337517261505127,-0.06703764945268631
1788050010586601500,14.1746015625,10.591948509216309,3.112462282180786,-0.5889736413955688
1788050010602426600,14.190426513671875,10.32858657836914,3.0837318897247314,-0.8379706144332886
1788050010618871000,14.20687109375,9.746794700622559,3.380612850189209,-0.49799394607543945
1788050010634952200,14.2229521484375,9.157821655273438,3.6128504276275635,-0.05746084079146385
1788050010650577700,14.23857763671875,8.669404029846191,3.7445313930511475,0.05027823522686958
1788050010667115800,14.25511572265625,8.382100105285645,3.7636849880218506,0.021547814831137657
1788050010682630000,14.2706298828125,8.463502883911133,3.7205893993377686,0.0071826050989329815
1788050010698996700,14.286996826171874,8.762778282165527,3.600879430770874,-0.090979665517807
1788050010714918700,14.302918701171874,9.114726066589355,3.4620156288146973,-0.16759411990642548
1788050010730780000,14.31877978515625,9.361329078674316,3.406949043273926,-0.11252748221158981
1788050010747168500,14.33516845703125,9.543288230895996,3.3039982318878174,-0.009576806798577309
1788050010762909000,14.350908935546874,9.660603523254395,3.2632968425750732,0.10295066982507706
1788050010779331300,14.367331298828125,9.552865028381348,3.3494882583618164,0.1843535304069519
1788050010795152100,14.383152099609376,9.229647636413574,3.4787750244140625,0.19871874153614044
1788050010811004000,14.39900390625,8.87051773071289,3.512293815612793,0.363918662071228
1788050010827336200,14.415336181640624,8.7268648147583,3.643975019454956,0.4213795065879822
1788050010843091200,14.43109130859375,8.834604263305664,3.7636849880218506,0.3998316824436188
1788050010859459300,14.447459228515624,9.062053680419922,3.7924153804779053,0.2777273952960968
1788050010875194000,14.463194091796876,9.162610054016113,3.8139634132385254,0.08619125932455063
1788050010891147500,14.4791474609375,9.229647636413574,3.8498764038085938,-0.11013327538967133
1788050010907476200,14.495476318359374,9.368511199951172,3.825934410095215,-0.29209262132644653
1788050010923713000,14.511713134765625,9.569623947143555,3.8355112075805664,-0.3519476354122162
1788050010939813400,14.5278134765625,9.6989107131958,3.7205893993377686,-0.24899697303771973
1788050010955433500,14.54343359375,9.701305389404297,3.641580820083618,-0.24899697303771973
1788050010971426600,14.559426513671875,9.622296333312988,3.533841609954834,-0.22026655077934265
1788050010987610600,14.575610595703125,9.47146224975586,3.4380736351013184,-0.05746084079146385
1788050011003414000,14.5914140625,9.160215377807617,3.469198226928711,0.016759412363171577
1788050011019756800,14.6077568359375,8.810662269592285,3.557783842086792,0.13168109953403473
1788050011035562000,14.62356201171875,8.56645393371582,3.5673606395721436,0.19871874153614044
1788050011051870700,14.63987060546875,8.494627952575684,3.5673606395721436,0.3495534360408783
1788050011067931600,14.655931640625,8.743624687194824,3.7205893993377686,0.3974374830722809
1788050011083544600,14.671544677734374,9.064447402954102,3.840299606323242,0.5410895943641663
1788050011100026000,14.688026123046875,9.172186851501465,3.9480385780334473,0.7637503147125244
1788050011115795700,14.703795654296876,9.153033256530762,4.168305397033691,0.8690952062606812
1788050011131792100,14.719792236328125,9.133879661560059,4.37420654296875,0.8547300100326538
1788050011148062200,14.736062255859375,9.030928611755371,4.458003520965576,0.7613561153411865
1788050011163830000,14.751830078125,8.78193187713623,4.55616569519043,0.48602294921875
1788050011180327200,14.7683271484375,8.779537200927734,4.580107688903809,0.3471592366695404
1788050011195955700,14.783955810546875,9.157821655273438,4.572925090789795,0.05985504388809204
1788050011211951600,14.79995166015625,9.493009567260742,4.522646903991699,-0.21787235140800476
1788050011228514800,14.816514892578125,9.677363395690918,4.541800498962402,-0.3687070608139038
1788050011244170800,14.832170654296876,9.57201862335205,4.568136692047119,-0.3998316824436188
1788050011260529700,14.84852978515625,9.330204010009766,4.608838081359863,-0.44532153010368347
1788050011276245500,14.86424560546875,9.050082206726074,4.630385875701904,-0.5219359993934631
1788050011292236000,14.880236083984375,8.753201484680176,4.69024133682251,-0.31364041566848755
1788050011308546000,14.896546142578124,8.487444877624512,4.707000732421875,0.004788403399288654
1788050011324510200,14.91251025390625,8.26239013671875,4.711789131164551,0.17717093229293823
1788050011340621300,14.928621337890625,8.267178535461426,4.72376012802124,0.2968810200691223
1788050011356414700,14.944414794921874,8.365341186523438,4.776432514190674,0.4189853072166443
1788050011372350700,14.960350830078125,8.458714485168457,4.821922302246094,0.45010992884635925
1788050011388733400,14.9767333984375,8.44195556640625,4.903325080871582,0.40462008118629456
1788050011404850400,14.992850341796874,8.487444877624512,4.987122058868408,0.35434186458587646
1788050011420961500,15.00896142578125,8.552088737487793,5.015852451324463,0.3974374830722809
1788050011436565500,15.0245654296875,8.640673637390137,5.003881454467773,0.33279404044151306
1788050011452520200,15.040520263671874,8.731653213500977,5.0014872550964355,0.22744916379451752
1788050011468981500,15.0569814453125,8.913613319396973,5.011064052581787,0.19632454216480255
1788050011485039600,15.07303955078125,9.097966194152832,4.9799394607543945,0.08858546614646912
1788050011501046500,15.089046630859375,9.363722801208496,4.920084476470947,0.090979665517807
1788050011516770300,15.104770263671876,9.514557838439941,4.900930881500244,0.011971008032560349
1788050011532663600,15.12066357421875,9.418789863586426,4.881777286529541,-0.09816227108240128
1788050011549001500,15.13700146484375,9.239224433898926,5.128379821777344,-0.38067805767059326
1788050011564885200,15.15288525390625,9.318233489990234,5.588066577911377,-0.40462008118629456
1788050011581229000,15.16922900390625,9.222464561462402,5.882553577423096,-0.2513911724090576
1788050011597110000,15.185110107421876,9.133879661560059,6.007051944732666,-0.5626373887062073
1788050011612847400,15.200847412109376,9.742006301879883,6.023811340332031,-0.9600749015808105
1788050011629246500,15.21724658203125,10.577583312988281,5.813121795654297,-1.0893617868423462
1788050011644918500,15.23291845703125,11.216835021972656,5.432443618774414,-1.0342950820922852
1788050011661288400,15.249288330078125,11.384428977966309,5.039794445037842,-1.0414776802062988
1788050011677086200,15.265086181640624,11.058817863464355,4.766855716705322,-0.9409212470054626
1788050011693261000,15.281260986328125,10.271124839782715,4.704606533050537,-0.9552865028381348
1788050011709645800,15.297645751953125,9.23682975769043,4.817133903503418,-1.139639973640442
1788050011725365800,15.31336572265625,8.530540466308594,4.982333660125732,-1.161187767982483
1788050011741831000,15.329830810546875,7.94635534286499,5.190629482269287,-0.9433154463768005
1788050011757675300,15.34567529296875,7.728483200073242,5.47075080871582,-0.9457096457481384
1788050011773448700,15.36144873046875,7.862558364868164,5.659893035888672,-1.0055646896362305
1788050011789862000,15.37786181640625,7.752425193786621,5.91128396987915,-1.0079588890075684
1788050011805909000,15.393908935546875,7.637503623962402,6.200982570648193,-1.0247182846069336
1788050011821885700,15.4098857421875,8.058882713317871,6.378153324127197,-0.727837324142456
1788050011837596700,15.4255966796875,8.489839553833008,6.375759124755859,-0.272938996553421
1788050011853663500,15.44166357421875,8.473079681396484,6.3973069190979,-0.14604631066322327
1788050011870084600,15.458084716796876,8.303091049194336,6.332663536071777,-0.0071826050989329815
1788050011885747200,15.473747314453124,7.898471355438232,6.289567947387695,0.12210428714752197
1788050011902055200,15.49005517578125,6.847416877746582,6.40927791595459,0.023942016065120697
1788050011918209000,15.506208984375,5.760449409484863,6.682217121124268,-0.08858546614646912
1788050011933685800,15.521685791015624,5.398924827575684,6.9024834632873535,-0.15801730751991272
1788050011950178600,15.538178466796875,5.173870086669922,7.050923824310303,-0.2322375625371933
1788050011965847300,15.553847412109375,4.817133903503418,7.134721279144287,-0.304063618183136
1788050011982303000,15.570302978515626,4.508281707763672,7.316680431365967,-0.16998831927776337
1788050011998442200,15.586442138671876,4.264073371887207,7.445967197418213,-0.07182604819536209
1788050012013933300,15.601933349609375,3.8498764038085938,7.558494567871094,-0.10773907601833344
1788050012030332200,15.618332275390625,3.220201253890991,7.587224960327148,-0.2585737705230713
1788050012046040300,15.634040283203126,2.875436305999756,8.078036308288574,-0.18914192914962769
1788050012062444500,15.650444580078124,3.026270866394043,8.166622161865234,0.06703764945268631
1788050012078120000,15.666119873046876,3.797203779220581,8.257601737976074,0.016759412363171577
1788050012094129200,15.682129150390624,4.541800498962402,8.063671112060547,0.12928688526153564
1788050012110403300,15.6984033203125,4.817133903503418,8.212111473083496,-0.22026655077934265
1788050012126209300,15.714209228515625,4.637568473815918,8.245630264282227,-0.4836287498474121
1788050012142625000,15.730625,4.352658748626709,8.578424453735352,-0.5051765441894531
1788050012158351400,15.746351318359375,4.041412353515625,8.908824920654297,-0.6847416758537292
1788050012174342400,15.76234228515625,3.7445313930511475,9.184157371520996,-0.8236053586006165
1788050012190888200,15.77888818359375,3.7397429943084717,9.550470352172852,-0.6584054827690125
1788050012206448600,15.79444873046875,3.804386615753174,9.713275909423828,-0.28730419278144836
1788050012222904000,15.810904052734376,3.4524388313293457,10.050858497619629,-0.016759412363171577
1788050012238602200,15.826602294921875,2.6144683361053467,10.45547866821289,0.1628057211637497
1788050012254727000,15.842726806640625,1.9632453918457031,10.639832496643066,0.14604631066322327
1788050012270884900,15.858884765625,1.9177556037902832,10.78587818145752,0.3663128614425659
1788050012286714000,15.874714111328124,2.3798365592956543,10.903194427490234,0.5171475410461426
1788050012303298600,15.891298583984375,2.892195701599121,10.776301383972168,0.6943184733390808
1788050012318864600,15.90686474609375,3.184288263320923,10.347740173339844,0.9888052940368652
1788050012334822400,15.922822509765625,3.624821424484253,9.854534149169922,1.1300631761550903
1788050012351234800,15.93923486328125,4.036623954772949,9.339780807495117,1.1180921792984009
1788050012366948400,15.9549482421875,3.7493197917938232,8.918401718139648,0.9361328482627869
1788050012383521000,15.97152099609375,3.071760892868042,8.628703117370605,0.8164227604866028
1788050012399103700,15.987103759765626,3.00711727142334,8.542511940002441,0.8427590131759644
1788050012414978000,16.00297802734375,2.762908697128296,8.588001251220703,0.8331822156906128
1788050012431319600,16.019319580078125,2.0398597717285156,8.746018409729004,0.7805097699165344
1788050012447110000,16.03510986328125,1.4245500564575195,8.738836288452148,0.8667010068893433
1788050012463445200,16.0514453125,0.8954314589500427,8.813055992126465,1.070208191871643
1788050012479467800,16.0674677734375,0.36152446269989014,8.858546257019043,1.2449848651885986
1788050012495216600,16.083216552734374,0.20350714027881622,8.765172004699707,1.1444283723831177
1788050012511440100,16.099440185546875,0.667982280254364,8.607154846191406,0.9840168952941895
1788050012527254000,16.11525390625,1.7381904125213623,8.518569946289062,0.8140285611152649
1788050012543701000,16.131700927734375,2.6671407222747803,8.487444877624512,0.6655880808830261
1788050012559836200,16.147836181640624,3.2106244564056396,8.508993148803711,0.44532153010368347
1788050012575362800,16.16336279296875,3.2776620388031006,8.573636054992676,0.12449848651885986
1788050012591860500,16.179860595703126,3.1938650608062744,8.719682693481445,-0.1412578970193863
1788050012607642000,16.19564208984375,3.1316158771514893,8.875306129455566,-0.3687070608139038
1788050012623865000,16.211864990234375,2.913743495941162,9.030928611755371,-0.3232172429561615
1788050012639621000,16.22762109375,2.5522189140319824,9.193734169006348,-0.07661445438861847
1788050012655765200,16.24376513671875,2.1068975925445557,9.289502143859863,0.2968810200691223
1788050012671933700,16.25993359375,1.7717092037200928,9.334992408752441,0.3495534360408783
1788050012687951000,16.275951171875,1.335964560508728,9.342175483703613,0.363918662071228
1788050012704203500,16.29220361328125,1.3311761617660522,9.35893440246582,0.31364041566848755
1788050012719854800,16.307854736328125,1.6376339197158813,9.339780807495117,0.3519476354122162
1788050012735809800,16.323809814453124,2.1284453868865967,9.35654067993164,0.38067805767059326
1788050012752172800,16.3401728515625,2.513911724090576,9.397241592407227,0.42377370595932007
1788050012767901400,16.3559013671875,2.5234885215759277,9.521739959716797,0.4620809257030487
1788050012784472300,16.372472412109374,2.2002713680267334,9.706093788146973,0.26336219906806946
1788050012800041500,16.38804150390625,1.8938134908676147,9.928754806518555,0.12928688526153564
1788050012816497200,16.4044970703125,1.5897499322891235,10.170568466186523,0.047884032130241394
1788050012832497200,16.4204970703125,1.290474772453308,10.491392135620117,-0.14365209639072418
1788050012848085200,16.436085205078125,1.2521674633026123,10.611102104187012,-0.17477671802043915
1788050012864657200,16.4526572265625,1.7717092037200928,10.611102104187012,-0.009576806798577309
1788050012880223500,16.468223388671873,2.518700122833252,10.594342231750488,0.05267243832349777
1788050012896377000,16.484377197265626,3.222595453262329,10.445901870727539,0.07661445438861847
1788050012912414500,16.50041455078125,3.514688014984131,10.579977035522461,0.05267243832349777
1788050012928532700,16.51653271484375,3.1866824626922607,10.939107894897461,0.16519992053508759
1788050012944628200,16.532628173828126,1.7262194156646729,11.21204662322998,-0.15083470940589905
1788050012960858400,16.5488583984375,0.7852981686592102,11.338939666748047,-0.5602431893348694
1788050012976411100,16.5644111328125,0.9696516990661621,11.42752456665039,-0.828393816947937
1788050012992716000,16.580716064453124,1.6424223184585571,11.142614364624023,-1.1228805780410767
1788050013008627000,16.596626953125,2.43011474609375,10.737994194030762,-1.3024457693099976
1788050013025148000,16.61314794921875,3.337517261505127,10.220847129821777,-1.2258312702178955
1788050013040747000,16.6287470703125,3.974374771118164,9.588777542114258,-0.9552865028381348
1788050013056721000,16.644720947265625,4.0294413566589355,8.935160636901855,-0.646434485912323
1788050013073272600,16.6612724609375,3.4835634231567383,8.56645393371582,-0.3495534360408783
1788050013089022200,16.677022216796875,2.4444799423217773,8.47786808013916,-0.26575639843940735
1788050013105250300,16.693250244140625,1.3527239561080933,8.504204750061035,-0.3926490843296051
1788050013121226000,16.70922607421875,0.7374141216278076,8.650250434875488,-0.4644751250743866
1788050013137119700,16.72511962890625,0.6727706789970398,8.753201484680176,-0.4381389021873474
1788050013153337900,16.741337890625,0.9552865028381348,8.803479194641113,-0.40462008118629456
1788050013169260000,16.757260009765623,1.3335703611373901,8.860940933227539,-0.3734954595565796
1788050013185738000,16.773738037109375,2.0039467811584473,8.793902397155762,-0.18914192914962769
1788050013201290200,16.789290283203126,2.5282769203186035,8.755595207214355,0.14604631066322327
1788050013217326000,16.805326171875,2.896984100341797,8.765172004699707,0.3902548849582672
1788050013233650700,16.821650634765625,3.1651346683502197,8.719682693481445,0.45250412821769714
1788050013249977300,16.837977294921874,3.4356794357299805,8.705317497253418,0.5051765441894531
1788050013265819000,16.85381884765625,3.4979286193847656,8.62630844116211,0.7350199222564697
1788050013281579500,16.86957958984375,3.2561142444610596,8.662221908569336,0.8068459630012512
1788050013297678300,16.88567822265625,2.6001031398773193,8.702922821044922,0.6440402865409851
1788050013313905700,16.90190576171875,2.056619167327881,8.798690795898438,0.4884171485900879
1788050013329660200,16.91766015625,1.7597382068634033,8.916007041931152,0.2992752194404602
1788050013346152400,16.93415234375,1.6376339197158813,8.980650901794434,0.1173158809542656
1788050013361943600,16.949943603515624,1.8579005002975464,9.009381294250488,0.026336219161748886
1788050013378266000,16.96626611328125,2.248155355453491,9.105149269104004,-0.023942016065120697
1788050013394100500,16.9821005859375,2.6024973392486572,9.251194953918457,-0.22026655077934265
1788050013409878500,16.99787841796875,2.920926094055176,9.35654067993164,-0.3663128614425659
1788050013426237200,17.0142373046875,3.2776620388031006,9.543288230895996,-0.47165772318840027
1788050013442172000,17.030171875,3.2968156337738037,9.708487510681152,-0.4405331015586853
1788050013458003000,17.0460029296875,3.184288263320923,9.86889934539795,-0.35434186458587646
1788050013474547500,17.06254736328125,2.978386878967285,10.091560363769531,-0.17477671802043915
1788050013490065200,17.078065185546876,2.911349296569824,10.232817649841309,0.040701430290937424
1788050013506505200,17.094505126953123,2.8419175148010254,10.220847129821777,0.2944868206977844
1788050013522196700,17.11019677734375,2.698265314102173,10.153809547424316,0.4118026793003082
1788050013538192000,17.12619189453125,2.4684219360351562,10.146626472473145,0.42377370595932007
1788050013554489900,17.14248974609375,2.3127987384796143,10.201693534851074,0.2585737705230713
1788050013570250000,17.15825,2.47560453414917,10.285490036010742,0.035913024097681046
1788050013586582000,17.17458203125,2.5522189140319824,10.441113471984863,-0.20111294090747833
1788050013602496800,17.190496826171874,2.276885747909546,10.970232009887695,-0.37828385829925537
1788050013618369500,17.20636962890625,1.7812861204147339,11.130643844604492,-0.15322890877723694
1788050013634944800,17.22294482421875,1.3503297567367554,11.224017143249512,-0.08140286058187485
1788050013650460700,17.238460693359375,1.7501614093780518,10.960655212402344,0.6991068720817566
1788050013667010300,17.25501025390625,2.911349296569824,10.414777755737305,0.933738648891449
1788050013682597400,17.270597412109375,4.0749311447143555,9.567230224609375,0.8954314589500427
1788050013698564000,17.286564208984377,5.104437828063965,8.858546257019043,1.0678139925003052
1788050013714917400,17.30291748046875,5.449203014373779,8.370129585266113,0.912190854549408
1788050013730734800,17.31873486328125,4.797980308532715,8.358158111572266,0.4357447028160095
1788050013747268900,17.335268798828125,3.6559460163116455,8.372523307800293,0.3687070608139038
1788050013762913500,17.35091357421875,2.6168625354766846,8.537723541259766,0.33997663855552673
1788050013778852600,17.3668525390625,2.126051187515259,8.676587104797363,0.4908113479614258
1788050013795168300,17.383168212890624,1.9105730056762695,8.813055992126465,0.9409212470054626
1788050013811044000,17.399044189453125,2.006340980529785,8.863334655761719,1.2545616626739502
1788050013827563500,17.4155634765625,2.4468741416931152,8.918401718139648,1.290474772453308
1788050013843103200,17.431103271484375,3.090914487838745,8.772355079650879,1.3096283674240112
1788050013859003600,17.447003662109374,3.536235809326172,8.580819129943848,1.2066776752471924
1788050013875289900,17.463289794921874,4.106055736541748,8.209717750549316,1.3120225667953491
1788050013891627500,17.47962744140625,4.537012100219727,7.999027729034424,1.259350061416626
1788050013907516400,17.495516357421874,4.594472885131836,7.814674377441406,0.8331822156906128
1788050013923355000,17.51135498046875,4.378994941711426,7.781155586242676,0.3423708379268646
1788050013939412500,17.52741259765625,4.302380561828613,7.771578788757324,0.1628057211637497
1788050013955589600,17.543589599609376,4.845864295959473,7.752425193786621,-0.2106897532939911
1788050013971433700,17.559433837890627,4.752490520477295,7.802703380584717,-0.4213795065879822
1788050013987896800,17.575896728515627,4.24970817565918,7.929595947265625,-0.6272808313369751
1788050014003987700,17.59198779296875,3.7828385829925537,8.054094314575195,-0.8331822156906128
1788050014019495400,17.607495361328127,3.7277719974517822,8.118738174438477,-0.7445967197418213
1788050014035769300,17.623769287109376,4.0294413566589355,8.068459510803223,-0.47884035110473633
1788050014051622400,17.639622314453124,4.563348293304443,8.1139497756958,-0.06464344263076782
1788050014068010200,17.65601025390625,5.295974254608154,8.003816604614258,0.12928688526153564
1788050014083813400,17.6718134765625,5.758055210113525,7.908048152923584,0.26575639843940735
1788050014099773000,17.68777294921875,5.822698593139648,7.706935405731201,0.4141969084739685
1788050014116217000,17.704217041015625,6.0190229415893555,7.7428483963012695,0.5722141861915588
1788050014132232200,17.720232177734374,5.75326681137085,7.601590633392334,0.28730419278144836
1788050014148531500,17.736531494140625,5.322310447692871,7.718906402587891,-0.16519992053508759
1788050014164131800,17.7521318359375,5.60722017288208,7.824251174926758,-0.4836287498474121
1788050014180067000,17.768067138671874,6.698976516723633,7.903259754180908,-0.5482721924781799
1788050014196403000,17.78440283203125,7.218518257141113,7.927201747894287,-0.545877993106842
1788050014212570000,17.800570068359374,6.655880928039551,7.951143741607666,-0.4141969084739685
1788050014228520000,17.81652001953125,6.074089527130127,7.891288757324219,-0.3064578175544739
1788050014244189200,17.832189208984374,6.028599739074707,7.704541206359863,-0.014365210197865963
1788050014260205000,17.848205078125,6.246472358703613,7.4316020011901855,0.1867477297782898
1788050014276609300,17.864609375,6.368576526641846,7.230489253997803,0.2537853717803955
1788050014292361700,17.88036181640625,6.852205276489258,7.110779285430908,0.23942017555236816
1788050014308788200,17.896788330078124,7.601590633392334,6.9024834632873535,0.4118026793003082
1788050014324494600,17.91249462890625,8.456320762634277,6.897695064544678,0.7733271718025208
1788050014340382000,17.9283818359375,8.813055992126465,6.7923502922058105,0.3711012601852417
1788050014356665000,17.9446650390625,8.81784439086914,6.66785192489624,-0.21547815203666687
1788050014372588300,17.96058837890625,8.731653213500977,6.347028732299805,-0.6344634294509888
1788050014389048000,17.977048095703125,8.863334655761719,5.940014362335205,-0.7230489253997803
1788050014405094100,17.99309423828125,9.220070838928223,5.518634796142578,-1.0749965906143188
1788050014420648700,18.008648681640626,9.832986831665039,5.106832027435303,-1.5059528350830078
1788050014436972500,18.02497265625,10.426748275756836,4.663905143737793,-1.6400281190872192
1788050014453284000,18.0412841796875,10.505757331848145,4.570530891418457,-1.577778935432434
1788050014469155600,18.057155517578124,9.782708168029785,4.733336925506592,-1.4700398445129395
1788050014484842800,18.0728427734375,8.813055992126465,4.908113479614258,-1.359906554222107
1788050014500828200,18.088828125,7.987056732177734,5.039794445037842,-1.2042834758758545
1788050014517089800,18.10508984375,7.522581577301025,5.188235282897949,-0.9457096457481384
1788050014532937700,18.120937744140626,7.443572998046875,5.295974254608154,-0.6320692300796509
1788050014549271000,18.13727099609375,7.577648162841797,5.0876784324646,-0.5051765441894531
1788050014565139700,18.1531396484375,7.592013359069824,4.8267107009887695,-0.4381389021873474
1788050014581035500,18.169035400390626,7.773972988128662,4.458003520965576,-0.12210428714752197
1788050014597326000,18.185326171875,8.10437297821045,4.134786128997803,0.10773907601833344
1788050014613260300,18.20126025390625,8.667010307312012,3.5410242080688477,0.2968810200691223
1788050014629614300,18.2176142578125,9.260771751403809,3.2369606494903564,0.5339069962501526
1788050014645339400,18.23333935546875,9.497797966003418,2.8874073028564453,0.608127236366272
1788050014661281800,18.24928173828125,9.667786598205566,2.8562827110290527,0.5650315880775452
1788050014677650700,18.265650634765624,9.32541561126709,2.87064790725708,0.6943184733390808
1788050014693360400,18.2813603515625,8.81784439086914,3.0837318897247314,0.42856210470199585
1788050014709938400,18.2979384765625,8.090007781982422,3.19865345954895,-0.09816227108240128
1788050014725862100,18.313862060546874,7.807491779327393,3.380612850189209,0.0694318488240242
1788050014741449500,18.329449462890626,8.159439086914062,3.2848446369171143,0.07661445438861847
1788050014757766000,18.345765869140624,9.002198219299316,3.3710360527038574,-0.06703764945268631
1788050014773718500,18.361718505859375,9.603142738342285,3.2297780513763428,-0.33758243918418884
1788050014790029000,18.378029052734377,9.859322547912598,3.292027235031128,-0.45250412821769714
1788050014805765400,18.393765380859374,9.77791976928711,3.184288263320923,-0.5530605912208557
1788050014821724000,18.409723876953127,9.545681953430176,2.959233283996582,-0.6751648783683777
1788050014837991400,18.425991455078126,9.59835433959961,2.896984100341797,-0.7110779285430908
1788050014853934800,18.441934814453123,9.619902610778809,2.8203697204589844,-0.38546648621559143
1788050014870218800,18.45821875,9.727641105651855,2.808398485183716,-0.19871874153614044
1788050014886055700,18.4740556640625,9.974244117736816,2.8443117141723633,0.009576806798577309
1788050014901983700,18.489983642578125,10.29746150970459,2.628833532333374,0.49559974670410156
1788050014918240500,18.506240478515625,10.398017883300781,2.5043349266052246,0.7445967197418213
1788050014934204700,18.52220458984375,10.144232749938965,2.4372973442077637,0.8331822156906128
1788050014950594300,18.53859423828125,9.8784761428833,2.4636335372924805,0.7374141216278076
1788050014966758000,18.5547578125,9.5624418258667,2.5043349266052246,0.5267243981361389
1788050014982247200,18.5702470703125,9.320627212524414,2.5689783096313477,0.26336219906806946
1788050014998564600,18.586564697265626,9.299078941345215,2.827552318572998,-0.043095629662275314
1788050015014447900,18.60244775390625,9.545681953430176,3.002328872680664,-0.035913024097681046
1788050015030935600,18.618935546875,9.828198432922363,2.5234885215759277,0.17238251864910126
1788050015046577700,18.63457763671875,10.256759643554688,2.1811177730560303,0.15562310814857483
1788050015062597400,18.650597412109374,10.83855152130127,1.6927006244659424,0.08619125932455063
1788050015079057200,18.66705712890625,11.379640579223633,1.1276689767837524,-0.11252748221158981
1788050015094767400,18.682767333984376,11.774683952331543,0.6392518281936646,-0.2082955539226532
1788050015111118000,18.6991181640625,11.87763500213623,0.40462008118629456,-0.29209262132644653
1788050015126880800,18.714880859375,11.614272117614746,0.3447650372982025,-0.3423708379268646
1788050015142885400,18.730885498046874,11.082759857177734,0.5530605912208557,-0.42856210470199585
1788050015159201800,18.747201904296876,10.316615104675293,0.8044517636299133,-0.37828385829925537
1788050015175030800,18.76303076171875,9.464279174804688,1.048660397529602,-0.1412578970193863
1788050015191512800,18.779512939453124,8.853757858276367,1.2042834758758545,0.21547815203666687
1788050015207172400,18.79517236328125,8.429984092712402,1.2497732639312744,0.48602294921875
1788050015223584800,18.811584716796876,8.238448143005371,1.1085153818130493,0.7541735172271729
1788050015239465500,18.827465576171875,8.51138687133789,0.6607996821403503,0.9145850539207458
1788050015255289600,18.84328955078125,9.287108421325684,0.12210428714752197,1.0342950820922852
1788050015271861200,18.859861328125,10.02691650390625,-0.4692635238170624,1.0893617868423462
1788050015287447600,18.875447509765625,10.764330863952637,-0.933738648891449,0.7996633648872375
1788050015303774500,18.8917744140625,11.30063247680664,-1.0749965906143188,0.35913026332855225
1788050015319824600,18.90782470703125,11.35809326171875,-0.9385270476341248,0.028730420395731926
1788050015335533000,18.923532958984374,10.972626686096191,-0.6775590777397156,-0.10295066982507706
1788050015352019000,18.94001904296875,10.469843864440918,-0.45010992884635925,-0.14844051003456116
1788050015367741400,18.955741455078126,9.59835433959961,-0.29209262132644653,-0.3232172429561615
1788050015383823600,18.97182373046875,8.7268648147583,-0.021547814831137657,-0.40701428055763245
1788050015399995100,18.9879951171875,8.20732307434082,0.3064578175544739,-0.48602294921875
1788050015415830000,19.003830078125,7.943961143493652,0.35913026332855225,-0.33279404044151306
1788050015432395000,19.02039501953125,8.058882713317871,0.4644751250743866,-0.3016694188117981
1788050015448004000,19.036004150390625,8.355764389038086,0.5386953949928284,-0.21308395266532898
1788050015464486400,19.052486328125,8.7484130859375,0.42856210470199585,-0.08140286058187485
1788050015480270800,19.068270751953126,9.040505409240723,0.2753331959247589,0.07182604819536209
1788050015496072700,19.08407275390625,9.313444137573242,0.16759411990642548,-0.009576806798577309
1788050015512506000,19.100506103515624,9.682151794433594,0.004788403399288654,-0.17717093229293823
1788050015528687400,19.116687255859375,10.02691650390625,-0.1412578970193863,-0.2513911724090576
1788050015544238000,19.132238037109374,10.316615104675293,-0.19153612852096558,-0.38067805767059326
1788050015560518000,19.148517822265624,10.47702693939209,-0.15562310814857483,-0.5123591423034668
1788050015576335000,19.164335205078125,10.400412559509277,-0.11971008777618408,-0.6009446382522583
1788050015592893200,19.18089306640625,10.27591323852539,-0.19871874153614044,-0.5219359993934631
1788050015608562700,19.196562744140625,10.32858657836914,-0.27054479718208313,-0.6105214357376099
1788050015624615200,19.212615234375,10.556035041809082,-0.3998316824436188,-0.6105214357376099
1788050015640737500,19.228737548828125,10.778696060180664,-0.5219359993934631,-0.586579442024231
1788050015656544000,19.2445439453125,11.013327598571777,-0.608127236366272,-0.5051765441894531
1788050015672934400,19.260934326171874,11.334151268005371,-0.49320554733276367,-0.395043283700943
1788050015688806100,19.27680615234375,11.611878395080566,-0.22505496442317963,-0.002394201699644327
1788050015704772400,19.2927724609375,11.892000198364258,-0.6057330369949341,0.24181437492370605
1788050015721036000,19.3090361328125,12.310985565185547,-0.9193734526634216,0.181959331035614
1788050015736993000,19.324992919921876,12.622231483459473,-1.1037269830703735,0.090979665517807
1788050015753365500,19.341365478515623,12.773066520690918,-1.5275006294250488,0.11013327538967133
1788050015769235200,19.357235107421875,12.54561710357666,-1.8076223134994507,-0.023942016065120697
1788050015785478700,19.373478759765625,11.808202743530273,-1.522712230682373,-0.0071826050989329815
1788050015801226000,19.38922607421875,10.934319496154785,-1.2737152576446533,-0.10295066982507706
1788050015817078300,19.405078369140625,10.108319282531738,-1.2665326595306396,-0.30885201692581177
1788050015833445400,19.4214453125,9.782708168029785,-1.2306196689605713,-0.5650315880775452
1788050015849276200,19.437276123046875,9.703699111938477,-1.1659762859344482,-0.5650315880775452
1788050015865220000,19.45322021484375,9.454702377319336,-1.259350061416626,-0.5003881454467773
1788050015881635000,19.469635009765625,9.097966194152832,-1.3335703611373901,-0.5530605912208557
1788050015897356800,19.485356689453123,8.633491516113281,-1.335964560508728,-0.545877993106842
1788050015913793300,19.501793212890625,8.118738174438477,-1.3479355573654175,-0.38546648621559143
1788050015929754400,19.51775439453125,7.7643961906433105,-1.3527239561080933,-0.42856210470199585
1788050015945635300,19.53363525390625,7.714118003845215,-1.3958195447921753,-0.49320554733276367
1788050015961769700,19.549769775390626,7.845798969268799,-1.5538369417190552,-0.3687070608139038
1788050015977619700,19.56561962890625,8.037335395812988,-1.889025092124939,0.016759412363171577
1788050015993974300,19.581974365234377,8.738836288452148,-2.2601263523101807,0.37828385829925537
1788050016009868300,19.597868408203126,9.68694019317627,-2.494758129119873,0.6751648783683777
1788050016025889000,19.613888916015625,10.472238540649414,-2.52109432220459,0.828393816947937
1788050016042337800,19.630337890625,10.776301383972168,-2.38462495803833,0.7972691655158997
1788050016057934600,19.6459345703125,10.467450141906738,-2.233790159225464,0.6033388376235962
1788050016074428700,19.6624287109375,9.672574996948242,-1.9776105880737305,0.4405331015586853
1788050016090494000,19.678493896484376,8.89445972442627,-1.723825216293335,0.37828385829925537
1788050016106087400,19.69408740234375,8.432378768920898,-1.5825673341751099,0.3734954595565796
1788050016122534700,19.71053466796875,8.406042098999023,-1.5466543436050415,0.3232172429561615
1788050016138214100,19.726214111328126,8.901641845703125,-1.5298948287963867,0.21308395266532898
1788050016154570000,19.742570068359374,9.567230224609375,-1.4939818382263184,0.2106897532939911
1788050016170412300,19.758412353515624,10.120290756225586,-1.5849615335464478,0.33997663855552673
1788050016186368500,19.774368408203124,10.500968933105469,-1.6663644313812256,0.4884171485900879
1788050016202674400,19.79067431640625,10.678139686584473,-1.721431016921997,0.6416460275650024
1788050016218513000,19.806512939453125,10.802638053894043,-1.7381904125213623,0.7086837291717529
1788050016234948900,19.822948974609375,10.807426452636719,-1.7094600200653076,0.6655880808830261
1788050016250735600,19.838735595703124,10.599130630493164,-1.4987702369689941,0.5291185975074768
1788050016266632400,19.854632568359374,10.182539939880371,-1.2713210582733154,0.38307225704193115
1788050016283033300,19.871033447265624,9.804255485534668,-1.158793568611145,0.28969839215278625
1788050016298731800,19.886731689453125,9.567230224609375,-0.9552865028381348,0.27054479718208313
1788050016315206000,19.903205810546876,9.435548782348633,-0.730231523513794,0.26575639843940735
1788050016330904000,19.918904052734376,9.442731857299805,-0.5027823448181152,0.19871874153614044
1788050016347372300,19.935372314453126,9.464279174804688,-0.22744916379451752,0.19153612852096558
1788050016363277300,19.95127734375,9.423578262329102,0.05746084079146385,0.3423708379268646
1788050016379017200,19.967017333984376,9.454702377319336,0.026336219161748886,0.5434837937355042
1788050016395397000,19.983397216796874,9.727641105651855,-0.37828385829925537,0.5267243981361389
1788050016411208700,19.999208740234376,10.02691650390625,-0.7613561153411865,0.38067805767059326
1788050016427181000,20.01518115234375,10.611102104187012,-1.0797849893569946,0.16519992053508759
1788050016443601700,20.0316015625,11.382035255432129,-1.1516109704971313,-0.05267243832349777
1788050016459671000,20.047671142578125,11.985373497009277,-1.0295066833496094,-0.0694318488240242
1788050016475602200,20.063602294921875,11.686098098754883,-0.8188169598579407,0.12928688526153564
1788050016491397000,20.079397216796874,10.723628997802734,-0.5674257874488831,0.15083470940589905
1788050016507354000,20.09535400390625,9.521739959716797,-0.31842881441116333,0.10534487664699554
1788050016523667500,20.11166748046875,8.69334602355957,-0.21308395266532898,0.19153612852096558
1788050016539485700,20.127485595703124,8.358158111572266,-0.22744916379451752,0.05506663769483566
1788050016556012800,20.1440126953125,8.468291282653809,-0.272938996553421,0.043095629662275314
1788050016571623400,20.15962353515625,9.047688484191895,-0.37828385829925537,-0.009576806798577309
1788050016587705000,20.175705078125,9.648633003234863,-0.49320554733276367,-0.09816227108240128
1788050016604158700,20.19215869140625,10.007762908935547,-0.6967126727104187,-0.07182604819536209
1788050016619715800,20.2077158203125,10.168174743652344,-0.8188169598579407,0.004788403399288654
1788050016636061000,20.22406103515625,10.237606048583984,-0.8188169598579407,0.011971008032560349
1788050016651882500,20.239882568359373,10.177751541137695,-0.7948749661445618,0.06703764945268631
1788050016668011800,20.25601171875,9.904812812805176,-0.7398083209991455,0.11013327538967133
1788050016684188000,20.27218798828125,9.612719535827637,-0.6248866319656372,0.19871874153614044
1788050016700007200,20.288007080078124,9.476250648498535,-0.5793967843055725,0.26575639843940735
1788050016716459300,20.304459228515626,9.437943458557129,-0.49559974670410156,0.27054479718208313
1788050016732137000,20.320136962890626,9.603142738342285,-0.4596867263317108,0.24181437492370605
1788050016748186600,20.3361865234375,9.816226959228516,-0.4692635238170624,0.22026655077934265
1788050016764630500,20.352630615234375,9.964667320251465,-0.4644751250743866,0.17956513166427612
1788050016780199400,20.368199462890626,10.101137161254883,-0.45250412821769714,0.11971008777618408
1788050016796587800,20.384587890625,10.237606048583984,-0.43095630407333374,0.019153613597154617
1788050016812391200,20.40039111328125,10.316615104675293,-0.40462008118629456,-0.026336219161748886
1788050016828770800,20.416770751953123,10.235212326049805,-0.4213795065879822,-0.12928688526153564
1788050016845000400,20.43300048828125,10.129867553710938,-0.43335050344467163,-0.19393034279346466
1788050016861041200,20.449041259765625,10.11789608001709,-0.43335050344467163,-0.14365209639072418
1788050016877036800,20.465036865234374,10.180145263671875,-0.40222588181495667,-0.09816227108240128
1788050016892779800,20.48077978515625,10.1753568649292,-0.3734954595565796,-0.038307227194309235
1788050016909018400,20.497018310546874,9.943120002746582,-0.33518823981285095,0.08858546614646912
1788050016925043000,20.51304296875,9.66299819946289,-0.26815059781074524,0.15322890877723694
