time,seconds_elapsed,z,y,x
1788049439191839700,0.18783984375,0.009606599807739258,0.05219078063964844,-0.0008415579795837402
1788049439208366600,0.20436669921875,0.03413426876068115,0.02490711212158203,-0.05054566264152527
1788049439231996700,0.22799658203125,0.10205018520355225,-0.00811004638671875,-0.04562222957611084
1788049439248416000,0.244416015625,0.029252171516418457,-0.01750946044921875,-0.0030783861875534058
1788049439264045600,0.260045654296875,-0.08746743202209473,-0.005253791809082031,0.04214403033256531
1788049439280029200,0.276029296875,-0.08236205577850342,-0.01238250732421875,0.02888590097427368
1788049439296298200,0.29229833984375,-0.02241957187652588,-0.04617595672607422,0.08436521887779236
1788049439312110600,0.308110595703125,-0.0032911300659179688,-0.03629493713378906,0.020769238471984863
1788049439328375600,0.32437548828125,0.05218315124511719,0.01922130584716797,-0.05567365884780884
1788049439344217000,0.340217041015625,0.010657191276550293,-0.004984855651855469,0.024448513984680176
1788049439360208400,0.35620849609375,-0.12083172798156738,0.037962913513183594,0.04448561370372772
1788049439384256500,0.380256591796875,-0.0006978511810302734,0.11885452270507812,-0.10017593204975128
1788049439400261600,0.39626171875,0.17538011074066162,0.10910415649414062,-0.0946197658777237
1788049439416533800,0.41253369140625,0.20457196235656738,0.0952301025390625,-0.012820318341255188
1788049439432334800,0.4283349609375,0.10334372520446777,0.08965492248535156,0.04335106909275055
1788049439448660500,0.444660400390625,-0.024126291275024414,0.10055828094482422,0.046325117349624634
1788049439464392700,0.460392822265625,-0.08137726783752441,0.0698251724243164,0.028543666005134583
1788049439480423000,0.4764228515625,-0.08130466938018799,0.07616901397705078,0.018321841955184937
1788049439496648700,0.492648681640625,-0.013777017593383789,0.0665273666381836,-0.09279109537601471
1788049439512404700,0.50840478515625,0.051111578941345215,0.06888675689697266,-0.09213350713253021
1788049439528789500,0.52478955078125,0.044969916343688965,0.07825565338134766,-0.07348260283470154
1788049439544480000,0.54047998046875,-0.0009057521820068359,0.04192543029785156,-0.03469604253768921
1788049439560433000,0.556432861328125,0.03906607627868652,0.036772727966308594,-0.05391453206539154
1788049439576811000,0.57281103515625,0.08272290229797363,0.00548553466796875,-0.02346503734588623
1788049439592486100,0.588486083984375,0.05255270004272461,-0.01869964599609375,0.01154986023902893
1788049439609047000,0.605047119140625,-0.057568907737731934,-0.059917449951171875,-0.0013429373502731323
1788049439624559900,0.620559814453125,-0.13442790508270264,-0.08432674407958984,0.03110504150390625
1788049439640781000,0.636781005859375,-0.15141844749450684,-0.11307048797607422,0.10930003225803375
1788049439656794000,0.652794189453125,-0.11522054672241211,-0.13664531707763672,0.06662087887525558
1788049439672554200,0.66855419921875,-0.043508052825927734,-0.071044921875,-0.05378653109073639
1788049439688934700,0.6849345703125,-0.017937660217285156,-0.0196533203125,-0.10784691572189331
1788049439704712700,0.700712646484375,-0.009169340133666992,0.024572372436523438,-0.13064473867416382
1788049439720575000,0.716574951171875,-0.04753577709197998,0.051898956298828125,-0.21100862324237823
1788049439736870700,0.73287060546875,-0.04426419734954834,0.08384132385253906,-0.23597237467765808
1788049439752664000,0.7486640625,-0.05696451663970947,0.12519550323486328,-0.16852028667926788
1788049439769007900,0.7650078125,-0.07142806053161621,0.11130905151367188,-0.036899104714393616
1788049439784725200,0.780725341796875,-0.06934046745300293,0.11178874969482422,0.01842208206653595
1788049439800694000,0.796694091796875,-0.10979676246643066,0.1480846405029297,0.00958821177482605
1788049439816977200,0.81297705078125,-0.21381962299346924,0.11909198760986328,-0.014672085642814636
1788049439832769000,0.82876904296875,-0.20219945907592773,0.0895071029663086,-0.024356737732887268
1788049439849110300,0.8451103515625,-0.14050745964050293,0.08390617370605469,-0.07219459116458893
1788049439865229300,0.861229248046875,-0.20365607738494873,0.05917644500732422,0.052355632185935974
1788049439880774000,0.87677392578125,-0.4176003932952881,0.09290504455566406,0.07272563129663467
1788049439897063000,0.89306298828125,-0.35552287101745605,0.1443471908569336,-0.0319245308637619
1788049439912888300,0.908888427734375,-0.10354828834533691,0.13245582580566406,-0.18773265182971954
1788049439929213000,0.925212890625,0.011442065238952637,0.1133270263671875,-0.09948036074638367
1788049439944889900,0.940889892578125,-0.017775654792785645,0.12151908874511719,-0.16294950246810913
1788049439960917800,0.956917724609375,-0.09207844734191895,0.1004638671875,-0.09195816516876221
1788049439977183700,0.973183837890625,-0.14799392223358154,0.1198272705078125,-0.15864887833595276
1788049439992961500,0.98896142578125,-0.25657832622528076,0.08849048614501953,-0.12100188434123993
1788049440009377800,1.005377685546875,-0.3709150552749634,0.0900125503540039,-0.23149317502975464
1788049440025026800,1.02102685546875,-0.3965662717819214,0.13181781768798828,-0.1868778020143509
1788049440041102600,1.0371025390625,-0.21339869499206543,0.13323211669921875,-0.08707010746002197
1788049440057315800,1.05331591796875,-0.035576820373535156,0.13363361358642578,0.012201309204101562
1788049440073067000,1.06906689453125,0.05216026306152344,0.11559486389160156,-0.032666295766830444
1788049440089468400,1.085468505859375,0.09062433242797852,0.01883220672607422,-0.012002572417259216
1788049440105150200,1.101150146484375,0.1012880802154541,-0.013052940368652344,0.059288933873176575
1788049440121639700,1.1176396484375,0.12929201126098633,-0.0905609130859375,0.23449470102787018
1788049440145208800,1.141208740234375,-0.08471214771270752,-0.14927387237548828,0.30663901567459106
1788049440161195800,1.15719580078125,-0.3018226623535156,-0.11870861053466797,0.267551451921463
1788049440177446100,1.173446044921875,-0.34341979026794434,-0.07443714141845703,0.24943216145038605
1788049440193242600,1.18924267578125,-0.31010496616363525,0.03661155700683594,0.3116375505924225
1788049440209621500,1.20562158203125,-0.23307836055755615,0.05887889862060547,0.2688642740249634
1788049440225274000,1.221274169921875,-0.11873304843902588,0.07933235168457031,0.29454904794692993
1788049440241279700,1.23727978515625,0.11102163791656494,0.08426761627197266,0.3183285892009735
1788049440257517000,1.25351708984375,0.27723896503448486,0.09081172943115234,0.3296127915382385
1788049440273795300,1.26979541015625,0.3731989860534668,0.0908041000366211,0.38723552227020264
1788049440289677600,1.285677490234375,0.21894586086273193,0.17920780181884766,0.37466275691986084
1788049440305413000,1.3014130859375,-0.06217944622039795,0.2614879608154297,0.3802133798599243
1788049440321440300,1.317440185546875,-0.3293423652648926,0.31379032135009766,0.3595993220806122
1788049440337674200,1.33367431640625,-0.31296277046203613,0.2653970718383789,0.27433162927627563
1788049440353434000,1.34943408203125,-0.08054423332214355,0.19632720947265625,0.18094080686569214
1788049440369894100,1.36589404296875,0.06700992584228516,0.12077713012695312,0.10419073700904846
1788049440385535000,1.381534912109375,0.10821044445037842,0.019125938415527344,0.009372808039188385
1788049440401566500,1.39756640625,-0.1854153871536255,-0.05477333068847656,-0.01870178058743477
1788049440417795000,1.413795166015625,-0.6441396474838257,-0.05870246887207031,0.028180677443742752
1788049440433542700,1.429542724609375,-0.8229132890701294,0.0045604705810546875,-0.06479395925998688
1788049440449893000,1.44589306640625,-0.3739750385284424,0.04623222351074219,-0.05339957773685455
1788049440465652200,1.46165234375,0.16362488269805908,0.09822654724121094,0.0491933673620224
1788049440481701600,1.47770166015625,0.293418288230896,0.14452266693115234,0.21485359966754913
1788049440497933600,1.49393359375,0.16421687602996826,0.1636667251586914,0.1966588795185089
1788049440513693400,1.509693359375,0.0652930736541748,0.1270151138305664,0.17037701606750488
1788049440530239500,1.526239501953125,0.017729878425598145,-0.007997512817382812,0.1128232479095459
1788049440545750000,1.54175,-0.02130115032196045,-0.1384744644165039,0.15996786952018738
1788049440561740500,1.557740478515625,-0.1669907569885254,-0.26482391357421875,0.2043953239917755
1788049440577992400,1.573992431640625,-0.5255258083343506,-0.37099647521972656,0.2579439580440521
1788049440593741300,1.5897412109375,-0.8615126609802246,-0.3254098892211914,0.2692781388759613
1788049440610060800,1.606060791015625,-0.9455019235610962,-0.2739715576171875,0.31614014506340027
1788049440625809000,1.621808837890625,-0.8426458835601807,-0.14059925079345703,0.2907750904560089
1788049440641804300,1.63780419921875,-0.7085533738136292,-0.07614994049072266,0.27177199721336365
1788049440658027500,1.654027587890625,-0.44222354888916016,0.015453338623046875,0.21623627841472626
1788049440673790500,1.66979052734375,-0.15893816947937012,0.0963277816772461,0.17474807798862457
1788049440690242800,1.686242919921875,0.02848649024963379,0.11101150512695312,0.052002280950546265
1788049440705926700,1.7019267578125,-0.005925178527832031,0.14111042022705078,-0.009688159450888634
1788049440721934300,1.717934326171875,-0.03314554691314697,0.14526748657226562,0.017933715134859085
1788049440738410200,1.73441015625,-0.22211992740631104,0.11094093322753906,-0.05412585288286209
1788049440753962500,1.74996240234375,-0.42740535736083984,0.09731006622314453,-0.14594927430152893
1788049440770465300,1.76646533203125,-0.3993879556655884,0.09749794006347656,-0.18224076926708221
1788049440786465000,1.782465087890625,-0.12454640865325928,0.10562419891357422,-0.10832914710044861
1788049440802055700,1.7980556640625,0.09160029888153076,0.12908649444580078,-0.08992109447717667
1788049440818338000,1.814338134765625,0.15183913707733154,0.25076770782470703,-0.04870791733264923
1788049440834119200,1.830119140625,-0.15052711963653564,0.4792366027832031,0.012447979301214218
1788049440850534100,1.8465341796875,-0.5336343050003052,0.7899084091186523,0.003050033003091812
1788049440866610700,1.862610595703125,-0.7066017985343933,0.9798974990844727,-0.013837385922670364
1788049440882488600,1.878488525390625,-0.4319645166397095,1.083230972290039,0.24525925517082214
1788049440898487800,1.89448779296875,0.23023295402526855,1.024693489074707,0.28771600127220154
1788049440914341600,1.910341552734375,1.2122939825057983,0.8423051834106445,-0.02817191183567047
1788049440930557400,1.926557373046875,1.6681727170944214,0.5911865234375,-0.22890286147594452
1788049440946342000,1.942341796875,1.5200133323669434,0.4640083312988281,-0.3722355365753174
1788049440962430500,1.958430419921875,1.157175064086914,0.4980201721191406,-0.5389142632484436
1788049440978568000,1.97456787109375,1.064260482788086,0.439605712890625,-0.5766595005989075
1788049440994378500,1.99037841796875,1.3945244550704956,0.22456836700439453,-0.5026613473892212
1788049441010771000,2.00677099609375,1.64224374294281,-0.07510757446289062,-0.3343234360218048
1788049441026360800,2.02236083984375,1.688043475151062,-0.3165864944458008,-0.3955123722553253
1788049441042872800,2.038872802734375,1.606074333190918,-0.5702800750732422,-0.45662498474121094
1788049441058618400,2.054618408203125,1.111296534538269,-0.7276010513305664,-0.6429483294487
1788049441074395100,2.07039501953125,0.3564246892929077,-0.7767429351806641,-0.8417632579803467
1788049441090681900,2.086681884765625,-0.22214043140411377,-0.7449798583984375,-1.0128467082977295
1788049441106436400,2.102436279296875,-0.24696195125579834,-0.5831623077392578,-0.9267833828926086
1788049441122441700,2.118441650390625,0.1403895616531372,-0.4578828811645508,-0.8278306126594543
1788049441138728200,2.134728271484375,0.5971096754074097,-0.3642444610595703,-0.5682742595672607
1788049441154467000,2.150467041015625,0.8831324577331543,-0.24025249481201172,-0.42122751474380493
1788049441170897200,2.166897216796875,1.2093238830566406,-0.06516075134277344,-0.3524734377861023
1788049441186555000,2.182554931640625,1.4739155769348145,0.05848503112792969,-0.2943868637084961
1788049441202602500,2.1986025390625,1.4584364891052246,0.14285564422607422,-0.26594430208206177
1788049441218999600,2.21499951171875,1.027780294418335,0.05202484130859375,-0.08519378304481506
1788049441234617900,2.230617919921875,0.35636019706726074,-0.0777740478515625,0.24876900017261505
1788049441250956500,2.24695654296875,-0.2250272035598755,-0.24906635284423828,0.5342094898223877
1788049441266754000,2.262754150390625,-0.6123580932617188,-0.3511676788330078,0.5570862293243408
1788049441282770400,2.2787705078125,-0.7977892160415649,-0.4652137756347656,0.34385669231414795
1788049441299283200,2.295283203125,-0.6484827995300293,-0.4926176071166992,-0.17195522785186768
1788049441314762200,2.31076220703125,-0.48407137393951416,-0.48299217224121094,-0.6166437268257141
1788049441331192800,2.32719287109375,-0.3812708854675293,-0.4878063201904297,-0.7741855382919312
1788049441347319600,2.343319580078125,-0.33674347400665283,-0.4696474075317383,-0.6488672494888306
1788049441362868000,2.358867919921875,-0.32952892780303955,-0.4190387725830078,-0.3660544753074646
1788049441379121200,2.37512109375,-0.33848464488983154,-0.36513805389404297,-0.19505789875984192
1788049441394868200,2.3908681640625,-0.4068784713745117,-0.30539703369140625,-0.08239245414733887
1788049441411265800,2.407265869140625,-0.4563816785812378,-0.2874870300292969,-0.01250147819519043
1788049441426954200,2.422954345703125,-0.34766173362731934,-0.23386001586914062,0.1354006975889206
1788049441442940400,2.4389404296875,-0.22736752033233643,-0.24196147918701172,0.22868424654006958
1788049441459169500,2.45516943359375,-0.26977503299713135,-0.2453136444091797,0.20922726392745972
1788049441474929200,2.47092919921875,-0.5218687057495117,-0.2851886749267578,0.31128597259521484
1788049441491371300,2.487371337890625,-0.8187837600708008,-0.17864418029785156,0.14311698079109192
1788049441506980000,2.50297998046875,-0.8706305027008057,-0.08456134796142578,0.02138356864452362
1788049441523014700,2.5190146484375,-0.7290414571762085,0.0049571990966796875,0.03902122378349304
1788049441539308500,2.53530859375,-0.6892552375793457,0.06319904327392578,0.15297259390354156
1788049441554957300,2.550957275390625,-0.6104317903518677,0.11908531188964844,0.0453597754240036
1788049441571306500,2.567306396484375,-0.418587327003479,0.24689769744873047,-0.029064476490020752
1788049441587035100,2.58303515625,-0.2599351406097412,0.3182792663574219,-0.08008009195327759
1788049441603509500,2.599509521484375,-0.14889216423034668,0.4452695846557617,-0.15615881979465485
1788049441619275000,2.61527490234375,-0.12559103965759277,0.544835090637207,-0.35524147748947144
1788049441635031300,2.63103125,-0.0388491153717041,0.6379461288452148,-0.521729052066803
1788049441651505400,2.64750537109375,0.06482505798339844,0.7625551223754883,-0.4448734521865845
1788049441667126300,2.663126220703125,-0.10065007209777832,1.0040597915649414,-0.2107449769973755
1788049441683124500,2.67912451171875,-0.5982447862625122,1.1291322708129883,0.15418781340122223
1788049441699397600,2.695397705078125,-0.9634515047073364,1.355443000793457,0.6973530054092407
1788049441715165200,2.711165283203125,-0.5547348260879517,1.4351587295532227,1.3075824975967407
1788049441731476200,2.727476318359375,0.3124607801437378,1.391219139099121,1.5472066402435303
1788049441747221200,2.74322119140625,1.3695746660232544,1.150120735168457,1.0723226070404053
1788049441763221500,2.759221435546875,2.1626625061035156,0.7404956817626953,0.5676376819610596
1788049441779563000,2.77556298828125,2.4799723625183105,0.2753591537475586,-0.037420809268951416
1788049441795256000,2.791256103515625,2.258890151977539,-0.22217464447021484,-0.4713309705257416
1788049441811709400,2.80770947265625,1.7006031274795532,-0.6928615570068359,-0.5324404239654541
1788049441827509000,2.823509033203125,0.7546824216842651,-0.7654476165771484,-0.553781270980835
1788049441843365400,2.839365478515625,0.01327359676361084,-0.8142328262329102,-0.4189896583557129
1788049441859845400,2.855845458984375,-0.2417231798171997,-0.5891408920288086,-0.0030725300312042236
1788049441875335000,2.8713349609375,-0.20940613746643066,-0.4117851257324219,0.6707196235656738
1788049441891681500,2.887681640625,-0.02055180072784424,-0.22853565216064453,1.1681263446807861
1788049441907424300,2.90342431640625,0.421578049659729,0.03313255310058594,1.3490166664123535
1788049441923437800,2.919437744140625,1.1416388750076294,0.20705890655517578,1.4420859813690186
1788049441939693000,2.935693115234375,1.808777093887329,0.2835111618041992,1.5205565690994263
1788049441955471000,2.95147119140625,2.018726348876953,0.10881233215332031,1.299797534942627
1788049441971910400,2.967910400390625,1.6284862756729126,-0.09657859802246094,0.7186293601989746
1788049441987573500,2.983573486328125,1.1077183485031128,-0.37496280670166016,0.09032793343067169
1788049442003555300,2.999555419921875,0.5168943405151367,-0.7165002822875977,-0.1548117995262146
1788049442019811300,3.015811279296875,-0.11710202693939209,-0.9388036727905273,-0.13640373945236206
1788049442035573500,3.031573486328125,-0.7223259210586548,-1.0051326751708984,-0.19686144590377808
1788049442051872300,3.047872314453125,-0.9921203851699829,-1.0387506484985352,-0.004565984010696411
1788049442067645400,3.0636455078125,-1.1381406784057617,-0.9937906265258789,0.2198459953069687
1788049442083658000,3.079657958984375,-1.2251337766647339,-0.8466701507568359,0.5501052141189575
1788049442099902000,3.09590185546875,-1.140101671218872,-0.6662969589233398,0.7228776216506958
1788049442116184800,3.112184814453125,-0.9690272808074951,-0.4047212600708008,0.665398120880127
1788049442132142600,3.128142578125,-0.6159534454345703,-0.18166160583496094,0.5449889302253723
1788049442147835400,3.14383544921875,-0.23979723453521729,0.03793048858642578,0.4004576802253723
1788049442163894500,3.15989453125,0.37786388397216797,0.1290302276611328,0.29766687750816345
1788049442180342500,3.176342529296875,0.8868329524993896,0.0950765609741211,0.27114421129226685
1788049442195924700,3.1919248046875,1.0132076740264893,0.030437469482421875,0.36339375376701355
1788049442212224800,3.208224853515625,0.6224522590637207,-0.09081268310546875,0.5382540225982666
1788049442228068600,3.224068603515625,-0.04408979415893555,-0.15765953063964844,0.7595254182815552
1788049442244111400,3.240111328125,-0.8559036254882812,-0.1582622528076172,0.9438347816467285
1788049442260343600,3.256343505859375,-1.4799764156341553,-0.1326131820678711,0.9183096289634705
1788049442276119600,3.27211962890625,-1.7636781930923462,-0.017600059509277344,0.7403489947319031
1788049442292547000,3.288547119140625,-1.5300127267837524,0.13550186157226562,0.3738414943218231
1788049442308191700,3.304191650390625,-0.9985347986221313,0.26273536682128906,0.0888303816318512
1788049442324295400,3.32029541015625,-0.4384089708328247,0.3654651641845703,0.09395604580640793
1788049442340440300,3.3364404296875,0.1021280288696289,0.5021171569824219,0.17681144177913666
1788049442356259300,3.35225927734375,0.5031980276107788,0.5348825454711914,0.3477051854133606
1788049442372747800,3.368747802734375,0.7886708974838257,0.5725555419921875,0.35755351185798645
1788049442388366800,3.384366943359375,0.8685694932937622,0.5226144790649414,0.2468605637550354
1788049442404336400,3.40033642578125,0.5249687433242798,0.5824203491210938,0.14035393297672272
1788049442420699600,3.41669970703125,-0.3767406940460205,0.874053955078125,0.10075345635414124
1788049442436334800,3.4323349609375,-1.2423982620239258,1.1163177490234375,-0.2503194510936737
1788049442452800500,3.448800537109375,-1.5316243171691895,1.3508968353271484,-0.3060375452041626
1788049442468403700,3.46440380859375,-0.8378824591636658,1.513956069946289,-0.526153028011322
1788049442484423200,3.480423095703125,0.4383317232131958,1.5279350280761719,-0.7365069389343262
1788049442500687000,3.49668701171875,1.6563363075256348,1.3307256698608398,-0.6939762234687805
1788049442516547300,3.51254736328125,2.806230068206787,0.8867130279541016,-0.7203451991081238
1788049442532845300,3.52884521484375,3.332585334777832,0.44822025299072266,-1.1069117784500122
1788049442548732200,3.544732177734375,2.9666149616241455,-0.14480972290039062,-1.2817468643188477
1788049442564671000,3.5606708984375,1.558396577835083,-0.4892301559448242,-0.8986594676971436
1788049442580911900,3.576911865234375,0.32972443103790283,-0.6477804183959961,-0.7593564987182617
1788049442596753400,3.59275341796875,-0.2953946590423584,-0.7665195465087891,-0.71473228931427
1788049442613149700,3.609149658203125,-0.2473134994506836,-0.7790613174438477,-0.5809037089347839
1788049442629278700,3.62527880859375,-0.13632488250732422,-0.7448005676269531,-0.39973846077919006
1788049442644932000,3.64093212890625,-0.19960176944732666,-0.614354133605957,-0.3995978534221649
1788049442661161500,3.657161376953125,-0.17017841339111328,-0.4589500427246094,-0.3896715044975281
1788049442676919300,3.672919189453125,0.21580004692077637,-0.36612415313720703,-0.19952332973480225
1788049442693247000,3.6892470703125,0.6230224370956421,-0.29757118225097656,-0.02002776600420475
1788049442709024800,3.705024658203125,1.0240294933319092,-0.31987667083740234,0.07181728631258011
1788049442725053400,3.721053466796875,1.2250945568084717,-0.4190549850463867,0.03492284566164017
1788049442741323300,3.7373232421875,1.1593329906463623,-0.5774221420288086,-0.06356237083673477
1788049442757376500,3.75337646484375,0.5759773254394531,-0.6648788452148438,-0.1997247040271759
1788049442773590800,3.7695908203125,-0.13635778427124023,-0.7553558349609375,-0.3074813187122345
1788049442789245400,3.785245361328125,-0.6051594018936157,-0.8098011016845703,-0.274920254945755
1788049442805239000,3.801239013671875,-0.764418363571167,-0.8417530059814453,-0.19388650357723236
1788049442821506300,3.81750634765625,-0.7269153594970703,-0.7955236434936523,-0.20715691149234772
1788049442837241000,3.833240966796875,-0.48418736457824707,-0.6623907089233398,-0.237253338098526
1788049442853712100,3.849712158203125,-0.11637091636657715,-0.5479850769042969,-0.21001024544239044
1788049442869531000,3.86553076171875,-0.04085540771484375,-0.44422054290771484,-0.26705315709114075
1788049442885816300,3.88181640625,-0.32253265380859375,-0.3598966598510742,-0.44145870208740234
1788049442901618700,3.89761865234375,-0.6680938005447388,-0.2923088073730469,-0.6429685354232788
1788049442917365800,3.91336572265625,-0.9019503593444824,-0.2045736312866211,-0.725507378578186
1788049442933860400,3.9298603515625,-0.9234440326690674,-0.1679677963256836,-0.5600973963737488
1788049442949467000,3.945466796875,-0.7858682870864868,-0.17461872100830078,-0.43343937397003174
1788049442965487900,3.96148779296875,-0.6316077709197998,-0.15774250030517578,-0.26949000358581543
1788049442981945000,3.977945068359375,-0.556126594543457,-0.0029544830322265625,-0.30455461144447327
1788049442997517800,3.993517822265625,-0.5271410942077637,0.20151233673095703,-0.46673959493637085
1788049443013919200,4.009919189453125,-0.5576208829879761,0.38072776794433594,-0.5909598469734192
1788049443029625900,4.0256259765625,-0.4545605182647705,0.524409294128418,-0.5250248908996582
1788049443045616400,4.041616455078125,-0.09057497978210449,0.6873979568481445,-0.4508414566516876
1788049443062125000,4.058125,0.24971795082092285,0.7573909759521484,-0.27927374839782715
1788049443077674200,4.07367431640625,0.4285653829574585,0.8480854034423828,-0.12930560111999512
1788049443094137000,4.09013720703125,0.3744453191757202,0.9178152084350586,0.03850947320461273
1788049443109846000,4.105845947265625,-0.18955564498901367,1.3170738220214844,-0.03186258673667908
1788049443125854500,4.1218544921875,-1.0823765993118286,1.6142358779907227,-0.02742956578731537
1788049443142120000,4.138119873046875,-1.479264259338379,1.9435968399047852,0.5703834891319275
1788049443157958700,4.153958740234375,-0.20688176155090332,2.1161928176879883,0.928912878036499
1788049443174283000,4.170282958984375,2.037614583969116,1.9302349090576172,0.7659296989440918
1788049443190458400,4.186458251953125,3.6122989654541016,1.488865852355957,0.6483867764472961
1788049443206355500,4.20235546875,4.2541632652282715,0.7247543334960938,0.3574863076210022
1788049443222328800,4.218328857421875,3.5045347213745117,-0.051482200622558594,-0.04954144358634949
1788049443238310000,4.234309814453125,2.034841537475586,-0.43918800354003906,-0.38241589069366455
1788049443254617900,4.250617919921875,0.6317923069000244,-0.7771883010864258,-0.5562073588371277
1788049443270328000,4.266328125,-0.17246150970458984,-0.7772293090820312,-0.35575759410858154
1788049443286355200,4.282355224609375,-0.2189110517501831,-0.637639045715332,0.447706937789917
1788049443302650000,4.298650146484375,-0.0024073123931884766,-0.5097894668579102,1.2785604000091553
1788049443318577200,4.3145771484375,0.11753928661346436,-0.4994478225708008,1.815138339996338
1788049443334646800,4.330646728515625,0.06098532676696777,-0.5181999206542969,1.9857401847839355
1788049443350497000,4.3464970703125,0.3267322778701782,-0.6295480728149414,1.9048309326171875
1788049443366356500,4.3623564453125,0.8324764966964722,-0.7476663589477539,1.3931047916412354
1788049443382664200,4.378664306640625,1.1215462684631348,-0.8232698440551758,0.6275482773780823
1788049443398426000,4.394426025390625,0.9725093841552734,-0.9378767013549805,-0.004735797643661499
1788049443414927400,4.41092724609375,0.6585665941238403,-1.0298652648925781,-0.3848123550415039
1788049443430752000,4.426751953125,0.37641942501068115,-1.0898513793945312,-0.5752210021018982
1788049443446985700,4.44298583984375,0.09201681613922119,-1.163447380065918,-0.5347519516944885
1788049443462848500,4.4588486328125,-0.25450289249420166,-1.2229061126708984,-0.2450122982263565
1788049443478649300,4.4746494140625,-0.6394355297088623,-1.1163196563720703,0.001751527190208435
1788049443494895400,4.490895263671875,-0.9531222581863403,-1.0115461349487305,0.1756386011838913
1788049443510698200,4.5066982421875,-0.8978050947189331,-0.8330841064453125,0.3444385826587677
1788049443526723600,4.5227236328125,-0.5374366044998169,-0.7026710510253906,0.4937976598739624
1788049443542952700,4.53895263671875,-0.29803287982940674,-0.5571155548095703,0.6472443342208862
1788049443558755800,4.554755859375,-0.1139761209487915,-0.41960620880126953,0.7516191601753235
1788049443575181600,4.571181640625,-0.13644897937774658,-0.31931400299072266,0.6424927115440369
1788049443590866000,4.586865966796875,-0.25220417976379395,-0.2582826614379883,0.482293963432312
1788049443606815500,4.6028154296875,-0.36715829372406006,-0.2055521011352539,0.2559331953525543
1788049443623042300,4.619042236328125,-0.3717881441116333,-0.1107797622680664,0.13633739948272705
1788049443638829600,4.63482958984375,-0.29831361770629883,-0.0527801513671875,0.19500526785850525
1788049443655182800,4.651182861328125,-0.49797630310058594,-0.023163795471191406,0.45107290148735046
1788049443670976500,4.6669765625,-0.8244009017944336,0.06576347351074219,0.5121116042137146
1788049443687075800,4.683075927734375,-1.0391221046447754,0.13777828216552734,0.4149129390716553
1788049443703516700,4.6995166015625,-1.0337786674499512,0.2896575927734375,0.27772974967956543
1788049443719113700,4.71511376953125,-0.8185869455337524,0.4415912628173828,0.19014029204845428
1788049443735614500,4.731614501953125,-0.5430953502655029,0.642094612121582,0.2935527563095093
1788049443751333000,4.7473330078125,-0.16902732849121094,0.7915706634521484,0.513114333152771
1788049443767317200,4.763317138671875,0.42934489250183105,0.9259204864501953,0.8787129521369934
1788049443783526400,4.7795263671875,0.9430444240570068,0.8886203765869141,1.0837974548339844
1788049443799659500,4.795659423828125,0.8158899545669556,1.1701107025146484,0.7053235769271851
1788049443815612400,4.8116123046875,0.18499970436096191,1.5167160034179688,-0.009610414505004883
1788049443831412700,4.827412841796875,-0.4516739845275879,1.7559928894042969,-0.7708020210266113
1788049443847437600,4.8434375,-0.12481391429901123,1.9751977920532227,-1.1611275672912598
1788049443863719700,4.8597197265625,0.9595439434051514,2.1236696243286133,-1.4945228099822998
1788049443879479300,4.875479248046875,2.275141716003418,2.0125722885131836,-1.8265163898468018
1788049443895926300,4.89192626953125,3.216994285583496,1.809199333190918,-1.7006269693374634
1788049443911617300,4.9076171875,3.6721277236938477,1.2731513977050781,-0.9039838314056396
1788049443927605800,4.923605712890625,3.6834897994995117,0.676060676574707,-0.14006692171096802
1788049443943903700,4.93990380859375,2.8900861740112305,0.2177906036376953,0.29923081398010254
1788049443960145000,4.956144775390625,1.658578872680664,-0.2442798614501953,0.4252721071243286
1788049443975996200,4.97199609375,0.69008469581604,-0.6325769424438477,0.23550298810005188
1788049443991827700,4.98782763671875,0.20649361610412598,-0.8997917175292969,0.014606617391109467
1788049444007837700,5.003837646484375,-0.07471835613250732,-1.098154067993164,-0.32196518778800964
1788049444024098800,5.020098876953125,-0.20795440673828125,-1.246683120727539,-0.4207274913787842
1788049444039911400,5.035911376953125,0.012332439422607422,-1.3401803970336914,-0.34552550315856934
1788049444056385000,5.052385009765625,0.44958972930908203,-1.4075193405151367,-0.22398704290390015
1788049444072059000,5.068058837890625,0.7227706909179688,-1.3967199325561523,-0.15824498236179352
1788049444088053200,5.08405322265625,0.7585598230361938,-1.3191556930541992,-0.18735504150390625
1788049444104317400,5.1003173828125,0.47933173179626465,-1.2497692108154297,-0.24012190103530884
1788049444120036000,5.1160361328125,0.15716922283172607,-1.1601619720458984,-0.15767039358615875
1788049444136400000,5.13239990234375,-0.09931230545043945,-1.0946874618530273,0.06043342873454094
1788049444152255500,5.14825537109375,-0.12103736400604248,-1.045079231262207,0.22986704111099243
1788049444168500700,5.164500732421875,0.057846903800964355,-1.0183420181274414,0.38021719455718994
1788049444184522000,5.18052197265625,0.2672438621520996,-0.9641494750976562,0.3347311317920685
1788049444200301000,5.196301025390625,0.35306501388549805,-0.9148178100585938,0.28705400228500366
1788049444216809200,5.212809326171875,0.02314317226409912,-0.8425350189208984,0.3501964211463928
1788049444232664300,5.228664306640625,-0.44206225872039795,-0.7210941314697266,0.3198360800743103
1788049444248461300,5.24446142578125,-0.7051856517791748,-0.6329612731933594,0.26019346714019775
1788049444264912400,5.260912353515625,-0.636569619178772,-0.624699592590332,0.26243865489959717
1788049444280504000,5.276504150390625,-0.46983158588409424,-0.5964126586914062,0.1323407143354416
1788049444296820700,5.29282080078125,-0.34467387199401855,-0.6465635299682617,-0.008611172437667847
1788049444312575200,5.3085751953125,-0.12361788749694824,-0.6484031677246094,-0.11816635727882385
1788049444328733000,5.32473291015625,-0.03004920482635498,-0.6620607376098633,-0.2452797144651413
1788049444344850700,5.3408505859375,-0.2138228416442871,-0.42293643951416016,-0.6177896857261658
1788049444360620000,5.3566201171875,-0.3289144039154053,-0.11180591583251953,-1.1825515031814575
1788049444377135600,5.373135498046875,-0.1560835838317871,0.3630504608154297,-1.4792802333831787
1788049444392687400,5.388687255859375,0.15414416790008545,0.8584966659545898,-1.608789086341858
1788049444408670000,5.404669921875,0.556768536567688,1.1678247451782227,-1.248603343963623
1788049444425072000,5.421072021484375,0.8648699522018433,1.4718761444091797,-0.762986958026886
1788049444440771300,5.436771240234375,1.1291632652282715,1.582733154296875,-0.29829496145248413
1788049444457059300,5.453059326171875,1.2572662830352783,1.636765480041504,-0.06076572835445404
1788049444472987600,5.468987548828125,0.8221752643585205,1.8466167449951172,-0.2040022313594818
1788049444488845600,5.484845458984375,-0.17926156520843506,2.3488006591796875,-0.4295005798339844
1788049444505080600,5.50108056640625,-1.2810075283050537,2.4076833724975586,-0.05427519977092743
1788049444521405200,5.5174052734375,-1.254307508468628,2.4654455184936523,0.6940455436706543
1788049444537300200,5.53330029296875,0.6979676485061646,2.0396251678466797,1.2466175556182861
1788049444553068000,5.549068115234375,3.4450058937072754,1.2275524139404297,1.1442159414291382
1788049444569077800,5.565077880859375,5.157989025115967,0.37704944610595703,0.8055156469345093
1788049444585306400,5.581306396484375,5.1864237785339355,-0.5430984497070312,-0.15087299048900604
1788049444601107700,5.597107666015625,3.154590606689453,-1.012690544128418,-0.9765870571136475
1788049444617546500,5.61354638671875,1.1657781600952148,-1.022639274597168,-1.1435620784759521
1788049444633302300,5.62930224609375,-0.6638838052749634,-0.771942138671875,-0.9948240518569946
1788049444649294000,5.645294189453125,-1.1843125820159912,-0.5734071731567383,-0.29175299406051636
1788049444665531100,5.66153125,-0.6259664297103882,-0.4479970932006836,0.6203098297119141
1788049444681402400,5.67740234375,0.23043036460876465,-0.38893985748291016,1.123468279838562
1788049444697798000,5.6937978515625,1.0583900213241577,-0.4385080337524414,1.3177282810211182
1788049444713450000,5.709449951171875,1.857032060623169,-0.5188283920288086,1.4930191040039062
1788049444729541000,5.725541015625,2.124638080596924,-0.7011089324951172,1.2930604219436646
1788049444745740800,5.74174072265625,2.006823778152466,-0.8941898345947266,0.6356500387191772
1788049444761506800,5.7575068359375,1.699796199798584,-1.0205888748168945,-0.14637188613414764
1788049444778047000,5.774046875,0.984344482421875,-1.1526203155517578,-0.5631763339042664
1788049444793584400,5.78958447265625,0.12625932693481445,-1.2092809677124023,-0.6622153520584106
1788049444809628700,5.805628662109375,-0.471305251121521,-1.2456512451171875,-0.754418134689331
1788049444825894000,5.821893798828125,-0.6822363138198853,-1.2064399719238281,-0.6742293834686279
1788049444841763800,5.837763916015625,-0.6826127767562866,-1.1076946258544922,-0.36491498351097107
1788049444858069200,5.8540693359375,-0.5390133857727051,-1.025629997253418,-0.060973234474658966
1788049444873799700,5.869799560546875,-0.3701317310333252,-0.9034652709960938,0.23550942540168762
1788049444889798400,5.88579833984375,-0.2444983720779419,-0.778294563293457,0.3894365429878235
1788049444906250500,5.90225048828125,-0.15155363082885742,-0.6814432144165039,0.4278185963630676
1788049444921813000,5.91781298828125,-0.13643360137939453,-0.5422210693359375,0.46240007877349854
1788049444938336500,5.93433642578125,-0.18645834922790527,-0.4326362609863281,0.36576253175735474
1788049444953964500,5.949964599609375,-0.24837160110473633,-0.36296844482421875,0.2922448515892029
1788049444969930800,5.9659306640625,-0.30041658878326416,-0.26570987701416016,0.2582537531852722
1788049444986263600,5.982263671875,-0.3097485303878784,-0.21015548706054688,0.2729325592517853
1788049445002038800,5.998038818359375,-0.26431751251220703,-0.14365005493164062,0.36639702320098877
1788049445018484000,6.01448388671875,-0.13174915313720703,-0.0012750625610351562,0.5240940451622009
1788049445034560800,6.030560791015625,-0.20796442031860352,0.08694076538085938,0.5907803773880005
1788049445050545700,6.046545654296875,-0.2978259325027466,0.19019508361816406,0.564982533454895
1788049445066577400,6.062577392578125,-0.30247747898101807,0.3208599090576172,0.4063885509967804
1788049445082248400,6.07824853515625,-0.30875658988952637,0.48680591583251953,0.20073096454143524
1788049445098651600,6.094651611328125,-0.47711431980133057,0.7454776763916016,-0.15801352262496948
1788049445114414800,6.110414794921875,-0.4596482515335083,0.8905124664306641,-0.208666130900383
1788049445130355500,6.12635546875,0.15079283714294434,0.9650945663452148,-0.059297408908605576
1788049445146625500,6.14262548828125,1.0688886642456055,0.8313989639282227,0.29322367906570435
1788049445162865200,6.158865234375,1.6317696571350098,0.8803768157958984,0.5237587690353394
1788049445178867000,6.174866943359375,1.0191996097564697,1.1162691116333008,0.20841917395591736
1788049445194543400,6.19054345703125,-0.39135658740997314,1.371150016784668,-0.14438626170158386
1788049445210571000,6.206571044921875,-1.1975116729736328,1.7467575073242188,-0.4022705852985382
1788049445226805200,6.22280517578125,-0.7283322811126709,2.0308218002319336,-0.7847548723220825
1788049445242598000,6.238597900390625,0.7595360279083252,2.0873584747314453,-0.9766335487365723
1788049445259078700,6.25507861328125,2.771352767944336,1.823451042175293,-1.0856719017028809
1788049445274797600,6.270797607421875,4.294532775878906,1.336613655090332,-0.8170756697654724
1788049445291231200,6.287231201171875,4.49367618560791,0.6893844604492188,-0.7760246992111206
1788049445307229000,6.30322900390625,3.137418746948242,0.06079292297363281,-0.8321207165718079
1788049445322852900,6.318852783203125,1.7064194679260254,-0.3213996887207031,-1.0272952318191528
1788049445339349500,6.335349609375,0.8416236639022827,-0.6971778869628906,-1.0394699573516846
1788049445354952700,6.35095263671875,0.35704636573791504,-0.9637155532836914,-0.928827166557312
1788049445371015200,6.36701513671875,-0.0806117057800293,-1.013925552368164,-0.8025833368301392
1788049445387267000,6.38326708984375,-0.4098951816558838,-0.9968509674072266,-0.9417212009429932
1788049445403072800,6.39907275390625,-0.3146301507949829,-0.9406948089599609,-0.8997837901115417
1788049445419446500,6.415446533203125,0.2325993776321411,-0.9041948318481445,-0.6031932830810547
1788049445435144700,6.431144775390625,0.8522119522094727,-0.8568449020385742,-0.2997945547103882
1788049445451137300,6.44713720703125,1.338525652885437,-0.8291826248168945,-0.023002982139587402
1788049445467434800,6.463434814453125,1.5482009649276733,-0.80877685546875,0.24437808990478516
1788049445483176400,6.479176513671875,1.4336507320404053,-0.9121208190917969,0.18235008418560028
1788049445499615700,6.49561572265625,0.9141392707824707,-1.0369625091552734,0.16499972343444824
1788049445515311600,6.5113115234375,0.29988908767700195,-1.127889633178711,0.1984902024269104
1788049445531341600,6.527341552734375,-0.21725594997406006,-1.2129745483398438,0.17866848409175873
1788049445547603700,6.543603759765625,-0.6286438703536987,-1.2378864288330078,0.1539139598608017
1788049445563519700,6.559519775390625,-0.7130075693130493,-1.2668828964233398,-0.02447422593832016
1788049445579761000,6.575760986328125,-0.656373143196106,-1.1788911819458008,-0.12828560173511505
1788049445595904000,6.591904052734375,-0.5061795711517334,-1.065455436706543,-0.1606859415769577
1788049445611555000,6.60755517578125,-0.3261270523071289,-0.8769721984863281,-0.27054041624069214
1788049445627826700,6.62382666015625,-0.22718441486358643,-0.7190780639648438,-0.20726504921913147
1788049445643694000,6.639694091796875,-0.23286640644073486,-0.5857524871826172,-0.23661798238754272
1788049445660001800,6.656001708984375,-0.26295673847198486,-0.44563865661621094,-0.2792988717556
1788049445675664400,6.671664306640625,-0.21132540702819824,-0.3007793426513672,-0.41213324666023254
1788049445691943200,6.687943115234375,-0.1947002410888672,-0.08791255950927734,-0.47083181142807007
1788049445708035300,6.704035400390625,-0.14128923416137695,0.11215686798095703,-0.5432289242744446
1788049445723684900,6.719684814453125,-0.020476818084716797,0.2966041564941406,-0.6095020174980164
1788049445740073000,6.736072998046875,0.20643210411071777,0.4921913146972656,-0.7178101539611816
1788049445755848200,6.75184814453125,0.2888364791870117,0.7018299102783203,-0.653365969657898
1788049445771946800,6.76794677734375,0.2245020866394043,0.8437080383300781,-0.6406991481781006
1788049445788158000,6.784157958984375,0.09835100173950195,1.0157699584960938,-0.4079679250717163
1788049445804004400,6.80000439453125,0.13721537590026855,1.0156116485595703,-0.19373072683811188
1788049445820262100,6.81626220703125,0.29792094230651855,0.9993476867675781,-0.07034341990947723
1788049445835889200,6.83188916015625,0.2740612030029297,0.9304742813110352,-0.041759997606277466
1788049445852355600,6.84835546875,-0.23193228244781494,1.128809928894043,-0.14049597084522247
1788049445868165400,6.864165283203125,-1.0619282722473145,1.4525556564331055,-0.2992246448993683
1788049445883914000,6.8799140625,-1.4626963138580322,1.4951848983764648,-0.29633769392967224
1788049445900228000,6.89622802734375,-0.9945193529129028,1.511326789855957,0.5233510732650757
1788049445915995000,6.911994873046875,0.15886712074279785,1.477396011352539,1.1291457414627075
1788049445932006000,6.928005859375,1.879878282546997,1.148911476135254,1.3930941820144653
1788049445948262400,6.944262451171875,3.0794596672058105,0.6613969802856445,0.9758654832839966
1788049445964087300,6.96008740234375,3.4215691089630127,0.22104930877685547,-0.19768033921718597
1788049445980508000,6.9765078125,2.918980360031128,-0.20134353637695312,-1.0922054052352905
1788049445996226300,6.992226318359375,2.1329965591430664,-0.39713096618652344,-1.342454195022583
1788049446012267500,7.008267578125,1.0112652778625488,-0.5329751968383789,-0.9041396379470825
1788049446028546600,7.024546630859375,0.28392648696899414,-0.4803438186645508,-0.390826553106308
1788049446044342300,7.04034228515625,0.05753922462463379,-0.4191255569458008,0.39707624912261963
1788049446060710400,7.05671044921875,0.10341024398803711,-0.3980693817138672,1.179621934890747
1788049446076518000,7.072517822265625,0.18459367752075195,-0.4895973205566406,1.5013818740844727
1788049446092556300,7.088556396484375,0.38007450103759766,-0.5690584182739258,1.7006497383117676
1788049446109052200,7.10505224609375,0.5753941535949707,-0.7035331726074219,1.6208398342132568
1788049446124800000,7.120800048828125,0.666395902633667,-0.8603706359863281,1.1484373807907104
1788049446141076700,7.13707666015625,0.7503933906555176,-0.9011449813842773,0.41420918703079224
1788049446156769000,7.15276904296875,0.7154183387756348,-0.9679346084594727,-0.19729602336883545
1788049446172725200,7.168725341796875,0.46894288063049316,-1.0210838317871094,-0.5873153209686279
1788049446189089800,7.18508984375,0.2730712890625,-1.084671974182129,-0.7520163059234619
1788049446204782000,7.200781982421875,0.042452096939086914,-1.092310905456543,-0.7306666970252991
1788049446221108200,7.217108154296875,-0.3128049373626709,-1.1073837280273438,-0.49343380331993103
1788049446236891000,7.232890869140625,-0.6006417274475098,-0.9972019195556641,-0.16176146268844604
1788049446252912400,7.248912353515625,-0.6691900491714478,-0.9077262878417969,0.04491640627384186
1788049446269186300,7.265186279296875,-0.5473847389221191,-0.7516193389892578,0.15012159943580627
1788049446284919000,7.2809189453125,-0.388594388961792,-0.6017980575561523,0.26892799139022827
1788049446301334500,7.29733447265625,-0.2514774799346924,-0.46811771392822266,0.3042459785938263
1788049446317157000,7.3131572265625,-0.2734105587005615,-0.3562936782836914,0.3538239598274231
1788049446333085000,7.3290849609375,-0.2714557647705078,-0.2719297409057617,0.3529483675956726
1788049446349233000,7.34523291015625,-0.19784784317016602,-0.20006752014160156,0.31079497933387756
1788049446365483000,7.36148291015625,-0.12973570823669434,-0.16031837463378906,0.2379845678806305
1788049446381375700,7.377375732421875,-0.2345876693725586,-0.10484504699707031,0.14610914885997772
1788049446397185000,7.39318505859375,-0.3511056900024414,-0.05838966369628906,0.09894231706857681
1788049446413180200,7.40918017578125,-0.4018707275390625,0.06506061553955078,-0.03566518798470497
1788049446429429800,7.4254296875,-0.4298170804977417,0.18889904022216797,-0.10431523621082306
1788049446445270000,7.44127001953125,-0.4258006811141968,0.3946809768676758,-0.06392215192317963
1788049446461696800,7.45769677734375,-0.4138540029525757,0.562199592590332,-0.046268999576568604
1788049446477351400,7.473351318359375,-0.3323711156845093,0.7035350799560547,-0.04322422295808792
1788049446493756000,7.489755859375,-0.14562582969665527,0.8461341857910156,0.07395283877849579
1788049446509665000,7.5056650390625,0.30159950256347656,0.9264516830444336,0.26208266615867615
1788049446525442000,7.521442138671875,0.7146568298339844,0.884058952331543,0.6651669144630432
1788049446541751600,7.53775146484375,0.7777585983276367,0.7574825286865234,0.8447265028953552
1788049446557560800,7.553560791015625,0.15934395790100098,1.0692882537841797,0.5973261594772339
1788049446573877800,7.569877685546875,-0.8377149105072021,1.3238468170166016,0.16637597978115082
1788049446589761300,7.58576123046875,-1.5104341506958008,1.6203203201293945,-0.1960664838552475
1788049446605577200,7.6015771484375,-1.2399247884750366,1.7458648681640625,-0.2533993124961853
1788049446622083600,7.61808349609375,-0.013059377670288086,1.8434247970581055,-0.4794487953186035
1788049446637662000,7.633661865234375,1.4996883869171143,1.7020072937011719,-0.9720879793167114
1788049446653666000,7.649666015625,2.7589757442474365,1.455967903137207,-1.5335279703140259
1788049446670133200,7.66613330078125,3.64764142036438,1.0723276138305664,-1.691536784172058
1788049446685829600,7.68182958984375,3.615187644958496,0.4239683151245117,-1.3348603248596191
1788049446702116900,7.698116943359375,2.8815855979919434,-0.19483661651611328,-0.6695557832717896
1788049446718003500,7.71400341796875,1.5998635292053223,-0.7413864135742188,-0.29688507318496704
1788049446733925000,7.729925048828125,0.2946808338165283,-0.9852218627929688,-0.17151857912540436
1788049446750367000,7.746366943359375,-0.5349922180175781,-1.0633697509765625,-0.0907379686832428
1788049446766374700,7.762374755859375,-0.733137845993042,-0.9570913314819336,0.17699381709098816
1788049446782467300,7.77846728515625,-0.3771709203720093,-0.9074125289916992,0.4782324433326721
1788049446798115600,7.794115478515625,0.09359276294708252,-0.871002197265625,0.6067612171173096
1788049446814138400,7.810138427734375,0.5388730764389038,-0.7360754013061523,0.589239239692688
1788049446830445600,7.826445556640625,0.9176627397537231,-0.6108283996582031,0.456603080034256
1788049446846352000,7.842351806640625,1.1229897737503052,-0.5102453231811523,0.22687721252441406
1788049446862564000,7.858564208984375,1.4105236530303955,-0.5184469223022461,0.07940758764743805
1788049446878710000,7.8747099609375,1.5354748964309692,-0.6289052963256836,0.13880231976509094
1788049446894332400,7.89033251953125,1.269261360168457,-0.8338890075683594,0.10616759210824966
1788049446910573600,7.906573486328125,0.6730027198791504,-1.0325202941894531,0.11323095113039017
1788049446926850800,7.922850830078125,-0.10018324851989746,-1.1625900268554688,0.09598726034164429
1788049446942905000,7.938905029296875,-0.6532330513000488,-1.2346181869506836,0.11954846978187561
1788049446958519600,7.95451953125,-0.9183304309844971,-1.1971931457519531,0.037610478699207306
1788049446974538500,7.97053857421875,-0.7995823621749878,-1.0787601470947266,-0.0641021803021431
1788049446990966000,7.986966064453125,-0.5842784643173218,-0.9313755035400391,-0.18629063665866852
1788049447006581800,8.002581787109374,-0.36559784412384033,-0.7620162963867188,-0.29364627599716187
1788049447022990800,8.018990966796874,-0.3424506187438965,-0.5711679458618164,-0.26124006509780884
1788049447038657500,8.034657470703126,-0.3921719789505005,-0.3715028762817383,-0.25876930356025696
1788049447054727700,8.050727783203126,-0.4327648878097534,-0.18239212036132812,-0.29554247856140137
1788049447071000800,8.067000732421874,-0.3013029098510742,-0.04224967956542969,-0.4977756142616272
1788049447086824400,8.082824462890626,0.007736921310424805,0.12946414947509766,-0.7052496075630188
1788049447103156000,8.099156005859374,0.21595358848571777,0.2545318603515625,-0.6883555054664612
1788049447118844700,8.1148447265625,0.15714192390441895,0.4613971710205078,-0.512906551361084
1788049447134841000,8.130841064453126,-0.08618736267089844,0.5672492980957031,-0.4625324606895447
1788049447151046400,8.14704638671875,-0.27007389068603516,0.6734409332275391,-0.5847817063331604
1788049447166770000,8.16277001953125,-0.22774577140808105,0.7938737869262695,-0.5579956769943237
1788049447183377700,8.179377685546875,-0.17804598808288574,0.9695472717285156,-0.3563590347766876
1788049447198908200,8.194908203125,-0.12914204597473145,1.0361337661743164,0.07018764317035675
1788049447214895900,8.210895751953124,-0.05536675453186035,1.0725898742675781,0.37143152952194214
1788049447231153200,8.227153076171875,-0.12028288841247559,0.9873533248901367,0.42249155044555664
1788049447246929200,8.24292919921875,-0.3966515064239502,1.033548355102539,0.17180851101875305
1788049447263391200,8.25939111328125,-1.0170940160751343,1.4071922302246094,-0.474565714597702
1788049447279051500,8.275051513671874,-1.4571325778961182,1.670907974243164,-1.0146043300628662
1788049447295072300,8.291072265625,-1.4602752923965454,1.7971134185791016,-0.5973220467567444
1788049447311333600,8.307333740234375,-0.4314086437225342,1.6437263488769531,0.11338204145431519
1788049447327105500,8.32310546875,1.0740602016448975,1.4210453033447266,0.460533082485199
1788049447343634700,8.339634765625,2.3915278911590576,0.9221220016479492,0.6785331964492798
1788049447359334400,8.35533447265625,2.898663282394409,0.3681507110595703,0.3305503726005554
1788049447375281000,8.371281005859375,2.6044657230377197,-0.10894203186035156,-0.08030015230178833
1788049447391771600,8.387771728515625,1.841752529144287,-0.46889305114746094,-0.4012652337551117
1788049447407372000,8.4033720703125,1.1545710563659668,-0.736968994140625,-0.48302319645881653
1788049447423738400,8.41973828125,0.37584805488586426,-0.8027925491333008,-0.23784108459949493
1788049447439892700,8.435892822265625,-0.0017392635345458984,-0.7336311340332031,0.1408843994140625
1788049447455563300,8.451563232421876,0.2738370895385742,-0.6348142623901367,0.5059203505516052
1788049447471778600,8.467778564453125,0.8709301948547363,-0.621546745300293,0.7746174931526184
1788049447487541500,8.48354150390625,1.2935824394226074,-0.6175670623779297,0.7232415080070496
1788049447504063500,8.5000634765625,1.448425054550171,-0.6262178421020508,0.8690335154533386
1788049447519626200,8.515626220703124,1.3921992778778076,-0.551508903503418,1.1032947301864624
1788049447535661300,8.531661376953124,1.3841338157653809,-0.8335790634155273,1.2474249601364136
1788049447551967200,8.54796728515625,0.9868333339691162,-0.8013772964477539,0.966681718826294
1788049447567718000,8.5637177734375,0.6245565414428711,-0.9489717483520508,0.4584735631942749
1788049447584198400,8.580198486328126,0.21174335479736328,-1.0538825988769531,0.0996098518371582
1788049447599914800,8.595914794921875,-0.1425790786743164,-1.116133689880371,-0.18882833421230316
1788049447615895000,8.61189501953125,-0.35712528228759766,-1.1611557006835938,-0.20195026695728302
1788049447632212200,8.628212158203125,-0.6223764419555664,-1.0809011459350586,-0.1666945517063141
1788049447648076800,8.644076904296876,-0.862581729888916,-0.9930534362792969,-0.09042290598154068
1788049447664221000,8.660220947265625,-0.8859829902648926,-0.8240652084350586,0.0013674944639205933
1788049447680013600,8.676013671875,-0.6075354814529419,-0.5999078750610352,0.180143803358078
1788049447696467500,8.692467529296875,-0.37996530532836914,-0.41729259490966797,0.36747634410858154
1788049447712340200,8.70834033203125,-0.31428074836730957,-0.22583484649658203,0.3447796404361725
1788049447728054500,8.724054443359375,-0.2004854679107666,-0.02907085418701172,0.08226589858531952
1788049447744550400,8.74055029296875,-0.024281740188598633,0.1300363540649414,-0.019265837967395782
1788049447760169700,8.756169677734375,0.171583890914917,0.18269824981689453,-0.10345833003520966
1788049447776274000,8.77227392578125,0.4607539176940918,0.16005325317382812,-0.13165538012981415
1788049447792518700,8.7885185546875,0.7441892623901367,0.1406240463256836,0.027866199612617493
1788049447808284400,8.804284423828125,0.601494312286377,0.12752723693847656,0.11834405362606049
1788049447824682500,8.8206826171875,0.13700532913208008,0.0857706069946289,0.18706190586090088
1788049447840411000,8.836410888671875,-0.3448755741119385,0.03068256378173828,0.1767883598804474
1788049447856518000,8.852517822265625,-0.7836340665817261,-0.02211761474609375,0.07387655228376389
1788049447872647200,8.868647216796875,-1.1965843439102173,-0.0662851333618164,-0.08158640563488007
1788049447888430600,8.8844306640625,-1.6655842065811157,0.1743335723876953,-0.24958062171936035
1788049447904848600,8.9008486328125,-1.873779296875,0.2922554016113281,-0.4994696080684662
1788049447920559000,8.91655908203125,-1.47575843334198,0.5646228790283203,-0.47244971990585327
1788049447936509700,8.932509765625,-0.26381707191467285,0.6484832763671875,-0.10938099026679993
1788049447952819700,8.94881982421875,0.7549805641174316,0.8221235275268555,0.29854661226272583
1788049447968540400,8.96454052734375,1.3492553234100342,0.8769502639770508,0.43075230717658997
1788049447984900000,8.980900146484375,1.0493056774139404,1.1729307174682617,0.47704145312309265
1788049448001135000,8.997135009765625,0.1123502254486084,1.4896554946899414,0.5768857002258301
1788049448016689400,9.012689453125,-1.054548740386963,1.756556510925293,0.538215160369873
1788049448032937500,9.0289375,-1.2209506034851074,1.9248533248901367,0.3077303171157837
1788049448048746000,9.04474609375,-0.29539990425109863,1.861623764038086,-0.16503040492534637
1788049448065218300,9.06121826171875,1.2503623962402344,1.4885177612304688,-0.3896697759628296
1788049448080998400,9.076998291015625,2.275043249130249,0.9252395629882812,-0.33470481634140015
1788049448096940300,9.092940185546874,2.6142919063568115,0.42675304412841797,-0.4769333302974701
1788049448113202400,9.109202392578124,1.9458873271942139,0.023395538330078125,-0.1893225461244583
1788049448129059800,9.125059814453126,0.9315388202667236,-0.2883262634277344,-0.17391571402549744
1788049448145258800,9.1412587890625,0.28211307525634766,-0.5910978317260742,-0.2130538374185562
1788049448161512400,9.157512451171876,0.2565031051635742,-0.826664924621582,-0.25066375732421875
1788049448177050400,9.17305029296875,0.43785691261291504,-1.0549297332763672,-0.023401036858558655
1788049448193310000,9.18931005859375,0.5857999324798584,-1.1711578369140625,0.1645379364490509
1788049448209079000,9.2050791015625,0.40436434745788574,-1.1375617980957031,0.4825655221939087
1788049448225483500,9.2214833984375,-0.0659787654876709,-0.9469051361083984,0.7467290759086609
1788049448241170700,9.237170654296875,-0.2889310121536255,-0.6902427673339844,0.5160331726074219
1788049448257697000,9.253697021484374,-0.08758306503295898,-0.45435619354248047,0.1658542901277542
1788049448273443300,9.269443359375,0.3517763614654541,-0.3413419723510742,-0.11487608402967453
1788049448289196500,9.285196533203125,0.9195187091827393,-0.24137020111083984,-0.22018355131149292
1788049448305515500,9.301515625,1.6227855682373047,-0.13611125946044922,-0.4235410690307617
1788049448321323300,9.3173232421875,2.210690498352051,-0.0859994888305664,-0.4004252552986145
1788049448337458700,9.333458740234375,2.5449564456939697,-0.11720943450927734,-0.2736716866493225
1788049448353585200,9.349585205078125,2.4022216796875,-0.26216602325439453,-0.01897299289703369
1788049448369544200,9.365544189453125,1.6351802349090576,-0.39600658416748047,0.30585137009620667
1788049448385775600,9.381775634765624,0.6943120956420898,-0.5004997253417969,0.471163809299469
1788049448401449700,9.39744970703125,0.036341190338134766,-0.609532356262207,0.503250002861023
1788049448417457400,9.41345751953125,-0.2486422061920166,-0.6402711868286133,0.4257192611694336
1788049448433715700,9.4297158203125,-0.37848687171936035,-0.5749912261962891,0.169429212808609
1788049448449587000,9.4455869140625,-0.49007606506347656,-0.4694795608520508,-0.007754851132631302
1788049448465827600,9.46182763671875,-0.3471188545227051,-0.28313255310058594,-0.30633652210235596
1788049448481913300,9.477913330078126,0.10756564140319824,-0.11812591552734375,-0.4992731511592865
1788049448497681200,9.49368115234375,0.6077728271484375,-0.0036630630493164062,-0.6289172172546387
1788049448514148900,9.51014892578125,1.0162413120269775,0.1338510513305664,-0.5850491523742676
1788049448529837600,9.525837646484375,1.1627607345581055,0.2360553741455078,-0.5396002531051636
1788049448546197500,9.542197509765625,1.2239885330200195,0.2817039489746094,-0.3858484625816345
1788049448561966300,9.55796630859375,1.335503101348877,0.2599153518676758,-0.13525456190109253
1788049448577968000,9.573968017578125,1.2761180400848389,0.18323135375976562,0.208221897482872
1788049448594047000,9.590046875,0.9779846668243408,0.10792922973632812,0.4271472692489624
1788049448609766400,9.605766357421874,0.39217042922973633,-0.017896652221679688,0.47158175706863403
1788049448626312700,9.622312744140626,-0.04856157302856445,-0.10645675659179688,0.38291680812835693
1788049448642119200,9.638119140625,-0.23786044120788574,-0.1655406951904297,0.08368745446205139
1788049448657917700,9.653917724609375,-0.2410726547241211,-0.2727947235107422,-0.17332974076271057
1788049448674376400,9.67037646484375,-0.3486173152923584,-0.2986936569213867,-0.3157449960708618
1788049448689958400,9.68595849609375,-0.5672659873962402,-0.33695316314697266,-0.4339309334754944
1788049448706463200,9.702463134765624,-0.720966100692749,-0.28737735748291016,-0.5149430632591248
1788049448722081800,9.718081787109375,-0.8432320356369019,-0.23682117462158203,-0.5756056308746338
1788049448738100000,9.734099853515625,-0.9078010320663452,-0.20369625091552734,-0.5439660549163818
1788049448754416400,9.75041650390625,-0.8880754709243774,-0.1778240203857422,-0.43100598454475403
1788049448770610200,9.766610107421876,-0.9144127368927002,-0.11821269989013672,-0.31323564052581787
1788049448786506500,9.782506591796874,-0.9741623401641846,-0.09689617156982422,-0.08841156959533691
1788049448802326500,9.798326416015625,-0.9447534084320068,0.0686330795288086,0.10874620079994202
1788049448818392800,9.814392822265624,-0.7369424104690552,0.21366310119628906,0.2378656417131424
1788049448834653200,9.830653076171876,-0.5761275291442871,0.38614940643310547,0.31585896015167236
1788049448850502700,9.846502685546875,-0.2859663963317871,0.549748420715332,0.24244360625743866
1788049448866826800,9.86282666015625,0.3137493133544922,0.5897731781005859,0.015872981399297714
1788049448882521000,9.87852099609375,0.9880204200744629,0.49463939666748047,-0.14624884724617004
1788049448898676000,9.894676025390625,1.382800817489624,0.39197444915771484,-0.2543465197086334
1788049448914916400,9.910916259765624,1.0176808834075928,0.25530433654785156,-0.3676201105117798
1788049448931012400,9.927012451171874,0.18726539611816406,0.21026229858398438,-0.30234426259994507
1788049448946918100,9.942918212890625,-0.5785751342773438,0.13158893585205078,-0.06587386131286621
1788049448962738400,9.958738525390626,-0.9952654838562012,0.11513900756835938,0.21900925040245056
1788049448978764500,9.9747646484375,-0.9527976512908936,0.08579254150390625,0.48915159702301025
1788049448995058000,9.991057861328125,-0.6844606399536133,0.035633087158203125,0.6167904138565063
1788049449010835200,10.006835205078126,-0.3951585292816162,0.01880168914794922,0.6696469783782959
1788049449027291400,10.02329150390625,-0.1603531837463379,0.010425567626953125,0.44486531615257263
1788049449043031000,10.039031005859375,0.024091720581054688,0.02332592010498047,0.2576075792312622
1788049449058996500,10.05499658203125,0.023568153381347656,0.022744178771972656,0.009921964257955551
1788049449075370500,10.07137060546875,-0.10354399681091309,-0.017930030822753906,-0.0833139568567276
1788049449091068200,10.087068115234375,-0.2909855842590332,-0.03759479522705078,-0.08240501582622528
1788049449107274500,10.1032744140625,-0.44618916511535645,-0.12050914764404297,-0.0042234621942043304
1788049449123159800,10.119159912109374,-0.4702167510986328,-0.11296463012695312,0.0006605107337236404
1788049449139139000,10.13513916015625,-0.40961241722106934,-0.09363460540771484,0.16891485452651978
1788049449155365600,10.15136572265625,-0.45520544052124023,-0.031554222106933594,0.3262561857700348
1788049449171119600,10.16711962890625,-0.4442296028137207,0.09487247467041016,0.45613017678260803
1788049449187512600,10.1835126953125,-0.2937345504760742,0.21233463287353516,0.5324819087982178
1788049449203202800,10.199202880859374,-0.07347464561462402,0.3406848907470703,0.4792834222316742
1788049449219224000,10.21522412109375,0.12468385696411133,0.47352123260498047,0.3565405011177063
1788049449235609300,10.231609375,0.38219547271728516,0.525146484375,0.13664661347866058
1788049449251269600,10.24726953125,0.5286345481872559,0.5081167221069336,-0.02077537775039673
1788049449267621400,10.263621337890624,0.4662621021270752,0.4802894592285156,-0.10957624018192291
1788049449283781400,10.279781494140625,0.29911208152770996,0.3330259323120117,-0.13444119691848755
1788049449299422000,10.295421875,0.0650472640991211,0.28191661834716797,-0.08112315833568573
1788049449315637000,10.311636962890624,-0.17970061302185059,0.22194957733154297,-0.03014613687992096
1788049449331885300,10.32788525390625,-0.25780630111694336,0.21182823181152344,-0.13681963086128235
1788049449347946200,10.3439462890625,-0.21912026405334473,0.14916133880615234,-0.09559095650911331
1788049449363564500,10.359564453125,-0.09728384017944336,0.11541748046875,-0.14534048736095428
1788049449379614200,10.3756142578125,-0.011719226837158203,0.06503582000732422,-0.14558862149715424
1788049449395876600,10.391876708984375,-0.17902088165283203,0.04491710662841797,-0.0062526315450668335
1788049449411615200,10.407615234375,-0.35245442390441895,0.05916118621826172,-0.02716156840324402
1788049449428156200,10.42415625,-0.21418142318725586,0.04998779296875,-0.19430267810821533
1788049449443797200,10.43979736328125,0.08227849006652832,-0.014074325561523438,-0.16658495366573334
1788049449459809000,10.45580908203125,0.17094969749450684,-0.1182718276977539,-0.1219143196940422
1788049449476126200,10.472126220703124,0.09701895713806152,-0.19674396514892578,0.08275017142295837
1788049449492225800,10.488225830078125,-0.09629178047180176,-0.21124267578125,0.20419307053089142
1788049449508181000,10.504180908203125,-0.3002021312713623,-0.23328495025634766,0.2408054918050766
1788049449523890400,10.519890380859374,-0.4160592555999756,-0.15224647521972656,0.18832388520240784
1788049449539846700,10.5358466796875,-0.4028899669647217,-0.06339645385742188,0.025234967470169067
1788049449556277200,10.55227734375,-0.32445454597473145,0.030669212341308594,-0.06613806635141373
1788049449571873000,10.567873046875,-0.05698394775390625,0.0756998062133789,-0.08683481812477112
1788049449588408800,10.584408935546875,0.1727900505065918,0.15593814849853516,-0.030174478888511658
1788049449603982000,10.599982177734375,0.3168911933898926,0.2294454574584961,-0.08152590692043304
1788049449620048400,10.61604833984375,0.31050729751586914,0.26150035858154297,-0.1781441569328308
1788049449636252700,10.632252685546876,0.2608194351196289,0.2378988265991211,-0.1868266463279724
1788049449652083700,10.648083740234375,0.1462109088897705,0.17783355712890625,-0.2117076963186264
1788049449668477200,10.664477294921875,0.05455160140991211,0.12457942962646484,-0.11580577492713928
1788049449684202500,10.680202392578124,-0.08062124252319336,0.0684347152709961,-0.022761285305023193
1788049449700353500,10.696353515625,-0.269237756729126,0.0789175033569336,0.03675825148820877
1788049449716534000,10.712533935546874,-0.33303189277648926,0.07973670959472656,0.09291793406009674
1788049449732224000,10.72822412109375,-0.32120704650878906,0.1167449951171875,0.1630786806344986
1788049449748711400,10.74471142578125,-0.26773500442504883,0.1343832015991211,0.23880437016487122
1788049449764369000,10.760368896484374,-0.16914749145507812,0.13779163360595703,0.29897943139076233
1788049449780383000,10.776383056640626,-0.0011105537414550781,0.14422321319580078,0.25915831327438354
1788049449796744400,10.792744384765625,0.022026777267456055,0.17969417572021484,0.122686468064785
1788049449812618500,10.808618408203126,-0.030719995498657227,0.19822406768798828,0.09345920383930206
1788049449828970500,10.824970458984374,-0.03771257400512695,0.17602920532226562,0.239948570728302
1788049449844992300,10.8409921875,-0.05375266075134277,0.12742328643798828,0.31604456901550293
1788049449860688600,10.856688720703126,-0.0023152828216552734,0.09554481506347656,0.4472171366214752
1788049449876859600,10.872859619140625,0.04641842842102051,0.027952194213867188,0.47743603587150574
1788049449892652500,10.888652587890626,0.042488813400268555,0.010779380798339844,0.5601081848144531
1788049449909081000,10.9050810546875,-0.07110357284545898,-0.04699420928955078,0.5403238534927368
1788049449924745700,10.920745849609375,-0.18837499618530273,-0.07372760772705078,0.5181748867034912
1788049449941000700,10.937000732421875,-0.10809516906738281,-0.06849193572998047,0.5471881628036499
1788049449957226000,10.95322607421875,-0.03243279457092285,-0.09753036499023438,0.6154145002365112
1788049449972842200,10.96884228515625,-0.008271455764770508,-0.054259300231933594,0.768585205078125
1788049449989228000,10.98522802734375,0.2669363021850586,-0.03409767150878906,0.7167311906814575
1788049450004949200,11.00094921875,0.5340480804443359,-0.08649635314941406,0.7028382420539856
1788049450020874500,11.01687451171875,0.6462686061859131,-0.13650035858154297,0.720953106880188
1788049450037154600,11.033154541015625,0.4574708938598633,-0.12943458557128906,0.7834253311157227
1788049450052910000,11.04891015625,0.25099825859069824,-0.11736297607421875,0.853442907333374
1788049450069236200,11.065236328125,0.17531204223632812,-0.10619735717773438,0.9217889904975891
1788049450085005000,11.081005126953125,0.26589083671569824,-0.13459014892578125,0.9035487174987793
1788049450101467600,11.097467529296875,0.43854451179504395,-0.12531185150146484,0.772207498550415
1788049450117272000,11.11327197265625,0.5903980731964111,-0.11533260345458984,0.6279688477516174
1788049450133052200,11.12905224609375,0.5105259418487549,-0.0985879898071289,0.6258057951927185
1788049450149484800,11.14548486328125,0.2827281951904297,-0.03212451934814453,0.7090559601783752
1788049450165153000,11.161153076171875,0.20354628562927246,-0.032532691955566406,0.7804263830184937
1788049450181213700,11.177213623046875,0.3193023204803467,-0.014661788940429688,0.8479369878768921
1788049450197412900,11.193412841796874,0.4238409996032715,-0.014181137084960938,0.840421199798584
1788049450213523000,11.20952294921875,0.5764310359954834,-0.011954307556152344,0.7615809440612793
1788049450229561000,11.22556103515625,0.6651198863983154,0.001964569091796875,0.5534617900848389
1788049450245330200,11.241330078125,0.7007107734680176,0.014760971069335938,0.2832674980163574
1788049450261376500,11.25737646484375,0.6957006454467773,0.0310821533203125,-0.011924505233764648
1788049450277604900,11.27360498046875,0.6750986576080322,0.0674142837524414,-0.23026561737060547
1788049450293747200,11.289747314453125,0.6283135414123535,0.11397552490234375,-0.23255681991577148
1788049450309886000,11.305885986328125,0.5645816326141357,0.13433551788330078,-0.29291796684265137
1788049450325529600,11.321529541015625,0.5079472064971924,0.1138763427734375,-0.37649768590927124
1788049450341563000,11.33756298828125,0.4001493453979492,0.09595394134521484,-0.47387009859085083
1788049450357991200,11.3539912109375,0.3754243850708008,0.12137794494628906,-0.46398431062698364
1788049450373576400,11.369576416015626,0.33452272415161133,0.10222911834716797,-0.4759531021118164
1788049450390090200,11.38609033203125,0.30395936965942383,0.100738525390625,-0.3445851802825928
1788049450406107100,11.402107177734376,0.279695987701416,0.06900596618652344,-0.3538042902946472
1788049450421758200,11.41775830078125,0.28572535514831543,0.06763076782226562,-0.3286591172218323
1788049450438005500,11.434005615234375,0.31653904914855957,0.010367393493652344,-0.3574032783508301
1788049450453760300,11.44976025390625,0.3392913341522217,-0.025003433227539062,-0.4976802468299866
1788049450470279200,11.466279052734375,0.41365671157836914,-0.09143447875976562,-0.5571253299713135
1788049450486272800,11.482272705078126,0.44200658798217773,-0.20780467987060547,-0.5705456733703613
1788049450502015200,11.49801513671875,0.2931509017944336,-0.20866107940673828,-0.44144436717033386
1788049450518405000,11.514405029296874,-0.1267871856689453,-0.12615108489990234,-0.2860262989997864
1788049450534112000,11.530112060546875,-0.8143439292907715,0.07718563079833984,-0.23085474967956543
1788049450550464800,11.54646484375,-1.1998387575149536,0.20886898040771484,-0.16233396530151367
1788049450566473200,11.56247314453125,-0.6975507736206055,0.2350788116455078,-0.1797134280204773
1788049450582053000,11.57805322265625,0.648226261138916,0.1376962661743164,-0.3538326025009155
1788049450598489300,11.5944892578125,1.8239123821258545,-0.12007904052734375,-0.6468867659568787
1788049450614145500,11.6101455078125,2.2804179191589355,-0.4149045944213867,-1.036076307296753
1788049450630584600,11.62658447265625,1.8502655029296875,-0.5055103302001953,-1.5616648197174072
1788049450646285600,11.64228564453125,0.8182029724121094,-0.40912437438964844,-1.9943950176239014
1788049450662708200,11.658708251953126,-0.15609192848205566,-0.23697471618652344,-2.232421636581421
1788049450678636500,11.674636474609375,-0.6150765419006348,-0.04073333740234375,-2.2439091205596924
1788049450694346000,11.690345947265625,-0.618610143661499,0.14394664764404297,-2.0253171920776367
1788049450710712600,11.706712646484375,-0.21811151504516602,0.21727657318115234,-1.674259901046753
1788049450726520600,11.7225205078125,0.3779335021972656,0.2542610168457031,-1.3593555688858032
1788049450742509800,11.738509765625,0.9414520263671875,0.29594898223876953,-1.1636583805084229
1788049450758904600,11.754904541015625,1.146010160446167,0.3141307830810547,-0.9957214593887329
1788049450774622200,11.770622314453124,1.1577599048614502,0.35412025451660156,-0.9344596862792969
1788049450791075800,11.787075927734374,1.0534946918487549,0.28302478790283203,-0.9334214925765991
1788049450806836200,11.802836181640625,0.9252233505249023,0.17336559295654297,-0.9621932506561279
1788049450822766800,11.818766845703125,0.6798770427703857,0.00569915771484375,-1.1311702728271484
1788049450839020300,11.835020263671876,0.3043653964996338,-0.11804676055908203,-1.2511861324310303
1788049450854777300,11.85077734375,-0.08501815795898438,-0.20653915405273438,-1.287064552307129
1788049450871299800,11.8672998046875,-0.32011938095092773,-0.23110580444335938,-1.310351014137268
1788049450886913500,11.88291357421875,-0.49730753898620605,-0.19474220275878906,-1.369541049003601
1788049450903090700,11.899090576171876,-0.5654962062835693,-0.13995647430419922,-1.340577244758606
1788049450919427800,11.915427734375,-0.44809889793395996,-0.04142284393310547,-1.3307102918624878
1788049450935026400,11.9310263671875,-0.21813297271728516,0.010860443115234375,-1.2984466552734375
1788049450951421400,11.94742138671875,0.09087562561035156,0.0726919174194336,-1.2119557857513428
1788049450967121000,11.963120849609375,0.27991342544555664,0.10382652282714844,-1.0211007595062256
1788049450983264800,11.9792646484375,0.33261609077453613,0.1310892105102539,-0.8457604050636292
1788049450999467000,11.995467041015624,0.20411443710327148,0.09163379669189453,-0.5336658954620361
1788049451015142700,12.011142578125,0.1256570816040039,0.07338523864746094,-0.1894303858280182
1788049451031567600,12.027567626953125,0.23055696487426758,0.03049182891845703,-0.007837057113647461
1788049451047633700,12.043633544921875,0.35939502716064453,-0.007657051086425781,-0.056530386209487915
1788049451063275500,12.059275634765624,0.38013601303100586,-0.0887289047241211,-0.1319103240966797
1788049451079724800,12.075724853515625,0.4743845462799072,-0.1348714828491211,-0.3595384359359741
1788049451095330800,12.091330810546875,0.39722132682800293,-0.16744327545166016,-0.5397623181343079
1788049451111741000,12.107740966796875,0.1588118076324463,-0.1635446548461914,-0.6246406435966492
1788049451127518700,12.123518798828124,0.017064571380615234,-0.15845489501953125,-0.6690243482589722
1788049451143440400,12.1394404296875,0.10008382797241211,-0.1717996597290039,-0.6425759792327881
1788049451159707400,12.155707275390625,0.09988069534301758,-0.18979930877685547,-0.6325933933258057
1788049451175938000,12.17193798828125,-0.14994287490844727,-0.13673686981201172,-0.6243492960929871
1788049451191880200,12.187880126953125,-0.46590423583984375,-0.0249481201171875,-0.6352133750915527
1788049451207632000,12.2036318359375,-0.7186739444732666,0.12979984283447266,-0.6326524019241333
1788049451223654000,12.21965380859375,-1.01828932762146,0.3578529357910156,-0.567350447177887
1788049451240059100,12.23605908203125,-1.288490891456604,0.6247739791870117,-0.4475278854370117
1788049451255674000,12.251674072265626,-1.2751612663269043,0.7465829849243164,-0.008195996284484863
1788049451272182800,12.268182861328125,-0.6654462814331055,0.8755340576171875,0.45986732840538025
1788049451287819300,12.2838193359375,0.2266521453857422,0.7762346267700195,0.37082260847091675
1788049451303865900,12.299865966796874,0.9778649806976318,0.6048212051391602,0.028844892978668213
1788049451320030000,12.316030029296876,1.0788788795471191,0.3368043899536133,-0.5560010075569153
1788049451335987700,12.33198779296875,0.5064079761505127,0.19133281707763672,-0.8014487028121948
1788049451352224300,12.348224365234374,-0.2291877269744873,0.12166213989257812,-0.5636818408966064
1788049451368051500,12.364051513671875,-1.0056116580963135,0.08271598815917969,-0.06562536954879761
1788049451384328400,12.380328369140624,-1.2683488130569458,0.041947364807128906,0.4254336357116699
1788049451400239000,12.396239013671876,-1.3408055305480957,0.044597625732421875,0.6789552569389343
1788049451416067800,12.41206787109375,-1.2221654653549194,0.06127452850341797,0.7758870124816895
1788049451432544500,12.42854443359375,-0.7403552532196045,0.11194896697998047,0.7826658487319946
1788049451448129000,12.44412890625,-0.037262678146362305,0.14420032501220703,0.6670777201652527
1788049451464107500,12.460107421875,0.4289553165435791,0.15485286712646484,0.5319613814353943
1788049451480366000,12.476365966796875,0.5754544734954834,0.11639118194580078,0.6011258363723755
1788049451496156700,12.49215673828125,0.2876157760620117,0.10223960876464844,0.7996860146522522
1788049451512492000,12.508491943359376,-0.0812842845916748,0.11664581298828125,1.0333806276321411
1788049451528512800,12.5245126953125,-0.438460111618042,0.16971492767333984,1.2542604207992554
1788049451544283000,12.540282958984376,-0.599362850189209,0.2409982681274414,1.3157225847244263
1788049451560624000,12.5566240234375,-0.6703517436981201,0.30460643768310547,1.1650903224945068
1788049451576313300,12.572313232421875,-0.48258113861083984,0.4087648391723633,0.7972255945205688
1788049451592761000,12.588760986328126,-0.12217450141906738,0.39342689514160156,0.5795705914497375
1788049451608538600,12.60453857421875,0.15402722358703613,0.32637786865234375,0.5098696947097778
1788049451624577800,12.620577880859376,0.3138854503631592,0.2685585021972656,0.4857642948627472
1788049451640737800,12.63673779296875,0.4229903221130371,0.178192138671875,0.5269089937210083
1788049451656570400,12.6525703125,0.3142526149749756,0.13098907470703125,0.593889594078064
1788049451672927700,12.668927734375,-0.12877988815307617,0.08621692657470703,0.6480705738067627
1788049451689134000,12.685134033203125,-0.5571949481964111,0.021799087524414062,0.4661948084831238
1788049451704691000,12.70069091796875,-0.6330506801605225,0.013253211975097656,0.24411620199680328
1788049451721015800,12.717015869140624,-0.41037821769714355,-0.042877197265625,0.10403217375278473
1788049451737147100,12.733147216796874,-0.18982529640197754,-0.10479545593261719,0.14238543808460236
1788049451753137200,12.74913720703125,-0.31914424896240234,-0.1833353042602539,0.24013687670230865
1788049451768824300,12.76482421875,-0.37535667419433594,-0.22456836700439453,0.3851833939552307
1788049451784889000,12.78088916015625,-0.47626209259033203,-0.2325143814086914,0.2720060348510742
1788049451801154600,12.797154541015624,-0.687086820602417,-0.16697978973388672,0.21462146937847137
1788049451816888300,12.812888427734375,-0.7661041021347046,-0.15648841857910156,0.23433007299900055
1788049451833259300,12.82925927734375,-0.6511843204498291,-0.09737491607666016,0.16399843990802765
1788049451848972300,12.84497216796875,-0.46578311920166016,-0.07723617553710938,0.1852867752313614
1788049451864999400,12.86099951171875,-0.302720308303833,-0.03698253631591797,0.196257546544075
1788049451889026800,12.88502685546875,-0.19022512435913086,0.1456766128540039,0.03183890879154205
1788049451904995800,12.900995849609375,-0.3183577060699463,0.2916679382324219,-0.16146621108055115
1788049451921286700,12.91728662109375,-0.5283689498901367,0.40240478515625,-0.30065810680389404
1788049451936965600,12.932965576171876,-0.5328232049942017,0.5593833923339844,-0.3554278016090393
1788049451953382700,12.949382568359376,-0.09682083129882812,0.5429162979125977,-0.4747122526168823
1788049451969081300,12.965081298828125,0.49315381050109863,0.47130870819091797,-0.6553101539611816
1788049451985099800,12.981099853515625,0.8582782745361328,0.32795047760009766,-0.9050558805465698
1788049452001333500,12.99733349609375,0.8230686187744141,0.2009754180908203,-0.9752593636512756
1788049452017163800,13.013163818359375,0.539975643157959,0.23889923095703125,-0.9341886639595032
1788049452033494000,13.029493896484375,0.28594422340393066,0.19047832489013672,-0.6836323142051697
1788049452049241900,13.045241943359375,0.011641502380371094,0.1858348846435547,-0.301759272813797
1788049452065199000,13.06119921875,-0.11614680290222168,0.08536243438720703,0.12734584510326385
1788049452081516800,13.077516845703125,-0.06632590293884277,-0.06602764129638672,0.38017991185188293
1788049452097795000,13.093795166015624,-0.20680570602416992,-0.18001079559326172,0.5856547951698303
1788049452113799400,13.10979931640625,-0.3250298500061035,-0.2983436584472656,0.47389769554138184
1788049452129446700,13.12544677734375,-0.3903772830963135,-0.29338550567626953,0.2085537612438202
1788049452145387500,13.141387451171875,-0.36169862747192383,-0.22266674041748047,-0.2259005457162857
1788049452161659400,13.157659423828125,-0.34661054611206055,-0.232269287109375,-0.29974859952926636
1788049452177525200,13.173525146484375,-0.21314477920532227,-0.2295694351196289,-0.31723085045814514
1788049452193901800,13.18990185546875,0.022523164749145508,-0.22672462463378906,-0.16227373480796814
1788049452209614800,13.20561474609375,0.06412506103515625,-0.24545764923095703,-0.021539263427257538
1788049452225629000,13.22162890625,0.03524971008300781,-0.20531082153320312,0.0008325055241584778
1788049452241904000,13.237904052734375,-0.1535496711730957,-0.13300800323486328,-0.13883323967456818
1788049452257740800,13.25374072265625,-0.38140082359313965,-0.05692768096923828,-0.10683628171682358
1788049452274218000,13.270218017578125,-0.42053747177124023,0.07673931121826172,-0.1732580065727234
1788049452289939200,13.285939208984376,-0.26306581497192383,0.2109241485595703,-0.15518128871917725
1788049452305829600,13.30182958984375,-0.07038092613220215,0.38654041290283203,-0.03446260839700699
1788049452322105300,13.318105224609376,-0.00020456314086914062,0.4724245071411133,0.031352732330560684
1788049452338004200,13.334004150390625,0.1600632667541504,0.5519447326660156,0.2219628393650055
1788049452354343000,13.350343017578124,0.3419322967529297,0.5081853866577148,0.4199178218841553
1788049452369975000,13.36597509765625,0.42018771171569824,0.38985729217529297,0.5290413498878479
1788049452386257200,13.382257080078125,0.14267253875732422,0.2581806182861328,0.4201129078865051
1788049452402450400,13.398450439453125,-0.21677517890930176,0.09376907348632812,0.3944665789604187
1788049452417982500,13.413982421875,-0.646324872970581,-0.0075817108154296875,0.2426896095275879
1788049452434414600,13.43041455078125,-1.021730661392212,-0.024138450622558594,0.054348334670066833
1788049452450128400,13.44612841796875,-1.393351674079895,-0.015600204467773438,-0.05611906945705414
1788049452466294300,13.462294189453125,-1.4842619895935059,-0.022983551025390625,-0.013250604271888733
1788049452482533000,13.478533203125,-1.3351402282714844,-0.031993865966796875,0.16816410422325134
1788049452498568400,13.494568359375,-1.0166388750076294,-0.04376220703125,0.23236395418643951
1788049452514559200,13.510559326171874,-0.642326831817627,-0.03429889678955078,0.15934236347675323
1788049452530467000,13.526467041015625,-0.3928334712982178,-0.004071235656738281,-0.0019054710865020752
1788049452546632700,13.5426328125,-0.24843275547027588,0.041426658630371094,-0.07642960548400879
1788049452562709000,13.558708984375,-0.050984859466552734,0.06916141510009766,-0.14330562949180603
1788049452578464500,13.574464599609374,0.10834765434265137,0.07674980163574219,-0.28103286027908325
1788049452594707200,13.590707275390624,0.1236121654510498,0.026079177856445312,-0.22643814980983734
1788049452610328800,13.606328857421875,0.13465356826782227,0.004563331604003906,-0.35297706723213196
1788049452626451700,13.62245166015625,0.053243160247802734,-0.06786632537841797,-0.3514779806137085
1788049452642709800,13.638709716796875,-0.20246338844299316,-0.15328502655029297,-0.1960221230983734
1788049452658925600,13.654925537109374,-0.4624149799346924,-0.2373037338256836,0.09220139682292938
1788049452674993700,13.67099365234375,-0.6359245777130127,-0.2499217987060547,0.3564237952232361
1788049452690751500,13.68675146484375,-0.5992255210876465,-0.25087738037109375,0.5057508945465088
1788049452706572000,13.702572021484375,-0.6346911191940308,-0.2138986587524414,0.44562584161758423
1788049452722879500,13.71887939453125,-0.6704354286193848,-0.12942886352539062,0.4521242380142212
1788049452738625500,13.73462548828125,-0.625203013420105,-0.0688018798828125,0.4230716824531555
1788049452755018800,13.751018798828126,-0.46436548233032227,0.022832870483398438,0.3387957811355591
1788049452770724900,13.766724853515624,-0.2608238458633423,0.09819412231445312,0.19726182520389557
1788049452786941200,13.782941162109376,-0.26177000999450684,0.2211751937866211,0.08644749224185944
1788049452803061200,13.799061279296875,-0.2911829948425293,0.2502326965332031,0.035594239830970764
1788049452818878700,13.814878662109376,-0.18960189819335938,0.3870973587036133,-0.14776165783405304
1788049452835191600,13.831191650390625,0.03444242477416992,0.38675594329833984,-0.27095913887023926
1788049452850851000,13.84685107421875,0.270963191986084,0.3422222137451172,-0.1975838840007782
1788049452866808600,13.86280859375,0.5266971588134766,0.43619728088378906,-0.1959432065486908
1788049452883073000,13.879072998046874,0.9199693202972412,0.4313840866088867,-0.4060737192630768
1788049452898881000,13.894881103515624,1.2084993124008179,0.4504661560058594,-0.4655872583389282
1788049452915456300,13.911456298828124,0.9301285743713379,0.6737213134765625,-0.5017004013061523
1788049452931001600,13.927001708984376,0.5863775014877319,0.9117517471313477,-0.29062098264694214
1788049452946974500,13.942974365234376,-0.1620858907699585,1.1413002014160156,-0.028367727994918823
1788049452963234000,13.959234130859375,-0.7256355285644531,1.2354421615600586,0.2537384033203125
1788049452979063300,13.975063232421874,-0.8120590448379517,1.3172645568847656,0.5294997692108154
1788049452995471000,13.99147119140625,-0.3061021566390991,1.1627912521362305,0.30645570158958435
1788049453011197000,14.007197021484375,0.8114347457885742,0.9107036590576172,0.15129166841506958
1788049453027169500,14.02316943359375,2.2889277935028076,0.45940399169921875,0.2413540780544281
1788049453043512300,14.03951220703125,2.860180377960205,0.0062084197998046875,0.5212119817733765
1788049453059302400,14.055302490234375,3.028792142868042,-0.36616992950439453,0.4064323306083679
1788049453075782700,14.07178271484375,2.5145204067230225,-0.6703977584838867,0.01956576108932495
1788049453091514600,14.0875146484375,1.5453402996063232,-0.8945999145507812,-0.1988808661699295
1788049453107479000,14.10347900390625,0.5628340244293213,-1.0483522415161133,-0.43931084871292114
1788049453123657700,14.11965771484375,-0.10147106647491455,-1.1145477294921875,-0.46081626415252686
1788049453139499500,14.13549951171875,-0.41718173027038574,-1.0009469985961914,-0.3631679117679596
1788049453156028700,14.152028564453126,-0.4211515188217163,-0.8305721282958984,-0.4548007845878601
1788049453172018200,14.16801806640625,-0.23890042304992676,-0.5896816253662109,-0.7930530309677124
1788049453187659000,14.183658935546875,0.015786170959472656,-0.2833080291748047,-1.0007266998291016
1788049453204118000,14.200117919921874,0.36536943912506104,-0.0717782974243164,-1.03256094455719
1788049453219760600,14.2157607421875,0.8831009864807129,0.1235809326171875,-1.1579458713531494
1788049453236147500,14.2321474609375,1.8592523336410522,0.14138126373291016,-1.0764548778533936
1788049453251844900,14.247844970703126,2.6528749465942383,-0.024453163146972656,-0.858860969543457
1788049453267846400,14.263846435546874,2.997675895690918,-0.2632608413696289,-0.6125465631484985
1788049453284138000,14.280137939453125,2.417483329772949,-0.4673042297363281,-0.3587740659713745
1788049453299793200,14.295793212890626,1.220762014389038,-0.6391496658325195,-0.029576152563095093
1788049453316168400,14.31216845703125,0.06676816940307617,-0.7330036163330078,-0.011708050966262817
1788049453331976000,14.327975830078126,-0.6114195585250854,-0.76409912109375,-0.14891615509986877
1788049453347995600,14.34399560546875,-0.9631558656692505,-0.7249135971069336,-0.26028209924697876
1788049453364373000,14.360373046875,-0.9449054002761841,-0.6111536026000977,-0.250555157661438
1788049453380040700,14.376040771484375,-0.6781014204025269,-0.471771240234375,-0.32610365748405457
1788049453396465700,14.392465576171874,-0.2975708246231079,-0.28682708740234375,-0.4077198803424835
1788049453412174800,14.4081748046875,-0.06754279136657715,-0.1802692413330078,-0.28980931639671326
1788049453428615700,14.42461572265625,0.07387638092041016,-0.029684066772460938,-0.22560733556747437
1788049453444450600,14.440450439453125,0.31003332138061523,0.03155231475830078,-0.29202800989151
1788049453460325400,14.456325439453124,0.4828507900238037,0.06568145751953125,-0.30457571148872375
1788049453476693500,14.472693603515625,0.5638713836669922,-0.01062774658203125,-0.27920544147491455
1788049453492429300,14.48842919921875,0.41263294219970703,-0.1023702621459961,-0.19365495443344116
1788049453508423000,14.5044228515625,0.16195273399353027,-0.13843441009521484,-0.2184516191482544
1788049453524744700,14.52074462890625,-0.019330739974975586,-0.21429729461669922,-0.2430354356765747
1788049453540547600,14.536547607421875,-0.18552517890930176,-0.23629474639892578,-0.09148155152797699
1788049453556950000,14.552949951171875,-0.4161951541900635,-0.14735984802246094,-0.2595120072364807
1788049453572670500,14.56867041015625,-0.6809194087982178,0.044877052307128906,-0.4512527883052826
1788049453588807000,14.584806884765625,-0.9614683389663696,0.24691390991210938,-0.4434684216976166
1788049453604962600,14.600962646484374,-0.866337776184082,0.44585704803466797,-0.32265257835388184
1788049453620718600,14.616718505859374,-0.5751913785934448,0.5221796035766602,-0.18118059635162354
1788049453637247500,14.63324755859375,-0.014279603958129883,0.6214456558227539,-0.21290500462055206
1788049453652973300,14.648973388671875,0.4985140562057495,0.7252998352050781,-0.34919390082359314
1788049453668837400,14.66483740234375,0.8813323974609375,0.7555332183837891,-0.5014514327049255
1788049453685110800,14.68111083984375,1.0362976789474487,0.9577054977416992,-0.8218214511871338
1788049453700904000,14.696904052734375,0.6069768667221069,1.2723722457885742,-1.0290166139602661
1788049453717363000,14.713363037109374,-0.30911803245544434,1.479909896850586,-0.5858498215675354
1788049453733442000,14.729442138671875,-1.0601438283920288,1.6603097915649414,0.1739789992570877
1788049453749126400,14.74512646484375,-0.5932362079620361,1.6268672943115234,1.0387389659881592
1788049453765555700,14.7615556640625,0.8409745693206787,1.3426036834716797,1.160174012184143
1788049453781103000,14.77710302734375,2.3205764293670654,0.7888402938842773,1.188330888748169
1788049453797491000,14.793490966796876,3.2256321907043457,0.24162769317626953,1.1303167343139648
1788049453813228000,14.80922802734375,3.36889910697937,-0.3746376037597656,0.5939021110534668
1788049453829479200,14.825479248046875,2.895008087158203,-0.8549489974975586,0.0005627572536468506
1788049453845723400,14.841723388671875,2.2975118160247803,-1.273036003112793,-0.5133972764015198
1788049453861213200,14.857213134765624,1.5405280590057373,-1.4985122680664062,-0.6925696730613708
1788049453877664300,14.873664306640626,0.5346779823303223,-1.4458417892456055,-0.5306678414344788
1788049453893385200,14.88938525390625,-0.33776628971099854,-1.2302494049072266,0.1826411783695221
1788049453909412400,14.905412353515626,-0.7940859794616699,-0.9501132965087891,0.5424668788909912
1788049453925709300,14.921709228515626,-0.8924435377120972,-0.6999893188476562,1.1527354717254639
1788049453941494500,14.93749462890625,-0.3945244550704956,-0.4842567443847656,1.5106743574142456
1788049453957897500,14.9538974609375,0.2729623317718506,-0.2621135711669922,1.356204867362976
1788049453973588500,14.96958837890625,1.3060872554779053,-0.13259220123291016,1.1784188747406006
1788049453990059000,14.98605908203125,2.1788816452026367,0.0010118484497070312,0.9144378900527954
1788049454005890300,15.001890380859376,2.657414674758911,0.05225849151611328,0.7559058666229248
1788049454021839400,15.01783935546875,2.591120481491089,-0.09889698028564453,0.45535337924957275
1788049454038124000,15.0341240234375,1.979442834854126,-0.2412853240966797,0.14501594007015228
1788049454053841400,15.04984130859375,1.0590410232543945,-0.4265584945678711,-0.16306465864181519
1788049454069993000,15.065992919921875,0.2004392147064209,-0.5733556747436523,-0.25003889203071594
1788049454086327000,15.0823271484375,-0.3766634464263916,-0.7097139358520508,-0.16640490293502808
1788049454101976000,15.09797607421875,-0.6621195077896118,-0.7424945831298828,0.11525850743055344
1788049454118396400,15.114396484375,-0.5795295238494873,-0.7770576477050781,0.38387277722358704
1788049454134140200,15.13014013671875,-0.41395342350006104,-0.733637809753418,0.5713405013084412
1788049454150388700,15.146388671875,-0.3164641857147217,-0.6234579086303711,0.6275215148925781
1788049454166612500,15.162612548828125,-0.4513934850692749,-0.5047903060913086,0.5731162428855896
1788049454182366500,15.178366455078125,-0.5679056644439697,-0.33202552795410156,0.42801618576049805
1788049454198735000,15.194735107421875,-0.497700572013855,-0.21670913696289062,0.39670202136039734
1788049454214448600,15.21044873046875,-0.2659776210784912,-0.17710494995117188,0.3348521292209625
1788049454230699300,15.22669921875,0.08892560005187988,-0.14376354217529297,0.2703767418861389
1788049454246842400,15.24284228515625,0.2937326431274414,-0.07647323608398438,0.15017113089561462
1788049454262433500,15.25843359375,0.3180997371673584,-0.04361248016357422,-0.09321633726358414
1788049454278816300,15.274816162109374,0.1828300952911377,0.027498245239257812,-0.3407984972000122
1788049454294630400,15.29063037109375,-0.11672401428222656,0.08598613739013672,-0.4053710401058197
1788049454310480600,15.306480712890625,-0.3486473560333252,0.11864566802978516,-0.3741135895252228
1788049454326753500,15.32275341796875,-0.5296463966369629,0.14522647857666016,-0.2683064937591553
1788049454342558000,15.338557861328125,-0.5985695123672485,0.2708311080932617,-0.13310717046260834
1788049454359054000,15.35505419921875,-0.5074079036712646,0.3973073959350586,0.04869301617145538
1788049454374658600,15.370658447265624,-0.37608563899993896,0.44788551330566406,0.24253714084625244
1788049454390653700,15.38665380859375,-0.1992034912109375,0.5283327102661133,0.2725782096385956
1788049454407133200,15.40313330078125,-0.0007841587066650391,0.5769052505493164,0.5886509418487549
1788049454422721500,15.418721435546875,0.38280749320983887,0.4436216354370117,0.6865259408950806
1788049454439231500,15.4352314453125,0.7725026607513428,0.44385433197021484,0.7990413308143616
1788049454455055000,15.45105517578125,0.45626401901245117,0.6250514984130859,0.7662134766578674
1788049454470857700,15.466857666015626,-0.6215986013412476,0.9622621536254883,0.7504826784133911
1788049454487127600,15.48312744140625,-1.53775954246521,1.163797378540039,0.3500155210494995
1788049454503364400,15.4993642578125,-1.4375358819961548,1.3697710037231445,0.13890154659748077
1788049454519410700,15.51541064453125,-0.45622432231903076,1.3628902435302734,-0.23611265420913696
1788049454534993400,15.530993408203125,0.6002053022384644,1.2822589874267578,-0.5521537065505981
1788049454551013400,15.547013427734376,1.5886104106903076,1.0626773834228516,-0.6296473145484924
1788049454567277600,15.563277587890624,2.290159225463867,0.9178304672241211,-0.44588911533355713
1788049454583156000,15.579156005859375,2.8047618865966797,0.5952215194702148,-0.2416955530643463
1788049454599535600,15.59553564453125,2.9948458671569824,0.1322469711303711,-0.022285491228103638
1788049454615261700,15.61126171875,2.6853601932525635,-0.4013328552246094,-0.04529328644275665
1788049454631282000,15.627281982421875,1.641037940979004,-0.8419313430786133,-0.14164003729820251
1788049454647753000,15.6437529296875,0.6169474124908447,-1.0653371810913086,-0.4670262932777405
1788049454663466200,15.65946630859375,-0.1644042730331421,-1.0827407836914062,-0.7692557573318481
1788049454679869000,15.675868896484374,-0.635735273361206,-0.8866300582885742,-0.9386382699012756
1788049454695493600,15.69149365234375,-0.6690491437911987,-0.6578655242919922,-1.0086719989776611
1788049454711556600,15.707556640625,-0.2950335741043091,-0.43259620666503906,-0.9753517508506775
1788049454727883500,15.723883544921875,0.1880260705947876,-0.3016519546508789,-0.6594046354293823
1788049454743721700,15.7397216796875,0.8009178638458252,-0.08845901489257812,-0.34304049611091614
1788049454759963100,15.755963134765626,1.5868661403656006,-0.00592803955078125,0.017950667068362236
1788049454775865000,15.771864990234375,2.0960898399353027,-0.06922626495361328,0.3874409794807434
1788049454791687200,15.787687255859375,2.276733636856079,-0.2742795944213867,0.49671685695648193
1788049454808161000,15.8041611328125,1.6488759517669678,-0.5223045349121094,0.4117996394634247
1788049454823894500,15.81989453125,0.6667342185974121,-0.7214183807373047,0.42408135533332825
1788049454840182800,15.836182861328124,-0.14088106155395508,-0.8901023864746094,0.3230529725551605
1788049454856052200,15.85205224609375,-0.6784172058105469,-1.007136344909668,0.21004173159599304
1788049454871948000,15.867947998046875,-0.8261171579360962,-1.0476627349853516,0.2607528567314148
1788049454888116500,15.884116455078125,-0.9333903789520264,-0.9744958877563477,0.20898374915122986
1788049454904091400,15.90009130859375,-0.9576623439788818,-0.8761491775512695,0.2507498264312744
1788049454920289000,15.9162890625,-0.9327921867370605,-0.7884464263916016,0.10825411975383759
1788049454936172800,15.9321728515625,-0.712578296661377,-0.6611690521240234,0.010629028081893921
1788049454952038100,15.9480380859375,-0.4929780960083008,-0.5451536178588867,-0.063428595662117
1788049454968264400,15.964264404296875,-0.27666568756103516,-0.4289255142211914,-0.276225745677948
1788049454984102000,15.980101806640626,-0.19007468223571777,-0.2969551086425781,-0.4300574064254761
1788049455000503300,15.99650341796875,-0.05416703224182129,-0.14194869995117188,-0.5397306680679321
1788049455016202500,16.012202392578125,0.1732015609741211,0.017164230346679688,-0.5868095755577087
1788049455032247800,16.028247802734374,0.169447660446167,0.1484842300415039,-0.548890233039856
1788049455048501800,16.044501708984374,-0.013666629791259766,0.34918785095214844,-0.3821733593940735
1788049455064782800,16.060782958984376,-0.21038269996643066,0.5161876678466797,-0.2827422320842743
1788049455080718000,16.076718017578123,-0.29712748527526855,0.6463098526000977,-0.21011295914649963
1788049455096448300,16.0924482421875,-0.1507580280303955,0.7770023345947266,-0.14653752744197845
1788049455112462300,16.10846240234375,0.044968366622924805,0.8037948608398438,-0.15200813114643097
1788049455128785000,16.124784912109376,0.23075437545776367,0.8667964935302734,-0.06265214085578918
1788049455144513300,16.14051318359375,0.37818312644958496,0.8812189102172852,-0.1138370931148529
1788049455160949800,16.15694970703125,0.20565438270568848,1.0402326583862305,-0.3024474084377289
1788049455176604000,16.17260400390625,-0.6341730356216431,1.3955755233764648,-0.29793331027030945
1788049455192596000,16.188595947265625,-1.277653455734253,1.4417438507080078,0.03347089886665344
1788049455208861000,16.20486083984375,-1.245180368423462,1.3951101303100586,0.8434079885482788
1788049455224635100,16.22063525390625,-0.4069255590438843,1.2387313842773438,1.3474016189575195
1788049455241037600,16.23703759765625,0.7684981822967529,1.1310625076293945,1.3222055435180664
1788049455256811300,16.252811279296875,1.7001075744628906,0.8818979263305664,0.6713933944702148
1788049455272862700,16.26886279296875,1.982114553451538,0.7046566009521484,0.14451763033866882
1788049455289146000,16.28514599609375,2.064692497253418,0.4523782730102539,-0.35557782649993896
1788049455305273000,16.301273193359375,2.2125673294067383,0.016109466552734375,-0.47422218322753906
1788049455321543200,16.317543212890627,1.924487829208374,-0.39902210235595703,-0.46199852228164673
1788049455337121000,16.33312109375,1.2309775352478027,-0.8033084869384766,-0.43226534128189087
1788049455353128700,16.349128662109376,0.44094014167785645,-0.9345340728759766,-0.5655035972595215
1788049455369422800,16.3654228515625,-0.42189955711364746,-0.987584114074707,-0.4723460078239441
1788049455385268500,16.3812685546875,-1.1685950756072998,-0.8909206390380859,-0.10904314368963242
1788049455401687800,16.397687744140626,-1.3004876375198364,-0.6985111236572266,0.4026731848716736
1788049455417408300,16.413408203125,-0.9680172204971313,-0.5777044296264648,0.9115856289863586
1788049455433442300,16.4294423828125,-0.4549463987350464,-0.5278940200805664,1.0212496519088745
1788049455449676500,16.445676513671874,0.2189953327178955,-0.3311891555786133,0.9464974403381348
1788049455465457700,16.461457763671874,1.1694879531860352,-0.23183727264404297,0.8343772292137146
1788049455481822200,16.477822265625,2.0381743907928467,-0.2213878631591797,0.587374210357666
1788049455497600800,16.493600830078126,2.4500954151153564,-0.27066993713378906,0.27606239914894104
1788049455513686500,16.5096865234375,2.144310712814331,-0.37096595764160156,-0.15820538997650146
1788049455529938700,16.525938720703124,1.5053162574768066,-0.4928760528564453,-0.5972766280174255
1788049455545739000,16.541739013671876,0.6267819404602051,-0.6543693542480469,-0.7036643028259277
1788049455562144300,16.558144287109375,-0.04472994804382324,-0.8138751983642578,-0.566093385219574
1788049455578242000,16.574241943359375,-0.6107566356658936,-0.9083099365234375,-0.4380446672439575
1788049455594134500,16.590134521484377,-1.0111199617385864,-0.9142694473266602,-0.23973390460014343
1788049455610344000,16.606343994140627,-1.259872555732727,-0.8370599746704102,-0.008809037506580353
1788049455626401800,16.62240185546875,-1.2581366300582886,-0.6587991714477539,0.06878039985895157
1788049455642398700,16.638398681640624,-0.9248466491699219,-0.48708534240722656,0.15094226598739624
1788049455658052600,16.654052490234374,-0.4297981262207031,-0.3054800033569336,0.3072391748428345
1788049455674269400,16.67026953125,0.023113727569580078,-0.11779117584228516,0.35138779878616333
1788049455690519300,16.686519287109373,0.39443325996398926,-0.007140159606933594,0.3201616406440735
1788049455706314000,16.70231396484375,0.44268083572387695,0.012247085571289062,0.30054304003715515
1788049455722574600,16.71857470703125,0.4505729675292969,0.0031709671020507812,0.3740377426147461
1788049455738588200,16.734588134765627,0.2916872501373291,-0.12482738494873047,0.3895696699619293
1788049455754406100,16.75040625,0.006418943405151367,-0.12013816833496094,0.32836422324180603
1788049455770451000,16.766450927734375,-0.4565255641937256,-0.13239097595214844,0.2206418365240097
1788049455786273800,16.782273681640625,-1.0791435241699219,-0.054355621337890625,0.10654431581497192
1788049455802615000,16.798614990234373,-1.384183406829834,-0.0020923614501953125,0.17840105295181274
1788049455818348800,16.814348876953126,-1.3792678117752075,0.12136554718017578,0.31425681710243225
1788049455834312700,16.830312744140624,-1.0935999155044556,0.2885932922363281,0.38993164896965027
1788049455850634200,16.84663427734375,-0.8285180330276489,0.41931724548339844,0.3120911717414856
1788049455866410200,16.86241015625,-0.6525735855102539,0.5307607650756836,0.30157268047332764
1788049455882916900,16.878916748046876,-0.3826565742492676,0.6929092407226562,0.47491776943206787
1788049455898657800,16.89465771484375,-0.08710336685180664,0.7186708450317383,0.5876575708389282
1788049455914505000,16.9105048828125,0.37650465965270996,0.7648496627807617,0.5007422566413879
1788049455930813400,16.9268134765625,0.64121413230896,0.8343009948730469,0.31992244720458984
1788049455946702300,16.942702392578123,0.3408620357513428,1.1297731399536133,0.1383519470691681
1788049455962987300,16.9589873046875,-0.43797993659973145,1.3405866622924805,-0.1558230221271515
1788049455978700500,16.974700439453127,-1.0996884107589722,1.5737733840942383,-0.5334970355033875
1788049455994935000,16.99093505859375,-0.8483096361160278,1.7670879364013672,-0.5796175003051758
1788049456011034000,17.0070341796875,0.08443808555603027,1.6778945922851562,-0.5066937208175659
1788049456026926000,17.022926025390625,1.204683542251587,1.4452877044677734,-0.7556651830673218
1788049456043204600,17.03920458984375,2.296800374984741,1.1214570999145508,-0.7533836960792542
1788049456058983200,17.054983154296874,3.1708836555480957,0.6619958877563477,-0.8544529676437378
1788049456075032000,17.071031982421875,3.4880053997039795,0.09654617309570312,-0.84151691198349
1788049456091226000,17.08722607421875,3.014127254486084,-0.4493370056152344,-0.7864973545074463
1788049456107073000,17.103072998046876,1.9685983657836914,-1.0081062316894531,-0.5098311305046082
1788049456123441000,17.11944091796875,0.9232792854309082,-1.3406133651733398,-0.3239186704158783
1788049456139597300,17.135597412109377,-0.18420052528381348,-1.3878145217895508,-0.12974587082862854
1788049456155226400,17.151226318359374,-1.2127491235733032,-1.1694402694702148,-0.08696766197681427
1788049456171610400,17.1676103515625,-1.6549999713897705,-0.8650941848754883,-0.09914280474185944
1788049456187323000,17.183322998046876,-1.225090503692627,-0.5761928558349609,-0.32331937551498413
1788049456203683300,17.199683349609376,-0.2364652156829834,-0.43715476989746094,-0.33204221725463867
1788049456219343600,17.215343505859376,0.7506203651428223,-0.28682518005371094,-0.2110254019498825
1788049456235483000,17.23148291015625,1.592585563659668,-0.07320022583007812,-0.3805773854255676
1788049456251702800,17.247702880859375,2.417870044708252,0.031083106994628906,-0.45269864797592163
1788049456267492900,17.263492919921877,2.921588182449341,-0.061621665954589844,-0.08920373767614365
1788049456283896800,17.279896728515624,2.5516915321350098,-0.34509754180908203,0.4089077115058899
1788049456299697400,17.295697509765624,1.5791213512420654,-0.6280813217163086,0.6874151229858398
1788049456315614700,17.31161474609375,0.5711324214935303,-0.8716001510620117,0.7641769051551819
1788049456331931600,17.327931640625,-0.39250993728637695,-1.0944833755493164,0.7475336194038391
1788049456347887600,17.3438876953125,-1.122827410697937,-1.1320877075195312,0.650043249130249
1788049456364266800,17.360266845703126,-1.536346673965454,-1.0291337966918945,0.581528902053833
1788049456379886800,17.375886962890625,-1.6186443567276,-0.8747768402099609,0.36620163917541504
1788049456396343000,17.392343017578124,-1.2758793830871582,-0.6751308441162109,0.17999212443828583
1788049456412178000,17.408177978515624,-0.7952432632446289,-0.3995399475097656,-0.16472163796424866
1788049456427970000,17.423969970703126,-0.262587308883667,-0.2013101577758789,-0.27782806754112244
1788049456444344800,17.4403447265625,0.14355158805847168,0.02580738067626953,-0.45085591077804565
1788049456460090400,17.45609033203125,0.33606386184692383,0.15652084350585938,-0.6604719161987305
1788049456476102100,17.47210205078125,0.4888739585876465,0.269775390625,-0.7450165748596191
1788049456492391000,17.488390869140623,0.6463046073913574,0.2656059265136719,-0.8343998789787292
1788049456508390000,17.504389892578125,0.6734850406646729,0.26510047912597656,-0.8380917310714722
1788049456524675000,17.520675048828124,0.49912023544311523,0.2258005142211914,-0.7259700894355774
1788049456540531200,17.53653125,0.14006304740905762,0.2617616653442383,-0.5824538469314575
1788049456556324400,17.552324462890624,-0.22994065284729004,0.29903316497802734,-0.4565218389034271
1788049456572649200,17.568649169921876,-0.5512094497680664,0.39417171478271484,-0.352165549993515
1788049456588522200,17.584522216796874,-0.6220684051513672,0.5275173187255859,-0.1876596063375473
1788049456604745700,17.600745849609375,-0.6042685508728027,0.5811939239501953,0.034149378538131714
1788049456620476200,17.61647607421875,-0.47138190269470215,0.6473569869995117,0.30434170365333557
1788049456636478500,17.632478515625,-0.3158586025238037,0.6746292114257812,0.4036964178085327
1788049456652963300,17.64896337890625,-0.04781794548034668,0.7276716232299805,0.209172785282135
1788049456668543000,17.66454296875,0.3066856861114502,0.7856998443603516,-0.1393263339996338
1788049456685049300,17.68104931640625,0.3738672733306885,1.0572776794433594,-0.5594025254249573
1788049456700646400,17.696646484375,-0.19237232208251953,1.4442815780639648,-0.8004935383796692
1788049456716602600,17.7126025390625,-0.9644299745559692,1.555551528930664,-0.5573039054870605
1788049456732893400,17.7288935546875,-1.0660812854766846,1.736440658569336,-0.03639191389083862
1788049456748709000,17.744709228515624,-0.04094743728637695,1.802572250366211,0.7083733081817627
1788049456765075700,17.76107568359375,1.4696264266967773,1.5001678466796875,1.510278582572937
1788049456780818400,17.776818359375,2.9760758876800537,0.9872255325317383,1.794209599494934
1788049456796834600,17.79283447265625,3.5668907165527344,0.3685111999511719,1.4009110927581787
1788049456813114000,17.809114013671874,2.8872270584106445,-0.16507816314697266,0.8410748243331909
1788049456828940300,17.824940185546875,1.5952019691467285,-0.7151002883911133,0.2664072513580322
1788049456845441000,17.84144091796875,0.804020881652832,-1.183131217956543,-0.029748648405075073
1788049456861071400,17.8570712890625,0.3405592441558838,-1.6538238525390625,-0.4540470838546753
1788049456877074400,17.873074462890624,-0.07143020629882812,-1.6959776878356934,-0.6119194626808167
1788049456893486800,17.88948681640625,-0.3063431978225708,-1.7066640853881836,-0.849138617515564
1788049456909179000,17.905178955078124,-0.7563782930374146,-1.374302864074707,-0.48701560497283936
1788049456925547500,17.921547607421875,-0.8262805938720703,-1.0817193984985352,-0.09352540969848633
1788049456941264600,17.9372646484375,-0.4363800287246704,-0.8799819946289062,0.3881777822971344
1788049456957720600,17.953720458984375,0.2684943675994873,-0.5147476196289062,0.4950956106185913
1788049456973583600,17.96958349609375,1.2685048580169678,-0.18163299560546875,0.5348570942878723
1788049456989355300,17.985355224609375,2.6407322883605957,-0.029407501220703125,0.9027605652809143
1788049457005715200,18.001715087890624,3.7325189113616943,-0.05596923828125,1.345487117767334
1788049457021452500,18.01745263671875,4.007218360900879,-0.19512557983398438,1.3335552215576172
1788049457037432800,18.033432861328127,3.04144024848938,-0.36560916900634766,0.7089757919311523
1788049457053726000,18.049725830078124,1.6164612770080566,-0.5304231643676758,0.08364960551261902
1788049457069502700,18.065502685546875,0.5945770740509033,-0.6910781860351562,-0.19721725583076477
1788049457085922600,18.081922607421873,0.1888427734375,-0.9061670303344727,-0.25381460785865784
1788049457101705700,18.097705810546874,0.024060726165771484,-0.9993553161621094,-0.20611469447612762
1788049457117753900,18.11375390625,-0.06751060485839844,-0.997528076171875,-0.09335954487323761
1788049457134076200,18.130076171875,-0.17195367813110352,-0.9443578720092773,0.0792209804058075
1788049457149815000,18.14581494140625,-0.38353800773620605,-0.7458839416503906,0.22520065307617188
1788049457166331000,18.162330810546877,-0.5651086568832397,-0.49859046936035156,0.3146066665649414
1788049457181920300,18.177920166015625,-0.5206882953643799,-0.24491119384765625,0.4336930513381958
1788049457198071300,18.1940712890625,-0.17019057273864746,-0.06044292449951172,0.5053358674049377
1788049457214400500,18.210400390625,0.15711688995361328,0.09230422973632812,0.6528744101524353
1788049457230388000,18.226387939453126,0.6013484001159668,0.20160961151123047,0.6064942479133606
1788049457246492000,18.242491943359376,0.9257941246032715,0.2889842987060547,0.4284079670906067
1788049457262318000,18.258318115234374,1.0951409339904785,0.26271533966064453,0.11272679269313812
1788049457278044400,18.27404443359375,1.1948907375335693,0.2724647521972656,-0.46031391620635986
1788049457294428400,18.290428466796875,1.1248137950897217,0.19609546661376953,-0.8916780948638916
1788049457310282800,18.30628271484375,0.8419549465179443,0.15441226959228516,-1.0464448928833008
1788049457326614500,18.322614501953126,0.6314918994903564,0.133453369140625,-1.0287535190582275
1788049457342359000,18.338359130859374,0.5407474040985107,0.0866079330444336,-0.886895477771759
1788049457358370300,18.354370361328126,0.35515451431274414,-0.031365394592285156,-0.45789724588394165
1788049457374642000,18.370641845703126,0.18677186965942383,-0.15265750885009766,0.004753038287162781
1788049457390613500,18.386613525390626,0.2628185749053955,-0.23267555236816406,0.3562741279602051
1788049457406842000,18.402842041015624,0.32316088676452637,-0.2260599136352539,0.43651336431503296
1788049457422553900,18.418553955078124,0.19645047187805176,-0.15536212921142578,0.44673269987106323
1788049457438896000,18.434896240234377,-0.08172607421875,-0.043471336364746094,0.5185043811798096
1788049457454809000,18.45080908203125,-0.45286035537719727,0.15114974975585938,0.6330971121788025
1788049457471128300,18.46712841796875,-0.6902259588241577,0.46230602264404297,0.7135305404663086
1788049457487075600,18.48307568359375,-1.1797000169754028,0.8393802642822266,0.8138844966888428
1788049457502781400,18.498781494140626,-1.3604263067245483,1.0275964736938477,0.8379706144332886
1788049457518762800,18.5147626953125,-0.7701840400695801,1.1959705352783203,0.8109237551689148
1788049457535043300,18.531043212890626,0.5181717872619629,1.0544633865356445,0.42720934748649597
1788049457550797600,18.546797607421876,1.7154333591461182,0.7870702743530273,0.05147957429289818
1788049457567177700,18.563177734375,2.3109099864959717,0.40913867950439453,-0.39640915393829346
1788049457582915300,18.578915283203123,2.2071144580841064,-0.040569305419921875,-0.45663008093833923
1788049457599050000,18.595050048828124,1.3361320495605469,-0.30393218994140625,-0.3988775908946991
1788049457615168800,18.611168701171874,0.29317617416381836,-0.5204591751098633,-0.49168476462364197
1788049457631078700,18.62707861328125,-0.3479483127593994,-0.6486825942993164,-0.4094621241092682
1788049457647466200,18.64346630859375,-0.5053436756134033,-0.714259147644043,-0.00675283744931221
1788049457663084300,18.659084228515624,-0.528249979019165,-0.6993312835693359,0.3464857339859009
1788049457679174100,18.675174072265627,-0.47263574600219727,-0.6648473739624023,0.6213359236717224
1788049457695352000,18.69135205078125,-0.3954296112060547,-0.5458774566650391,0.6469833850860596
1788049457711149600,18.707149658203125,-0.354870080947876,-0.40834999084472656,0.48216551542282104
1788049457727658500,18.723658447265624,-0.35138654708862305,-0.23612308502197266,0.12726612389087677
1788049457743310800,18.739310791015626,-0.20113062858581543,-0.12891674041748047,-0.12233743816614151
1788049457759244800,18.755244873046873,0.16666388511657715,-0.08332633972167969,-0.3001692295074463
1788049457775683600,18.77168359375,0.6906905174255371,-0.052215576171875,-0.4069788455963135
1788049457791344600,18.7873447265625,1.165525197982788,-0.06858539581298828,-0.5359936952590942
1788049457807723000,18.803722900390625,1.3171167373657227,-0.08222675323486328,-0.7653282880783081
1788049457823468500,18.819468505859376,1.1119506359100342,-0.06495094299316406,-1.0326964855194092
1788049457839471000,18.83547119140625,0.7300810813903809,-0.08817386627197266,-1.233068823814392
1788049457855787800,18.851787841796874,0.3099231719970703,-0.06328010559082031,-1.070359230041504
1788049457871466000,18.867466064453126,0.03498339653015137,-0.1027984619140625,-0.6718122959136963
1788049457887839000,18.8838388671875,-0.18895387649536133,-0.1316814422607422,-0.12227745354175568
1788049457903543800,18.899543701171876,-0.1915285587310791,-0.14399433135986328,0.21083112061023712
1788049457919564000,18.91556396484375,-0.04931783676147461,-0.1456279754638672,0.3838648200035095
1788049457935911400,18.931911376953124,-0.2668449878692627,-0.08956718444824219,0.4112779498100281
1788049457951661000,18.9476611328125,-0.6388838291168213,-0.04163360595703125,0.3416128158569336
1788049457968007400,18.96400732421875,-0.9989533424377441,0.08902454376220703,0.22180157899856567
1788049457984188000,18.98018798828125,-1.1105493307113647,0.2154245376586914,0.03857845067977905
1788049457999749000,18.9957490234375,-0.8352940082550049,0.3311576843261719,-0.2370293140411377
1788049458016011500,19.012011474609373,-0.24922609329223633,0.4485454559326172,-0.482300728559494
1788049458031815400,19.0278154296875,0.513113260269165,0.548518180847168,-0.6781367063522339
1788049458048208600,19.044208740234374,0.9735479354858398,0.5279092788696289,-0.7209233641624451
1788049458063914200,19.059914306640625,1.2076609134674072,0.46103382110595703,-0.6383012533187866
1788049458079909000,19.0759091796875,1.129073143005371,0.33430957794189453,-0.5895211696624756
1788049458096251100,19.092251220703126,0.8900003433227539,0.2437305450439453,-0.5945706963539124
1788049458112000800,19.108000732421875,0.49027323722839355,0.0902700424194336,-0.5921167731285095
1788049458128341500,19.124341552734375,0.1368703842163086,-0.029939651489257812,-0.501461923122406
1788049458144071700,19.14007177734375,-0.1161048412322998,-0.18054580688476562,-0.23985520005226135
1788049458160059000,19.156058837890626,-0.4020047187805176,-0.2577638626098633,-0.036775827407836914
1788049458176330800,19.172330810546875,-0.5250754356384277,-0.30213356018066406,0.10037997364997864
1788049458192258000,19.188258056640624,-0.49979543685913086,-0.23664093017578125,0.11955365538597107
1788049458208522800,19.204522705078126,-0.3758244514465332,-0.11779308319091797,-0.06716135144233704
1788049458224261400,19.220261474609377,-0.403062105178833,0.06848526000976562,-0.2957232594490051
1788049458240270000,19.23627001953125,-0.3370988368988037,0.2662391662597656,-0.41579464077949524
1788049458256614400,19.252614501953126,-0.17207121849060059,0.3877840042114258,-0.2885749936103821
1788049458272419600,19.268419677734375,0.2771439552307129,0.4456968307495117,-0.1409473717212677
1788049458288907300,19.2849072265625,0.7081770896911621,0.44193363189697266,-0.13412272930145264
1788049458304547800,19.3005478515625,0.8590090274810791,0.3927145004272461,-0.22561991214752197
1788049458320748800,19.316748779296876,0.6390738487243652,0.31806468963623047,-0.1702253818511963
1788049458337038800,19.333038818359373,0.21023845672607422,0.2430858612060547,-0.1440994143486023
1788049458352659700,19.34865966796875,-0.27228498458862305,0.16320419311523438,-0.22198182344436646
1788049458369133300,19.36513330078125,-0.6191253662109375,0.13666725158691406,-0.320117712020874
1788049458384909300,19.380909423828125,-0.7063617706298828,0.15027332305908203,-0.4882633090019226
1788049458401019600,19.39701953125,-0.43956899642944336,0.12310791015625,-0.6107041835784912
1788049458417036000,19.4130361328125,-0.23284482955932617,0.11390113830566406,-0.6692430973052979
1788049458432845800,19.428845703125,-0.19484448432922363,0.052239418029785156,-0.9254159927368164
1788049458449314300,19.445314208984374,-0.020762205123901367,0.048992156982421875,-1.1420602798461914
1788049458464897000,19.46089697265625,0.08959746360778809,0.018581390380859375,-1.295973539352417
1788049458480858400,19.4768583984375,-0.1041712760925293,0.028806686401367188,-1.4169437885284424
1788049458497138200,19.49313818359375,-0.1337442398071289,0.0926656723022461,-1.2489358186721802
1788049458512882000,19.5088818359375,-0.17670631408691406,0.09001350402832031,-1.2369883060455322
1788049458529386200,19.52538623046875,0.07498741149902344,0.17974281311035156,-1.0021848678588867
1788049458545442600,19.541442626953124,0.3500664234161377,0.12265396118164062,-0.8978407979011536
1788049458560983300,19.5569833984375,0.48531436920166016,0.20219993591308594,-0.5972882509231567
1788049458577301500,19.573301513671876,0.2781836986541748,0.3469867706298828,-0.37949955463409424
1788049458593083000,19.589082763671875,-0.005363941192626953,0.460693359375,-0.2307642102241516
1788049458609511200,19.60551123046875,-0.08045101165771484,0.4921875,-0.084189772605896
1788049458625191700,19.621191650390625,0.21344470977783203,0.4104175567626953,0.02407163381576538
1788049458641247700,19.637247802734375,0.7114198207855225,0.2200918197631836,0.1278955340385437
1788049458657474600,19.653474609375,1.0774037837982178,-0.020483016967773438,0.2632104158401489
1788049458673391900,19.669391845703124,0.9966747760772705,-0.17630767822265625,0.19849181175231934
1788049458689654300,19.685654296875,0.5723955631256104,-0.2291097640991211,-0.08268964290618896
1788049458705378300,19.70137841796875,0.2921891212463379,-0.19025611877441406,-0.20849931240081787
1788049458721362200,19.717362060546876,0.26296257972717285,-0.19696712493896484,-0.032018303871154785
1788049458737644800,19.733644775390626,0.2889881134033203,-0.15879058837890625,0.3467777371406555
1788049458753446700,19.74944677734375,0.177811861038208,-0.1538381576538086,0.8811694383621216
1788049458769827300,19.765827392578124,-0.21622276306152344,-0.09165382385253906,1.197685718536377
1788049458785517300,19.781517333984375,-0.761401891708374,0.09987640380859375,1.3019368648529053
1788049458801953000,19.797953125,-0.8532875776290894,0.3280162811279297,1.2436407804489136
1788049458817784600,19.81378466796875,-0.4115922451019287,0.43909645080566406,1.0376754999160767
1788049458833680000,19.829679931640626,0.2610609531402588,0.5334558486938477,0.8261171579360962
1788049458849970200,19.84597021484375,1.0023362636566162,0.5768909454345703,0.6713083982467651
1788049458866060000,19.86206005859375,1.3276636600494385,0.4255962371826172,0.6681129932403564
1788049458881652500,19.877652587890626,1.3480846881866455,0.3876686096191406,0.38258975744247437
1788049458897985500,19.893985595703125,1.4230968952178955,0.21657371520996094,0.2541433572769165
1788049458913814500,19.909814453125,1.5694639682769775,-0.05817699432373047,0.16327542066574097
1788049458930270200,19.926270263671874,1.7342638969421387,-0.3952932357788086,0.1462727189064026
1788049458945887000,19.941886962890624,1.6836576461791992,-0.7743778228759766,0.2842261791229248
1788049458961892900,19.957892822265624,1.2715439796447754,-0.982025146484375,0.361503541469574
1788049458978266000,19.97426611328125,0.6958761215209961,-1.1526451110839844,0.48709630966186523
