time,seconds_elapsed,z,y,x
1788049439183911200,0.1799111328125,-0.0006108652451075613,0.0024434609804302454,-0.001832595793530345
1788049439200525800,0.19652587890625,-0.0006108652451075613,0.0024434609804302454,-0.001832595793530345
1788049439216328000,0.212327880859375,-0.0006108652451075613,0.0024434609804302454,-0.001832595793530345
1788049439232025600,0.228025634765625,-0.0006108652451075613,0.0024434609804302454,-0.001832595793530345
1788049439248447700,0.24444775390625,-0.0006108652451075613,0.0024434609804302454,-0.001832595793530345
1788049439264073200,0.2600732421875,-0.0006108652451075613,0.0024434609804302454,-0.001832595793530345
1788049439280056300,0.276056396484375,-0.0006108652451075613,0.0024434609804302454,-0.001832595793530345
1788049439296325000,0.2923251953125,-0.0006108652451075613,0.0024434609804302454,-0.001832595793530345
1788049439312147200,0.308147216796875,-0.007941247895359993,0.013439035043120384,-0.01160643994808197
1788049439328405000,0.324405029296875,-0.006108652334660292,0.0024434609804302454,-0.015882495790719986
1788049439344249600,0.34024951171875,0.0006108652451075613,-0.013439035043120384,-0.009773843921720982
1788049439360235800,0.35623583984375,-0.00855211354792118,0.0006108652451075613,-0.003054326167330146
1788049439384287500,0.38028759765625,-0.014049900695681572,0.018936822190880775,-0.04581489413976669
1788049439400299000,0.396299072265625,0.001832595793530345,0.005497787147760391,-0.045204028487205505
1788049439416562000,0.41256201171875,0.009773843921720982,0.0024434609804302454,-0.02871066704392433
1788049439432357400,0.428357421875,0.0024434609804302454,0.00427605677396059,-0.006719517521560192
1788049439448686300,0.444686279296875,-0.0024434609804302454,0.01160643994808197,0.0024434609804302454
1788049439464425200,0.46042529296875,-0.001832595793530345,0.013439035043120384,0.00427605677396059
1788049439480454700,0.47645458984375,-0.00427605677396059,0.02382374368607998,0.003054326167330146
1788049439496678000,0.492677978515625,0,0.02687807008624077,-0.0006108652451075613
1788049439512469800,0.5084697265625,0.013439035043120384,0.029932396486401558,0.005497787147760391
1788049439528814600,0.524814697265625,0.021380282938480377,0.025045474991202354,0.010995574295520782
1788049439544511200,0.54051123046875,0.02871066704392433,0.03237585723400116,0.01160643994808197
1788049439560458500,0.55645849609375,0.03176499158143997,0.029932396486401558,0.006108652334660292
1788049439576836900,0.5728369140625,0.03298672288656235,0.027488935738801956,0.00855211354792118
1788049439592519200,0.588519287109375,0.03176499158143997,0.022602014243602753,0.018325956538319588
1788049439609237800,0.60523779296875,0.02626720629632473,0.01466076634824276,0.01710422709584236
1788049439624600800,0.620600830078125,0.02321287989616394,0.003054326167330146,0.0012217304902151227
1788049439640831200,0.636831298828125,0.014049900695681572,-0.0006108652451075613,-0.018325956538319588
1788049439656826000,0.652826171875,-0.004886921960860491,0.012217304669320583,-0.03481931984424591
1788049439672585000,0.6685849609375,-0.018325956538319588,0.012217304669320583,-0.04092797264456749
1788049439688961300,0.684961181640625,-0.019547687843441963,0,-0.03848451003432274
1788049439704781300,0.70078125,-0.01710422709584236,-0.00427605677396059,-0.039095375686883926
1788049439720596700,0.7165966796875,-0.012217304669320583,-0.014049900695681572,-0.03237585723400116
1788049439736901400,0.7329013671875,-0.003054326167330146,-0.029932396486401558,-0.03237585723400116
1788049439752693200,0.748693359375,0.012828170321881771,-0.039706241339445114,-0.028099801391363144
1788049439769036000,0.7650361328125,0.021380282938480377,-0.04764748737215996,-0.030543262138962746
1788049439784759300,0.78075927734375,0.014049900695681572,-0.04764748737215996,-0.02932153269648552
1788049439800718000,0.796718017578125,0.00855211354792118,-0.04092797264456749,-0.02321287989616394
1788049439817011500,0.813011474609375,0.01038470957428217,-0.03420845419168472,-0.02321287989616394
1788049439832798000,0.8287978515625,0.01160643994808197,-0.04153883829712868,-0.036651913076639175
1788049439849147600,0.845147705078125,0.01771509274840355,-0.05619960278272629,-0.04153883829712868
1788049439865250600,0.86125048828125,0.022602014243602753,-0.06230825558304787,-0.025045474991202354
1788049439880798200,0.876798095703125,0.012217304669320583,-0.048258353024721146,-0.02382374368607998
1788049439897088000,0.893087890625,0.0024434609804302454,-0.03481931984424591,-0.05619960278272629
1788049439912912600,0.90891259765625,0.0006108652451075613,-0.05497787147760391,-0.07757988572120667
1788049439929236200,0.925236328125,-0.0006108652451075613,-0.06719517707824707,-0.06841690838336945
1788049439944917000,0.9409169921875,-0.004886921960860491,-0.07391469180583954,-0.04764748737215996
1788049439960946000,0.95694580078125,-0.007941247895359993,-0.0659734457731247,-0.03726277872920036
1788049439977207000,0.97320703125,-0.01038470957428217,-0.05803219974040985,-0.030543262138962746
1788049439992987100,0.988987060546875,-0.01038470957428217,-0.04459316283464432,-0.028099801391363144
1788049440009405700,1.00540576171875,-0.012828170321881771,-0.036651913076639175,-0.036651913076639175
1788049440025050000,1.021050048828125,-0.003054326167330146,-0.07269296050071716,-0.06475171446800232
1788049440041132000,1.037132080078125,-0.0024434609804302454,-0.10506882518529892,-0.08674286305904388
1788049440057347600,1.05334765625,-0.015271631069481373,-0.11239920556545258,-0.08674286305904388
1788049440073092600,1.069092529296875,-0.03481931984424591,-0.12095131725072861,-0.07391469180583954
1788049440089506000,1.085506103515625,-0.0354301854968071,-0.13927727937698364,-0.06230825558304787
1788049440105183700,1.101183837890625,-0.0354301854968071,-0.17776179313659668,-0.054367005825042725
1788049440121666800,1.117666748046875,-0.042760565876960754,-0.15393804013729095,-0.0354301854968071
1788049440145237000,1.141237060546875,-0.06108652427792549,-0.09651670604944229,0.009162978269159794
1788049440161250800,1.157250732421875,-0.059864792972803116,-0.07147123664617538,0.01710422709584236
1788049440177476000,1.17347607421875,-0.039706241339445114,-0.06841690838336945,-0.003054326167330146
1788049440193270500,1.1892705078125,-0.030543262138962746,-0.0708603709936142,-0.016493361443281174
1788049440209649400,1.2056494140625,-0.015882495790719986,-0.09529497474431992,-0.03420845419168472
1788049440225296400,1.22129638671875,-0.007941247895359993,-0.11545353382825851,-0.06475171446800232
1788049440241309200,1.23730908203125,-0.00427605677396059,-0.12522737681865692,-0.09162978827953339
1788049440257545000,1.253544921875,0.0006108652451075613,-0.11911872029304504,-0.0910189226269722
1788049440273824300,1.26982421875,0.004886921960860491,-0.07880161702632904,-0.06352998316287994
1788049440289714700,1.285714599609375,0.015271631069481373,-0.039706241339445114,-0.02382374368607998
1788049440305436400,1.3014365234375,0.02687807008624077,0.00366519158706069,0
1788049440321469200,1.31746923828125,0.02382374368607998,0.02626720629632473,-0.015271631069481373
1788049440337696500,1.333696533203125,0.001832595793530345,0.036651913076639175,-0.05864306539297104
1788049440353455000,1.349455078125,-0.028099801391363144,0.03726277872920036,-0.07757988572120667
1788049440369924600,1.365924560546875,-0.05253441259264946,0.03481931984424591,-0.06658431142568588
1788049440385559300,1.381559326171875,-0.06475171446800232,0.009162978269159794,-0.03237585723400116
1788049440401596400,1.397596435546875,-0.06780604273080826,-0.005497787147760391,0.006719517521560192
1788049440417823000,1.413822998046875,-0.06780604273080826,0.006108652334660292,0.02076941914856434
1788049440433571000,1.429571044921875,-0.06108652427792549,-0.006719517521560192,-0.031154127791523933
1788049440449921800,1.445921875,-0.0354301854968071,-0.02076941914856434,-0.09651670604944229
1788049440465675500,1.461675537109375,-0.025656340643763542,-0.036651913076639175,-0.08552113175392151
1788049440481729500,1.4777294921875,-0.02932153269648552,-0.05375614017248154,-0.022602014243602753
1788049440497995300,1.493995361328125,-0.045204028487205505,-0.05314527451992035,0.01771509274840355
1788049440513718500,1.509718505859375,-0.0507018156349659,-0.05497787147760391,0.02932153269648552
1788049440530430500,1.526430419921875,-0.04886921867728233,-0.054367005825042725,0.03726277872920036
1788049440545794800,1.541794921875,-0.0354301854968071,-0.042760565876960754,0.05619960278272629
1788049440561766400,1.557766357421875,-0.021991148591041565,-0.02871066704392433,0.08857546001672745
1788049440578020400,1.574020263671875,-0.013439035043120384,-0.01771509274840355,0.10934487730264664
1788049440593769700,1.589769775390625,0.00366519158706069,0.0024434609804302454,0.0959058403968811
1788049440610090800,1.6060908203125,0.009773843921720982,0.024434609338641167,0.04886921867728233
1788049440625831700,1.621831787109375,0.012828170321881771,0.03726277872920036,0.007941247895359993
1788049440641828900,1.637828857421875,0.01466076634824276,0.04214970022439957,-0.03237585723400116
1788049440658053400,1.654053466796875,0.004886921960860491,0.039706241339445114,-0.06902777403593063
1788049440673825800,1.66982568359375,-0.00366519158706069,0.05619960278272629,-0.07635815441608429
1788049440690282800,1.68628271484375,-0.01160643994808197,0.05864306539297104,-0.06291911751031876
1788049440706125600,1.70212548828125,0.00427605677396059,0.06719517707824707,-0.04153883829712868
1788049440722009300,1.71800927734375,-0.001832595793530345,0.06658431142568588,-0.025656340643763542
1788049440738585000,1.734585205078125,-0.00427605677396059,0.07757988572120667,0
1788049440754028000,1.750028076171875,0.0012217304902151227,0.06414084881544113,-0.007941247895359993
1788049440770581500,1.76658154296875,0.02076941914856434,0.033597588539123535,-0.03420845419168472
1788049440786579000,1.782578857421875,0.042760565876960754,0.030543262138962746,-0.0403171069920063
1788049440802404400,1.798404296875,0.05742133408784866,0.033597588539123535,-0.014049900695681572
1788049440818424800,1.8144248046875,0.06902777403593063,0.04642575979232788,0.02932153269648552
1788049440834415400,1.830415283203125,0.07147123664617538,0.09529497474431992,0.0861319974064827
1788049440850623700,1.846623779296875,0.07147123664617538,0.10873401165008545,0.10018189996480942
1788049440866801400,1.862801513671875,0.08674286305904388,0.06291911751031876,0.025045474991202354
1788049440882540800,1.878540771484375,0.08002334833145142,0.03726277872920036,-0.07757988572120667
1788049440898571800,1.89457177734375,0.02626720629632473,0.09407325088977814,-0.17776179313659668
1788049440914421000,1.9104208984375,-0.02382374368607998,0.1362229436635971,-0.21380282938480377
1788049440930604500,1.9266044921875,-0.03420845419168472,0.1472185254096985,-0.1716531366109848
1788049440946393300,1.942393310546875,-0.03176499158143997,0.17959438264369965,-0.08857546001672745
1788049440962479600,1.958479736328125,-0.015882495790719986,0.17348572611808777,-0.06169738993048668
1788049440978669600,1.974669677734375,0.009773843921720982,0.12217304855585098,-0.08796459436416626
1788049440994614300,1.9906142578125,0.02626720629632473,0.09407325088977814,-0.09712757170200348
1788049441010803000,2.006802978515625,0.009162978269159794,0.13988813757896423,-0.04948008432984352
1788049441026472200,2.02247216796875,-0.013439035043120384,0.21441370248794556,0.003054326167330146
1788049441043063600,2.0390634765625,-0.02076941914856434,0.30482175946235657,0.09407325088977814
1788049441058659300,2.054659423828125,-0.0024434609804302454,0.3787364661693573,0.19058994948863983
1788049441074428400,2.070428466796875,0.02626720629632473,0.4129449129104614,0.2278527319431305
1788049441090719500,2.086719482421875,0.08552113175392151,0.41661009192466736,0.18509216606616974
1788049441106468600,2.102468505859375,0.13561208546161652,0.3952298164367676,0.09162978827953339
1788049441122480400,2.11848046875,0.16737708449363708,0.3842342495918274,0.01160643994808197
1788049441138758100,2.134758056640625,0.1765400618314743,0.36713001132011414,-0.015882495790719986
1788049441154498600,2.15049853515625,0.16004669666290283,0.3274237811565399,-0.03420845419168472
1788049441170925600,2.166925537109375,0.14049901068210602,0.2590068578720093,-0.0555887371301651
1788049441186587100,2.182587158203125,0.11728613078594208,0.18448130786418915,-0.04886921867728233
1788049441202630100,2.198630126953125,0.09407325088977814,0.10323622822761536,0.007941247895359993
1788049441219030500,2.215030517578125,0.08185594528913498,0.029932396486401558,0.07024950534105301
1788049441234651600,2.230651611328125,0.06536258012056351,-0.0024434609804302454,0.09834930300712585
1788049441250988300,2.24698828125,0.015882495790719986,0.01466076634824276,0.08429940044879913
1788049441266786000,2.2627861328125,-0.051312681287527084,0.04459316283464432,0.039095375686883926
1788049441282801700,2.2788017578125,-0.10506882518529892,0.09651670604944229,-0.016493361443281174
1788049441299523000,2.295523193359375,-0.1417207419872284,0.12950342893600464,-0.07269296050071716
1788049441314792400,2.31079248046875,-0.11789698898792267,0.10690141469240189,-0.09529497474431992
1788049441331218000,2.327218017578125,-0.06352998316287994,0.04581489413976669,-0.08735372871160507
1788049441347368000,2.343367919921875,0.010995574295520782,-0.018325956538319588,-0.0659734457731247
1788049441362893800,2.358893798828125,0.06780604273080826,-0.042760565876960754,-0.033597588539123535
1788049441379152000,2.37515185546875,0.09834930300712585,-0.04948008432984352,-0.0006108652451075613
1788049441394897700,2.390897705078125,0.1160643994808197,-0.05497787147760391,0.018936822190880775
1788049441411295200,2.407295166015625,0.12950342893600464,-0.07024950534105301,0.025045474991202354
1788049441426984000,2.42298388671875,0.1362229436635971,-0.09224065393209457,0.021380282938480377
1788049441442969000,2.438968994140625,0.1270599663257599,-0.10873401165008545,0.02871066704392433
1788049441459206100,2.4552060546875,0.10690141469240189,-0.13316862285137177,0.0507018156349659
1788049441474959400,2.47095947265625,0.0806342139840126,-0.12278391420841217,0.07330382615327835
1788049441491403000,2.487403076171875,0.051312681287527084,-0.1215621829032898,0.06719517707824707
1788049441507010600,2.503010498046875,0.04337143152952194,-0.16249015927314758,0.025656340643763542
1788049441523053300,2.51905322265625,0.04153883829712868,-0.22113321721553802,-0.001832595793530345
1788049441539361800,2.53536181640625,0.021991148591041565,-0.23640485107898712,-0.006108652334660292
1788049441555019500,2.55101953125,-0.00855211354792118,-0.23884831368923187,-0.024434609338641167
1788049441571448000,2.567447998046875,-0.025045474991202354,-0.24678955972194672,-0.04092797264456749
1788049441587103700,2.583103759765625,-0.03848451003432274,-0.25595253705978394,-0.03726277872920036
1788049441603629600,2.599629638671875,-0.04092797264456749,-0.24007004499435425,-0.01771509274840355
1788049441619356400,2.6153564453125,-0.030543262138962746,-0.2278527319431305,-0.001832595793530345
1788049441635185000,2.631184814453125,-0.0012217304902151227,-0.2217440903186798,0.01038470957428217
1788049441651707100,2.64770703125,0.056810468435287476,-0.22907446324825287,0.0403171069920063
1788049441667202000,2.6632021484375,0.10018189996480942,-0.1966986060142517,0.09346238523721695
1788049441683207200,2.679207275390625,0.13072516024112701,-0.17470745742321014,0.09162978827953339
1788049441699490800,2.69549072265625,0.10995574295520782,-0.19425514340400696,-0.029932396486401558
1788049441715355600,2.711355712890625,0.02076941914856434,-0.17959438264369965,-0.20402899384498596
1788049441731549400,2.727549560546875,-0.1765400618314743,-0.1417207419872284,-0.33169981837272644
1788049441747304000,2.743303955078125,-0.34574973583221436,-0.12767083942890167,-0.37751471996307373
1788049441763297000,2.759297119140625,-0.4740314185619354,-0.14782938361167908,-0.3292563557624817
1788049441779649500,2.7756494140625,-0.5174028873443604,-0.20097467303276062,-0.2076941877603531
1788049441795326700,2.79132666015625,-0.4807509481906891,-0.21930062770843506,-0.05253441259264946
1788049441811795500,2.80779541015625,-0.3799581825733185,-0.22052235901355743,0.1319468915462494
1788049441827573800,2.82357373046875,-0.24923302233219147,-0.2321287989616394,0.24434609711170197
1788049441843524400,2.8395244140625,-0.10995574295520782,-0.24678955972194672,0.2638937830924988
1788049441860106000,2.85610595703125,0.021991148591041565,-0.22663100063800812,0.21441370248794556
1788049441875369200,2.871369140625,0.09896016865968704,-0.2480112910270691,0.14233160018920898
1788049441891719700,2.8877197265625,0.1160643994808197,-0.28099802136421204,0.0806342139840126
1788049441907451100,2.903451171875,0.09773843735456467,-0.32681289315223694,-0.016493361443281174
1788049441923464200,2.919464111328125,0.06475171446800232,-0.3677408695220947,-0.1014036312699318
1788049441939729400,2.9357294921875,-0.015882495790719986,-0.3378084897994995,-0.1111774742603302
1788049441955506200,2.951506103515625,-0.10995574295520782,-0.24373523890972137,-0.04214970022439957
1788049441971945000,2.967945068359375,-0.18875735998153687,-0.1368338167667389,0.039706241339445114
1788049441987606500,2.9836064453125,-0.18081611394882202,-0.10018189996480942,0.08552113175392151
1788049442003588400,2.99958837890625,-0.12400564551353455,-0.10506882518529892,0.12217304855585098
1788049442019845400,3.015845458984375,-0.05742133408784866,-0.0757472887635231,0.16920967400074005
1788049442035607300,3.031607177734375,0.00366519158706069,-0.08185594528913498,0.15821409225463867
1788049442051903200,3.0479033203125,0.05253441259264946,-0.13072516024112701,0.10690141469240189
1788049442067675000,3.0636748046875,0.06780604273080826,-0.1661553531885147,0.03298672288656235
1788049442083713800,3.0797138671875,0.051312681287527084,-0.14233160018920898,-0.039706241339445114
1788049442099941400,3.09594140625,0.02321287989616394,-0.09834930300712585,-0.10567969083786011
1788049442116270600,3.1122705078125,-0.00733038317412138,-0.029932396486401558,-0.1716531366109848
1788049442132288300,3.128288330078125,-0.02015855349600315,0.02382374368607998,-0.21624629199504852
1788049442147919400,3.14391943359375,-0.025045474991202354,0.04581489413976669,-0.23884831368923187
1788049442163951000,3.159951171875,-0.021380282938480377,0.02871066704392433,-0.23151792585849762
1788049442180603100,3.17660302734375,-0.010995574295520782,-0.013439035043120384,-0.1618792861700058
1788049442196002300,3.192002197265625,-0.007941247895359993,-0.024434609338641167,-0.039706241339445114
1788049442212278500,3.208278564453125,-0.010995574295520782,-0.001832595793530345,0.11423180252313614
1788049442228135000,3.224135009765625,-0.02015855349600315,0.036041051149368286,0.23457226157188416
1788049442244182000,3.24018212890625,-0.051312681287527084,0.06536258012056351,0.29504790902137756
1788049442260417800,3.256417724609375,-0.07819075137376785,0.09834930300712585,0.28099802136421204
1788049442276142000,3.27214208984375,-0.10567969083786011,0.1459967941045761,0.2070833146572113
1788049442292635000,3.288634765625,-0.09285151958465576,0.15821409225463867,0.10934487730264664
1788049442308252400,3.30425244140625,-0.04398229718208313,0.15515977144241333,0.045204028487205505
1788049442324354000,3.32035400390625,0.025045474991202354,0.17043140530586243,0.014049900695681572
1788049442340490500,3.336490478515625,0.07513642311096191,0.20097467303276062,0.00733038317412138
1788049442356337400,3.35233740234375,0.09040805697441101,0.2376265823841095,0.027488935738801956
1788049442372938800,3.368938720703125,0.07391469180583954,0.2889392673969269,0.07269296050071716
1788049442388511500,3.384511474609375,0.04459316283464432,0.30543261766433716,0.1264491081237793
1788049442404460000,3.4004599609375,0.021380282938480377,0.3292563557624817,0.19303341209888458
1788049442420765200,3.41676513671875,-0.018936822190880775,0.3628539443016052,0.2565633952617645
1788049442436413000,3.432412841796875,-0.03481931984424591,0.3188716471195221,0.16798794269561768
1788049442452861000,3.44886083984375,-0.01771509274840355,0.2620611786842346,-0.07391469180583954
1788049442468464400,3.46446435546875,-0.01771509274840355,0.23090706765651703,-0.29626965522766113
1788049442484485600,3.480485595703125,0.01038470957428217,0.18448130786418915,-0.45326200127601624
1788049442500765400,3.496765380859375,0.051312681287527084,0.14416420459747314,-0.48808133602142334
1788049442516621000,3.51262109375,0.07513642311096191,0.13255776464939117,-0.4288274049758911
1788049442533056800,3.529056884765625,0.1062905490398407,0.1875356286764145,-0.24068090319633484
1788049442548787500,3.544787353515625,0.17898350954055786,0.24007004499435425,0.010995574295520782
1788049442564739800,3.56073974609375,0.23640485107898712,0.33047810196876526,0.182648703455925
1788049442580975600,3.5769755859375,0.2620611786842346,0.4080579876899719,0.21319197118282318
1788049442596833300,3.592833251953125,0.2822197377681732,0.4105014503002167,0.1160643994808197
1788049442613216800,3.609216796875,0.28527405858039856,0.3781255781650543,0.04153883829712868
1788049442629386000,3.625385986328125,0.26083946228027344,0.3341432809829712,-0.0006108652451075613
1788049442645026300,3.6410263671875,0.2217440903186798,0.2993239760398865,-0.02932153269648552
1788049442661236000,3.657236083984375,0.20097467303276062,0.22663100063800812,-0.10690141469240189
1788049442677001000,3.6730009765625,0.182648703455925,0.15821409225463867,-0.1716531366109848
1788049442693318000,3.68931787109375,0.13316862285137177,0.12095131725072861,-0.20525072515010834
1788049442709090000,3.705090087890625,0.07330382615327835,0.13316862285137177,-0.20463985204696655
1788049442725139200,3.72113916015625,0.031154127791523933,0.1472185254096985,-0.1618792861700058
1788049442741407500,3.737407470703125,0.01771509274840355,0.18325957655906677,-0.05619960278272629
1788049442757458700,3.753458740234375,0.02076941914856434,0.19364428520202637,0.04703662544488907
1788049442773661700,3.76966162109375,0.036651913076639175,0.1918116807937622,0.07269296050071716
1788049442789338000,3.785338134765625,0.05619960278272629,0.14905111491680145,0.04398229718208313
1788049442805301800,3.8013017578125,0.05497787147760391,0.10812314599752426,-0.009162978269159794
1788049442821549800,3.8175498046875,0.04642575979232788,0.07147123664617538,-0.04459316283464432
1788049442837312500,3.8333125,0.0403171069920063,0.02626720629632473,-0.06719517707824707
1788049442853798400,3.84979833984375,0.039706241339445114,-0.013439035043120384,-0.04581489413976669
1788049442869610500,3.865610595703125,0.03237585723400116,0.005497787147760391,0.021991148591041565
1788049442886007600,3.882007568359375,0.022602014243602753,0.036651913076639175,0.07696902006864548
1788049442901690400,3.8976904296875,0.036651913076639175,0.05497787147760391,0.0959058403968811
1788049442917438700,3.913438720703125,0.08368854224681854,0.033597588539123535,0.08002334833145142
1788049442934051600,3.930051513671875,0.11728613078594208,0.014049900695681572,0.059864792972803116
1788049442949661700,3.94566162109375,0.13744467496871948,0.009773843921720982,0.05192354694008827
1788049442965555200,3.96155517578125,0.1270599663257599,0.01466076634824276,0.0659734457731247
1788049442982127400,3.97812744140625,0.09468411654233932,0.02626720629632473,0.08674286305904388
1788049442997589500,3.993589599609375,0.07880161702632904,-0.00366519158706069,0.1062905490398407
1788049443013977600,4.0099775390625,0.08979719132184982,-0.09773843735456467,0.08918632566928864
1788049443029683700,4.02568359375,0.10201449692249298,-0.1612684279680252,0.05803219974040985
1788049443045667800,4.041667724609375,0.11178833991289139,-0.2125810980796814,0.03298672288656235
1788049443062385400,4.058385498046875,0.10445795953273773,-0.22113321721553802,0.0403171069920063
1788049443077751300,4.073751220703125,0.08124507963657379,-0.23884831368923187,0.05314527451992035
1788049443094384600,4.090384521484375,0.03848451003432274,-0.22663100063800812,0.08185594528913498
1788049443109927400,4.105927490234375,-0.01160643994808197,-0.07208210229873657,0.14477506279945374
1788049443125915000,4.121914794921875,0.01771509274840355,-0.039706241339445114,0.08674286305904388
1788049443142370600,4.13837060546875,0.03298672288656235,-0.1007927656173706,-0.1563815027475357
1788049443158049500,4.154049560546875,-0.03726277872920036,-0.07391469180583954,-0.4715879559516907
1788049443174375700,4.170375732421875,-0.13316862285137177,-0.06963863968849182,-0.5876523852348328
1788049443190649300,4.1866494140625,-0.21074850857257843,-0.1062905490398407,-0.4905247986316681
1788049443206442000,4.20244189453125,-0.2681698501110077,-0.11362093687057495,-0.18875735998153687
1788049443222419500,4.21841943359375,-0.27000242471694946,-0.054367005825042725,0.17470745742321014
1788049443238390000,4.23439013671875,-0.2168571650981903,-0.018325956538319588,0.3878994286060333
1788049443254728400,4.250728515625,-0.09773843735456467,-0.0910189226269722,0.4648684561252594
1788049443270443800,4.26644384765625,0.07024950534105301,-0.20036379992961884,0.39706242084503174
1788049443286419200,4.282419189453125,0.19547687470912933,-0.29016098380088806,0.2877175211906433
1788049443302718700,4.29871875,0.22296582162380219,-0.3689626157283783,0.2076941877603531
1788049443318663000,4.314662841796875,0.15943582355976105,-0.3927863538265228,0.1313360333442688
1788049443334714600,4.330714599609375,0.042760565876960754,-0.3732386529445648,0.02076941914856434
1788049443350565600,4.346565673828125,-0.07819075137376785,-0.30543261766433716,-0.07208210229873657
1788049443366442800,4.36244287109375,-0.19975294172763824,-0.17592918872833252,-0.13805554807186127
1788049443382717000,4.378717041015625,-0.2730567753314972,-0.06352998316287994,-0.12034045159816742
1788049443398487000,4.394487060546875,-0.26083946228027344,-0.009162978269159794,-0.0806342139840126
1788049443414997500,4.41099755859375,-0.2021963894367218,0.02871066704392433,-0.036651913076639175
1788049443430817800,4.42681787109375,-0.11667526513338089,0.015271631069481373,0.0012217304902151227
1788049443447046400,4.44304638671875,-0.04459316283464432,-0.025045474991202354,0.024434609338641167
1788049443462915800,4.458915771484375,0.012828170321881771,-0.06719517707824707,0.039706241339445114
1788049443478711000,4.4747109375,0.022602014243602753,-0.07147123664617538,0.025656340643763542
1788049443494957000,4.49095703125,0.02626720629632473,-0.05742133408784866,-0.02015855349600315
1788049443510773200,4.506773193359375,0.03420845419168472,-0.02871066704392433,-0.1007927656173706
1788049443526801200,4.52280126953125,0.04092797264456749,0.0024434609804302454,-0.14538592100143433
1788049443543112000,4.53911181640625,0.029932396486401558,0.05925392732024193,-0.1362229436635971
1788049443558834200,4.554834228515625,0.0006108652451075613,0.12278391420841217,-0.10873401165008545
1788049443575265300,4.571265380859375,-0.04337143152952194,0.1973094791173935,-0.08002334833145142
1788049443591016000,4.587015869140625,-0.07880161702632904,0.2278527319431305,-0.05375614017248154
1788049443606850800,4.602850830078125,-0.08979719132184982,0.21807889640331268,-0.04092797264456749
1788049443623071500,4.619071533203125,-0.07330382615327835,0.17959438264369965,-0.028099801391363144
1788049443638857700,4.634857666015625,-0.03787364438176155,0.12278391420841217,0.01038470957428217
1788049443655215900,4.6512158203125,-0.016493361443281174,0.14233160018920898,0.06658431142568588
1788049443671015700,4.667015625,-0.02321287989616394,0.21563543379306793,0.1111774742603302
1788049443687120600,4.68312060546875,-0.02382374368607998,0.2822197377681732,0.10018189996480942
1788049443703777300,4.69977734375,-0.012828170321881771,0.31459560990333557,0.07941248267889023
1788049443719199000,4.715198974609375,0.01710422709584236,0.2816088795661926,0.05497787147760391
1788049443735789000,4.7317890625,0.0354301854968071,0.17287486791610718,0.010995574295520782
1788049443751410200,4.74741015625,0.018936822190880775,0.0959058403968811,-0.042760565876960754
1788049443767389700,4.7633896484375,-0.036651913076639175,0.06963863968849182,-0.07696902006864548
1788049443783730000,4.77972998046875,-0.1667662113904953,0.12461651116609573,-0.05619960278272629
1788049443799727400,4.795727294921875,-0.35063666105270386,0.28099802136421204,0.021991148591041565
1788049443815649300,4.811649169921875,-0.43676865100860596,0.3597996234893799,0.06230825558304787
1788049443831554000,4.827553955078125,-0.4056145250797272,0.2590068578720093,-0.04703662544488907
1788049443847518000,4.84351806640625,-0.30604347586631775,0.2125810980796814,-0.2541199326515198
1788049443863809000,4.85980908203125,-0.22968533635139465,0.2021963894367218,-0.36529740691185
1788049443879546600,4.875546630859375,-0.08368854224681854,0.17837265133857727,-0.34513887763023376
1788049443896004000,4.892004150390625,0.1319468915462494,0.0659734457731247,-0.23151792585849762
1788049443911688200,4.907688232421875,0.303600013256073,-0.001832595793530345,-0.08429940044879913
1788049443927660500,4.92366064453125,0.3793473243713379,0.07208210229873657,0.14966198801994324
1788049443943968300,4.93996826171875,0.3530801236629486,0.2168571650981903,0.3597996234893799
1788049443960336000,4.9563359375,0.27122417092323303,0.3390302062034607,0.42760565876960754
1788049443976042200,4.972042236328125,0.2076941877603531,0.4050036668777466,0.3793473243713379
1788049443991896600,4.987896484375,0.1514945775270462,0.4331034719944,0.28588494658470154
1788049444007889000,5.003888916015625,0.1270599663257599,0.37262779474258423,0.1820378452539444
1788049444024256000,5.020256103515625,0.13316862285137177,0.27550023794174194,0.08307767659425735
1788049444039977000,5.03597705078125,0.13072516024112701,0.20525072515010834,-0.036651913076639175
1788049444056422100,5.052422119140625,0.10812314599752426,0.1563815027475357,-0.11423180252313614
1788049444072138800,5.068138671875,0.08552113175392151,0.14233160018920898,-0.12828169763088226
1788049444088117000,5.084116943359375,0.06841690838336945,0.13744467496871948,-0.08796459436416626
1788049444104379600,5.100379638671875,0.09529497474431992,0.1111774742603302,-0.04337143152952194
1788049444120064300,5.116064208984375,0.14905111491680145,0.10445795953273773,-0.031154127791523933
1788049444136444400,5.1324443359375,0.19547687470912933,0.10812314599752426,-0.0507018156349659
1788049444152314000,5.148314208984375,0.2272418737411499,0.12095131725072861,-0.09040805697441101
1788049444168555500,5.164555419921875,0.2272418737411499,0.13316862285137177,-0.12522737681865692
1788049444184601600,5.1806015625,0.19914206862449646,0.12461651116609573,-0.1319468915462494
1788049444200390700,5.196390625,0.16737708449363708,0.07269296050071716,-0.09468411654233932
1788049444217000200,5.213000244140625,0.12767083942890167,0.03420845419168472,-0.04459316283464432
1788049444232774700,5.228774658203125,0.08552113175392151,0.02076941914856434,-0.045204028487205505
1788049444248554500,5.244554443359375,0.04153883829712868,-0.014049900695681572,-0.10201449692249298
1788049444265173200,5.26117333984375,-0.004886921960860491,-0.03237585723400116,-0.15882496535778046
1788049444280590800,5.2765908203125,-0.056810468435287476,-0.03176499158143997,-0.18509216606616974
1788049444296915700,5.292915771484375,-0.10995574295520782,-0.02932153269648552,-0.2021963894367218
1788049444312630500,5.308630615234375,-0.1472185254096985,-0.0403171069920063,-0.20586158335208893
1788049444328807700,5.3248076171875,-0.17898350954055786,-0.007941247895359993,-0.1722639948129654
1788049444344912400,5.340912353515625,-0.19058994948863983,0.06963863968849182,-0.12278391420841217
1788049444360689400,5.356689453125,-0.15027284622192383,0.10506882518529892,-0.09407325088977814
1788049444377326800,5.373326904296875,-0.02932153269648552,0.051312681287527084,-0.07513642311096191
1788049444400675800,5.39667578125,0.192422553896904,-0.11484266817569733,-0.03726277872920036
1788049444417069600,5.413069580078125,0.2773328125476837,-0.1716531366109848,0.009773843921720982
1788049444432777000,5.42877685546875,0.31642818450927734,-0.17348572611808777,0.0708603709936142
1788049444448880400,5.44488037109375,0.2785545587539673,-0.12278391420841217,0.13561208546161652
1788049444465035000,5.461034912109375,0.1918116807937622,-0.03481931984424591,0.2076941877603531
1788049444480848600,5.4768486328125,0.10567969083786011,0.05497787147760391,0.2773328125476837
1788049444497239600,5.493239501953125,0.09834930300712585,0.08552113175392151,0.2541199326515198
1788049444512951800,5.508951904296875,0.13316862285137177,0.01771509274840355,0.00733038317412138
1788049444529016800,5.525016845703125,0.11911872029304504,0.03420845419168472,-0.4129449129104614
1788049444545178600,5.5411787109375,-0.02076941914856434,0.07941248267889023,-0.6444628238677979
1788049444561047600,5.557047607421875,-0.2070833146572113,0.04948008432984352,-0.5345070958137512
1788049444577417200,5.573417236328125,-0.35552358627319336,0.029932396486401558,-0.1771509200334549
1788049444593147400,5.5891474609375,-0.4153883755207062,0.0012217304902151227,0.3121521472930908
1788049444609141800,5.605141845703125,-0.3182607889175415,-0.04214970022439957,0.5864306092262268
1788049444625898200,5.621898193359375,-0.16004669666290283,-0.11911872029304504,0.6017022728919983
1788049444641315600,5.637315673828125,0.06230825558304787,-0.19975294172763824,0.403781920671463
1788049444657638100,5.65363818359375,0.2125810980796814,-0.2223549485206604,0.13377949595451355
1788049444673848000,5.66984814453125,0.24923302233219147,-0.23151792585849762,-0.03481931984424591
1788049444689432000,5.68543212890625,0.2223549485206604,-0.23579397797584534,-0.14355333149433136
1788049444705692200,5.701692138671875,0.16737708449363708,-0.19975294172763824,-0.19425514340400696
1788049444721471700,5.7174716796875,0.05864306539297104,-0.09712757170200348,-0.1765400618314743
1788049444737886200,5.73388623046875,-0.09896016865968704,0.10567969083786011,-0.10751228034496307
1788049444753601300,5.749601318359375,-0.20830504596233368,0.2535090744495392,-0.02871066704392433
1788049444769536300,5.765536376953125,-0.22663100063800812,0.2528982162475586,0.06658431142568588
1788049444785869300,5.781869384765625,-0.19547687470912933,0.1875356286764145,0.12034045159816742
1788049444801674200,5.79767431640625,-0.14844025671482086,0.08918632566928864,0.11362093687057495
1788049444818254600,5.814254638671875,-0.0910189226269722,-0.033597588539123535,0.039095375686883926
1788049444833746200,5.82974609375,-0.04703662544488907,-0.1313360333442688,-0.0354301854968071
1788049444849766100,5.84576611328125,-0.021380282938480377,-0.2064724564552307,-0.10873401165008545
1788049444866285800,5.862285888671875,-0.01466076634824276,-0.22968533635139465,-0.15577064454555511
1788049444881815000,5.87781494140625,-0.02626720629632473,-0.22296582162380219,-0.17104226350784302
1788049444898302700,5.894302734375,-0.04703662544488907,-0.1869247704744339,-0.16737708449363708
1788049444913909200,5.9099091796875,-0.0659734457731247,-0.11850785464048386,-0.14966198801994324
1788049444930504000,5.92650390625,-0.07635815441608429,-0.048258353024721146,-0.11484266817569733
1788049444946469600,5.9424697265625,-0.06841690838336945,0.012828170321881771,-0.08124507963657379
1788049444961930500,5.957930419921875,-0.051312681287527084,0.0403171069920063,-0.060475658625364304
1788049444978349000,5.97434912109375,-0.029932396486401558,0.06414084881544113,-0.04337143152952194
1788049444994107000,5.99010693359375,-0.010995574295520782,0.07452555745840073,-0.031154127791523933
1788049445010365000,6.006364990234375,-0.00366519158706069,0.10751228034496307,-0.015882495790719986
1788049445026712000,6.022712158203125,-0.01771509274840355,0.14416420459747314,0.03420845419168472
1788049445042307000,6.03830712890625,-0.04214970022439957,0.17898350954055786,0.06414084881544113
1788049445058611500,6.054611572265625,-0.07880161702632904,0.21013765037059784,0.07880161702632904
1788049445074479000,6.07047900390625,-0.10567969083786011,0.24495697021484375,0.08796459436416626
1788049445090566000,6.08656591796875,-0.11423180252313614,0.251676470041275,0.09224065393209457
1788049445106561800,6.102561767578125,-0.07757988572120667,0.24373523890972137,0.04092797264456749
1788049445122357800,6.118357666015625,-0.015271631069481373,0.22418753802776337,-0.056810468435287476
1788049445138723600,6.1347236328125,0.015882495790719986,0.1918116807937622,-0.11667526513338089
1788049445154501400,6.15050146484375,-0.00733038317412138,0.2021963894367218,-0.07024950534105301
1788049445170673200,6.166673095703125,-0.0806342139840126,0.3188716471195221,0.1258382350206375
1788049445187188700,6.183188720703125,-0.11972958594560623,0.3836233615875244,0.2919935882091522
1788049445202623700,6.198623779296875,-0.1007927656173706,0.36163222789764404,0.21563543379306793
1788049445218983200,6.214983154296875,-0.06352998316287994,0.3292563557624817,-0.027488935738801956
1788049445234717200,6.23071728515625,-0.0024434609804302454,0.3396410644054413,-0.26450464129447937
1788049445250904000,6.246904052734375,0.06902777403593063,0.3396410644054413,-0.3701843321323395
1788049445266965200,6.26296533203125,0.16310101747512817,0.30543261766433716,-0.3139847218990326
1788049445282922200,6.278922119140625,0.19608774781227112,0.33047810196876526,-0.03726277872920036
1788049445299246000,6.29524609375,0.18448130786418915,0.4404338300228119,0.24434609711170197
1788049445315092200,6.31109228515625,0.152105450630188,0.59803706407547,0.4398229718208313
1788049445331206000,6.327205810546875,0.15332718193531036,0.6481280326843262,0.4331034719944
1788049445347083300,6.343083251953125,0.18570303916931152,0.608421802520752,0.36651915311813354
1788049445363026000,6.35902587890625,0.20036379992961884,0.5919284224510193,0.33169981837272644
1788049445379462000,6.3754619140625,0.19547687470912933,0.5338962078094482,0.2541199326515198
1788049445395160300,6.391160400390625,0.20891591906547546,0.39767327904701233,0.10995574295520782
1788049445411262000,6.407261962890625,0.21868975460529327,0.2590068578720093,-0.018936822190880775
1788049445427422200,6.423422119140625,0.2070833146572113,0.12034045159816742,-0.13255776464939117
1788049445443616800,6.43961669921875,0.17776179313659668,0.03481931984424591,-0.16554448008537292
1788049445459526700,6.455526611328125,0.14905111491680145,-0.004886921960860491,-0.13439035415649414
1788049445475235300,6.4712353515625,0.11484266817569733,-0.018325956538319588,-0.06291911751031876
1788049445491233500,6.487233642578125,0.10506882518529892,0.001832595793530345,0.018936822190880775
1788049445507548200,6.503548095703125,0.10690141469240189,0.04581489413976669,0.06536258012056351
1788049445523397000,6.519397216796875,0.10751228034496307,0.09468411654233932,0.0757472887635231
1788049445539754500,6.53575439453125,0.1111774742603302,0.14416420459747314,0.05009094998240471
1788049445555479800,6.551479736328125,0.10262536257505417,0.16493362188339233,0
1788049445571656700,6.56765673828125,0.09896016865968704,0.1472185254096985,-0.06169738993048668
1788049445587771600,6.583771728515625,0.09040805697441101,0.08735372871160507,-0.10262536257505417
1788049445603688200,6.599688232421875,0.07635815441608429,-0.00733038317412138,-0.12828169763088226
1788049445620087000,6.616087158203125,0.06841690838336945,-0.08674286305904388,-0.13316862285137177
1788049445635812600,6.6318125,0.051312681287527084,-0.1362229436635971,-0.11545353382825851
1788049445651669200,6.647669189453125,0.04153883829712868,-0.16920967400074005,-0.10445795953273773
1788049445667916500,6.66391650390625,0.030543262138962746,-0.18875735998153687,-0.10567969083786011
1788049445683687400,6.6796875,0.028099801391363144,-0.17959438264369965,-0.0959058403968811
1788049445700326700,6.69632666015625,0.03420845419168472,-0.1508837193250656,-0.07941248267889023
1788049445715779600,6.711779541015625,0.05619960278272629,-0.11484266817569733,-0.059864792972803116
1788049445731835000,6.7278349609375,0.08124507963657379,-0.08674286305904388,-0.03237585723400116
1788049445748132400,6.74413232421875,0.11545353382825851,-0.09468411654233932,0.012217304669320583
1788049445763851000,6.75985107421875,0.1411098688840866,-0.12461651116609573,0.05497787147760391
1788049445780326100,6.776326171875,0.16004669666290283,-0.18814650177955627,0.08002334833145142
1788049445795990300,6.791990234375,0.13988813757896423,-0.2370157092809677,0.07269296050071716
1788049445811879200,6.807879150390625,0.09773843735456467,-0.26939156651496887,0.05375614017248154
1788049445828215000,6.824215087890625,0.05375614017248154,-0.29504790902137756,0.06291911751031876
1788049445843868000,6.839867919921875,0.0012217304902151227,-0.2736676335334778,0.0910189226269722
1788049445860263000,6.856262939453125,-0.03298672288656235,-0.1459967941045761,0.12278391420841217
1788049445875957500,6.87195751953125,-0.014049900695681572,-0.1313360333442688,0.056810468435287476
1788049445891967500,6.887967529296875,0.0757472887635231,-0.32009339332580566,-0.17898350954055786
1788049445908221700,6.9042216796875,0.04398229718208313,-0.4300491213798523,-0.394008070230484
1788049445924023000,6.92002294921875,-0.09040805697441101,-0.43799036741256714,-0.513126790523529
1788049445940389400,6.936389404296875,-0.2938261926174164,-0.3433062732219696,-0.49846604466438293
1788049445956599000,6.95259912109375,-0.4434881806373596,-0.18570303916931152,-0.2987131178379059
1788049445972130000,6.968130126953125,-0.45265114307403564,-0.12400564551353455,-0.07635815441608429
1788049445988390700,6.984390625,-0.29626965522766113,-0.1716531366109848,0.14905111491680145
1788049446004716300,7.00071630859375,-0.06536258012056351,-0.25473082065582275,0.3017674386501312
1788049446020626700,7.016626708984375,0.1362229436635971,-0.3078760802745819,0.34513887763023376
1788049446036562700,7.032562744140625,0.25961771607398987,-0.32559117674827576,0.31459560990333557
1788049446052520200,7.048520263671875,0.3286454975605011,-0.3842342495918274,0.24495697021484375
1788049446068849000,7.064848876953125,0.2883284091949463,-0.4355469346046448,0.16737708449363708
1788049446084568800,7.08056884765625,0.20463985204696655,-0.45814892649650574,0.09407325088977814
1788049446100946000,7.09694580078125,0.048258353024721146,-0.4153883755207062,0.006108652334660292
1788049446116904200,7.112904296875,-0.14049901068210602,-0.3170390725135803,-0.07513642311096191
1788049446132755200,7.128755126953125,-0.2840523421764374,-0.20097467303276062,-0.12278391420841217
1788049446149026800,7.14502685546875,-0.3689626157283783,-0.10751228034496307,-0.14049901068210602
1788049446164765400,7.160765380859375,-0.3543018400669098,-0.06230825558304787,-0.11545353382825851
1788049446181233000,7.17723291015625,-0.2987131178379059,-0.045204028487205505,-0.0861319974064827
1788049446196878000,7.192878173828125,-0.19914206862449646,-0.06291911751031876,-0.04581489413976669
1788049446212994600,7.20899462890625,-0.10567969083786011,-0.09346238523721695,-0.00855211354792118
1788049446229233000,7.22523291015625,-0.04337143152952194,-0.07880161702632904,-0.00427605677396059
1788049446244887000,7.240886962890625,-0.03481931984424591,-0.05314527451992035,-0.036651913076639175
1788049446261563000,7.25756298828125,-0.03848451003432274,-0.025045474991202354,-0.08735372871160507
1788049446276964400,7.27296435546875,-0.04642575979232788,0.009773843921720982,-0.11728613078594208
1788049446292931800,7.288931884765625,-0.056810468435287476,0.04764748737215996,-0.12767083942890167
1788049446309359900,7.30535986328125,-0.06658431142568588,0.09285151958465576,-0.11667526513338089
1788049446325019600,7.32101953125,-0.08429940044879913,0.14905111491680145,-0.10751228034496307
1788049446341353000,7.33735302734375,-0.1007927656173706,0.18020524084568024,-0.1007927656173706
1788049446357075700,7.35307568359375,-0.12461651116609573,0.19914206862449646,-0.08368854224681854
1788049446373059800,7.369059814453125,-0.1368338167667389,0.2015855312347412,-0.05009094998240471
1788049446389379800,7.3853798828125,-0.1368338167667389,0.2174680233001709,-0.010995574295520782
1788049446405198800,7.40119873046875,-0.1362229436635971,0.2480112910270691,0.022602014243602753
1788049446421570800,7.41757080078125,-0.11239920556545258,0.2675589919090271,0.05497787147760391
1788049446437486300,7.433486328125,-0.0806342139840126,0.27488934993743896,0.07757988572120667
1788049446453318400,7.449318359375,-0.036041051149368286,0.2932153046131134,0.10690141469240189
1788049446469648600,7.465648681640625,0.009162978269159794,0.31520646810531616,0.12217304855585098
1788049446485393000,7.481392822265625,0.05803219974040985,0.34697145223617554,0.12339477986097336
1788049446501900300,7.497900390625,0.09468411654233932,0.3494149148464203,0.10751228034496307
1788049446518031600,7.514031494140625,0.11911872029304504,0.3488040566444397,0.10751228034496307
1788049446533527800,7.52952783203125,0.07024950534105301,0.4239404797554016,0.16554448008537292
1788049446549713700,7.545713623046875,-0.02015855349600315,0.5308418869972229,0.2278527319431305
1788049446573936600,7.5699365234375,-0.14966198801994324,0.6420193910598755,0.27122417092323303
1788049446589804000,7.585803955078125,-0.16554448008537292,0.523511528968811,0.10812314599752426
1788049446605630000,7.6016298828125,-0.16737708449363708,0.4245513379573822,-0.14049901068210602
1788049446622274800,7.61827490234375,-0.182648703455925,0.39584067463874817,-0.30970868468284607
1788049446637718800,7.63371875,-0.1569923609495163,0.40683624148368835,-0.3695734739303589
1788049446653729800,7.649729736328125,-0.056810468435287476,0.39706242084503174,-0.2926044464111328
1788049446670395000,7.666394775390625,0.11362093687057495,0.3188716471195221,-0.08674286305904388
1788049446685918000,7.68191796875,0.24862214922904968,0.26083946228027344,0.1368338167667389
1788049446702290400,7.69829052734375,0.33719760179519653,0.31093040108680725,0.3677408695220947
1788049446718093600,7.714093505859375,0.34208452701568604,0.43799036741256714,0.5015203952789307
1788049446734130200,7.730130126953125,0.3396410644054413,0.48747047781944275,0.5094616413116455
1788049446750463700,7.746463623046875,0.34636059403419495,0.4709770977497101,0.4031710624694824
1788049446766561300,7.762561279296875,0.34147366881370544,0.3744603991508484,0.23640485107898712
1788049446782558000,7.778557861328125,0.30543261766433716,0.294437050819397,0.11545353382825851
1788049446798297600,7.794297607421875,0.22663100063800812,0.25045475363731384,0.012217304669320583
1788049446814341600,7.810341552734375,0.1368338167667389,0.23273965716362,-0.06414084881544113
1788049446830529000,7.826529052734375,0.06780604273080826,0.1966986060142517,-0.10934487730264664
1788049446846806500,7.842806640625,0.02932153269648552,0.14966198801994324,-0.14294247329235077
1788049446862658000,7.858657958984375,0.019547687843441963,0.09773843735456467,-0.1569923609495163
1788049446878900500,7.874900390625,0.02626720629632473,0.08429940044879913,-0.11362093687057495
1788049446894417400,7.89041748046875,0.04214970022439957,0.10934487730264664,-0.04948008432984352
1788049446910652200,7.906652099609375,0.06475171446800232,0.13561208546161652,0.01771509274840355
1788049446927041800,7.923041748046875,0.08246681094169617,0.1459967941045761,0.029932396486401558
1788049446943038700,7.939038818359375,0.07880161702632904,0.14049901068210602,-0.006719517521560192
1788049446958598000,7.954597900390625,0.06719517707824707,0.12034045159816742,-0.08307767659425735
1788049446974646000,7.97064599609375,0.05925392732024193,0.05742133408784866,-0.15882496535778046
1788049446991091000,7.987091064453125,0.054367005825042725,-0.009162978269159794,-0.1869247704744339
1788049447006648300,8.0026484375,0.0555887371301651,-0.10201449692249298,-0.18448130786418915
1788049447023065000,8.019065185546875,0.06291911751031876,-0.18020524084568024,-0.15760323405265808
1788049447038731800,8.034731689453125,0.06108652427792549,-0.20463985204696655,-0.14049901068210602
1788049447054795300,8.050795166015625,0.06108652427792549,-0.1869247704744339,-0.13500121235847473
1788049447071079700,8.06707958984375,0.06719517707824707,-0.16982053220272064,-0.1270599663257599
1788049447086899500,8.0828994140625,0.09529497474431992,-0.19608774781227112,-0.1014036312699318
1788049447103229700,8.099229736328125,0.14049901068210602,-0.24923302233219147,-0.0403171069920063
1788049447118913500,8.11491357421875,0.18325957655906677,-0.2675589919090271,0.05192354694008827
1788049447134903300,8.1309033203125,0.20341812074184418,-0.2480112910270691,0.11056660860776901
1788049447151092700,8.1470927734375,0.21319197118282318,-0.23518311977386475,0.12400564551353455
1788049447166802200,8.16280224609375,0.22418753802776337,-0.24495697021484375,0.12095131725072861
1788049447183568400,8.179568359375,0.21013765037059784,-0.32681289315223694,0.11178833991289139
1788049447198936800,8.194936767578126,0.1667662113904953,-0.3891211748123169,0.09712757170200348
1788049447214921000,8.2109208984375,0.07880161702632904,-0.3628539443016052,0.09040805697441101
1788049447231182800,8.227182861328124,-0.033597588539123535,-0.2773328125476837,0.10262536257505417
1788049447246955500,8.24295556640625,-0.13377949595451355,-0.1918116807937622,0.1111774742603302
1788049447263442000,8.25944189453125,-0.2076941877603531,-0.0806342139840126,0.1160643994808197
1788049447279106600,8.2751064453125,-0.16493362188339233,-0.07819075137376785,0.04886921867728233
1788049447295120600,8.29112060546875,-0.0659734457731247,-0.25045475363731384,-0.16004669666290283
1788049447311392000,8.30739208984375,-0.06352998316287994,-0.3121521472930908,-0.3243694305419922
1788049447327167700,8.323167724609375,-0.1508837193250656,-0.30543261766433716,-0.39645153284072876
1788049447343704800,8.339704833984374,-0.28466320037841797,-0.28038713335990906,-0.2987131178379059
1788049447359383800,8.3553837890625,-0.38179078698158264,-0.24190263450145721,-0.1319468915462494
1788049447375338000,8.371337890625,-0.41661009192466736,-0.1973094791173935,0.10262536257505417
1788049447391942100,8.387942138671875,-0.37201693654060364,-0.19303341209888458,0.2834414839744568
1788049447407454200,8.4034541015625,-0.28038713335990906,-0.25106561183929443,0.37079519033432007
1788049447423796500,8.41979638671875,-0.13439035415649414,-0.3182607889175415,0.39217549562454224
1788049447439987700,8.43598779296875,0.006108652334660292,-0.304210901260376,0.30543261766433716
1788049447455636000,8.451635986328125,0.11178833991289139,-0.25595253705978394,0.20036379992961884
1788049447472038000,8.468037841796875,0.20341812074184418,-0.18936823308467865,0.11362093687057495
1788049447487615200,8.483615234375,0.2638937830924988,-0.10384709388017654,0.0806342139840126
1788049447504135200,8.50013525390625,0.29504790902137756,-0.04642575979232788,0.036041051149368286
1788049447519679500,8.515679443359375,0.26511552929878235,-0.039706241339445114,0.0024434609804302454
1788049447535697700,8.53169775390625,0.1661553531885147,-0.01038470957428217,-0.02321287989616394
1788049447552244700,8.54824462890625,0.019547687843441963,0.015882495790719986,-0.02321287989616394
1788049447567766300,8.563766357421875,-0.08552113175392151,-0.00855211354792118,-0.025656340643763542
1788049447584255700,8.580255859375,-0.14538592100143433,-0.06230825558304787,-0.04092797264456749
1788049447599990000,8.595989990234376,-0.15515977144241333,-0.1472185254096985,-0.07391469180583954
1788049447615969500,8.611969482421875,-0.1472185254096985,-0.2015855312347412,-0.09407325088977814
1788049447632286700,8.62828662109375,-0.14416420459747314,-0.2577851414680481,-0.11545353382825851
1788049447648184600,8.6441845703125,-0.14416420459747314,-0.304210901260376,-0.1563815027475357
1788049447664297000,8.660296875,-0.1459967941045761,-0.33658674359321594,-0.22113321721553802
1788049447680086300,8.676086181640626,-0.14477506279945374,-0.34758231043815613,-0.28527405858039856
1788049447696658200,8.692658203125,-0.15821409225463867,-0.2773328125476837,-0.2883284091949463
1788049447712429300,8.70842919921875,-0.18631389737129211,-0.16920967400074005,-0.2669481039047241
1788049447728134000,8.7241337890625,-0.19547687470912933,-0.09285151958465576,-0.2632829248905182
1788049447744742100,8.7407421875,-0.17531833052635193,-0.042760565876960754,-0.2541199326515198
1788049447760239600,8.756239501953125,-0.15882496535778046,-0.010995574295520782,-0.22846360504627228
1788049447776455400,8.772455322265625,-0.1411098688840866,0.00733038317412138,-0.18570303916931152
1788049447792645400,8.788645263671874,-0.12461651116609573,0.028099801391363144,-0.08124507963657379
1788049447808370000,8.804369873046875,-0.11972958594560623,0.07024950534105301,0.06230825558304787
1788049447824820000,8.820820068359374,-0.11728613078594208,0.09407325088977814,0.15882496535778046
1788049447840487400,8.8364873046875,-0.12095131725072861,0.14782938361167908,0.2217440903186798
1788049447856595700,8.852595703125,-0.11545353382825851,0.19853121042251587,0.24495697021484375
1788049447872713500,8.86871337890625,-0.11850785464048386,0.24678955972194672,0.23884831368923187
1788049447888497200,8.8844970703125,-0.09346238523721695,0.3188716471195221,0.1966986060142517
1788049447904922600,8.900922607421874,-0.01710422709584236,0.3225368559360504,0.09773843735456467
1788049447920634400,8.91663427734375,0.08124507963657379,0.2730567753314972,-0.06108652427792549
1788049447936544000,8.9325439453125,0.12889257073402405,0.21380282938480377,-0.15577064454555511
1788049447952871700,8.94887158203125,0.11423180252313614,0.2168571650981903,-0.10812314599752426
1788049447968616000,8.964615966796876,0.048258353024721146,0.2926044464111328,0.048258353024721146
1788049447984939500,8.980939453125,-0.0012217304902151227,0.3494149148464203,0.19975294172763824
1788049448001275400,8.997275390625,-0.05925392732024193,0.3799581825733185,0.31154128909111023
1788049448016727300,9.012727294921875,-0.10201449692249298,0.35613444447517395,0.22968533635139465
1788049448032989700,9.02898974609375,-0.1319468915462494,0.35124751925468445,0.03726277872920036
1788049448048795000,9.044794921875,-0.1270599663257599,0.32620203495025635,-0.17409659922122955
1788049448065267700,9.061267822265625,-0.06230825558304787,0.27000242471694946,-0.24862214922904968
1788049448081046300,9.07704638671875,0.0012217304902151227,0.2076941877603531,-0.17287486791610718
1788049448097007000,9.093007080078126,0.07513642311096191,0.17531833052635193,0.030543262138962746
1788049448113278700,9.10927880859375,0.10445795953273773,0.2064724564552307,0.2474004179239273
1788049448129104600,9.125104736328124,0.12034045159816742,0.22418753802776337,0.32681289315223694
1788049448145288200,9.1412880859375,0.13927727937698364,0.20402899384498596,0.29138273000717163
1788049448161703700,9.15770361328125,0.16065755486488342,0.16310101747512817,0.23457226157188416
1788049448177083000,9.173082763671875,0.17898350954055786,0.13866640627384186,0.22113321721553802
1788049448193342200,9.18934228515625,0.17592918872833252,0.10812314599752426,0.24190263450145721
1788049448209115100,9.205115234375,0.1508837193250656,0.10873401165008545,0.2675589919090271
1788049448225532700,9.22153271484375,0.07513642311096191,0.15027284622192383,0.24068090319633484
1788049448241197800,9.23719775390625,0.013439035043120384,0.17837265133857727,0.15515977144241333
1788049448257724000,9.253723876953124,-0.00733038317412138,0.15577064454555511,0.01710422709584236
1788049448273475800,9.269475830078125,0.01160643994808197,0.17776179313659668,-0.08674286305904388
1788049448289230600,9.285230712890625,0.045204028487205505,0.20891591906547546,-0.1508837193250656
1788049448305542100,9.301542236328125,0.10812314599752426,0.2028072625398636,-0.19120082259178162
1788049448321380400,9.31738037109375,0.17776179313659668,0.18448130786418915,-0.17104226350784302
1788049448337521700,9.333521728515626,0.21013765037059784,0.15332718193531036,-0.11301007121801376
1788049448353755000,9.3497548828125,0.21319197118282318,0.11728613078594208,-0.006108652334660292
1788049448369602800,9.365602783203125,0.16920967400074005,0.08124507963657379,0.08307767659425735
1788049448385833700,9.381833740234375,0.09346238523721695,0.05803219974040985,0.09346238523721695
1788049448401511700,9.39751171875,0.024434609338641167,0.056810468435287476,0.04092797264456749
1788049448417514000,9.413513916015624,-0.05497787147760391,0.06108652427792549,-0.02932153269648552
1788049448433778700,9.42977880859375,-0.1007927656173706,0.018325956538319588,-0.08918632566928864
1788049448449654500,9.445654541015625,-0.12217304855585098,-0.007941247895359993,-0.13500121235847473
1788049448465871600,9.46187158203125,-0.11911872029304504,-0.036651913076639175,-0.2021963894367218
1788049448481986800,9.47798681640625,-0.08307767659425735,-0.0555887371301651,-0.24862214922904968
1788049448497766100,9.49376611328125,-0.03176499158143997,-0.0806342139840126,-0.24678955972194672
1788049448514410000,9.510409912109376,0.03481931984424591,-0.10018189996480942,-0.19364428520202637
1788049448529923000,9.525923095703124,0.0959058403968811,-0.13500121235847473,-0.11789698898792267
1788049448546312400,9.5423125,0.13988813757896423,-0.152105450630188,-0.06108652427792549
1788049448562046000,9.5580458984375,0.16859880089759827,-0.21624629199504852,0.006719517521560192
1788049448578023400,9.5740234375,0.16371189057826996,-0.252287358045578,0.09712757170200348
1788049448594116600,9.59011669921875,0.11301007121801376,-0.25595253705978394,0.17592918872833252
1788049448609799400,9.60579931640625,0.042760565876960754,-0.23945917189121246,0.2076941877603531
1788049448626473700,9.6224736328125,-0.036651913076639175,-0.21624629199504852,0.18997909128665924
1788049448642341000,9.638341064453124,-0.09529497474431992,-0.22602014243602753,0.1472185254096985
1788049448657993500,9.653993408203124,-0.12889257073402405,-0.26572638750076294,0.12339477986097336
1788049448674458000,9.6704580078125,-0.1459967941045761,-0.30970868468284607,0.12034045159816742
1788049448690030300,9.6860302734375,-0.1417207419872284,-0.34208452701568604,0.11301007121801376
1788049448706654000,9.702654052734376,-0.12767083942890167,-0.36163222789764404,0.09651670604944229
1788049448722438700,9.718438720703125,-0.1007927656173706,-0.3891211748123169,0.07024950534105301
1788049448738307800,9.734307861328125,-0.06963863968849182,-0.42149701714515686,0.03787364438176155
1788049448754510800,9.7505107421875,-0.03787364438176155,-0.43799036741256714,0.01038470957428217
1788049448770673200,9.766673095703124,-0.014049900695681572,-0.4495968222618103,-0.01466076634824276
1788049448786590200,9.782590087890625,0.0012217304902151227,-0.4105014503002167,-0.04886921867728233
1788049448802390800,9.798390869140626,-0.021380282938480377,-0.3695734739303589,-0.11056660860776901
1788049448818466000,9.814466064453125,-0.05742133408784866,-0.35063666105270386,-0.16493362188339233
1788049448834749200,9.830749267578126,-0.11667526513338089,-0.3188716471195221,-0.20525072515010834
1788049448850815200,9.846815185546875,-0.18325957655906677,-0.2577851414680481,-0.26633724570274353
1788049448867014000,9.863013916015625,-0.21380282938480377,-0.24862214922904968,-0.32559117674827576
1788049448882622500,9.87862255859375,-0.21502456068992615,-0.24495697021484375,-0.3090978264808655
1788049448898856000,9.89485595703125,-0.18936823308467865,-0.22663100063800812,-0.18570303916931152
1788049448914985200,9.910985107421874,-0.15577064454555511,-0.19364428520202637,-0.04642575979232788
1788049448931094300,9.92709423828125,-0.09285151958465576,-0.18387043476104736,0.05619960278272629
1788049448946985200,9.942985107421874,-0.030543262138962746,-0.19975294172763824,0.05619960278272629
1788049448962821400,9.9588212890625,-0.006719517521560192,-0.19058994948863983,0.012828170321881771
1788049448978842000,9.974842041015625,-0.00855211354792118,-0.18325957655906677,-0.05619960278272629
1788049448995126300,9.991126220703125,-0.03726277872920036,-0.1765400618314743,-0.1062905490398407
1788049449010904000,10.006904052734376,-0.08429940044879913,-0.1417207419872284,-0.1215621829032898
1788049449027482400,10.023482421875,-0.11484266817569733,-0.12217304855585098,-0.11850785464048386
1788049449043216600,10.039216552734375,-0.11911872029304504,-0.1062905490398407,-0.1014036312699318
1788049449059194600,10.055194580078124,-0.09040805697441101,-0.1258382350206375,-0.07391469180583954
1788049449075631600,10.071631591796875,-0.05009094998240471,-0.1466076523065567,-0.04703662544488907
1788049449091144400,10.08714453125,0.004886921960860491,-0.1722639948129654,-0.03420845419168472
1788049449107361800,10.10336181640625,0.05375614017248154,-0.17470745742321014,-0.039706241339445114
1788049449123415600,10.11941552734375,0.08552113175392151,-0.1765400618314743,-0.0555887371301651
1788049449139208000,10.1352080078125,0.11423180252313614,-0.17531833052635193,-0.06352998316287994
1788049449155510500,10.151510498046875,0.11362093687057495,-0.14905111491680145,-0.07452555745840073
1788049449171195600,10.167195556640625,0.10018189996480942,-0.12095131725072861,-0.09651670604944229
1788049449187579400,10.183579345703125,0.07024950534105301,-0.08552113175392151,-0.12400564551353455
1788049449203284700,10.19928466796875,0.031154127791523933,-0.05192354694008827,-0.1411098688840866
1788049449219291000,10.215290771484375,-0.010995574295520782,-0.01160643994808197,-0.14477506279945374
1788049449235701000,10.231700927734375,-0.02687807008624077,-0.006108652334660292,-0.1368338167667389
1788049449251349000,10.247348876953126,-0.033597588539123535,-0.005497787147760391,-0.08918632566928864
1788049449267709000,10.263708984375,-0.02382374368607998,-0.02871066704392433,-0.033597588539123535
1788049449283920400,10.27992041015625,-0.019547687843441963,-0.04337143152952194,0.012217304669320583
1788049449299521800,10.295521728515626,-0.02015855349600315,-0.06108652427792549,0.05253441259264946
1788049449315702300,10.311702392578125,-0.03726277872920036,-0.06414084881544113,0.06841690838336945
1788049449332076300,10.328076171875,-0.04948008432984352,-0.06780604273080826,0.05864306539297104
1788049449348136700,10.34413671875,-0.04581489413976669,-0.06230825558304787,0.04764748737215996
1788049449363639800,10.359639892578125,-0.042760565876960754,-0.07208210229873657,0.042760565876960754
1788049449379699700,10.37569970703125,-0.02932153269648552,-0.0806342139840126,0.0555887371301651
1788049449395960800,10.3919609375,-0.016493361443281174,-0.06902777403593063,0.08002334833145142
1788049449411905500,10.407905517578126,-0.01710422709584236,-0.018936822190880775,0.06536258012056351
1788049449428255200,10.424255126953126,0.001832595793530345,-0.01160643994808197,0.021380282938480377
1788049449443885300,10.43988525390625,0.024434609338641167,-0.03298672288656235,0.01771509274840355
1788049449459885000,10.455885009765625,0.04703662544488907,-0.06658431142568588,0.042760565876960754
1788049449476197600,10.47219775390625,0.05192354694008827,-0.08429940044879913,0.06658431142568588
1788049449492416800,10.488416748046875,0.03726277872920036,-0.10018189996480942,0.07635815441608429
1788049449508261600,10.50426171875,0.018936822190880775,-0.09651670604944229,0.06658431142568588
1788049449523984600,10.519984619140626,-0.00733038317412138,-0.06414084881544113,0.036651913076639175
1788049449539904300,10.535904296875,-0.022602014243602753,-0.054367005825042725,0.006719517521560192
1788049449556346000,10.55234619140625,-0.021380282938480377,-0.048258353024721146,-0.027488935738801956
1788049449571957500,10.56795751953125,-0.02321287989616394,-0.05375614017248154,-0.056810468435287476
1788049449588599800,10.584599853515625,-0.02871066704392433,-0.04703662544488907,-0.05619960278272629
1788049449604017000,10.600016845703125,-0.04459316283464432,-0.028099801391363144,-0.031154127791523933
1788049449620097000,10.616096923828126,-0.0507018156349659,-0.02015855349600315,-0.00855211354792118
1788049449636310000,10.63231005859375,-0.04703662544488907,-0.025045474991202354,0.009162978269159794
1788049449652153300,10.6481533203125,-0.05253441259264946,-0.03176499158143997,0.025045474991202354
1788049449668536600,10.66453662109375,-0.06169738993048668,-0.054367005825042725,0.028099801391363144
1788049449684272400,10.6802724609375,-0.07513642311096191,-0.07757988572120667,0.036041051149368286
1788049449700403500,10.696403564453124,-0.08552113175392151,-0.08979719132184982,0.030543262138962746
1788049449716596500,10.712596435546875,-0.09957103431224823,-0.09957103431224823,0.009162978269159794
1788049449732276500,10.7282763671875,-0.10445795953273773,-0.1111774742603302,-0.009162978269159794
1788049449748789200,10.744789306640625,-0.10995574295520782,-0.12217304855585098,-0.019547687843441963
1788049449764424700,10.7604248046875,-0.11362093687057495,-0.13011430203914642,-0.036651913076639175
1788049449780447700,10.77644775390625,-0.11911872029304504,-0.12034045159816742,-0.0354301854968071
1788049449796818200,10.792818115234375,-0.11362093687057495,-0.12522737681865692,-0.01771509274840355
1788049449812697600,10.808697509765626,-0.0806342139840126,-0.1563815027475357,-0.01038470957428217
1788049449829100500,10.8251005859375,-0.04703662544488907,-0.21807889640331268,-0.005497787147760391
1788049449845173500,10.841173583984375,-0.025656340643763542,-0.25106561183929443,-0.00366519158706069
1788049449860752400,10.85675244140625,-0.01466076634824276,-0.2785545587539673,-0.003054326167330146
1788049449876933400,10.872933349609376,-0.01710422709584236,-0.31154128909111023,0.0006108652451075613
1788049449892740000,10.888739990234376,-0.028099801391363144,-0.3585779070854187,0.006108652334660292
1788049449909152800,10.90515283203125,-0.04092797264456749,-0.4300491213798523,0.006719517521560192
1788049449924815400,10.9208154296875,-0.05009094998240471,-0.5222898125648499,-0.01710422709584236
1788049449941066200,10.937066162109375,-0.05925392732024193,-0.6298020482063293,-0.0555887371301651
1788049449957393400,10.953393310546875,-0.06169738993048668,-0.7269296646118164,-0.07269296050071716
1788049449972940800,10.96894091796875,-0.0708603709936142,-0.8045095205307007,-0.08674286305904388
1788049449989313300,10.985313232421875,-0.08368854224681854,-0.8655960559844971,-0.12034045159816742
1788049450005053000,11.001052978515625,-0.08368854224681854,-0.9248499870300293,-0.12461651116609573
1788049450020930800,11.016930908203125,-0.07513642311096191,-0.9841039180755615,-0.09773843735456467
1788049450037231400,11.0332314453125,-0.07330382615327835,-1.026253581047058,-0.08002334833145142
1788049450052982500,11.048982421875,-0.07391469180583954,-1.0586295127868652,-0.09040805697441101
1788049450069424600,11.065424560546875,-0.0861319974064827,-1.1178834438323975,-0.13255776464939117
1788049450085084200,11.081084228515625,-0.11789698898792267,-1.1630873680114746,-0.16554448008537292
1788049450101649400,11.0976494140625,-0.14049901068210602,-1.1899654865264893,-0.1771509200334549
1788049450117438500,11.1134384765625,-0.152105450630188,-1.2571606636047363,-0.16249015927314758
1788049450133143000,11.12914306640625,-0.15515977144241333,-1.3347405195236206,-0.13866640627384186
1788049450149565200,11.145565185546875,-0.17348572611808777,-1.4001030921936035,-0.14538592100143433
1788049450165338400,11.16133837890625,-0.19853121042251587,-1.436144232749939,-0.16737708449363708
1788049450181281300,11.17728125,-0.24129177629947662,-1.4721852540969849,-0.192422553896904
1788049450197486000,11.193486083984375,-0.2828305959701538,-1.490511178970337,-0.2076941877603531
1788049450213589500,11.209589599609375,-0.3219259977340698,-1.4886785745620728,-0.21441370248794556
1788049450229612800,11.22561279296875,-0.3591887652873993,-1.4343116283416748,-0.2076941877603531
1788049450245409000,11.241408935546875,-0.37629300355911255,-1.377501130104065,-0.18936823308467865
1788049450261455000,11.257455078125,-0.3793473243713379,-1.348179578781128,-0.16920967400074005
1788049450277813800,11.273813720703124,-0.3738495409488678,-1.3231340646743774,-0.1466076523065567
1788049450293826800,11.289826904296875,-0.3677408695220947,-1.302364706993103,-0.11667526513338089
1788049450310077000,11.306076904296875,-0.3836233615875244,-1.2809844017028809,-0.09285151958465576
1788049450325614300,11.3216142578125,-0.4001167416572571,-1.2712105512619019,-0.0659734457731247
1788049450341764000,11.33776416015625,-0.4184426963329315,-1.2760975360870361,-0.04153883829712868
1788049450358252300,11.354252197265625,-0.4434881806373596,-1.3029755353927612,-0.02871066704392433
1788049450373660400,11.369660400390625,-0.4642575979232788,-1.330464482307434,-0.014049900695681572
1788049450390281200,11.38628125,-0.4960225820541382,-1.356731653213501,0.0024434609804302454
1788049450406297900,11.4022978515625,-0.5296201705932617,-1.3683381080627441,0.015271631069481373
1788049450421848000,11.41784814453125,-0.5595525503158569,-1.36955988407135,0.022602014243602753
1788049450438484700,11.434484619140624,-0.5772676467895508,-1.3640620708465576,0.039706241339445114
1788049450453808400,11.449808349609375,-0.5723807215690613,-1.359786033630371,0.05497787147760391
1788049450470368300,11.4663681640625,-0.5510004758834839,-1.3365731239318848,0.06902777403593063
1788049450486467800,11.4824677734375,-0.5192354321479797,-1.3084733486175537,0.10201449692249298
1788049450502083300,11.498083251953124,-0.48258355259895325,-1.2864822149276733,0.14233160018920898
1788049450518622500,11.51462255859375,-0.4691445231437683,-1.254717230796814,0.17287486791610718
1788049450534478300,11.530478271484375,-0.45814892649650574,-1.243721604347229,0.15882496535778046
1788049450550655700,11.54665576171875,-0.4593706727027893,-1.2473868131637573,0.018936822190880775
1788049450566663700,11.56266357421875,-0.4697553813457489,-1.2345587015151978,-0.19975294172763824
1788049450582107600,11.578107666015624,-0.48380526900291443,-1.2198978662490845,-0.3090978264808655
1788049450598654700,11.59465478515625,-0.5009095072746277,-1.23394775390625,-0.2742784917354584
1788049450614333700,11.610333740234376,-0.5051855444908142,-1.2119566202163696,-0.10995574295520782
1788049450630812200,11.626812255859376,-0.48808133602142334,-1.141707181930542,0.06352998316287994
1788049450646353200,11.642353271484374,-0.4190535545349121,-1.1197160482406616,0.18814650177955627
1788049450662899200,11.658899169921876,-0.3176499307155609,-1.1527026891708374,0.18997909128665924
1788049450678822700,11.67482275390625,-0.2321287989616394,-1.1759155988693237,0.13255776464939117
1788049450694404900,11.69040478515625,-0.15332718193531036,-1.217454433441162,0.045204028487205505
1788049450710805500,11.706805419921874,-0.10751228034496307,-1.2651019096374512,-0.056810468435287476
1788049450726611200,11.722611083984376,-0.12461651116609573,-1.2681562900543213,-0.11667526513338089
1788049450742591700,11.738591796875,-0.17287486791610718,-1.2638801336288452,-0.1319468915462494
1788049450759089200,11.755089111328125,-0.24129177629947662,-1.2272282838821411,-0.11484266817569733
1788049450774707700,11.770707763671876,-0.3121521472930908,-1.217454433441162,-0.09529497474431992
1788049450791266800,11.787266845703124,-0.36590829491615295,-1.217454433441162,-0.0806342139840126
1788049450806901500,11.802901611328124,-0.42271876335144043,-1.2082914113998413,-0.05925392732024193
1788049450822840600,11.818840576171874,-0.46731191873550415,-1.1887437105178833,-0.022602014243602753
1788049450839132400,11.83513232421875,-0.484416127204895,-1.1661417484283447,0.0024434609804302454
1788049450854842600,11.850842529296875,-0.484416127204895,-1.1496484279632568,0.0024434609804302454
1788049450871412000,11.867411865234375,-0.4758640229701996,-1.1160508394241333,-0.013439035043120384
1788049450886980600,11.882980712890625,-0.4612032473087311,-1.094059705734253,-0.03298672288656235
1788049450903272700,11.899272705078126,-0.4404338300228119,-1.06351637840271,-0.06719517707824707
1788049450919689000,11.91568896484375,-0.4141666293144226,-1.0280861854553223,-0.1062905490398407
1788049450935128600,11.931128662109375,-0.37568211555480957,-1.0073168277740479,-0.1313360333442688
1788049450951586600,11.947586669921876,-0.33597588539123535,-1.0042624473571777,-0.13561208546161652
1788049450967239200,11.9632392578125,-0.2938261926174164,-0.9841039180755615,-0.11667526513338089
1788049450983334700,11.979334716796876,-0.2577851414680481,-0.9969320893287659,-0.09162978827953339
1788049450999546000,11.995546142578124,-0.23335053026676178,-1.0280861854553223,-0.08735372871160507
1788049451015215400,12.01121533203125,-0.24190263450145721,-1.018923282623291,-0.10751228034496307
1788049451031648800,12.027648681640626,-0.28099802136421204,-0.9761626720428467,-0.14294247329235077
1788049451047771000,12.04377099609375,-0.31459560990333557,-0.9260717034339905,-0.1472185254096985
1788049451063354400,12.059354248046875,-0.32986724376678467,-0.8784242272377014,-0.13500121235847473
1788049451079986000,12.07598583984375,-0.3194825351238251,-0.8362745046615601,-0.10506882518529892
1788049451095414300,12.091414306640624,-0.28649580478668213,-0.8002334833145142,-0.05497787147760391
1788049451111821600,12.107821533203126,-0.22479841113090515,-0.7446447610855103,0.00427605677396059
1788049451127586800,12.1235869140625,-0.15393804013729095,-0.6872233748435974,0.022602014243602753
1788049451143514400,12.139514404296875,-0.08002334833145142,-0.6572909951210022,0.048258353024721146
1788049451159778800,12.15577880859375,-0.028099801391363144,-0.6255260109901428,0.09773843735456467
1788049451176018200,12.17201806640625,0.010995574295520782,-0.5998696684837341,0.14355333149433136
1788049451192114700,12.18811474609375,0.03726277872920036,-0.5772676467895508,0.152105450630188
1788049451207706400,12.203706298828125,0.05192354694008827,-0.5571091175079346,0.1459967941045761
1788049451223737300,12.2197373046875,0.06963863968849182,-0.5369505286216736,0.11056660860776901
1788049451240145200,12.236145263671874,0.07024950534105301,-0.5485569834709167,0.036041051149368286
1788049451255766300,12.251766357421875,0.054367005825042725,-0.5845980644226074,-0.06963863968849182
1788049451272357400,12.268357421875,-0.0403171069920063,-0.5962044596672058,-0.22663100063800812
1788049451287902700,12.28390283203125,-0.17592918872833252,-0.5681046843528748,-0.31154128909111023
1788049451304065500,12.3000654296875,-0.26145032048225403,-0.523511528968811,-0.2730567753314972
1788049451320075300,12.3160751953125,-0.2834414839744568,-0.4648684561252594,-0.13500121235847473
1788049451336053000,12.332052978515625,-0.19792033731937408,-0.43615779280662537,0.018936822190880775
1788049451352306700,12.348306640625,-0.06902777403593063,-0.4331034719944,0.10323622822761536
1788049451368127700,12.364127685546874,0.02015855349600315,-0.3952298164367676,0.11728613078594208
1788049451384402200,12.380402099609375,0.06719517707824707,-0.3066543638706207,0.07941248267889023
1788049451400399000,12.396399169921875,0.06719517707824707,-0.21441370248794556,0.029932396486401558
1788049451416149000,12.41214892578125,0.04703662544488907,-0.16065755486488342,-0.025045474991202354
1788049451432735200,12.4287353515625,0.01771509274840355,-0.10567969083786011,-0.08796459436416626
1788049451448176600,12.4441767578125,0.012217304669320583,-0.08735372871160507,-0.09224065393209457
1788049451464160000,12.460159912109376,0.030543262138962746,-0.09468411654233932,-0.04459316283464432
1788049451480418300,12.476418212890625,0.07024950534105301,-0.10506882518529892,0.045204028487205505
1788049451496219100,12.49221923828125,0.09712757170200348,-0.11423180252313614,0.1258382350206375
1788049451512546800,12.508546875,0.1111774742603302,-0.10934487730264664,0.1569923609495163
1788049451528568000,12.524568115234375,0.0910189226269722,-0.08307767659425735,0.15332718193531036
1788049451544450300,12.5404501953125,0.05192354694008827,-0.039706241339445114,0.11972958594560623
1788049451560683500,12.55668359375,-0.0024434609804302454,0.018325956538319588,0.07452555745840073
1788049451576371500,12.572371337890624,-0.030543262138962746,0.02626720629632473,0.031154127791523933
1788049451592849700,12.588849609375,-0.033597588539123535,0.006108652334660292,0
1788049451608574000,12.604573974609375,-0.03176499158143997,-0.003054326167330146,-0.0012217304902151227
1788049451624649500,12.6206494140625,-0.031154127791523933,-0.00733038317412138,0.016493361443281174
1788049451640786200,12.6367861328125,-0.03420845419168472,-0.01771509274840355,0.05375614017248154
1788049451656639700,12.6526396484375,-0.048258353024721146,-0.04948008432984352,0.11056660860776901
1788049451672967000,12.668966796875,-0.07513642311096191,-0.03787364438176155,0.14782938361167908
1788049451689175000,12.685175048828125,-0.10690141469240189,0.022602014243602753,0.14477506279945374
1788049451704795400,12.70079541015625,-0.10506882518529892,0.048258353024721146,0.09162978827953339
1788049451721108200,12.717108154296875,-0.08368854224681854,0.03237585723400116,0.05925392732024193
1788049451737177000,12.733177001953125,-0.06719517707824707,-0.006108652334660292,0.06780604273080826
1788049451753165300,12.749165283203125,-0.07452555745840073,-0.018325956538319588,0.09834930300712585
1788049451768859400,12.764859375,-0.11178833991289139,-0.036651913076639175,0.10201449692249298
1788049451784956000,12.780955810546875,-0.1459967941045761,-0.05253441259264946,0.09896016865968704
1788049451801344500,12.797344482421876,-0.16920967400074005,-0.08674286305904388,0.08307767659425735
1788049451816944400,12.8129443359375,-0.17776179313659668,-0.11178833991289139,0.042760565876960754
1788049451833326600,12.82932666015625,-0.17470745742321014,-0.12034045159816742,0
1788049451849007400,12.84500732421875,-0.16310101747512817,-0.11728613078594208,-0.027488935738801956
1788049451865036500,12.86103662109375,-0.15271630883216858,-0.06475171446800232,-0.036041051149368286
1788049451889065000,12.88506494140625,-0.13011430203914642,0.0403171069920063,-0.02015855349600315
1788049451905021400,12.901021484375,-0.10873401165008545,0.08368854224681854,-0.006108652334660292
1788049451921317600,12.917317626953125,-0.07757988572120667,0.11789698898792267,-0.02871066704392433
1788049451936993000,12.932992919921874,-0.039095375686883926,0.16554448008537292,-0.1007927656173706
1788049451953409300,12.9494091796875,-0.02382374368607998,0.2028072625398636,-0.16432274878025055
1788049451969122300,12.965122314453126,-0.006719517521560192,0.23640485107898712,-0.1716531366109848
1788049451985145900,12.981145751953125,0.027488935738801956,0.21991148591041565,-0.10567969083786011
1788049452001371600,12.99737158203125,0.07024950534105301,0.2015855312347412,-0.012828170321881771
1788049452017225000,13.013224853515625,0.12522737681865692,0.17104226350784302,0.07880161702632904
1788049452033539600,13.02953955078125,0.16249015927314758,0.11178833991289139,0.12461651116609573
1788049452049282600,13.045282470703125,0.15515977144241333,0.039095375686883926,0.13744467496871948
1788049452065276000,13.06127587890625,0.1111774742603302,-0.0403171069920063,0.1215621829032898
1788049452081564400,13.077564453125,0.02626720629632473,-0.12828169763088226,0.10506882518529892
1788049452097866200,13.0938662109375,-0.0806342139840126,-0.18325957655906677,0.09407325088977814
1788049452113846800,13.1098466796875,-0.16493362188339233,-0.20891591906547546,0.06536258012056351
1788049452129494800,13.125494873046875,-0.22968533635139465,-0.19303341209888458,0.03298672288656235
1788049452145425400,13.14142529296875,-0.23640485107898712,-0.19547687470912933,0.006108652334660292
1788049452161703700,13.15770361328125,-0.18875735998153687,-0.20952677726745605,-0.01710422709584236
1788049452177600300,13.173600341796876,-0.12522737681865692,-0.20891591906547546,-0.03237585723400116
1788049452194205000,13.190204833984374,-0.06719517707824707,-0.16554448008537292,-0.02382374368607998
1788049452209703000,13.205702880859375,-0.0354301854968071,-0.11850785464048386,0.005497787147760391
1788049452225694000,13.22169384765625,-0.0024434609804302454,-0.0861319974064827,0.039706241339445114
1788049452241964300,13.23796435546875,0.022602014243602753,-0.04581489413976669,0.06841690838336945
1788049452257820700,13.253820556640624,0.04153883829712868,-0.016493361443281174,0.05009094998240471
1788049452274409000,13.270408935546875,0.06169738993048668,-0.02321287989616394,0.010995574295520782
1788049452290076200,13.286076171875,0.09468411654233932,-0.0507018156349659,-0.022602014243602753
1788049452305899500,13.3018994140625,0.11545353382825851,-0.09773843735456467,-0.04214970022439957
1788049452322432800,13.318432861328125,0.12767083942890167,-0.13072516024112701,-0.04092797264456749
1788049452338339800,13.33433984375,0.13072516024112701,-0.16982053220272064,-0.0507018156349659
1788049452354401500,13.350401611328126,0.12034045159816742,-0.17287486791610718,-0.04581489413976669
1788049452370040600,13.36604052734375,0.08429940044879913,-0.13439035415649414,-0.00427605677396059
1788049452386320600,13.382320556640625,0.05009094998240471,-0.10201449692249298,0.04092797264456749
1788049452402711600,13.398711669921875,0.025045474991202354,-0.06902777403593063,0.06414084881544113
1788049452418052000,13.414052001953126,0.01038470957428217,-0.03726277872920036,0.07941248267889023
1788049452434500400,13.430500244140624,0.01466076634824276,-0.022602014243602753,0.08185594528913498
1788049452450417400,13.44641748046875,0.039095375686883926,-0.05497787147760391,0.04459316283464432
1788049452466398500,13.4623984375,0.056810468435287476,-0.09468411654233932,-0.012828170321881771
1788049452482658600,13.478658447265625,0.05192354694008827,-0.12217304855585098,-0.08124507963657379
1788049452498662100,13.494662109375,0.021991148591041565,-0.11301007121801376,-0.12522737681865692
1788049452514658000,13.510657958984375,-0.015271631069481373,-0.08002334833145142,-0.13988813757896423
1788049452530540800,13.526540771484376,-0.045204028487205505,-0.05253441259264946,-0.13072516024112701
1788049452546707700,13.542707763671874,-0.059864792972803116,-0.025656340643763542,-0.12217304855585098
1788049452562969900,13.558969970703124,-0.07635815441608429,-0.006719517521560192,-0.11239920556545258
1788049452578547000,13.574546875,-0.06902777403593063,0.003054326167330146,-0.08918632566928864
1788049452594750700,13.590750732421874,-0.04642575979232788,0.02687807008624077,-0.051312681287527084
1788049452610356200,13.606356201171875,-0.012828170321881771,0.039706241339445114,-0.015271631069481373
1788049452626486000,13.622486083984375,0.0354301854968071,0.0354301854968071,0.018325956538319588
1788049452642741500,13.638741455078126,0.08368854224681854,0.015271631069481373,0.05009094998240471
1788049452658989000,13.654989013671875,0.1111774742603302,0.01771509274840355,0.0507018156349659
1788049452675184600,13.6711845703125,0.10323622822761536,0.027488935738801956,0.028099801391363144
1788049452690901500,13.686901611328125,0.07208210229873657,0.060475658625364304,0.00366519158706069
1788049452706626300,13.702626220703126,0.022602014243602753,0.07330382615327835,-0.005497787147760391
1788049452722937000,13.71893701171875,-0.014049900695681572,0.07757988572120667,-0.022602014243602753
1788049452738695700,13.73469580078125,-0.042760565876960754,0.09224065393209457,-0.036651913076639175
1788049452755087600,13.751087646484375,-0.07269296050071716,0.11545353382825851,-0.04642575979232788
1788049452770792400,13.76679248046875,-0.09407325088977814,0.09834930300712585,-0.04398229718208313
1788049452787021300,13.783021240234374,-0.09896016865968704,0.10934487730264664,-0.025045474991202354
1788049452803141000,13.79914111328125,-0.10995574295520782,0.17104226350784302,0
1788049452818961700,13.814961669921875,-0.09468411654233932,0.20891591906547546,-0.003054326167330146
1788049452835271400,13.831271484375,-0.059864792972803116,0.22663100063800812,0.006719517521560192
1788049452850908000,13.846907958984374,-0.00855211354792118,0.2724458873271942,0.051312681287527084
1788049452866840800,13.8628408203125,0.006108652334660292,0.34086281061172485,0.08979719132184982
1788049452883103700,13.879103759765625,0.05192354694008827,0.3988949954509735,0.16798794269561768
1788049452898908400,13.894908447265625,0.11728613078594208,0.37568211555480957,0.2889392673969269
1788049452915647500,13.9116474609375,0.17409659922122955,0.3139847218990326,0.42271876335144043
1788049452931033900,13.927033935546875,0.20402899384498596,0.21563543379306793,0.5186246037483215
1788049452947002400,13.94300244140625,0.20402899384498596,0.14294247329235077,0.5229006409645081
1788049452963303700,13.9593037109375,0.2125810980796814,0.06230825558304787,0.3744603991508484
1788049452979097600,13.97509765625,0.1765400618314743,0.03726277872920036,0.13927727937698364
1788049452995516400,13.991516357421874,0.1258382350206375,0.018936822190880775,-0.08796459436416626
1788049453011245800,14.007245849609374,0.10751228034496307,-0.027488935738801956,-0.3078760802745819
1788049453027229200,14.023229248046874,0.09651670604944229,-0.1007927656173706,-0.36224308609962463
1788049453043565600,14.039565673828125,0.06719517707824707,-0.08735372871160507,-0.25961771607398987
1788049453059352000,14.05535205078125,0.00427605677396059,-0.0024434609804302454,-0.07941248267889023
1788049453075844000,14.071843994140625,-0.04092797264456749,0.1111774742603302,0.11484266817569733
1788049453091598000,14.08759814453125,-0.05009094998240471,0.17592918872833252,0.23335053026676178
1788049453107538400,14.103538330078125,-0.03298672288656235,0.16493362188339233,0.2730567753314972
1788049453123724300,14.119724365234376,-0.022602014243602753,0.16432274878025055,0.22418753802776337
1788049453139559200,14.13555908203125,-0.0403171069920063,0.18814650177955627,0.12828169763088226
1788049453156139500,14.152139404296875,-0.08246681094169617,0.20097467303276062,0.036651913076639175
1788049453172208600,14.168208740234375,-0.11545353382825851,0.17287486791610718,-0.07880161702632904
1788049453187743200,14.1837431640625,-0.11728613078594208,0.10873401165008545,-0.19425514340400696
1788049453204334800,14.2003349609375,-0.10567969083786011,0.048258353024721146,-0.3023782968521118
1788049453220056300,14.216056396484374,-0.07880161702632904,0.003054326167330146,-0.4300491213798523
1788049453236239000,14.232239013671874,-0.02871066704392433,-0.03420845419168472,-0.5015203952789307
1788049453251929300,14.247929443359375,0.006108652334660292,-0.04153883829712868,-0.45142942667007446
1788049453267927800,14.263927734375,0.02321287989616394,-0.02932153269648552,-0.2938261926174164
1788049453284249300,14.280249267578125,0.03176499158143997,0.012217304669320583,-0.08002334833145142
1788049453299823600,14.29582373046875,0.009773843921720982,0.051312681287527084,0.05864306539297104
1788049453316193800,14.31219384765625,-0.027488935738801956,0.05803219974040985,0.08796459436416626
1788049453332028700,14.328028564453126,-0.04948008432984352,0.019547687843441963,0.027488935738801956
1788049453348067800,14.34406787109375,-0.060475658625364304,-0.03420845419168472,-0.06414084881544113
1788049453364446500,14.360446533203126,-0.06963863968849182,-0.06780604273080826,-0.1514945775270462
1788049453380145700,14.376145751953125,-0.06414084881544113,-0.1258382350206375,-0.2278527319431305
1788049453396532200,14.3925322265625,-0.036041051149368286,-0.17592918872833252,-0.26083946228027344
1788049453412251000,14.4082509765625,-0.00855211354792118,-0.2064724564552307,-0.242513507604599
1788049453428680700,14.4246806640625,0.00733038317412138,-0.19425514340400696,-0.2076941877603531
1788049453444573200,14.4405732421875,0.029932396486401558,-0.16982053220272064,-0.16554448008537292
1788049453460396000,14.45639599609375,0.05619960278272629,-0.1514945775270462,-0.11545353382825851
1788049453476907800,14.47290771484375,0.08552113175392151,-0.12400564551353455,-0.036651913076639175
1788049453492553000,14.488552978515624,0.1062905490398407,-0.0959058403968811,0.05253441259264946
1788049453508492800,14.504492919921875,0.11301007121801376,-0.0757472887635231,0.11423180252313614
1788049453524828200,14.520828125,0.11667526513338089,-0.09896016865968704,0.15454891324043274
1788049453540624000,14.536623779296875,0.11362093687057495,-0.10384709388017654,0.19425514340400696
1788049453557029000,14.553029052734376,0.08552113175392151,-0.11239920556545258,0.22846360504627228
1788049453572866800,14.56886669921875,0.07941248267889023,-0.13744467496871948,0.2370157092809677
1788049453588880600,14.584880615234376,0.08124507963657379,-0.2125810980796814,0.19853121042251587
1788049453605157600,14.60115771484375,0.07208210229873657,-0.28955012559890747,0.11239920556545258
1788049453620892400,14.616892333984374,0.0403171069920063,-0.304210901260376,0.033597588539123535
1788049453637437700,14.633437744140625,-0.02076941914856434,-0.3121521472930908,-0.039706241339445114
1788049453653160200,14.64916015625,-0.06230825558304787,-0.3188716471195221,-0.05864306539297104
1788049453668893400,14.6648935546875,-0.08735372871160507,-0.2932153046131134,-0.036041051149368286
1788049453685173000,14.681173095703125,-0.09162978827953339,-0.2272418737411499,0.042760565876960754
1788049453700951600,14.69695166015625,-0.04398229718208313,-0.14538592100143433,0.1722639948129654
1788049453717444400,14.7134443359375,0.04459316283464432,-0.21624629199504852,0.1618792861700058
1788049453733601300,14.729601318359375,0.06963863968849182,-0.2974913716316223,-0.007941247895359993
1788049453749212700,14.745212646484376,-0.036651913076639175,-0.31031954288482666,-0.2687807083129883
1788049453765717000,14.761717041015626,-0.19853121042251587,-0.33536502718925476,-0.48685958981513977
1788049453781163800,14.777163818359375,-0.31154128909111023,-0.3549126982688904,-0.5455026626586914
1788049453797557000,14.793556884765625,-0.43737950921058655,-0.303600013256073,-0.4251621961593628
1788049453813308400,14.809308349609376,-0.4862487316131592,-0.1771509200334549,-0.18570303916931152
1788049453829540600,14.82554052734375,-0.45326200127601624,-0.0861319974064827,0.00733038317412138
1788049453845984500,14.841984619140625,-0.3390302062034607,-0.042760565876960754,0.20525072515010834
1788049453861235500,14.8572353515625,-0.17837265133857727,-0.12522737681865692,0.3781255781650543
1788049453877690000,14.873690185546875,-0.042760565876960754,-0.26633724570274353,0.4434881806373596
1788049453893419800,14.889419677734375,0.07941248267889023,-0.39767327904701233,0.4141666293144226
1788049453909446400,14.9054462890625,0.1368338167667389,-0.4703662395477295,0.3017674386501312
1788049453925739000,14.921739013671875,0.14966198801994324,-0.44837507605552673,0.1111774742603302
1788049453941528600,14.937528564453125,0.09651670604944229,-0.4245513379573822,-0.07147123664617538
1788049453957952300,14.9539521484375,0.036651913076639175,-0.413555771112442,-0.24678955972194672
1788049453973638000,14.969637939453126,-0.015882495790719986,-0.39645153284072876,-0.35246923565864563
1788049453990264300,14.986264404296875,-0.04948008432984352,-0.3543018400669098,-0.3530801236629486
1788049454006358300,15.002358154296875,-0.09224065393209457,-0.2742784917354584,-0.24617868661880493
1788049454021917000,15.0179169921875,-0.12461651116609573,-0.19364428520202637,-0.08429940044879913
1788049454038401300,15.0344013671875,-0.1362229436635971,-0.1368338167667389,0.04214970022439957
1788049454053931500,15.049931640625,-0.11545353382825851,-0.12278391420841217,0.14233160018920898
1788049454070052400,15.06605224609375,-0.07147123664617538,-0.16554448008537292,0.16310101747512817
1788049454086473000,15.082472900390625,-0.016493361443281174,-0.2070833146572113,0.11178833991289139
1788049454102060000,15.09806005859375,0.012217304669320583,-0.2028072625398636,0.04642575979232788
1788049454118579500,15.114579345703126,0.01771509274840355,-0.17409659922122955,-0.01466076634824276
1788049454134374000,15.130373779296875,0.0006108652451075613,-0.1264491081237793,-0.04153883829712868
1788049454150557400,15.146557373046875,-0.029932396486401558,-0.09651670604944229,-0.033597588539123535
1788049454166754000,15.162754150390626,-0.06719517707824707,-0.06230825558304787,-0.027488935738801956
1788049454182457300,15.178457275390626,-0.10201449692249298,-0.036651913076639175,-0.04703662544488907
1788049454198926000,15.194926025390625,-0.1264491081237793,-0.02687807008624077,-0.08307767659425735
1788049454214524400,15.2105244140625,-0.14782938361167908,0.006719517521560192,-0.11484266817569733
1788049454230858000,15.22685791015625,-0.16493362188339233,0.056810468435287476,-0.1111774742603302
1788049454247103500,15.243103515625,-0.17287486791610718,0.1319468915462494,-0.06658431142568588
1788049454262527500,15.258527587890624,-0.17531833052635193,0.21991148591041565,0.014049900695681572
1788049454278907100,15.2749072265625,-0.14844025671482086,0.2681698501110077,0.09224065393209457
1788049454294721000,15.290720947265624,-0.08857546001672745,0.2724458873271942,0.1472185254096985
1788049454310559000,15.30655908203125,-0.03848451003432274,0.2675589919090271,0.17348572611808777
1788049454326944500,15.322944580078126,0.02076941914856434,0.27977627515792847,0.1814269721508026
1788049454342634500,15.338634521484375,0.06780604273080826,0.2993239760398865,0.1716531366109848
1788049454359160600,15.35516064453125,0.10567969083786011,0.29993483424186707,0.15454891324043274
1788049454374739700,15.37073974609375,0.12095131725072861,0.2919935882091522,0.13377949595451355
1788049454390727700,15.386727783203124,0.12400564551353455,0.2736676335334778,0.10873401165008545
1788049454407394300,15.403394287109375,0.12034045159816742,0.22663100063800812,0.08124507963657379
1788049454422786300,15.418786376953125,0.08796459436416626,0.21135938167572021,0.05864306539297104
1788049454439422700,15.435422607421875,0.03298672288656235,0.2278527319431305,0.10995574295520782
1788049454455131400,15.45113134765625,-0.009773843921720982,0.2968805134296417,0.21563543379306793
1788049454470944300,15.4669443359375,-0.05375614017248154,0.38667771220207214,0.3194825351238251
1788049454487212800,15.483212890625,-0.07024950534105301,0.3805690407752991,0.2076941877603531
1788049454503456300,15.499456298828125,-0.0757472887635231,0.3695734739303589,-0.04886921867728233
1788049454519504400,15.51550439453125,-0.07513642311096191,0.3591887652873993,-0.2168571650981903
1788049454535183400,15.531183349609375,-0.039706241339445114,0.31154128909111023,-0.31581732630729675
1788049454551092000,15.547092041015626,0.02382374368607998,0.242513507604599,-0.32620203495025635
1788049454567355100,15.563355224609374,0.07635815441608429,0.21319197118282318,-0.27611109614372253
1788049454583227400,15.579227294921875,0.11178833991289139,0.20463985204696655,-0.15454891324043274
1788049454599622000,15.595621826171875,0.10812314599752426,0.25595253705978394,0.01038470957428217
1788049454615347200,15.61134716796875,0.08491026610136032,0.35185837745666504,0.18936823308467865
1788049454631591700,15.627591796875,0.05253441259264946,0.4660901725292206,0.3634648323059082
1788049454648014000,15.64401416015625,0.04948008432984352,0.503963828086853,0.4404338300228119
1788049454663548700,15.659548583984375,0.08002334833145142,0.4789183437824249,0.4294382631778717
1788049454680060000,15.676059814453126,0.13377949595451355,0.42210787534713745,0.33719760179519653
1788049454695548200,15.691548095703125,0.19425514340400696,0.3286454975605011,0.19853121042251587
1788049454711634200,15.70763427734375,0.2724458873271942,0.18325957655906677,0.060475658625364304
1788049454727960300,15.723960205078125,0.33169981837272644,0.07452555745840073,-0.04214970022439957
1788049454743787500,15.73978759765625,0.3732386529445648,-0.0012217304902151227,-0.1319468915462494
1788049454760244500,15.756244384765624,0.37751471996307373,-0.03298672288656235,-0.1869247704744339
1788049454775942100,15.771942138671875,0.3396410644054413,-0.01160643994808197,-0.16004669666290283
1788049454791839700,15.78783984375,0.2669481039047241,0.033597588539123535,-0.06108652427792549
1788049454808421400,15.80442138671875,0.19364428520202637,0.031154127791523933,0.05803219974040985
1788049454823951000,15.819951171875,0.15577064454555511,0.03298672288656235,0.12339477986097336
1788049454840371200,15.83637109375,0.11850785464048386,0.036041051149368286,0.12400564551353455
1788049454856109600,15.852109619140625,0.10018189996480942,0.029932396486401558,0.06475171446800232
1788049454872026600,15.868026611328125,0.09285151958465576,0.00855211354792118,0.004886921960860491
1788049454888185000,15.88418505859375,0.07208210229873657,-0.04703662544488907,-0.05619960278272629
1788049454904159700,15.90015966796875,0.04398229718208313,-0.1007927656173706,-0.10384709388017654
1788049454920376300,15.916376220703125,0.01160643994808197,-0.1270599663257599,-0.15332718193531036
1788049454936271600,15.932271728515625,-0.003054326167330146,-0.13377949595451355,-0.19120082259178162
1788049454952123400,15.948123291015625,-0.019547687843441963,-0.13500121235847473,-0.20891591906547546
1788049454968330200,15.964330322265624,-0.022602014243602753,-0.1319468915462494,-0.20525072515010834
1788049454984184600,15.9801845703125,-0.007941247895359993,-0.14355333149433136,-0.18570303916931152
1788049455000576300,15.996576171875,0.01771509274840355,-0.1765400618314743,-0.16371189057826996
1788049455016269300,16.012269287109376,0.051312681287527084,-0.21930062770843506,-0.1270599663257599
1788049455032306700,16.028306640625,0.07330382615327835,-0.24556782841682434,-0.05803219974040985
1788049455048576300,16.044576171875,0.0806342139840126,-0.2736676335334778,0.005497787147760391
1788049455064973800,16.060973876953124,0.07147123664617538,-0.342695415019989,0.019547687843441963
1788049455080784600,16.07678466796875,0.0555887371301651,-0.4129449129104614,0.009773843921720982
1788049455096536800,16.092536865234376,0.03420845419168472,-0.4795292317867279,-0.015271631069481373
1788049455112684500,16.1086845703125,0.006719517521560192,-0.5290092825889587,-0.029932396486401558
1788049455128845300,16.12484521484375,-0.018325956538319588,-0.5381723046302795,-0.019547687843441963
1788049455144588300,16.14058837890625,-0.0354301854968071,-0.5253441333770752,0.009773843921720982
1788049455161018000,16.15701806640625,-0.03298672288656235,-0.48197266459465027,0.07024950534105301
1788049455176661500,16.17266162109375,0.005497787147760391,-0.43676865100860596,0.11178833991289139
1788049455192626200,16.188626220703124,0.059864792972803116,-0.4605923891067505,0.028099801391363144
1788049455208890000,16.20489013671875,0.07269296050071716,-0.49357911944389343,-0.19425514340400696
1788049455224663600,16.22066357421875,-0.05742133408784866,-0.4098905920982361,-0.38117989897727966
1788049455241060600,16.237060546875,-0.22418753802776337,-0.30604347586631775,-0.4715879559516907
1788049455256859000,16.25285888671875,-0.38667771220207214,-0.24068090319633484,-0.44654250144958496
1788049455272902100,16.268902099609374,-0.47219884395599365,-0.21074850857257843,-0.3433062732219696
1788049455289199000,16.28519921875,-0.4502076804637909,-0.26145032048225403,-0.23335053026676178
1788049455305343500,16.301343505859375,-0.3793473243713379,-0.3121521472930908,-0.09957103431224823
1788049455321734100,16.317734130859375,-0.29138273000717163,-0.3090978264808655,0.09346238523721695
1788049455337183500,16.33318359375,-0.2125810980796814,-0.2620611786842346,0.27122417092323303
1788049455353201700,16.34920166015625,-0.1417207419872284,-0.24678955972194672,0.37751471996307373
1788049455369499100,16.3654990234375,-0.030543262138962746,-0.28649580478668213,0.41661009192466736
1788049455385354500,16.3813544921875,0.05803219974040985,-0.33169981837272644,0.33658674359321594
1788049455401750500,16.39775048828125,0.08429940044879913,-0.32559117674827576,0.21074850857257843
1788049455417489400,16.413489501953126,0.04886921867728233,-0.3500257730484009,0.04214970022439957
1788049455433894400,16.429894287109374,-0.03237585723400116,-0.37079519033432007,-0.10812314599752426
1788049455449839400,16.44583935546875,-0.10384709388017654,-0.3995058834552765,-0.26450464129447937
1788049455465519400,16.461519287109375,-0.1667662113904953,-0.39217549562454224,-0.3549126982688904
1788049455481858800,16.47785888671875,-0.2370157092809677,-0.35063666105270386,-0.3488040566444397
1788049455497656000,16.493656005859375,-0.30115658044815063,-0.2541199326515198,-0.23457226157188416
1788049455513750300,16.509750244140626,-0.3219259977340698,-0.182648703455925,-0.10384709388017654
1788049455530012700,16.5260126953125,-0.2767219543457031,-0.13377949595451355,0.01466076634824276
1788049455545807000,16.54180712890625,-0.18631389737129211,-0.1459967941045761,0.06475171446800232
1788049455562332000,16.558331787109374,-0.11911872029304504,-0.152105450630188,0.07819075137376785
1788049455578418000,16.57441796875,-0.056810468435287476,-0.15515977144241333,0.059864792972803116
1788049455594489900,16.59048974609375,-0.015271631069481373,-0.15454891324043274,0.0024434609804302454
1788049455610502100,16.606502197265623,-0.006108652334660292,-0.12400564551353455,-0.06841690838336945
1788049455626516700,16.622516845703124,-0.00427605677396059,-0.12522737681865692,-0.1612684279680252
1788049455642480000,16.638480224609374,-0.001832595793530345,-0.15760323405265808,-0.2626720666885376
1788049455658131700,16.654131591796876,-0.01771509274840355,-0.1618792861700058,-0.31031954288482666
1788049455674358800,16.67035888671875,-0.042760565876960754,-0.1569923609495163,-0.3078760802745819
1788049455690717200,16.68671728515625,-0.06536258012056351,-0.14477506279945374,-0.2669481039047241
1788049455706388200,16.70238818359375,-0.06658431142568588,-0.1362229436635971,-0.19303341209888458
1788049455722654200,16.718654296875,-0.06414084881544113,-0.11972958594560623,-0.13316862285137177
1788049455738779100,16.734779052734375,-0.07024950534105301,-0.06169738993048668,-0.05314527451992035
1788049455754488000,16.750488037109374,-0.06414084881544113,0.006108652334660292,0.0403171069920063
1788049455770530300,16.7665302734375,-0.04581489413976669,0.05925392732024193,0.1062905490398407
1788049455786329600,16.78232958984375,-0.009773843921720982,0.10506882518529892,0.14049901068210602
1788049455802690800,16.79869091796875,0.029932396486401558,0.12828169763088226,0.1062905490398407
1788049455818422300,16.81442236328125,0.05619960278272629,0.15515977144241333,0.05375614017248154
1788049455834394400,16.830394287109375,0.06963863968849182,0.19303341209888458,0.012217304669320583
1788049455850706400,16.84670654296875,0.06291911751031876,0.2272418737411499,0.0024434609804302454
1788049455866595800,16.862595947265625,0.06841690838336945,0.2376265823841095,-0.006108652334660292
1788049455883107800,16.87910791015625,0.059864792972803116,0.24556782841682434,-0.02626720629632473
1788049455898731000,16.89473095703125,0.018936822190880775,0.2767219543457031,-0.033597588539123535
1788049455914573300,16.9105732421875,-0.0555887371301651,0.28955012559890747,-0.016493361443281174
1788049455930889700,16.9268896484375,-0.11667526513338089,0.3335324227809906,0.048258353024721146
1788049455946915600,16.94291552734375,-0.18325957655906677,0.3982841372489929,0.13988813757896423
1788049455963264000,16.959263916015626,-0.22540926933288574,0.4703662395477295,0.20586158335208893
1788049455978776000,16.974776123046876,-0.21074850857257843,0.45204028487205505,0.1362229436635971
1788049455995014100,16.99101416015625,-0.19486601650714874,0.4251621961593628,-0.06352998316287994
1788049456011321600,17.007321533203125,-0.2015855312347412,0.45753806829452515,-0.21441370248794556
1788049456027009800,17.023009765625,-0.2028072625398636,0.4966334402561188,-0.2718350291252136
1788049456043282200,17.0392822265625,-0.16554448008537292,0.5406157374382019,-0.2541199326515198
1788049456059067400,17.0550673828125,-0.09407325088977814,0.5363397002220154,-0.14049901068210602
1788049456075125800,17.071125732421876,0.016493361443281174,0.5015203952789307,0.05864306539297104
1788049456091289000,17.0872890625,0.10934487730264664,0.46303585171699524,0.26022860407829285
1788049456107151000,17.103151123046874,0.1716531366109848,0.485027015209198,0.43799036741256714
1788049456123508700,17.1195087890625,0.19975294172763824,0.48197266459465027,0.5271766781806946
1788049456139697200,17.135697265625,0.2076941877603531,0.46547931432724,0.5393940210342407
1788049456155293000,17.15129296875,0.19547687470912933,0.42210787534713745,0.43615779280662537
1788049456171689000,17.16768896484375,0.17470745742321014,0.3805690407752991,0.20586158335208893
1788049456187401200,17.183401123046874,0.14782938361167908,0.30482175946235657,-0.02321287989616394
1788049456203747000,17.1997470703125,0.15454891324043274,0.20036379992961884,-0.22418753802776337
1788049456219379200,17.215379150390625,0.15515977144241333,0.13072516024112701,-0.3243694305419922
1788049456235565600,17.231565673828126,0.1771509200334549,0.04764748737215996,-0.3597996234893799
1788049456251764000,17.247763916015625,0.23273965716362,-0.07757988572120667,-0.34025195240974426
1788049456267543800,17.263543701171876,0.2926044464111328,-0.2070833146572113,-0.2174680233001709
1788049456283940600,17.279940673828126,0.2938261926174164,-0.24190263450145721,-0.028099801391363144
1788049456299780400,17.2957802734375,0.2675589919090271,-0.21380282938480377,0.10384709388017654
1788049456315669200,17.311669189453124,0.2174680233001709,-0.14966198801994324,0.17104226350784302
1788049456332002600,17.32800244140625,0.1667662113904953,-0.11239920556545258,0.1667662113904953
1788049456347949600,17.343949462890624,0.1362229436635971,-0.07513642311096191,0.10690141469240189
1788049456364325000,17.3603251953125,0.08857546001672745,-0.06780604273080826,0.0012217304902151227
1788049456379967500,17.375967529296876,0.048258353024721146,-0.10018189996480942,-0.12034045159816742
1788049456396509400,17.392509521484374,0.025656340643763542,-0.12950342893600464,-0.22968533635139465
1788049456412259300,17.40825927734375,0.016493361443281174,-0.16249015927314758,-0.2871066629886627
1788049456428052500,17.424052490234374,0.03420845419168472,-0.17043140530586243,-0.3023782968521118
1788049456444528600,17.440528564453125,0.04886921867728233,-0.18081611394882202,-0.25961771607398987
1788049456460179000,17.456178955078126,0.06719517707824707,-0.16798794269561768,-0.2070833146572113
1788049456476295000,17.472294921875,0.10018189996480942,-0.14905111491680145,-0.1508837193250656
1788049456492480800,17.488480712890624,0.13439035415649414,-0.12950342893600464,-0.06841690838336945
1788049456508470300,17.50447021484375,0.16554448008537292,-0.13377949595451355,0.02015855349600315
1788049456524848600,17.5208486328125,0.1966986060142517,-0.192422553896904,0.1215621829032898
1788049456540596700,17.5365966796875,0.2021963894367218,-0.23090706765651703,0.2076941877603531
1788049456556431000,17.55243115234375,0.192422553896904,-0.25595253705978394,0.25473082065582275
1788049456572734200,17.568734130859376,0.182648703455925,-0.2926044464111328,0.2669481039047241
1788049456588585500,17.58458544921875,0.1618792861700058,-0.3384193480014801,0.2474004179239273
1788049456604816000,17.60081591796875,0.13011430203914642,-0.3805690407752991,0.22418753802776337
1788049456620549400,17.61654931640625,0.08368854224681854,-0.38667771220207214,0.19975294172763824
1788049456636658700,17.63265869140625,0.009162978269159794,-0.3634648323059082,0.17043140530586243
1788049456653224700,17.649224609375,-0.06658431142568588,-0.313373863697052,0.13988813757896423
1788049456668618200,17.6646181640625,-0.1014036312699318,-0.29626965522766113,0.13011430203914642
1788049456685172700,17.6811728515625,-0.09468411654233932,-0.2926044464111328,0.17409659922122955
1788049456700717300,17.69671728515625,-0.021991148591041565,-0.3335324227809906,0.23029619455337524
1788049456716674300,17.71267431640625,0.07208210229873657,-0.44226643443107605,0.16432274878025055
1788049456732962600,17.728962646484376,0.13500121235847473,-0.5125159621238708,-0.033597588539123535
1788049456748777200,17.744777099609376,0.09346238523721695,-0.5522221922874451,-0.26083946228027344
1788049456765165300,17.761165283203123,-0.007941247895359993,-0.5479460954666138,-0.37568211555480957
1788049456780904200,17.776904296875,-0.1966986060142517,-0.4306600093841553,-0.32620203495025635
1788049456796918500,17.79291845703125,-0.3897320330142975,-0.3023782968521118,-0.09224065393209457
1788049456813193500,17.809193359375,-0.5021312236785889,-0.1875356286764145,0.18325957655906677
1788049456829046500,17.825046630859376,-0.5247332453727722,-0.14782938361167908,0.3127630054950714
1788049456845532400,17.841532470703125,-0.4813618063926697,-0.13255776464939117,0.35063666105270386
1788049456861134800,17.857134765625,-0.3933972120285034,-0.09773843735456467,0.37751471996307373
1788049456877153500,17.873153564453126,-0.2840523421764374,-0.07147123664617538,0.3933972120285034
1788049456893570600,17.889570556640624,-0.11667526513338089,-0.1270599663257599,0.3787364661693573
1788049456909230000,17.90522998046875,0.02382374368607998,-0.1869247704744339,0.30054569244384766
1788049456925619200,17.921619140625,0.0910189226269722,-0.21991148591041565,0.18325957655906677
1788049456941345300,17.93734521484375,0.12461651116609573,-0.26083946228027344,0.010995574295520782
1788049456957907700,17.95390771484375,0.11728613078594208,-0.3017674386501312,-0.16310101747512817
1788049456973660700,17.96966064453125,0.11362093687057495,-0.38240164518356323,-0.3280346393585205
1788049456989433900,17.985433837890625,0.09529497474431992,-0.4508185386657715,-0.413555771112442
1788049457005769700,18.001769775390624,0.0012217304902151227,-0.42149701714515686,-0.35613444447517395
1788049457021480200,18.017480224609375,-0.15943582355976105,-0.24129177629947662,-0.13744467496871948
1788049457037462000,18.0334619140625,-0.2535090744495392,-0.11423180252313614,0.051312681287527084
1788049457053757700,18.0497578125,-0.25106561183929443,-0.07941248267889023,0.1362229436635971
1788049457069544200,18.065544189453124,-0.18936823308467865,-0.07330382615327835,0.08796459436416626
1788049457086250500,18.08225048828125,-0.12034045159816742,-0.04581489413976669,0.03420845419168472
1788049457101771800,18.097771728515625,-0.05253441259264946,0.00366519158706069,-0.004886921960860491
1788049457117900300,18.113900390625,0.007941247895359993,0.04337143152952194,-0.02382374368607998
1788049457134131000,18.130130859375,0.04398229718208313,0.0757472887635231,-0.030543262138962746
1788049457149891000,18.14589111328125,0.056810468435287476,0.1111774742603302,-0.039095375686883926
1788049457166521900,18.16252197265625,0.04581489413976669,0.13500121235847473,-0.0806342139840126
1788049457181983500,18.1779833984375,0.02382374368607998,0.13866640627384186,-0.16065755486488342
1788049457198358000,18.19435791015625,-0.018936822190880775,0.12278391420841217,-0.2223549485206604
1788049457214662100,18.210662109375,-0.0959058403968811,0.1618792861700058,-0.25595253705978394
1788049457230473700,18.2264736328125,-0.18325957655906677,0.2474004179239273,-0.2590068578720093
1788049457246568200,18.242568115234373,-0.25045475363731384,0.3549126982688904,-0.2272418737411499
1788049457262390000,18.25839013671875,-0.30482175946235657,0.47708576917648315,-0.17287486791610718
1788049457278125600,18.27412548828125,-0.3121521472930908,0.5809328556060791,-0.1007927656173706
1788049457294509800,18.290509765625,-0.2571742534637451,0.6524040699005127,-0.02015855349600315
1788049457310354400,18.3063544921875,-0.1514945775270462,0.7324274182319641,0.07452555745840073
1788049457326684700,18.3226845703125,-0.027488935738801956,0.7666358947753906,0.12522737681865692
1788049457342445600,18.338445556640625,0.07880161702632904,0.7434229850769043,0.15515977144241333
1788049457358466800,18.354466796875,0.16982053220272064,0.6896668672561646,0.1820378452539444
1788049457374731300,18.370731201171875,0.20463985204696655,0.6475171446800232,0.1820378452539444
1788049457390716000,18.3867158203125,0.18448130786418915,0.6450737118721008,0.16737708449363708
1788049457406919700,18.402919677734374,0.15393804013729095,0.6401867866516113,0.17348572611808777
1788049457422620700,18.41862060546875,0.13500121235847473,0.6218608021736145,0.18875735998153687
1788049457438971600,18.4349716796875,0.13500121235847473,0.6035348773002625,0.19058994948863983
1788049457454847700,18.45084765625,0.1362229436635971,0.6243042945861816,0.18081611394882202
1788049457471193000,18.467193115234377,0.14355333149433136,0.6352998614311218,0.1569923609495163
1788049457487139600,18.4831396484375,0.13866640627384186,0.617584764957428,0.08857546001672745
1788049457502970600,18.498970703125,0.1270599663257599,0.6157521605491638,-0.03420845419168472
1788049457518856200,18.514856201171874,0.09040805697441101,0.6395758986473083,-0.22846360504627228
1788049457535133200,18.53113330078125,0.07696902006864548,0.6676757335662842,-0.33719760179519653
1788049457550985200,18.546985107421875,0.10323622822761536,0.6597344875335693,-0.2871066629886627
1788049457567259000,18.5632587890625,0.1875356286764145,0.6224716901779175,-0.11667526513338089
1788049457582978600,18.578978515625,0.27550023794174194,0.637132465839386,0.09407325088977814
1788049457599108000,18.595108154296874,0.33108896017074585,0.6829473376274109,0.2791654169559479
1788049457615216400,18.61121630859375,0.375071257352829,0.6487388610839844,0.3323107063770294
1788049457631147000,18.62714697265625,0.4331034719944,0.5534439086914062,0.29077184200286865
1788049457647557600,18.6435576171875,0.4550946056842804,0.46242499351501465,0.21991148591041565
1788049457663161000,18.6591611328125,0.42149701714515686,0.40622538328170776,0.17409659922122955
1788049457679233500,18.675233642578124,0.35124751925468445,0.3842342495918274,0.11667526513338089
1788049457695420200,18.691420166015625,0.24617868661880493,0.3982841372489929,0.06841690838336945
1788049457711226600,18.7072265625,0.152105450630188,0.40072759985923767,0.030543262138962746
1788049457727849200,18.72384912109375,0.07208210229873657,0.38240164518356323,-0.02871066704392433
1788049457743380700,18.739380615234374,0.03237585723400116,0.3579670190811157,-0.11362093687057495
1788049457759311600,18.7553115234375,0.012217304669320583,0.33108896017074585,-0.16554448008537292
1788049457775746300,18.771746337890626,-0.015271631069481373,0.342695415019989,-0.20036379992961884
1788049457791435800,18.787435791015625,-0.033597588539123535,0.3683517575263977,-0.17898350954055786
1788049457807818500,18.803818603515627,-0.051312681287527084,0.3854559659957886,-0.10262536257505417
1788049457823571500,18.819571533203124,-0.03298672288656235,0.3799581825733185,-0.030543262138962746
1788049457839540000,18.8355400390625,0.01466076634824276,0.3121521472930908,0.01710422709584236
1788049457856049200,18.852049072265626,0.08185594528913498,0.2076941877603531,0.02382374368607998
1788049457871512300,18.86751220703125,0.1258382350206375,0.10567969083786011,0.005497787147760391
1788049457887867000,18.883866943359376,0.12889257073402405,0.06352998316287994,-0.02382374368607998
1788049457903573800,18.89957373046875,0.08246681094169617,0.02687807008624077,-0.06108652427792549
1788049457919597000,18.91559716796875,0.03481931984424591,0.02321287989616394,-0.0757472887635231
1788049457935988200,18.93198828125,-0.03176499158143997,0.014049900695681572,-0.06841690838336945
1788049457951695600,18.947695556640625,-0.09957103431224823,0.030543262138962746,-0.0708603709936142
1788049457968031200,18.96403125,-0.14233160018920898,0.06108652427792549,-0.1160643994808197
1788049457984221400,18.980221435546873,-0.18387043476104736,0.09346238523721695,-0.20036379992961884
1788049457999778800,18.99577880859375,-0.20402899384498596,0.12278391420841217,-0.2834414839744568
1788049458016044500,19.01204443359375,-0.20402899384498596,0.12461651116609573,-0.33475416898727417
1788049458031846400,19.027846435546873,-0.18387043476104736,0.1160643994808197,-0.3280346393585205
1788049458048241700,19.04424169921875,-0.1459967941045761,0.09040805697441101,-0.2638937830924988
1788049458063947300,19.059947265625,-0.11362093687057495,0.06658431142568588,-0.16310101747512817
1788049458079940600,19.075940673828125,-0.08552113175392151,0.06780604273080826,-0.07391469180583954
1788049458096278000,19.092278076171876,-0.05742133408784866,0.0806342139840126,0.02076941914856434
1788049458112030500,19.108030517578126,-0.018936822190880775,0.08674286305904388,0.08124507963657379
1788049458128375600,19.12437548828125,0.025045474991202354,0.08796459436416626,0.11056660860776901
1788049458144109800,19.14010986328125,0.06291911751031876,0.08735372871160507,0.1264491081237793
1788049458160120300,19.156120361328124,0.07208210229873657,0.10384709388017654,0.1160643994808197
1788049458176396000,19.17239599609375,0.060475658625364304,0.10506882518529892,0.08857546001672745
1788049458192319500,19.188319580078126,0.03420845419168472,0.11056660860776901,0.054367005825042725
1788049458208600600,19.2046005859375,0.003054326167330146,0.1270599663257599,0.02687807008624077
1788049458224324600,19.22032470703125,0.00427605677396059,0.1160643994808197,0.006108652334660292
1788049458240417500,19.23641748046875,0.03298672288656235,0.07757988572120667,-0.02871066704392433
1788049458256699600,19.25269970703125,0.06414084881544113,0.05009094998240471,-0.0757472887635231
1788049458272512000,19.268511962890624,0.07757988572120667,0.04886921867728233,-0.09957103431224823
1788049458289098200,19.28509814453125,0.06902777403593063,0.04948008432984352,-0.07757988572120667
1788049458304632300,19.30063232421875,0.0708603709936142,0.039706241339445114,-0.006108652334660292
1788049458320807400,19.316807373046874,0.0708603709936142,0.036041051149368286,0.06352998316287994
1788049458337270300,19.333270263671874,0.06658431142568588,0.04214970022439957,0.10323622822761536
1788049458352738800,19.34873876953125,0.05253441259264946,0.05803219974040985,0.11728613078594208
1788049458369222400,19.365222412109375,0.039095375686883926,0.08429940044879913,0.09224065393209457
1788049458384998000,19.380997802734374,0.036041051149368286,0.11178833991289139,0.05192354694008827
1788049458401091600,19.397091552734373,0.03787364438176155,0.1508837193250656,0.01466076634824276
1788049458417101000,19.41310107421875,0.042760565876960754,0.21991148591041565,0.019547687843441963
1788049458432942300,19.4289423828125,0.05192354694008827,0.30115658044815063,0.02871066704392433
1788049458449402600,19.445402587890626,0.0757472887635231,0.342695415019989,0.025656340643763542
1788049458465024000,19.46102392578125,0.12034045159816742,0.3787364661693573,0.05742133408784866
1788049458480902000,19.47690185546875,0.17409659922122955,0.4306600093841553,0.09896016865968704
1788049458497187000,19.49318701171875,0.2125810980796814,0.4801400899887085,0.09346238523721695
1788049458512923100,19.508923095703125,0.24862214922904968,0.5516113042831421,0.059864792972803116
1788049458529442800,19.52544287109375,0.26633724570274353,0.5699372887611389,0.022602014243602753
1788049458545504500,19.54150439453125,0.2773328125476837,0.578489363193512,0.025656340643763542
1788049458561052700,19.557052734375,0.27611109614372253,0.5931501388549805,0.06963863968849182
1788049458577452800,19.573452880859374,0.2577851414680481,0.6444628238677979,0.11667526513338089
1788049458593287000,19.589286865234374,0.24129177629947662,0.7061602473258972,0.11728613078594208
1788049458609592300,19.60559228515625,0.21868975460529327,0.7812966704368591,0.05803219974040985
1788049458625284400,19.621284423828126,0.18448130786418915,0.8686503767967224,-0.006108652334660292
1788049458641331700,19.637331787109375,0.15393804013729095,0.9621127843856812,-0.018325956538319588
1788049458657568300,19.653568359375,0.12522737681865692,1.0433578491210938,0.030543262138962746
1788049458673484800,19.66948486328125,0.08857546001672745,1.1508700847625732,0.11789698898792267
1788049458689787600,19.68578759765625,0.08979719132184982,1.207069754600525,0.17409659922122955
