time,seconds_elapsed,z,y,x
1788049439183881200,0.179881103515625,1.7549498081207275,9.677363395690918,-0.08858546614646912
1788049439200494000,0.196494140625,1.8267759084701538,9.696516990661621,-0.20111294090747833
1788049439216290600,0.21229052734375,1.8962076902389526,9.655815124511719,-0.26336219906806946
1788049439231996700,0.22799658203125,1.941697597503662,9.622296333312988,-0.24899697303771973
1788049439248416000,0.244416015625,1.8818424940109253,9.610325813293457,-0.2106897532939911
1788049439264045600,0.260045654296875,1.7549498081207275,9.624691009521484,-0.15801730751991272
1788049439280029200,0.276029296875,1.7357962131500244,9.622296333312988,-0.16519992053508759
1788049439296298200,0.29229833984375,1.7836803197860718,9.591172218322754,-0.08858546614646912
1788049439312110600,0.308110595703125,1.8052281141281128,9.600749015808105,-0.14365209639072418
1788049439328375600,0.32437548828125,1.8746598958969116,9.653421401977539,-0.2322375625371933
1788049439344217000,0.340217041015625,1.843535304069519,9.627084732055664,-0.1604115068912506
1788049439360208400,0.35620849609375,1.6879122257232666,9.674968719482422,-0.11971008777618408
1788049439376465400,0.37246533203125,1.6663644313812256,9.75637149810791,-0.22744916379451752
1788049439392222000,0.388221923828125,1.8818424940109253,9.749189376831055,-0.304063618183136
1788049439408654300,0.404654296875,2.0231003761291504,9.734824180603027,-0.26336219906806946
1788049439424307700,0.4203076171875,2.0422539710998535,9.6989107131958,-0.18914192914962769
1788049439440312300,0.436312255859375,1.9177556037902832,9.725247383117676,-0.17717093229293823
1788049439456857300,0.452857421875,1.8339585065841675,9.715670585632324,-0.17717093229293823
1788049439472355600,0.46835546875,1.745373010635376,9.718064308166504,-0.16998831927776337
1788049439488688000,0.484688232421875,1.7908629179000854,9.696516990661621,-0.2513911724090576
1788049439504927200,0.50092724609375,1.843535304069519,9.720458984375,-0.3016694188117981
1788049439520455700,0.51645556640625,1.886630892753601,9.708487510681152,-0.26575639843940735
1788049439536695600,0.532695556640625,1.8339585065841675,9.68933391571045,-0.2585737705230713
1788049439552529200,0.548529052734375,1.8124107122421265,9.670180320739746,-0.21787235140800476
1788049439568844300,0.56484423828125,1.8842366933822632,9.66299819946289,-0.2322375625371933
1788049439584514000,0.58051416015625,1.920149803161621,9.603142738342285,-0.1867477297782898
1788049439600509700,0.596509765625,1.8291701078414917,9.593565940856934,-0.17477671802043915
1788049439616816600,0.612816650390625,1.7046716213226318,9.5624418258667,-0.1388636976480484
1788049439632524300,0.628524169921875,1.6879122257232666,9.550470352172852,-0.090979665517807
1788049439648864500,0.644864501953125,1.6663644313812256,9.521739959716797,-0.08379705995321274
1788049439664616000,0.660615966796875,1.7501614093780518,9.536105155944824,-0.1604115068912506
1788049439680588500,0.676588623046875,1.8339585065841675,9.59596061706543,-0.2585737705230713
1788049439696860400,0.6928603515625,1.8267759084701538,9.636661529541016,-0.29209262132644653
1788049439712557600,0.7085576171875,1.8171991109848022,9.679757118225098,-0.33518823981285095
1788049439728983800,0.72498388671875,1.802833914756775,9.68694019317627,-0.3926490843296051
1788049439744786200,0.7407861328125,1.7884687185287476,9.734824180603027,-0.38307225704193115
1788049439761140000,0.757139892578125,1.766920804977417,9.749189376831055,-0.2849099934101105
1788049439776912000,0.772911865234375,1.7812861204147339,9.734824180603027,-0.19871874153614044
1788049439792702700,0.78870263671875,1.7717092037200928,9.739612579345703,-0.17717093229293823
1788049439809034200,0.8050341796875,1.6950948238372803,9.75397777557373,-0.17956513166427612
1788049439824797700,0.820797607421875,1.6400281190872192,9.75397777557373,-0.181959331035614
1788049439840766500,0.836766357421875,1.6663644313812256,9.730035781860352,-0.24899697303771973
1788049439857001000,0.8530009765625,1.7262194156646729,9.703699111938477,-0.1843535304069519
1788049439872761900,0.868761962890625,1.556231141090393,9.701305389404297,-0.10295066982507706
1788049439889184500,0.8851845703125,1.4101848602294922,9.746794700622559,-0.15562310814857483
1788049439904861700,0.90086181640625,1.5753847360610962,9.780313491821289,-0.2849099934101105
1788049439920874000,0.9168740234375,1.742978811264038,9.775525093078613,-0.3495534360408783
1788049439937107200,0.933107177734375,1.8148049116134644,9.765948295593262,-0.31124621629714966
1788049439952867600,0.94886767578125,1.7310078144073486,9.725247383117676,-0.28969839215278625
1788049439969280500,0.965280517578125,1.6855180263519287,9.751583099365234,-0.2992752194404602
1788049439984964400,0.98096435546875,1.6089035272598267,9.746794700622559,-0.3208230137825012
1788049440001000700,0.997000732421875,1.50355863571167,9.720458984375,-0.3663128614425659
1788049440017529300,1.013529296875,1.3886369466781616,9.749189376831055,-0.42856210470199585
1788049440033015800,1.029015869140625,1.4700398445129395,9.792284965515137,-0.3447650372982025
1788049440049447200,1.045447265625,1.6687586307525635,9.768342971801758,-0.24420857429504395
1788049440065130000,1.0611298828125,1.7836803197860718,9.75637149810791,-0.1628057211637497
1788049440081117400,1.077117431640625,1.8579005002975464,9.715670585632324,-0.29209262132644653
1788049440097360400,1.0933603515625,1.900996208190918,9.612719535827637,-0.17477671802043915
1788049440113143300,1.109143310546875,1.920149803161621,9.576807022094727,-0.10534487664699554
1788049440129439700,1.125439697265625,1.9512743949890137,9.519346237182617,0.06703764945268631
1788049440145208800,1.141208740234375,1.7405846118927002,9.48343276977539,0.08379705995321274
1788049440161195800,1.15719580078125,1.5203180313110352,9.514557838439941,0.043095629662275314
1788049440177446100,1.173446044921875,1.4724340438842773,9.560047149658203,0.026336219161748886
1788049440193242600,1.18924267578125,1.4987702369689941,9.672574996948242,0.09576806426048279
1788049440209621500,1.20562158203125,1.5682021379470825,9.696516990661621,0.06464344263076782
1788049440225274000,1.221274169921875,1.678335428237915,9.718064308166504,0.10534487664699554
1788049440241279700,1.23727978515625,1.9105730056762695,9.72285270690918,0.14604631066322327
1788049440257517000,1.25351708984375,2.0877439975738525,9.727641105651855,0.17477671802043915
1788049440273795300,1.26979541015625,2.1978771686553955,9.725247383117676,0.2513911724090576
1788049440289677600,1.285677490234375,2.056619167327881,9.81143856048584,0.2585737705230713
1788049440305413000,1.3014130859375,1.7812861204147339,9.892841339111328,0.2849099934101105
1788049440321440300,1.317440185546875,1.5131354331970215,9.945513725280762,0.2849099934101105
1788049440337674200,1.33367431640625,1.5275006294250488,9.897629737854004,0.21787235140800476
1788049440353434000,1.34943408203125,1.7621324062347412,9.828198432922363,0.1364694982767105
1788049440369894100,1.36589404296875,1.9153614044189453,9.751583099365234,0.06464344263076782
1788049440385535000,1.381534912109375,1.9632453918457031,9.648633003234863,-0.033518824726343155
1788049440401566500,1.39756640625,1.6711528301239014,9.57441234588623,-0.06703764945268631
1788049440417795000,1.413795166015625,1.2042834758758545,9.57201862335205,-0.026336219161748886
1788049440433542700,1.429542724609375,1.0055646896362305,9.639056205749512,-0.12449848651885986
1788049440449893000,1.44589306640625,1.434126853942871,9.684545516967773,-0.1173158809542656
1788049440465652200,1.46165234375,1.968033790588379,9.737217903137207,-0.016759412363171577
1788049440481701600,1.47770166015625,2.10210919380188,9.782708168029785,0.14844051003456116
1788049440497933600,1.49393359375,1.9728221893310547,9.801861763000488,0.12928688526153564
1788049440513693400,1.509693359375,1.8698714971542358,9.765948295593262,0.10055647045373917
1788049440530239500,1.526239501953125,1.8171991109848022,9.63187313079834,0.040701430290937424
1788049440545750000,1.54175,1.7717092037200928,9.502586364746094,0.08619125932455063
1788049440561740500,1.557740478515625,1.6160861253738403,9.378087997436523,0.13168109953403473
1788049440577992400,1.573992431640625,1.2401964664459229,9.275136947631836,0.18914192914962769
1788049440593741300,1.5897412109375,0.8786720037460327,9.32541561126709,0.2082955539226532
1788049440610060800,1.606060791015625,0.7613561153411865,9.3828763961792,0.26815059781074524
1788049440625809000,1.621808837890625,0.8331822156906128,9.521739959716797,0.2561795711517334
1788049440641804300,1.63780419921875,0.9385270476341248,9.591172218322754,0.2513911724090576
1788049440658027500,1.654027587890625,1.1803414821624756,9.68694019317627,0.2106897532939911
1788049440673790500,1.66979052734375,1.4460978507995605,9.770736694335938,0.181959331035614
1788049440690242800,1.686242919921875,1.6208745241165161,9.787496566772461,0.0694318488240242
1788049440705926700,1.7019267578125,1.580173134803772,9.818621635437012,0.011971008032560349
1788049440721934300,1.717934326171875,1.5490485429763794,9.823410034179688,0.043095629662275314
1788049440738410200,1.73441015625,1.3551181554794312,9.78989028930664,-0.028730420395731926
1788049440753962500,1.74996240234375,1.139639973640442,9.77791976928711,-0.12210428714752197
1788049440770465300,1.76646533203125,1.1540051698684692,9.780313491821289,-0.1604115068912506
1788049440786465000,1.782465087890625,1.4197616577148438,9.78989028930664,-0.08619125932455063
1788049440802055700,1.7980556640625,1.6328455209732056,9.813833236694336,-0.06464344263076782
1788049440818338000,1.814338134765625,1.6903064250946045,9.93593692779541,-0.016759412363171577
1788049440834119200,1.830119140625,1.37906014919281,10.165780067443848,0.05267243832349777
1788049440850534100,1.8465341796875,0.9768342971801758,10.47942066192627,0.05027823522686958
1788049440866610700,1.862610595703125,0.7781155705451965,10.673351287841797,0.040701430290937424
1788049440882488600,1.878488525390625,1.039083480834961,10.778696060180664,0.31124621629714966
1788049440898487800,1.89448779296875,1.7094600200653076,10.718840599060059,0.363918662071228
1788049440914341600,1.910341552734375,2.719813108444214,10.532093048095703,0.047884032130241394
1788049440930557400,1.926557373046875,3.2082302570343018,10.27591323852539,-0.1604115068912506
1788049440946342000,1.942341796875,3.0885202884674072,10.144232749938965,-0.31364041566848755
1788049440962430500,1.958430419921875,2.7437551021575928,10.1753568649292,-0.4908113479614258
1788049440978568000,1.97456787109375,2.674323320388794,10.113107681274414,-0.5386953949928284
1788049440994378500,1.99037841796875,3.0358476638793945,9.892841339111328,-0.47165772318840027
1788049441010771000,2.00677099609375,3.3231520652770996,9.586383819580078,-0.31124621629714966
1788049441026360800,2.02236083984375,3.4117374420166016,9.337387084960938,-0.3878606855869293
1788049441042872800,2.038872802734375,3.383007049560547,9.074024200439453,-0.47405192255973816
1788049441058618400,2.054618408203125,2.942473888397217,8.9064302444458,-0.6943184733390808
1788049441074395100,2.07039501953125,2.205059766769409,8.853757858276367,-0.9217676520347595
1788049441090681900,2.086681884765625,1.6041151285171509,8.889671325683594,-1.1061211824417114
1788049441106436400,2.102436279296875,1.5729905366897583,9.05247688293457,-1.039083480834961
1788049441122441700,2.118441650390625,1.9752163887023926,9.174580574035645,-0.9672574996948242
1788049441138728200,2.134728271484375,2.456450939178467,9.263166427612305,-0.730231523513794
1788049441154467000,2.150467041015625,2.7748796939849854,9.38048267364502,-0.6033388376235962
1788049441170897200,2.166897216796875,3.1483752727508545,9.545681953430176,-0.5578489899635315
1788049441186555000,2.182554931640625,3.4763808250427246,9.655815124511719,-0.5219359993934631
1788049441202602500,2.1986025390625,3.529053211212158,9.725247383117676,-0.5123591423034668
1788049441218999600,2.21499951171875,3.1316158771514893,9.627084732055664,-0.33518823981285095
1788049441234617900,2.230617919921875,2.4588451385498047,9.497797966003418,0.0071826050989329815
1788049441250956500,2.24695654296875,1.8722656965255737,9.327810287475586,0.2992752194404602
1788049441266754000,2.262754150390625,1.4891934394836426,9.224859237670898,0.3256114423274994
1788049441282770400,2.2787705078125,1.3072341680526733,9.10993766784668,0.10773907601833344
1788049441299283200,2.295283203125,1.460463047027588,9.081207275390625,-0.42616790533065796
1788049441314762200,2.31076220703125,1.6328455209732056,9.08838939666748,-0.8954314589500427
1788049441331192800,2.32719287109375,1.742978811264038,9.081207275390625,-1.0773907899856567
1788049441347319600,2.343319580078125,1.7908629179000854,9.097966194152832,-0.9720458984375
1788049441362868000,2.358867919921875,1.7980455160140991,9.148244857788086,-0.6991068720817566
1788049441379121200,2.37512109375,1.7836803197860718,9.2033109664917,-0.5291185975074768
1788049441394868200,2.3908681640625,1.7046716213226318,9.265560150146484,-0.4118026793003082
1788049441411265800,2.407265869140625,1.6400281190872192,9.287108421325684,-0.33279404044151306
1788049441426954200,2.422954345703125,1.7334020137786865,9.344569206237793,-0.16998831927776337
1788049441442940400,2.4389404296875,1.8411411046981812,9.339780807495117,-0.05746084079146385
1788049441459169500,2.45516943359375,1.7860745191574097,9.339780807495117,-0.05506663769483566
1788049441474929200,2.47092919921875,1.5179238319396973,9.30386734008789,0.06703764945268631
1788049441491371300,2.487371337890625,1.194706678390503,9.41639518737793,-0.08379705995321274
1788049441506980000,2.50297998046875,1.113303780555725,9.516951560974121,-0.19153612852096558
1788049441523014700,2.5190146484375,1.2258312702178955,9.612719535827637,-0.1604115068912506
1788049441539308500,2.53530859375,1.235408067703247,9.677363395690918,-0.031124621629714966
1788049441554957300,2.550957275390625,1.2832920551300049,9.739612579345703,-0.12689268589019775
1788049441571306500,2.567306396484375,1.4437036514282227,9.873687744140625,-0.19393034279346466
1788049441587035100,2.58303515625,1.5753847360610962,9.950302124023438,-0.24181437492370605
1788049441603509500,2.599509521484375,1.6615760326385498,10.08198356628418,-0.31842881441116333
1788049441619275000,2.61527490234375,1.6663644313812256,10.18493366241455,-0.5219359993934631
1788049441635031300,2.63103125,1.7381904125213623,10.280701637268066,-0.6943184733390808
1788049441651505400,2.64750537109375,1.8291701078414917,10.407594680786133,-0.6200982332229614
1788049441667126300,2.663126220703125,1.6496049165725708,10.651803016662598,-0.37828385829925537
1788049441683124500,2.67912451171875,1.1300631761550903,10.781089782714844,0.002394201699644327
1788049441699397600,2.695397705078125,0.7469909191131592,11.010933876037598,0.569819986820221
1788049441715165200,2.711165283203125,1.161187767982483,11.08994197845459,1.2018892765045166
1788049441731476200,2.727476318359375,2.0638017654418945,11.039664268493652,1.4437036514282227
1788049441747221200,2.74322119140625,3.1747114658355713,10.788272857666016,0.9385270476341248
1788049441763221500,2.759221435546875,4.02465295791626,10.366893768310547,0.37828385829925537
1788049441779563000,2.77556298828125,4.390965938568115,9.890447616577148,-0.2992752194404602
1788049441795256000,2.791256103515625,4.197035789489746,9.385271072387695,-0.8044517636299133
1788049441811709400,2.80770947265625,3.643975019454956,8.911218643188477,-0.9265560507774353
1788049441827509000,2.823509033203125,2.6839001178741455,8.83939266204834,-0.9959878921508789
1788049441843365400,2.839365478515625,1.920149803161621,8.793902397155762,-0.8858546018600464
1788049441859845400,2.855845458984375,1.6400281190872192,9.023746490478516,-0.47405192255973816
1788049441875335000,2.8713349609375,1.6519991159439087,9.205705642700195,0.21308395266532898
1788049441891681500,2.887681640625,1.8291701078414917,9.39245319366455,0.7374141216278076
1788049441907424300,2.90342431640625,2.2697031497955322,9.655815124511719,0.950498104095459
1788049441923437800,2.919437744140625,3.004723072052002,9.828198432922363,1.0773907899856567
1788049441939693000,2.935693115234375,3.7014358043670654,9.9000244140625,1.1875240802764893
1788049441955471000,2.95147119140625,3.9384617805480957,9.720458984375,0.9816226959228516
1788049441971910400,2.967910400390625,3.5889084339141846,9.50737476348877,0.4165911078453064
1788049441987573500,2.983573486328125,3.07415509223938,9.227252960205078,-0.22744916379451752
1788049442003555300,2.999555419921875,2.4851813316345215,8.884882926940918,-0.48602294921875
1788049442019811300,3.015811279296875,1.86508309841156,8.65982723236084,-0.4644751250743866
1788049442035573500,3.031573486328125,1.2521674633026123,8.595184326171875,-0.5219359993934631
1788049442051872300,3.047872314453125,0.9720458984375,8.564059257507324,-0.31842881441116333
1788049442067645400,3.0636455078125,0.8140285611152649,8.611943244934082,-0.07900865375995636
1788049442083658000,3.079657958984375,0.7230489253997803,8.760383605957031,0.26815059781074524
1788049442099902000,3.09590185546875,0.8140285611152649,8.939949035644531,0.45489832758903503
1788049442116184800,3.112184814453125,1.0007762908935547,9.198522567749023,0.40462008118629456
1788049442132142600,3.128142578125,1.37906014919281,9.41639518737793,0.2849099934101105
1788049442147835400,3.14383544921875,1.7860745191574097,9.62947940826416,0.1388636976480484
1788049442163894500,3.15989453125,2.427720546722412,9.715670585632324,0.043095629662275314
1788049442180342500,3.176342529296875,2.959233283996582,9.677363395690918,0.035913024097681046
1788049442195924700,3.1919248046875,3.1100680828094482,9.607931137084961,0.15083470940589905
1788049442212224800,3.208224853515625,2.736572504043579,9.48343276977539,0.3519476354122162
1788049442228068600,3.224068603515625,2.049436569213867,9.421183586120605,0.5770025849342346
1788049442244111400,3.240111328125,1.2018892765045166,9.428366661071777,0.7637503147125244
1788049442260343600,3.256343505859375,0.5291185975074768,9.464279174804688,0.7350199222564697
1788049442276119600,3.27211962890625,0.19871874153614044,9.588777542114258,0.5482721924781799
1788049442292547000,3.288547119140625,0.395043283700943,9.749189376831055,0.16998831927776337
1788049442308191700,3.304191650390625,0.8571242094039917,9.890447616577148,-0.09576806426048279
1788049442324295400,3.32029541015625,1.3551181554794312,10.005369186401367,-0.06703764945268631
1788049442340440300,3.3364404296875,1.8842366933822632,10.144232749938965,0.021547814831137657
1788049442356259300,3.35225927734375,2.2697031497955322,10.180145263671875,0.2106897532939911
1788049442372747800,3.368747802734375,2.540247917175293,10.220847129821777,0.24420857429504395
1788049442388366800,3.384366943359375,2.609679937362671,10.17296314239502,0.14844051003456116
1788049442404336400,3.40033642578125,2.252943754196167,10.235212326049805,0.05027823522686958
1788049442420699600,3.41669970703125,1.3215993642807007,10.532093048095703,0.009576806798577309
1788049442436334800,3.4323349609375,0.4165911078453064,10.781089782714844,-0.3519476354122162
1788049442452800500,3.448800537109375,0.09816227108240128,11.02051067352295,-0.4189853072166443
1788049442468403700,3.46440380859375,0.8068459630012512,11.18092155456543,-0.6488286852836609
1788049442484423200,3.480423095703125,2.1356279850006104,11.185709953308105,-0.8667010068893433
1788049442500687000,3.49668701171875,3.428496837615967,10.975020408630371,-0.8259995579719543
1788049442516547300,3.51254736328125,4.649539470672607,10.517727851867676,-0.8475474119186401
1788049442532845300,3.52884521484375,5.236119270324707,10.067618370056152,-1.2258312702178955
1788049442548732200,3.544732177734375,4.898536682128906,9.469067573547363,-1.3886369466781616
1788049442564671000,3.5606708984375,3.4811692237854004,9.126696586608887,-0.9840168952941895
1788049442580911900,3.576911865234375,2.22660756111145,8.973467826843262,-0.8212111592292786
1788049442596753400,3.59275341796875,1.5825673341751099,8.858546257019043,-0.7565677165985107
1788049442613149700,3.609149658203125,1.6280571222305298,8.846575736999512,-0.6033388376235962
1788049442629278700,3.62527880859375,1.742978811264038,8.880094528198242,-0.3998316824436188
1788049442644932000,3.64093212890625,1.6855180263519287,9.009381294250488,-0.37828385829925537
1788049442661161500,3.657161376953125,1.7381904125213623,9.160215377807617,-0.3758896589279175
1788049442676919300,3.672919189453125,2.145204782485962,9.248801231384277,-0.16759411990642548
1788049442693247000,3.6892470703125,2.5953147411346436,9.308655738830566,0.009576806798577309
1788049442709024800,3.705024658203125,3.050212860107422,9.275136947631836,0.09816227108240128
1788049442725053400,3.721053466796875,3.313575267791748,9.162610054016113,0.05267243832349777
1788049442741323300,3.7373232421875,3.31118106842041,8.990227699279785,-0.05746084079146385
1788049442757376500,3.75337646484375,2.7748796939849854,8.892065048217773,-0.2059013396501541
1788049442773590800,3.7695908203125,2.0853497982025146,8.796297073364258,-0.3256114423274994
1788049442789245400,3.785245361328125,1.6089035272598267,8.743624687194824,-0.2944868206977844
1788049442805239000,3.801239013671875,1.4460978507995605,8.712499618530273,-0.2106897532939911
1788049442821506300,3.81750634765625,1.4867992401123047,8.757989883422852,-0.22266076505184174
1788049442837241000,3.833240966796875,1.7357962131500244,8.889671325683594,-0.2513911724090576
1788049442853712100,3.849712158203125,2.1116859912872314,9.002198219299316,-0.22266076505184174
1788049442869531000,3.86553076171875,2.190694570541382,9.105149269104004,-0.2777273952960968
1788049442885816300,3.88181640625,1.900996208190918,9.191340446472168,-0.45489832758903503
1788049442901618700,3.89761865234375,1.53707754611969,9.263166427612305,-0.6655880808830261
1788049442917365800,3.91336572265625,1.278503656387329,9.35654067993164,-0.7589619159698486
1788049442933860400,3.9298603515625,1.2282254695892334,9.399636268615723,-0.6009446382522583
1788049442949467000,3.945466796875,1.335964560508728,9.399636268615723,-0.47644615173339844
1788049442965487900,3.96148779296875,1.45806884765625,9.423578262329102,-0.31364041566848755
1788049442981945000,3.977945068359375,1.4963760375976562,9.586383819580078,-0.3519476354122162
1788049442997517800,3.993517822265625,1.4844050407409668,9.799467086791992,-0.524330198764801
1788049443013919200,4.009919189453125,1.4053963422775269,9.988609313964844,-0.6655880808830261
1788049443029625900,4.0256259765625,1.460463047027588,10.141838073730469,-0.6153098344802856
1788049443045616400,4.041616455078125,1.7884687185287476,10.311826705932617,-0.5506663918495178
1788049443062125000,4.058125,2.1068975925445557,10.38604736328125,-0.38067805767059326
1788049443077674200,4.07367431640625,2.27209734916687,10.47942066192627,-0.22505496442317963
1788049443094137000,4.09013720703125,2.207453966140747,10.551246643066406,-0.047884032130241394
1788049443109846000,4.105845947265625,1.6280571222305298,10.953473091125488,-0.11252748221158981
1788049443125854500,4.1218544921875,0.7110779285430908,11.255142211914062,-0.11013327538967133
1788049443142120000,4.138119873046875,0.30885201692581177,11.585541725158691,0.49320554733276367
1788049443157958700,4.153958740234375,1.6208745241165161,11.750741958618164,0.8571242094039917
1788049443174283000,4.170282958984375,3.9432501792907715,11.549629211425781,0.6871358752250671
1788049443190458400,4.186458251953125,5.60722017288208,11.08994197845459,0.5482721924781799
1788049443206355500,4.20235546875,6.313509941101074,10.311826705932617,0.22505496442317963
1788049443222328800,4.218328857421875,5.580883979797363,9.531316757202148,-0.22026655077934265
1788049443238310000,4.234309814453125,4.0749311447143555,9.150638580322266,-0.5913678407669067
1788049443254617900,4.250617919921875,2.609679937362671,8.825027465820312,-0.7924807667732239
1788049443270328000,4.266328125,1.745373010635376,8.83699893951416,-0.5985504388809204
1788049443286355200,4.282355224609375,1.656787633895874,8.98543930053711,0.22744916379451752
1788049443302650000,4.298650146484375,1.845929503440857,9.119514465332031,1.1037269830703735
1788049443318577200,4.3145771484375,1.9488801956176758,9.133879661560059,1.6903064250946045
1788049443334646800,4.330646728515625,1.8842366933822632,9.117119789123535,1.9033904075622559
1788049443350497000,4.3464970703125,2.1571757793426514,9.004592895507812,1.8483237028121948
1788049443366356500,4.3623564453125,2.6839001178741455,8.882488250732422,1.3407529592514038
1788049443382664200,4.378664306640625,3.002328872680664,8.801085472106934,0.5578489899635315
1788049443398426000,4.394426025390625,2.8778305053710938,8.681375503540039,-0.10534487664699554
1788049443414927400,4.41092724609375,2.580949544906616,8.585607528686523,-0.5171475410461426
1788049443430752000,4.426751953125,2.3080103397369385,8.523358345031738,-0.7350199222564697
1788049443446985700,4.44298583984375,2.0254945755004883,8.449137687683105,-0.7086837291717529
1788049443462848500,4.4588486328125,1.680729627609253,8.389283180236816,-0.4213795065879822
1788049443478649300,4.4746494140625,1.290474772453308,8.497021675109863,-0.16998831927776337
1788049443494895400,4.490895263671875,0.9744400978088379,8.60236644744873,0.009576806798577309
1788049443510698200,4.5066982421875,1.036689281463623,8.779537200927734,0.1843535304069519
1788049443526723600,4.5227236328125,1.414973258972168,8.9064302444458,0.33997663855552673
1788049443542952700,4.53895263671875,1.6759412288665771,9.047688484191895,0.5003881454467773
1788049443558755800,4.554755859375,1.8770540952682495,9.181763648986816,0.6105214357376099
1788049443575181600,4.571181640625,1.86508309841156,9.279925346374512,0.5051765441894531
1788049443590866000,4.586865966796875,1.7549498081207275,9.339780807495117,0.3447650372982025
1788049443606815500,4.6028154296875,1.6400281190872192,9.39245319366455,0.1149216815829277
1788049443623042300,4.619042236328125,1.6304513216018677,9.488221168518066,-0.0071826050989329815
1788049443638829600,4.63482958984375,1.6950948238372803,9.548076629638672,0.05267243832349777
1788049443655182800,4.651182861328125,1.4772224426269531,9.581595420837402,0.31842881441116333
1788049443670976500,4.6669765625,1.1180921792984009,9.677363395690918,0.3926490843296051
1788049443687075800,4.683075927734375,0.8571242094039917,9.758766174316406,0.30885201692581177
1788049443703516700,4.6995166015625,0.8068459630012512,9.921571731567383,0.1843535304069519
1788049443719113700,4.71511376953125,0.9648633003234863,10.08437728881836,0.11013327538967133
1788049443735614500,4.731614501953125,1.1851298809051514,10.295066833496094,0.2322375625371933
1788049443751333000,4.7473330078125,1.525106430053711,10.450690269470215,0.47165772318840027
1788049443767317200,4.763317138671875,2.1116859912872314,10.587160110473633,0.8547300100326538
1788049443783526400,4.7795263671875,2.631227731704712,10.548852920532227,1.0654197931289673
1788049443799659500,4.795659423828125,2.5115175247192383,10.828974723815918,0.6655880808830261
1788049443815612400,4.8116123046875,1.8746598958969116,11.176133155822754,-0.1149216815829277
1788049443831412700,4.827412841796875,1.2306196689605713,11.41555404663086,-0.9528923034667969
1788049443847437600,4.8434375,1.5705963373184204,11.63103199005127,-1.4077905416488647
1788049443863719700,4.8597197265625,2.7006595134735107,11.769895553588867,-1.7932571172714233
1788049443879479300,4.875479248046875,4.07014274597168,11.647790908813477,-2.1595699787139893
1788049443895926300,4.89192626953125,5.061342239379883,11.434707641601562,-2.0446481704711914
1788049443911617300,4.9076171875,5.547365188598633,10.893617630004883,-1.2210428714752197
1788049443927605800,4.923605712890625,5.56173038482666,10.29746150970459,-0.40701428055763245
1788049443943903700,4.93990380859375,4.733336925506592,9.847352027893066,0.08858546614646912
1788049443960145000,4.956144775390625,3.442862033843994,9.397241592407227,0.2585737705230713
1788049443975996200,4.97199609375,2.408566951751709,9.02135181427002,0.09816227108240128
1788049443991827700,4.98782763671875,1.8770540952682495,8.762778282165527,-0.10534487664699554
1788049444007837700,5.003837646484375,1.5705963373184204,8.56884765625,-0.43335050344467163
1788049444024098800,5.020098876953125,1.4508862495422363,8.418013572692871,-0.5315127968788147
1788049444039911400,5.035911376953125,1.6711528301239014,8.324639320373535,-0.44532153010368347
1788049444056385000,5.052385009765625,2.121262788772583,8.255207061767578,-0.31124621629714966
1788049444072059000,5.068058837890625,2.4157495498657227,8.26239013671875,-0.2346317619085312
1788049444088053200,5.08405322265625,2.470816135406494,8.336610794067383,-0.2561795711517334
1788049444104317400,5.1003173828125,2.205059766769409,8.403648376464844,-0.3016694188117981
1788049444120036000,5.1160361328125,1.889025092124939,8.492233276367188,-0.2059013396501541
1788049444136400000,5.13239990234375,1.6376339197158813,8.556877136230469,0.033518824726343155
1788049444152255500,5.14825537109375,1.625662922859192,8.604761123657227,0.2322375625371933
1788049444168500700,5.164500732421875,1.8195933103561401,8.628703117370605,0.4141969084739685
1788049444184522000,5.18052197265625,2.049436569213867,8.678980827331543,0.3998316824436188
1788049444200301000,5.196301025390625,2.1547815799713135,8.724471092224121,0.37828385829925537
1788049444216809200,5.212809326171875,1.8387469053268433,8.793902397155762,0.4644751250743866
1788049444232664300,5.228664306640625,1.381454348564148,8.913613319396973,0.45250412821769714
1788049444248461300,5.24446142578125,1.1276689767837524,8.999804496765137,0.40462008118629456
1788049444264912400,5.260912353515625,1.213860273361206,9.004592895507812,0.4141969084739685
1788049444280504000,5.276504150390625,1.403002142906189,9.028534889221191,0.2849099934101105
1788049444296820700,5.29282080078125,1.5538369417190552,8.973467826843262,0.1364694982767105
1788049444312575200,5.3085751953125,1.802833914756775,8.966285705566406,0.011971008032560349
1788049444328733000,5.32473291015625,1.9249382019042969,8.947132110595703,-0.1364694982767105
1788049444344850700,5.3408505859375,1.764526605606079,9.181763648986816,-0.5386953949928284
1788049444360620000,5.3566201171875,1.6615760326385498,9.490615844726562,-1.139639973640442
1788049444377135600,5.373135498046875,1.8387469053268433,9.964667320251465,-1.482010841369629
1788049444392687400,5.388687255859375,2.1475989818573,10.460267066955566,-1.659181833267212
1788049444408670000,5.404669921875,2.5522189140319824,10.769119262695312,-1.3096283674240112
1788049444425072000,5.421072021484375,2.8610711097717285,11.073183059692383,-0.7852981686592102
1788049444440771300,5.436771240234375,3.117250680923462,11.185709953308105,-0.27054479718208313
1788049444457059300,5.453059326171875,3.227383852005005,11.243170738220215,0.016759412363171577
1788049444472987600,5.468987548828125,2.762908697128296,11.458649635314941,-0.090979665517807
1788049444488845600,5.484845458984375,1.721431016921997,11.96861457824707,-0.2992752194404602
1788049444505080600,5.50108056640625,0.5770025849342346,12.035652160644531,0.08858546614646912
1788049444521405200,5.5174052734375,0.5913678407669067,12.09550666809082,0.8547300100326538
1788049444537300200,5.53330029296875,2.5929205417633057,11.659762382507324,1.4269442558288574
1788049444553068000,5.549068115234375,5.432443618774414,10.828974723815918,1.3263877630233765
1788049444569077800,5.565077880859375,7.2352776527404785,9.959878921508789,0.9624691009521484
1788049444585306400,5.581306396484375,7.307103633880615,9.030928611755371,-0.0454898327589035
1788049444601107700,5.597107666015625,5.243301868438721,8.56884765625,-0.933738648891449
1788049444617546500,5.61354638671875,3.1747114658355713,8.576030731201172,-1.1540051698684692
1788049444633302300,5.62930224609375,1.259350061416626,8.844181060791016,-1.036689281463623
1788049444649294000,5.645294189453125,0.689530074596405,9.05247688293457,-0.33039984107017517
1788049444665531100,5.66153125,1.2282254695892334,9.181763648986816,0.6129156351089478
1788049444681402400,5.67740234375,2.0925323963165283,9.239224433898926,1.161187767982483
1788049444697798000,5.6937978515625,2.9472622871398926,9.184157371520996,1.400607943534851
1788049444713450000,5.709449951171875,3.7852327823638916,9.095572471618652,1.6184803247451782
1788049444729541000,5.725541015625,4.0964789390563965,8.904036521911621,1.4460978507995605
1788049444745740800,5.74174072265625,4.017470359802246,8.702922821044922,0.7876923680305481
1788049444761506800,5.7575068359375,3.737348794937134,8.571242332458496,-0.021547814831137657
1788049444778047000,5.774046875,3.0334534645080566,8.437167167663574,-0.47644615173339844
1788049444793584400,5.78958447265625,2.169146776199341,8.382100105285645,-0.6129156351089478
1788049444809628700,5.805628662109375,1.558625340461731,8.348581314086914,-0.7326257228851318
1788049444825894000,5.821893798828125,1.3407529592514038,8.389283180236816,-0.6703764796257019
1788049444841763800,5.837763916015625,1.3431471586227417,8.487444877624512,-0.3663128614425659
1788049444858069200,5.8540693359375,1.501164436340332,8.56645393371582,-0.05985504388809204
1788049444873799700,5.869799560546875,1.6927006244659424,8.683769226074219,0.24181437492370605
1788049444889798400,5.88579833984375,1.843535304069519,8.803479194641113,0.3998316824436188
1788049444906250500,5.90225048828125,1.9632453918457031,8.89445972442627,0.4381389021873474
1788049444921813000,5.91781298828125,2.0015525817871094,9.028534889221191,0.4692635238170624
1788049444938336500,5.93433642578125,1.9704279899597168,9.133879661560059,0.3663128614425659
1788049444953964500,5.949964599609375,1.920149803161621,9.20091724395752,0.28730419278144836
1788049444969930800,5.9659306640625,1.8746598958969116,9.296685218811035,0.2513911724090576
1788049444986263600,5.982263671875,1.867477297782898,9.351752281188965,0.26815059781074524
1788049445002038800,5.998038818359375,1.9105730056762695,9.418789863586426,0.3687070608139038
1788049445018484000,6.01448388671875,2.0374655723571777,9.5624418258667,0.5386953949928284
1788049445034560800,6.030560791015625,1.9488801956176758,9.653421401977539,0.6200982332229614
1788049445050545700,6.046545654296875,1.8387469053268433,9.761159896850586,0.6105214357376099
1788049445066577400,6.062577392578125,1.8076223134994507,9.897629737854004,0.4644751250743866
1788049445082248400,6.07824853515625,1.7717092037200928,10.070012092590332,0.26575639843940735
1788049445098651600,6.094651611328125,1.5705963373184204,10.335768699645996,-0.09816227108240128
1788049445114414800,6.110414794921875,1.5610195398330688,10.486603736877441,-0.1604115068912506
1788049445130355500,6.12635546875,2.161964178085327,10.563218116760254,-0.019153613597154617
1788049445146625500,6.14262548828125,3.093308687210083,10.426748275756836,0.33039984107017517
1788049445162865200,6.158865234375,3.6727054119110107,10.472238540649414,0.5578489899635315
1788049445178867000,6.174866943359375,3.0550012588500977,10.709263801574707,0.22744916379451752
1788049445194543400,6.19054345703125,1.6041151285171509,10.972626686096191,-0.15562310814857483
1788049445210571000,6.206571044921875,0.7613561153411865,11.355698585510254,-0.4405331015586853
1788049445226805200,6.22280517578125,1.2258312702178955,11.640608787536621,-0.8451532125473022
1788049445242598000,6.238597900390625,2.7437551021575928,11.690886497497559,-1.05105459690094
1788049445259078700,6.25507861328125,4.809951305389404,11.41555404663086,-1.1635819673538208
1788049445274797600,6.270797607421875,6.385335922241211,10.917559623718262,-0.8834604024887085
1788049445291231200,6.287231201171875,6.603208065032959,10.266336441040039,-0.8236053586006165
1788049445307229000,6.30322900390625,5.219359874725342,9.643844604492188,-0.8643068075180054
1788049445322852900,6.318852783203125,3.7253777980804443,9.275136947631836,-1.0534487962722778
1788049445339349500,6.335349609375,2.7916390895843506,8.913613319396973,-1.0630255937576294
1788049445354952700,6.35095263671875,2.255337953567505,8.65743350982666,-0.9481038451194763
1788049445371015200,6.36701513671875,1.7812861204147339,8.614337921142578,-0.8188169598579407
1788049445387267000,6.38326708984375,1.4532804489135742,8.631096839904785,-0.9816226959228516
1788049445403072800,6.39907275390625,1.5538369417190552,8.686163902282715,-0.9528923034667969
1788049445419446500,6.415446533203125,2.1045033931732178,8.722076416015625,-0.6392518281936646
1788049445435144700,6.431144775390625,2.7461493015289307,8.765172004699707,-0.31364041566848755
1788049445451137300,6.44713720703125,3.2632968425750732,8.786720275878906,-0.014365210197865963
1788049445467434800,6.463434814453125,3.5027170181274414,8.801085472106934,0.272938996553421
1788049445483176400,6.479176513671875,3.4093432426452637,8.69334602355957,0.22744916379451752
1788049445499615700,6.49561572265625,2.8993782997131348,8.56645393371582,0.22505496442317963
1788049445515311600,6.5113115234375,2.3080103397369385,8.470685958862305,0.27054479718208313
1788049445531341600,6.527341552734375,1.7956513166427612,8.38449478149414,0.26336219906806946
1788049445547603700,6.543603759765625,1.37906014919281,8.360552787780762,0.2513911724090576
1788049445563519700,6.559519775390625,1.292868971824646,8.33182144165039,0.08379705995321274
1788049445579761000,6.575760986328125,1.357512354850769,8.418013572692871,-0.009576806798577309
1788049445595904000,6.591904052734375,1.522712230682373,8.528146743774414,-0.031124621629714966
1788049445611555000,6.60755517578125,1.721431016921997,8.712499618530273,-0.12928688526153564
1788049445627826700,6.62382666015625,1.8411411046981812,8.865729331970215,-0.05267243832349777
1788049445643694000,6.639694091796875,1.8531121015548706,8.995016098022461,-0.0694318488240242
1788049445660001800,6.656001708984375,1.8387469053268433,9.131484985351562,-0.10055647045373917
1788049445675664400,6.671664306640625,1.9057846069335938,9.272743225097656,-0.22266076505184174
1788049445691943200,6.687943115234375,1.9321208000183105,9.48343276977539,-0.2801215946674347
1788049445708035300,6.704035400390625,1.9919757843017578,9.682151794433594,-0.35673606395721436
1788049445723684900,6.719684814453125,2.1140801906585693,9.86650562286377,-0.43335050344467163
1788049445740073000,6.736072998046875,2.33913516998291,10.062829971313477,-0.5602431893348694
1788049445755848200,6.75184814453125,2.4181437492370605,10.273519515991211,-0.5147533416748047
1788049445771946800,6.76794677734375,2.346317768096924,10.417171478271484,-0.5099649429321289
1788049445788158000,6.784157958984375,2.207453966140747,10.591948509216309,-0.27054479718208313
1788049445804004400,6.80000439453125,2.233790159225464,10.594342231750488,-0.043095629662275314
1788049445820262100,6.81626220703125,2.38462495803833,10.579977035522461,0.09576806426048279
1788049445835889200,6.83188916015625,2.3511061668395996,10.512939453125,0.1388636976480484
1788049445852355600,6.84835546875,1.8315643072128296,10.714052200317383,0.047884032130241394
1788049445868165400,6.864165283203125,0.9816226959228516,11.042057991027832,-0.11013327538967133
1788049445883914000,6.8799140625,0.5674257874488831,11.08754825592041,-0.10773907601833344
1788049445900228000,6.89622802734375,1.0534487962722778,11.099518775939941,0.730231523513794
1788049445915995000,6.911994873046875,2.2577321529388428,11.05402946472168,1.359906554222107
1788049445932006000,6.928005859375,4.050989151000977,10.709263801574707,1.6304513216018677
1788049445948262400,6.944262451171875,5.329493045806885,10.204087257385254,1.1875240802764893
1788049445964087300,6.96008740234375,5.726930618286133,9.751583099365234,-0.040701430290937424
1788049445980508000,6.9765078125,5.243301868438721,9.32541561126709,-0.9983820915222168
1788049445996226300,6.992226318359375,4.441244125366211,9.133879661560059,-1.2952631711959839
1788049446012267500,7.008267578125,3.2824504375457764,9.006986618041992,-0.8690952062606812
1788049446028546600,7.024546630859375,2.513911724090576,9.069235801696777,-0.33518823981285095
1788049446044342300,7.04034228515625,2.250549554824829,9.138668060302734,0.49559974670410156
1788049446060710400,7.05671044921875,2.2697031497955322,9.165003776550293,1.338358759880066
1788049446076518000,7.072517822265625,2.3319525718688965,9.07641887664795,1.7262194156646729
1788049446092556300,7.088556396484375,2.518700122833252,8.99740982055664,1.9823989868164062
1788049446109052200,7.10505224609375,2.717418909072876,8.860940933227539,1.941697597503662
1788049446124800000,7.120800048828125,2.8227639198303223,8.700529098510742,1.479616641998291
1788049446141076700,7.13707666015625,2.9305028915405273,8.655038833618164,0.7254431247711182
1788049446156769000,7.15276904296875,2.9233202934265137,8.583212852478027,0.0694318488240242
1788049446172725200,7.168725341796875,2.7006595134735107,8.525752067565918,-0.3687070608139038
1788049446189089800,7.18508984375,2.5234885215759277,8.458714485168457,-0.5793967843055725
1788049446204782000,7.200781982421875,2.3032219409942627,8.449137687683105,-0.5889736413955688
1788049446221108200,7.217108154296875,1.9560627937316895,8.432378768920898,-0.3687070608139038
1788049446236891000,7.232890869140625,1.6687586307525635,8.542511940002441,-0.043095629662275314
1788049446252912400,7.248912353515625,1.6041151285171509,8.631096839904785,0.1604115068912506
1788049446269186300,7.265186279296875,1.7381904125213623,8.78432559967041,0.26096799969673157
1788049446284919000,7.2809189453125,1.9129672050476074,8.93037223815918,0.3734954595565796
1788049446301334500,7.29733447265625,2.0685901641845703,9.059659004211426,0.3998316824436188
1788049446317157000,7.3131572265625,2.0638017654418945,9.167398452758789,0.4381389021873474
1788049446333085000,7.3290849609375,2.078166961669922,9.248801231384277,0.42616790533065796
1788049446349233000,7.34523291015625,2.161964178085327,9.318233489990234,0.3711012601852417
1788049446365483000,7.36148291015625,2.2361843585968018,9.35654067993164,0.2849099934101105
1788049446381375700,7.377375732421875,2.1332337856292725,9.411606788635254,0.17717093229293823
1788049446397185000,7.39318505859375,2.011129379272461,9.459490776062012,0.11252748221158981
1788049446413180200,7.40918017578125,1.946485996246338,9.586383819580078,-0.040701430290937424
1788049446429429800,7.4254296875,1.8962076902389526,9.715670585632324,-0.12928688526153564
1788049446445270000,7.44127001953125,1.8698714971542358,9.928754806518555,-0.10534487664699554
1788049446461696800,7.45769677734375,1.8411411046981812,10.105925559997559,-0.09816227108240128
1788049446477351400,7.473351318359375,1.8818424940109253,10.256759643554688,-0.10295066982507706
1788049446493756000,7.489755859375,2.032677173614502,10.407594680786133,0.011971008032560349
1788049446509665000,7.5056650390625,2.454056739807129,10.493785858154297,0.20350714027881622
1788049446525442000,7.521442138671875,2.849100112915039,10.45547866821289,0.6153098344802856
1788049446541751600,7.53775146484375,2.892195701599121,10.333374977111816,0.8020575642585754
1788049446557560800,7.553560791015625,2.2433669567108154,10.651803016662598,0.545877993106842
1788049446573877800,7.569877685546875,1.2042834758758545,10.915165901184082,0.08140286058187485
1788049446589761300,7.58576123046875,0.49320554733276367,11.219228744506836,-0.3256114423274994
1788049446605577200,7.6015771484375,0.7541735172271729,11.346121788024902,-0.42377370595932007
1788049446622083600,7.61808349609375,2.008735179901123,11.437101364135742,-0.689530074596405
1788049446637662000,7.633661865234375,3.5721490383148193,11.283872604370117,-1.2234370708465576
1788049446653666000,7.649666015625,4.884171485900879,11.025299072265625,-1.8195933103561401
1788049446670133200,7.66613330078125,5.810727596282959,10.632649421691895,-1.9943699836730957
1788049446685829600,7.68182958984375,5.781997203826904,9.983820915222168,-1.625662922859192
1788049446702116900,7.698116943359375,5.015852451324463,9.373299598693848,-0.9265560507774353
1788049446718003500,7.71400341796875,3.670311212539673,8.841787338256836,-0.5123591423034668
1788049446733925000,7.729925048828125,2.2912509441375732,8.614337921142578,-0.3519476354122162
1788049446750367000,7.746366943359375,1.3982137441635132,8.549694061279297,-0.23942017555236816
1788049446766374700,7.762374755859375,1.158793568611145,8.664615631103516,0.05985504388809204
1788049446782467300,7.77846728515625,1.4891934394836426,8.719682693481445,0.3998316824436188
1788049446798115600,7.794115478515625,1.9512743949890137,8.757989883422852,0.5626373887062073
1788049446814138400,7.810138427734375,2.4013843536376953,8.892065048217773,0.569819986820221
1788049446830445600,7.826445556640625,2.7964274883270264,9.014169692993164,0.45010992884635925
1788049446846352000,7.842351806640625,3.026270866394043,9.10993766784668,0.22505496442317963
1788049446862564000,7.858564208984375,3.3446998596191406,9.095572471618652,0.07900865375995636
1788049446878710000,7.8747099609375,3.5266590118408203,8.973467826843262,0.14365209639072418
1788049446894332400,7.89033251953125,3.332728862762451,8.753201484680176,0.11971008777618408
1788049446910573600,7.906573486328125,2.7916390895843506,8.542511940002441,0.1364694982767105
1788049446926850800,7.922850830078125,2.0470423698425293,8.406042098999023,0.12928688526153564
1788049446942905000,7.938905029296875,1.50355863571167,8.33182144165039,0.1628057211637497
1788049446958519600,7.95451953125,1.2449848651885986,8.367734909057617,0.08858546614646912
1788049446974538500,7.97053857421875,1.37906014919281,8.482656478881836,-0.0071826050989329815
1788049446990966000,7.986966064453125,1.6208745241165161,8.62391471862793,-0.12210428714752197
1788049447006581800,8.002581787109374,1.867477297782898,8.786720275878906,-0.22026655077934265
1788049447022990800,8.018990966796874,1.9177556037902832,8.971074104309082,-0.17477671802043915
1788049447038657500,8.034657470703126,1.8914192914962769,9.165003776550293,-0.15562310814857483
1788049447054727700,8.050727783203126,1.8698714971542358,9.349357604980469,-0.17717093229293823
1788049447071000800,8.067000732421874,2.0159177780151367,9.485827445983887,-0.3687070608139038
1788049447086824400,8.082824462890626,2.3319525718688965,9.655815124511719,-0.5746083855628967
1788049447103156000,8.099156005859374,2.542642116546631,9.780313491821289,-0.5602431893348694
1788049447118844700,8.1148447265625,2.477998733520508,9.988609313964844,-0.38546648621559143
1788049447134841000,8.130841064453126,2.2170307636260986,10.098742485046387,-0.33518823981285095
1788049447151046400,8.14704638671875,2.006340980529785,10.211270332336426,-0.45010992884635925
1788049447166770000,8.16277001953125,2.0207061767578125,10.338163375854492,-0.4118026793003082
1788049447183377700,8.179377685546875,2.0422539710998535,10.520122528076172,-0.19153612852096558
1788049447198908200,8.194908203125,2.0661959648132324,10.591948509216309,0.26336219906806946
1788049447214895900,8.210895751953124,2.118868589401245,10.632649421691895,0.5913678407669067
1788049447231153200,8.227153076171875,2.03507137298584,10.551246643066406,0.6607996821403503
1788049447246929200,8.24292919921875,1.7405846118927002,10.60152530670166,0.40940847992897034
1788049447263391200,8.25939111328125,1.1013327836990356,10.979808807373047,-0.2561795711517334
1788049447279051500,8.275051513671874,0.6440402865409851,11.24795913696289,-0.8259995579719543
1788049447295072300,8.291072265625,0.6392518281936646,11.374852180480957,-0.42616790533065796
1788049447311333600,8.307333740234375,1.699883222579956,11.21444034576416,0.2849099934101105
1788049447327105500,8.32310546875,3.2585084438323975,10.979808807373047,0.629675030708313
1788049447343634700,8.339634765625,4.63517427444458,10.467450141906738,0.8307880163192749
1788049447359334400,8.35533447265625,5.1810526847839355,9.904812812805176,0.44532153010368347
1788049447375281000,8.371281005859375,4.896142482757568,9.425971984863281,-0.016759412363171577
1788049447391771600,8.387771728515625,4.110844135284424,9.071630477905273,-0.395043283700943
1788049447407372000,8.4033720703125,3.383007049560547,8.813055992126465,-0.5219359993934631
1788049447423738400,8.41973828125,2.557007312774658,8.757989883422852,-0.304063618183136
1788049447439892700,8.435892822265625,2.1356279850006104,8.83699893951416,0.0694318488240242
1788049447455563300,8.451563232421876,2.382230758666992,8.942343711853027,0.45010992884635925
1788049447471778600,8.467778564453125,2.964021682739258,8.959102630615234,0.751779317855835
1788049447487541500,8.48354150390625,3.383007049560547,8.96389102935791,0.7422025203704834
1788049447504063500,8.5000634765625,3.5410242080688477,8.954314231872559,0.9385270476341248
1788049447519626200,8.515626220703124,3.4955344200134277,9.026140213012695,1.2258312702178955
1788049447535661300,8.531661376953124,3.5386300086975098,8.731653213500977,1.434126853942871
1788049447551967200,8.54796728515625,3.222595453262329,8.743624687194824,1.2210428714752197
1788049447567718000,8.5637177734375,2.9017724990844727,8.585607528686523,0.7350199222564697
1788049447584198400,8.580198486328126,2.5019407272338867,8.47786808013916,0.3663128614425659
1788049447599914800,8.595914794921875,2.1595699787139893,8.413225173950195,0.05985504388809204
1788049447615895000,8.61189501953125,1.9584569931030273,8.365341186523438,0.031124621629714966
1788049447632212200,8.628212158203125,1.7094600200653076,8.44195556640625,0.05267243832349777
1788049447648076800,8.644076904296876,1.4867992401123047,8.525752067565918,0.1173158809542656
1788049447664221000,8.660220947265625,1.4891934394836426,8.688557624816895,0.19871874153614044
1788049447680013600,8.676013671875,1.802833914756775,8.904036521911621,0.3687070608139038
1788049447696467500,8.692467529296875,2.070984363555908,9.07641887664795,0.5482721924781799
1788049447712340200,8.70834033203125,2.1739351749420166,9.258378028869629,0.5147533416748047
1788049447728054500,8.724054443359375,2.31758713722229,9.44752025604248,0.23702596127986908
1788049447744550400,8.74055029296875,2.5258827209472656,9.59835433959961,0.1149216815829277
1788049447760169700,8.756169677734375,2.75812029838562,9.641449928283691,0.0071826050989329815
1788049447776274000,8.77227392578125,3.0789434909820557,9.610325813293457,-0.043095629662275314
1788049447792518700,8.7885185546875,3.3877954483032227,9.583989143371582,0.09576806426048279
1788049447808284400,8.804284423828125,3.2585084438323975,9.567230224609375,0.16998831927776337
1788049447824682500,8.8206826171875,2.782062292098999,9.528923034667969,0.21787235140800476
1788049447840411000,8.836410888671875,2.274491548538208,9.481039047241211,0.1867477297782898
1788049447856518000,8.852517822265625,1.800439715385437,9.437943458557129,0.05985504388809204
1788049447872647200,8.868647216796875,1.3479355573654175,9.404424667358398,-0.11971008777618408
1788049447888430600,8.8844306640625,0.8379706144332886,9.655815124511719,-0.31364041566848755
1788049447904848600,8.9008486328125,0.5482721924781799,9.794678688049316,-0.5889736413955688
1788049447920559000,8.91655908203125,0.8667010068893433,10.086771965026855,-0.5817909836769104
1788049447936509700,8.932509765625,2.049436569213867,10.177751541137695,-0.22026655077934265
1788049447952819700,8.94881982421875,3.0837318897247314,10.347740173339844,0.19871874153614044
1788049447968540400,8.96454052734375,3.687070608139038,10.400412559509277,0.33758243918418884
1788049447984900000,8.980900146484375,3.3734302520751953,10.699687004089355,0.37828385829925537
1788049448001135000,8.997135009765625,2.3989901542663574,11.025299072265625,0.4620809257030487
1788049448016689400,9.012689453125,1.1851298809051514,11.30302619934082,0.3998316824436188
1788049448032937500,9.0289375,0.9888052940368652,11.477803230285645,0.1388636976480484
1788049448048746000,9.04474609375,1.9177556037902832,11.413159370422363,-0.3663128614425659
1788049448065218300,9.06121826171875,3.49314022064209,11.03248119354248,-0.6200982332229614
1788049448080998400,9.076998291015625,4.553771495819092,10.460267066955566,-0.5817909836769104
1788049448096940300,9.092940185546874,4.910507678985596,9.95748519897461,-0.727837324142456
1788049448113202400,9.109202392578124,4.228160381317139,9.557653427124023,-0.43335050344467163
1788049448129059800,9.125059814453126,3.1723172664642334,9.255983352661133,-0.40940847992897034
1788049448145258800,9.1412587890625,2.477998733520508,8.96389102935791,-0.4381389021873474
1788049448161512400,9.157512451171876,2.4181437492370605,8.736441612243652,-0.4620809257030487
1788049448177050400,9.17305029296875,2.5761611461639404,8.513781547546387,-0.21787235140800476
1788049448193310000,9.18931005859375,2.719813108444214,8.398859977722168,-0.011971008032560349
1788049448209079000,9.2050791015625,2.540247917175293,8.432378768920898,0.3256114423274994
1788049448225483500,9.2214833984375,2.056619167327881,8.62630844116211,0.6105214357376099
1788049448241170700,9.237170654296875,1.8148049116134644,8.887276649475098,0.3902548849582672
1788049448257697000,9.253697021484374,2.011129379272461,9.124302864074707,0.043095629662275314
1788049448273443300,9.269443359375,2.4636335372924805,9.23443603515625,-0.23702596127986908
1788049448289196500,9.285196533203125,3.050212860107422,9.330204010009766,-0.3447650372982025
1788049448305515500,9.301515625,3.7852327823638916,9.428366661071777,-0.545877993106842
1788049448321323300,9.3173232421875,4.414907932281494,9.469067573547363,-0.5123591423034668
1788049448337458700,9.333458740234375,4.790797710418701,9.428366661071777,-0.3663128614425659
1788049448353585200,9.349585205078125,4.752490520477295,9.258378028869629,-0.09576806426048279
1788049448369544200,9.365544189453125,4.072536945343018,9.102754592895508,0.24899697303771973
1788049448385775600,9.381775634765624,3.1723172664642334,8.987833023071289,0.43335050344467163
1788049448401449700,9.39744970703125,2.518700122833252,8.877699851989746,0.47644615173339844
1788049448417457400,9.41345751953125,2.2625205516815186,8.83939266204834,0.40462008118629456
1788049448433715700,9.4297158203125,2.161964178085327,8.89685344696045,0.14365209639072418
1788049448449587000,9.4455869140625,2.0685901641845703,8.99740982055664,-0.047884032130241394
1788049448465827600,9.46182763671875,2.2361843585968018,9.17697525024414,-0.363918662071228
1788049448481913300,9.477913330078126,2.7246015071868896,9.332598686218262,-0.5722141861915588
1788049448497681200,9.49368115234375,3.265691041946411,9.435548782348633,-0.7134721279144287
1788049448514148900,9.51014892578125,3.7277719974517822,9.557653427124023,-0.6847416758537292
1788049448529837600,9.525837646484375,3.928884983062744,9.643844604492188,-0.6512228846549988
1788049448546197500,9.542197509765625,4.039018154144287,9.674968719482422,-0.49799394607543945
1788049448561966300,9.55796630859375,4.189853191375732,9.641449928283691,-0.2346317619085312
1788049448577968000,9.573968017578125,4.146757125854492,9.560047149658203,0.1364694982767105
1788049448594047000,9.590046875,3.8379054069519043,9.488221168518066,0.3902548849582672
1788049448609766400,9.605766357421874,3.2321722507476807,9.368511199951172,0.4596867263317108
1788049448626312700,9.622312744140626,2.7676970958709717,9.287108421325684,0.38546648621559143
1788049448642119200,9.638119140625,2.580949544906616,9.227252960205078,0.09576806426048279
1788049448657917700,9.653917724609375,2.5713725090026855,9.121908187866211,-0.1628057211637497
1788049448674376400,9.67037646484375,2.449268341064453,9.100360870361328,-0.31364041566848755
1788049448689958400,9.68595849609375,2.2146365642547607,9.066842079162598,-0.4405331015586853
1788049448706463200,9.702463134765624,2.0422539710998535,9.121908187866211,-0.5339069962501526
1788049448722081800,9.718081787109375,1.8962076902389526,9.17936897277832,-0.6105214357376099
1788049448738100000,9.734099853515625,1.8052281141281128,9.220070838928223,-0.5937620401382446
1788049448754416400,9.75041650390625,1.7980455160140991,9.253589630126953,-0.4908113479614258
1788049448770610200,9.766610107421876,1.745373010635376,9.320627212524414,-0.37828385829925537
1788049448786506500,9.782506591796874,1.659181833267212,9.349357604980469,-0.15322890877723694
1788049448802326500,9.798326416015625,1.6639702320098877,9.521739959716797,0.047884032130241394
1788049448818392800,9.814392822265624,1.8507179021835327,9.672574996948242,0.17956513166427612
1788049448834653200,9.830653076171876,1.9943699836730957,9.849745750427246,0.2585737705230713
1788049448850502700,9.846502685546875,2.2697031497955322,10.017339706420898,0.181959331035614
1788049448866826800,9.86282666015625,2.875436305999756,10.055646896362305,-0.05746084079146385
1788049448882521000,9.87852099609375,3.5865142345428467,9.950302124023438,-0.23942017555236816
1788049448898676000,9.894676025390625,4.02465295791626,9.835380554199219,-0.3687070608139038
1788049448914916400,9.910916259765624,3.691859006881714,9.68933391571045,-0.5027823448181152
1788049448931012400,9.927012451171874,2.87064790725708,9.641449928283691,-0.45250412821769714
1788049448946918100,9.942918212890625,2.097320795059204,9.564835548400879,-0.22026655077934265
1788049448962738400,9.958738525390626,1.6735470294952393,9.550470352172852,0.0694318488240242
1788049448978764500,9.9747646484375,1.7142484188079834,9.521739959716797,0.3471592366695404
1788049448995058000,9.991057861328125,1.9752163887023926,9.473855972290039,0.4884171485900879
1788049449010835200,10.006835205078126,2.248155355453491,9.461885452270508,0.5626373887062073
1788049449027291400,10.02329150390625,2.470816135406494,9.457097053527832,0.35673606395721436
1788049449043031000,10.039031005859375,2.650381326675415,9.47146224975586,0.181959331035614
1788049449058996500,10.05499658203125,2.647987127304077,9.47146224975586,-0.05746084079146385
1788049449075370500,10.07137060546875,2.52109432220459,9.430760383605957,-0.14604631066322327
1788049449091068200,10.087068115234375,2.3319525718688965,9.411606788635254,-0.1388636976480484
1788049449107274500,10.1032744140625,2.1715409755706787,9.330204010009766,-0.047884032130241394
1788049449123159800,10.119159912109374,2.140416383743286,9.339780807495117,-0.023942016065120697
1788049449139139000,10.13513916015625,2.1930887699127197,9.361329078674316,0.16759411990642548
1788049449155365600,10.15136572265625,2.1380221843719482,9.425971984863281,0.35434186458587646
1788049449171119600,10.16711962890625,2.1380221843719482,9.555258750915527,0.5147533416748047
1788049449187512600,10.1835126953125,2.279279947280884,9.674968719482422,0.6248866319656372
1788049449203202800,10.199202880859374,2.494758129119873,9.804255485534668,0.6033388376235962
1788049449219224000,10.21522412109375,2.695871114730835,9.93593692779541,0.5051765441894531
1788049449235609300,10.231609375,2.9664158821105957,9.983820915222168,0.2968810200691223
1788049449251269600,10.24726953125,3.1292216777801514,9.962273597717285,0.1412578970193863
1788049449267621400,10.263621337890624,3.0789434909820557,9.931148529052734,0.05027823522686958
1788049449283781400,10.279781494140625,2.9161376953125,9.782708168029785,0.023942016065120697
1788049449299422000,10.295421875,2.6791117191314697,9.732429504394531,0.07661445438861847
1788049449315637000,10.311636962890624,2.425326347351074,9.674968719482422,0.12689268589019775
1788049449331885300,10.32788525390625,2.3367409706115723,9.667786598205566,0.016759412363171577
1788049449347946200,10.3439462890625,2.365471363067627,9.607931137084961,0.05267243832349777
1788049449363564500,10.359564453125,2.477998733520508,9.576807022094727,-0.002394201699644327
1788049449379614200,10.3756142578125,2.5546131134033203,9.528923034667969,-0.0071826050989329815
1788049449395876600,10.391876708984375,2.3750481605529785,9.512163162231445,0.12928688526153564
1788049449411615200,10.407615234375,2.183511972427368,9.531316757202148,0.10534487664699554
1788049449428156200,10.42415625,2.3056161403656006,9.526528358459473,-0.06703764945268631
1788049449443797200,10.43979736328125,2.5953147411346436,9.464279174804688,-0.040701430290937424
1788049449459809000,10.45580908203125,2.6791117191314697,9.361329078674316,0.0071826050989329815
1788049449476126200,10.472126220703124,2.5977089405059814,9.284713745117188,0.22026655077934265
1788049449492225800,10.488225830078125,2.3942017555236816,9.272743225097656,0.3519476354122162
1788049449508181000,10.504180908203125,2.1787235736846924,9.253589630126953,0.3974374830722809
1788049449523890400,10.519890380859374,2.051830768585205,9.337387084960938,0.3519476354122162
1788049449539846700,10.5358466796875,2.056619167327881,9.428366661071777,0.19153612852096558
1788049449556277200,10.55227734375,2.1284453868865967,9.524134635925293,0.10055647045373917
1788049449571873000,10.567873046875,2.3942017555236816,9.569623947143555,0.07900865375995636
1788049449588408800,10.584408935546875,2.628833532333374,9.648633003234863,0.13407529890537262
1788049449603982000,10.599982177734375,2.779668092727661,9.720458984375,0.07900865375995636
1788049449620048400,10.61604833984375,2.7772738933563232,9.751583099365234,-0.023942016065120697
1788049449636252700,10.632252685546876,2.7293899059295654,9.727641105651855,-0.040701430290937424
1788049449652083700,10.648083740234375,2.6144683361053467,9.667786598205566,-0.07422025501728058
1788049449668477200,10.664477294921875,2.52109432220459,9.615114212036133,0.011971008032560349
1788049449684202500,10.680202392578124,2.382230758666992,9.560047149658203,0.09576806426048279
1788049449700353500,10.696353515625,2.188300371170044,9.57201862335205,0.14604631066322327
1788049449716534000,10.712533935546874,2.118868589401245,9.57441234588623,0.19153612852096558
1788049449732224000,10.72822412109375,2.126051187515259,9.612719535827637,0.2513911724090576
1788049449748711400,10.74471142578125,2.1739351749420166,9.63187313079834,0.31842881441116333
1788049449764369000,10.760368896484374,2.2673089504241943,9.636661529541016,0.3734954595565796
1788049449780383000,10.776383056640626,2.432508945465088,9.643844604492188,0.33039984107017517
1788049449796744400,10.792744384765625,2.454056739807129,9.679757118225098,0.18914192914962769
1788049449812618500,10.808618408203126,2.3989901542663574,9.6989107131958,0.15562310814857483
1788049449828970500,10.824970458984374,2.389413356781006,9.677363395690918,0.304063618183136
1788049449844992300,10.8409921875,2.3702597618103027,9.62947940826416,0.3902548849582672
1788049449860688600,10.856688720703126,2.4181437492370605,9.59835433959961,0.5386953949928284
1788049449876859600,10.872859619140625,2.4636335372924805,9.531316757202148,0.5937620401382446
1788049449892652500,10.888652587890626,2.456450939178467,9.514557838439941,0.706289529800415
1788049449909081000,10.9050810546875,2.33913516998291,9.457097053527832,0.7230489253997803
1788049449924745700,10.920745849609375,2.2170307636260986,9.430760383605957,0.7398083209991455
1788049449941000700,10.937000732421875,2.296039342880249,9.435548782348633,0.7996633648872375
1788049449957226000,10.95322607421875,2.3774423599243164,9.404424667358398,0.8906430602073669
1788049449972842200,10.96884228515625,2.408566951751709,9.445125579833984,1.070208191871643
1788049449989228000,10.98522802734375,2.693476915359497,9.461885452270508,1.0462661981582642
1788049450004949200,11.00094921875,2.9759926795959473,9.404424667358398,1.0630255937576294
1788049450020874500,11.01687451171875,3.1028854846954346,9.349357604980469,1.113303780555725
1788049450037154600,11.033154541015625,2.9257144927978516,9.351752281188965,1.213860273361206
1788049450052910000,11.04891015625,2.736572504043579,9.35654067993164,1.3407529592514038
1788049450069236200,11.065236328125,2.6862943172454834,9.35654067993164,1.4891934394836426
1788049450085005000,11.081005126953125,2.80361008644104,9.315838813781738,1.5514427423477173
1788049450101467600,11.097467529296875,3.00711727142334,9.311050415039062,1.4987702369689941
1788049450117272000,11.11327197265625,3.1914708614349365,9.306262016296387,1.4269442558288574
1788049450133052200,11.12905224609375,3.141192674636841,9.308655738830566,1.4939818382263184
1788049450149484800,11.14548486328125,2.937685489654541,9.361329078674316,1.6496049165725708
1788049450165153000,11.161153076171875,2.87064790725708,9.351752281188965,1.7764976024627686
1788049450181213700,11.177213623046875,2.9927520751953125,9.363722801208496,1.8818424940109253
1788049450197412900,11.193412841796874,3.112462282180786,9.354146003723145,1.9249382019042969
1788049450213523000,11.20952294921875,3.28963303565979,9.342175483703613,1.9057846069335938
1788049450229561000,11.22556103515625,3.404554843902588,9.342175483703613,1.7477672100067139
1788049450245330200,11.241330078125,3.466804027557373,9.342175483703613,1.5155296325683594
1788049450261376500,11.25737646484375,3.488351821899414,9.346963882446289,1.2473790645599365
1788049450277604900,11.27360498046875,3.49314022064209,9.373299598693848,1.0462661981582642
1788049450293747200,11.289747314453125,3.469198226928711,9.411606788635254,1.0534487962722778
1788049450309886000,11.305885986328125,3.423708438873291,9.425971984863281,0.9959878921508789
1788049450325529600,11.321529541015625,3.380612850189209,9.402029991149902,0.9074024558067322
1788049450341563000,11.33756298828125,3.2824504375457764,9.3828763961792,0.7972691655158997
1788049450357991200,11.3539912109375,3.2632968425750732,9.409213066101074,0.7876923680305481
1788049450373576400,11.369576416015626,3.224989652633667,9.39245319366455,0.751779317855835
1788049450390090200,11.38609033203125,3.1938650608062744,9.394847869873047,0.8547300100326538
1788049450406107100,11.402107177734376,3.1651346683502197,9.368511199951172,0.8140285611152649
1788049450421758200,11.41775830078125,3.1651346683502197,9.373299598693848,0.8044517636299133
1788049450438005500,11.434005615234375,3.1890766620635986,9.32302188873291,0.7350199222564697
1788049450453760300,11.44976025390625,3.205836057662964,9.294290542602539,0.5530605912208557
1788049450470279200,11.466279052734375,3.2752678394317627,9.23443603515625,0.44771572947502136
1788049450486272800,11.482272705078126,3.2992098331451416,9.124302864074707,0.3878606855869293
1788049450502015200,11.49801513671875,3.1459810733795166,9.129091262817383,0.47405192255973816
1788049450518405000,11.514405029296874,2.7102363109588623,9.220070838928223,0.5913678407669067
1788049450534112000,11.530112060546875,1.9919757843017578,9.435548782348633,0.6153098344802856
1788049450550464800,11.54646484375,1.5658079385757446,9.581595420837402,0.6584054827690125
1788049450566473200,11.56247314453125,2.03507137298584,9.619902610778809,0.6129156351089478
1788049450582053000,11.57805322265625,3.397372245788574,9.519346237182617,0.4189853072166443
1788049450598489300,11.5944892578125,4.606443881988525,9.253589630126953,0.10295066982507706
1788049450614145500,11.6101455078125,5.092466831207275,8.951920509338379,-0.31124621629714966
1788049450630584600,11.62658447265625,4.671087741851807,8.860940933227539,-0.8667010068893433
1788049450646285600,11.64228564453125,3.624821424484253,8.96389102935791,-1.3311761617660522
1788049450662708200,11.658708251953126,2.6240451335906982,9.14585018157959,-1.5969325304031372
1788049450678636500,11.674636474609375,2.1356279850006104,9.351752281188965,-1.623268723487854
1788049450694346000,11.690345947265625,2.1092917919158936,9.543288230895996,-1.4077905416488647
1788049450710712600,11.706712646484375,2.497152328491211,9.619902610778809,-1.05105459690094
1788049450726520600,11.7225205078125,3.093308687210083,9.655815124511719,-0.7206547260284424
1788049450742509800,11.738509765625,3.665522813796997,9.694122314453125,-0.5123591423034668
1788049450758904600,11.754904541015625,3.8810009956359863,9.708487510681152,-0.33518823981285095
1788049450774622200,11.770622314453124,3.912125587463379,9.744400978088379,-0.2968810200691223
1788049450791075800,11.787075927734374,3.8379054069519043,9.667786598205566,-0.3471592366695404
1788049450806836200,11.802836181640625,3.737348794937134,9.552865028381348,-0.42616790533065796
1788049450822766800,11.818766845703125,3.4955344200134277,9.385271072387695,-0.6153098344802856
1788049450839020300,11.835020263671876,3.1316158771514893,9.260771751403809,-0.7876923680305481
1788049450854777300,11.85077734375,2.762908697128296,9.169792175292969,-0.9074024558067322
1788049450871299800,11.8672998046875,2.5450363159179688,9.14345645904541,-1.0295066833496094
1788049450886913500,11.88291357421875,2.3774423599243164,9.17936897277832,-1.1899182796478271
1788049450903090700,11.899090576171876,2.3127987384796143,9.23443603515625,-1.259350061416626
1788049450919427800,11.915427734375,2.432508945465088,9.332598686218262,-1.3455413579940796
1788049450935026400,11.9310263671875,2.6671407222747803,9.3828763961792,-1.403002142906189
1788049450951421400,11.94742138671875,2.985569477081299,9.440337181091309,-1.4077905416488647
1788049450967121000,11.963120849609375,3.1914708614349365,9.464279174804688,-1.2952631711959839
1788049450983264800,11.9792646484375,3.2632968425750732,9.48343276977539,-1.1851298809051514
1788049450999467000,11.995467041015624,3.155557870864868,9.435548782348633,-0.9217676520347595
1788049451015142700,12.011142578125,3.098097085952759,9.409213066101074,-0.6105214357376099
1788049451031567600,12.027567626953125,3.2297780513763428,9.35654067993164,-0.45489832758903503
1788049451047633700,12.043633544921875,3.3925838470458984,9.306262016296387,-0.5267243981361389
1788049451063275500,12.059275634765624,3.44765043258667,9.21288776397705,-0.6224924325942993
1788049451079724800,12.075724853515625,3.579331636428833,9.153033256530762,-0.8738836050033569
1788049451095330800,12.091330810546875,3.536235809326172,9.107542991638184,-1.0797849893569946
1788049451111741000,12.107740966796875,3.3255462646484375,9.100360870361328,-1.192312479019165
1788049451127518700,12.123518798828124,3.201047658920288,9.097966194152832,-1.2617442607879639
1788049451143440400,12.1394404296875,3.2968156337738037,9.078812599182129,-1.256955862045288
1788049451159707400,12.155707275390625,3.3039982318878174,9.057265281677246,-1.2617442607879639
1788049451175938000,12.17193798828125,3.045424461364746,9.114726066589355,-1.2330138683319092
1788049451191880200,12.187880126953125,2.715024709701538,9.232041358947754,-1.235408067703247
1788049451207632000,12.2036318359375,2.4372973442077637,9.394847869873047,-1.2401964664459229
1788049451223654000,12.21965380859375,2.10210919380188,9.634267807006836,-1.1851298809051514
1788049451240059100,12.23605908203125,1.7836803197860718,9.916783332824707,-1.072602391242981
1788049451255674000,12.251674072265626,1.7525556087493896,10.053253173828125,-0.6320692300796509
1788049451272182800,12.268182861328125,2.3343467712402344,10.192116737365723,-0.15083470940589905
1788049451287819300,12.2838193359375,3.2632968425750732,10.08198356628418,-0.22266076505184174
1788049451303865900,12.299865966796874,4.060565948486328,9.895236015319824,-0.5674257874488831
1788049451320030000,12.316030029296876,4.201824188232422,9.612719535827637,-1.1683704853057861
1788049451335987700,12.33198779296875,3.648763418197632,9.459490776062012,-1.4317326545715332
1788049451352224300,12.348224365234374,2.911349296569824,9.390059471130371,-1.1994950771331787
1788049451368051500,12.364051513671875,2.121262788772583,9.35654067993164,-0.689530074596405
1788049451384328400,12.380328369140624,1.8411411046981812,9.32302188873291,-0.17717093229293823
1788049451400239000,12.396239013671876,1.7525556087493896,9.332598686218262,0.10055647045373917
1788049451416067800,12.41206787109375,1.8602946996688843,9.354146003723145,0.21787235140800476
1788049451432544500,12.42854443359375,2.33913516998291,9.406818389892578,0.24181437492370605
1788049451448129000,12.44412890625,3.047818660736084,9.437943458557129,0.1388636976480484
1788049451464107500,12.460107421875,3.5194764137268066,9.44752025604248,0.016759412363171577
1788049451480366000,12.476365966796875,3.6511576175689697,9.41639518737793,0.13168109953403473
1788049451496156700,12.49215673828125,3.3494882583618164,9.409213066101074,0.38067805767059326
1788049451512492000,12.508491943359376,2.959233283996582,9.433155059814453,0.6751648783683777
1788049451528512800,12.5245126953125,2.5737667083740234,9.497797966003418,0.9648633003234863
1788049451544283000,12.540282958984376,2.3798365592956543,9.581595420837402,1.0965443849563599
1788049451560624000,12.5566240234375,2.27209734916687,9.658209800720215,1.015141487121582
1788049451576313300,12.572313232421875,2.427720546722412,9.773131370544434,0.7015010714530945
1788049451592761000,12.588760986328126,2.762908697128296,9.765948295593262,0.5291185975074768
1788049451608538600,12.60453857421875,3.023876667022705,9.703699111938477,0.49559974670410156
1788049451624577800,12.620577880859376,3.1747114658355713,9.648633003234863,0.5027823448181152
1788049451640737800,12.63673779296875,3.2776620388031006,9.560047149658203,0.5722141861915588
1788049451656570400,12.6525703125,3.162740468978882,9.514557838439941,0.6655880808830261
1788049451672927700,12.668927734375,2.7054479122161865,9.473855972290039,0.7469909191131592
1788049451689134000,12.685134033203125,2.252943754196167,9.41639518737793,0.5889736413955688
1788049451704691000,12.70069091796875,2.1475989818573,9.41639518737793,0.38307225704193115
1788049451721015800,12.717015869140624,2.341529369354248,9.368511199951172,0.2561795711517334
1788049451737147100,12.733147216796874,2.537853717803955,9.313444137573242,0.3064578175544739
1788049451753137200,12.74913720703125,2.38462495803833,9.241618156433105,0.4141969084739685
1788049451768824300,12.76482421875,2.300827741622925,9.208099365234375,0.5674257874488831
1788049451784889000,12.78088916015625,2.1715409755706787,9.208099365234375,0.4572925269603729
1788049451801154600,12.797154541015624,1.9297266006469727,9.282320022583008,0.3974374830722809
1788049451816888300,12.812888427734375,1.8195933103561401,9.301473617553711,0.4118026793003082
1788049451833259300,12.82925927734375,1.9057846069335938,9.368511199951172,0.33518823981285095
1788049451848972300,12.84497216796875,2.0685901641845703,9.394847869873047,0.3495534360408783
1788049451864999400,12.86099951171875,2.212242364883423,9.440337181091309,0.35673606395721436
1788049451889026800,12.88502685546875,2.300827741622925,9.62947940826416,0.181959331035614
1788049451904995800,12.900995849609375,2.1547815799713135,9.780313491821289,-0.021547814831137657
1788049451921286700,12.91728662109375,1.920149803161621,9.897629737854004,-0.17477671802043915
1788049451936965600,12.932965576171876,1.8938134908676147,10.06043529510498,-0.24660277366638184
1788049451953382700,12.949382568359376,2.322375535964966,10.046070098876953,-0.38546648621559143
1788049451969081300,12.965081298828125,2.9233202934265137,9.971850395202637,-0.5889736413955688
1788049451985099800,12.981099853515625,3.308786630630493,9.823410034179688,-0.8643068075180054
1788049452001333500,12.99733349609375,3.292027235031128,9.691728591918945,-0.9600749015808105
1788049452017163800,13.013163818359375,3.0166940689086914,9.727641105651855,-0.9409212470054626
1788049452033494000,13.029493896484375,2.760514497756958,9.679757118225098,-0.706289529800415
1788049452049241900,13.045241943359375,2.4684219360351562,9.679757118225098,-0.30885201692581177
1788049452065199000,13.06119921875,2.322375535964966,9.583989143371582,0.1364694982767105
1788049452081516800,13.077516845703125,2.360682964324951,9.435548782348633,0.3878606855869293
1788049452097795000,13.093795166015624,2.205059766769409,9.32541561126709,0.5985504388809204
1788049452113799400,13.10979931640625,2.073378562927246,9.210494041442871,0.47884035110473633
1788049452129446700,13.12544677734375,1.9991583824157715,9.217676162719727,0.19393034279346466
1788049452145387500,13.141387451171875,2.0231003761291504,9.289502143859863,-0.26815059781074524
1788049452161659400,13.157659423828125,2.0374655723571777,9.279925346374512,-0.3687070608139038
1788049452177525200,13.173525146484375,2.1715409755706787,9.282320022583008,-0.40462008118629456
1788049452193901800,13.18990185546875,2.408566951751709,9.284713745117188,-0.26096799969673157
1788049452209614800,13.20561474609375,2.451662540435791,9.265560150146484,-0.12449848651885986
1788049452225629000,13.22162890625,2.4205379486083984,9.306262016296387,-0.10295066982507706
1788049452241904000,13.237904052734375,2.2242133617401123,9.38048267364502,-0.23942017555236816
1788049452257740800,13.25374072265625,1.9847931861877441,9.459490776062012,-0.20350714027881622
1788049452274218000,13.270218017578125,1.9345149993896484,9.59596061706543,-0.26575639843940735
1788049452289939200,13.285939208984376,2.0829553604125977,9.732429504394531,-0.24181437492370605
1788049452305829600,13.30182958984375,2.2697031497955322,9.909601211547852,-0.11013327538967133
1788049452322105300,13.318105224609376,2.33913516998291,9.995792388916016,-0.026336219161748886
1788049452338004200,13.334004150390625,2.5019407272338867,10.074800491333008,0.1867477297782898
1788049452354343000,13.350343017578124,2.691082715988159,10.029311180114746,0.4118026793003082
1788049452369975000,13.36597509765625,2.7748796939849854,9.909601211547852,0.545877993106842
1788049452386257200,13.382257080078125,2.497152328491211,9.77791976928711,0.4572925269603729
1788049452402450400,13.398450439453125,2.1308395862579346,9.615114212036133,0.45010992884635925
1788049452417982500,13.413982421875,1.6879122257232666,9.516951560974121,0.31364041566848755
1788049452434414600,13.43041455078125,1.2832920551300049,9.50737476348877,0.1412578970193863
1788049452450128400,13.44612841796875,0.8667010068893433,9.526528358459473,0.0454898327589035
1788049452466294300,13.462294189453125,0.7230489253997803,9.531316757202148,0.10295066982507706
1788049452482533000,13.478533203125,0.8212111592292786,9.533711433410645,0.3016694188117981
1788049452498568400,13.494568359375,1.0965443849563599,9.531316757202148,0.38307225704193115
1788049452514559200,13.510559326171874,1.436521053314209,9.548076629638672,0.3232172429561615
1788049452530467000,13.526467041015625,1.659181833267212,9.583989143371582,0.16759411990642548
1788049452546632700,13.5426328125,1.7812861204147339,9.634267807006836,0.090979665517807
1788049452562709000,13.558708984375,1.9632453918457031,9.66539192199707,0.016759412363171577
1788049452578464500,13.574464599609374,2.1140801906585693,9.674968719482422,-0.13407529890537262
1788049452594707200,13.590707275390624,2.1284453868865967,9.624691009521484,-0.0933738648891449
1788049452610328800,13.606328857421875,2.140416383743286,9.603142738342285,-0.2322375625371933
1788049452626451700,13.62245166015625,2.056619167327881,9.531316757202148,-0.23942017555236816
1788049452642709800,13.638709716796875,1.7932571172714233,9.44752025604248,-0.08619125932455063
1788049452658925600,13.654925537109374,1.5203180313110352,9.366117477416992,0.2082955539226532
1788049452674993700,13.67099365234375,1.3311761617660522,9.35654067993164,0.48602294921875
1788049452690751500,13.68675146484375,1.3503297567367554,9.35893440246582,0.6512228846549988
1788049452706572000,13.702572021484375,1.2952631711959839,9.399636268615723,0.6057330369949341
1788049452722879500,13.71887939453125,1.237802267074585,9.488221168518066,0.6248866319656372
1788049452738625500,13.73462548828125,1.2617442607879639,9.552865028381348,0.6057330369949341
1788049452755018800,13.751018798828126,1.400607943534851,9.648633003234863,0.5291185975074768
1788049452770724900,13.766724853515624,1.5849615335464478,9.727641105651855,0.3902548849582672
1788049452786941200,13.782941162109376,1.5634137392044067,9.854534149169922,0.2801215946674347
1788049452803061200,13.799061279296875,1.5107412338256836,9.888052940368652,0.22505496442317963
1788049452818878700,13.814878662109376,1.5897499322891235,10.029311180114746,0.031124621629714966
1788049452835191600,13.831191650390625,1.800439715385437,10.031704902648926,-0.10773907601833344
1788049452850851000,13.84685107421875,2.030282974243164,9.988609313964844,-0.047884032130241394
1788049452866808600,13.86280859375,2.276885747909546,10.08437728881836,-0.05506663769483566
1788049452883073000,13.879072998046874,2.6575639247894287,10.08198356628418,-0.2753331959247589
1788049452898881000,13.894881103515624,2.9328970909118652,10.103530883789062,-0.3423708379268646
1788049452915456300,13.911456298828124,2.6168625354766846,10.333374977111816,-0.3734954595565796
1788049452931001600,13.927001708984376,2.207453966140747,10.582371711730957,-0.14365209639072418
1788049452946974500,13.942974365234376,1.381454348564148,10.824186325073242,0.14365209639072418
1788049452963234000,13.959234130859375,0.7422025203704834,10.92953109741211,0.45489832758903503
1788049452979063300,13.975063232421874,0.6057330369949341,11.018115997314453,0.7613561153411865
1788049452995471000,13.99147119140625,1.0989385843276978,10.864887237548828,0.5626373887062073
1788049453011197000,14.007197021484375,2.2409727573394775,10.608707427978516,0.42616790533065796
1788049453027169500,14.02316943359375,3.7708675861358643,10.14902114868164,0.5339069962501526
1788049453043512300,14.03951220703125,4.395754337310791,9.68694019317627,0.8307880163192749
1788049453059302400,14.055302490234375,4.599261283874512,9.308655738830566,0.7254431247711182
1788049453075782700,14.07178271484375,4.098873138427734,9.002198219299316,0.33758243918418884
1788049453091514600,14.0875146484375,3.1220390796661377,8.779537200927734,0.11013327538967133
1788049453107479000,14.10347900390625,2.123656988143921,8.628703117370605,-0.1412578970193863
1788049453123657700,14.11965771484375,1.436521053314209,8.56645393371582,-0.17238251864910126
1788049453139499500,14.13549951171875,1.0989385843276978,8.683769226074219,-0.08379705995321274
1788049453156028700,14.152028564453126,1.0845733880996704,8.856152534484863,-0.18914192914962769
1788049453172018200,14.16801806640625,1.280897855758667,9.095572471618652,-0.5554547905921936
1788049453187659000,14.183658935546875,1.5538369417190552,9.399636268615723,-0.7876923680305481
1788049453204118000,14.200117919921874,1.941697597503662,9.605537414550781,-0.8451532125473022
1788049453219760600,14.2157607421875,2.513911724090576,9.792284965515137,-0.993593692779541
1788049453236147500,14.2321474609375,3.5673606395721436,9.797073364257812,-0.933738648891449
1788049453251844900,14.247844970703126,4.4508209228515625,9.615114212036133,-0.730231523513794
1788049453267846400,14.263846435546874,4.874594688415527,9.361329078674316,-0.4908113479614258
1788049453284138000,14.280137939453125,4.388571739196777,9.138668060302734,-0.2561795711517334
1788049453299793200,14.295793212890626,3.2178070545196533,8.96149730682373,0.0694318488240242
1788049453316168400,14.31216845703125,2.073378562927246,8.865729331970215,0.07900865375995636
1788049453331976000,14.327975830078126,1.3958195447921753,8.834604263305664,-0.0694318488240242
1788049453347995600,14.34399560546875,1.048660397529602,8.87291145324707,-0.19153612852096558
1788049453364373000,14.360373046875,1.0845733880996704,8.983044624328613,-0.19632454216480255
1788049453380040700,14.376040771484375,1.3766659498214722,9.117119789123535,-0.28730419278144836
1788049453396465700,14.392465576171874,1.7932571172714233,9.294290542602539,-0.3758896589279175
1788049453412174800,14.4081748046875,2.0614075660705566,9.39245319366455,-0.2585737705230713
1788049453428615700,14.42461572265625,2.233790159225464,9.536105155944824,-0.19632454216480255
1788049453444450600,14.440450439453125,2.497152328491211,9.591172218322754,-0.26815059781074524
1788049453460325400,14.456325439453124,2.693476915359497,9.619902610778809,-0.2849099934101105
1788049453476693500,14.472693603515625,2.7964274883270264,9.53849983215332,-0.26336219906806946
1788049453492429300,14.48842919921875,2.6623523235321045,9.442731857299805,-0.17956513166427612
1788049453508423000,14.5044228515625,2.410961151123047,9.406818389892578,-0.19632454216480255
1788049453524744700,14.52074462890625,2.212242364883423,9.334992408752441,-0.20350714027881622
1788049453540547600,14.536547607421875,2.0231003761291504,9.318233489990234,-0.033518824726343155
1788049453556950000,14.552949951171875,1.7621324062347412,9.41400146484375,-0.1843535304069519
1788049453572670500,14.56867041015625,1.45806884765625,9.615114212036133,-0.3758896589279175
1788049453588807000,14.584806884765625,1.1276689767837524,9.828198432922363,-0.3734954595565796
1788049453604962600,14.600962646484374,1.1683704853057861,10.038887977600098,-0.2585737705230713
1788049453620718600,14.616718505859374,1.41257905960083,10.125079154968262,-0.12210428714752197
1788049453637247500,14.63324755859375,1.944091796875,10.230423927307129,-0.1604115068912506
1788049453652973300,14.648973388671875,2.4612393379211426,10.333374977111816,-0.2944868206977844
1788049453668837400,14.66483740234375,2.851494312286377,10.362105369567871,-0.45010992884635925
1788049453685110800,14.68111083984375,3.0119056701660156,10.563218116760254,-0.7829039692878723
1788049453700904000,14.696904052734375,2.5761611461639404,10.879252433776855,-1.0055646896362305
1788049453717363000,14.713363037109374,1.6328455209732056,11.092336654663086,-0.5650315880775452
1788049453733442000,14.729442138671875,0.8619126081466675,11.276689529418945,0.2106897532939911
1788049453749126400,14.74512646484375,1.3407529592514038,11.240777015686035,1.091755986213684
1788049453765555700,14.7615556640625,2.82515811920166,10.946290016174316,1.2114660739898682
1788049453781103000,14.77710302734375,4.381389141082764,10.376470565795898,1.216254472732544
1788049453797491000,14.793490966796876,5.367800235748291,9.81143856048584,1.115697979927063
1788049453813228000,14.80922802734375,5.568912982940674,9.181763648986816,0.5195417404174805
1788049453829479200,14.825479248046875,5.116408824920654,8.695740699768066,-0.1412578970193863
1788049453845723400,14.841723388671875,4.517858505249023,8.276755332946777,-0.7182605266571045
1788049453861213200,14.857213134765624,3.7445313930511475,8.054094314575195,-0.9385270476341248
1788049453877664300,14.873664306640626,2.7054479122161865,8.1139497756958,-0.7924807667732239
1788049453893385200,14.88938525390625,1.7812861204147339,8.341399192810059,-0.0694318488240242
1788049453909412400,14.905412353515626,1.2737152576446533,8.633491516113281,0.3208230137825012
1788049453925709300,14.921709228515626,1.139639973640442,8.892065048217773,0.9696516990661621
1788049453941494500,14.93749462890625,1.6304513216018677,9.10993766784668,1.3646949529647827
1788049453957897500,14.9538974609375,2.319981336593628,9.327810287475586,1.2401964664459229
1788049453973588500,14.96958837890625,3.399766445159912,9.44752025604248,1.0869675874710083
1788049453990059000,14.98605908203125,4.335899353027344,9.567230224609375,0.8427590131759644
1788049454005890300,15.001890380859376,4.881777286529541,9.603142738342285,0.6991068720817566
1788049454021839400,15.01783935546875,4.865017890930176,9.440337181091309,0.40222588181495667
1788049454038124000,15.0341240234375,4.278438568115234,9.29189682006836,0.08619125932455063
1788049454053841400,15.04984130859375,3.3638534545898438,9.105149269104004,-0.2322375625371933
1788049454069993000,15.065992919921875,2.5019407272338867,8.959102630615234,-0.3256114423274994
1788049454086327000,15.0823271484375,1.9153614044189453,8.825027465820312,-0.24181437492370605
1788049454101976000,15.09797607421875,1.623268723487854,8.793902397155762,0.047884032130241394
1788049454118396400,15.114396484375,1.7118542194366455,8.757989883422852,0.33039984107017517
1788049454134140200,15.13014013671875,1.889025092124939,8.798690795898438,0.5339069962501526
1788049454150388700,15.146388671875,1.9967641830444336,8.9064302444458,0.6033388376235962
1788049454166612500,15.162612548828125,1.867477297782898,9.023746490478516,0.5578489899635315
1788049454182366500,15.178366455078125,1.7525556087493896,9.196128845214844,0.4165911078453064
1788049454198735000,15.194735107421875,1.824381709098816,9.311050415039062,0.38546648621559143
1788049454214448600,15.21044873046875,2.0614075660705566,9.349357604980469,0.3208230137825012
1788049454230699300,15.22669921875,2.425326347351074,9.38048267364502,0.2513911724090576
1788049454246842400,15.24284228515625,2.6408045291900635,9.445125579833984,0.12210428714752197
1788049454262433500,15.25843359375,2.671929121017456,9.476250648498535,-0.1388636976480484
1788049454278816300,15.274816162109374,2.5330653190612793,9.548076629638672,-0.4141969084739685
1788049454294630400,15.29063037109375,2.2170307636260986,9.610325813293457,-0.5099649429321289
1788049454310480600,15.306480712890625,1.9608511924743652,9.648633003234863,-0.5003881454467773
1788049454326753500,15.32275341796875,1.7501614093780518,9.682151794433594,-0.40940847992897034
1788049454342558000,15.338557861328125,1.644816517829895,9.816226959228516,-0.2849099934101105
1788049454359054000,15.35505419921875,1.6927006244659424,9.952696800231934,-0.10773907601833344
1788049454374658600,15.370658447265624,1.7836803197860718,10.012551307678223,0.090979665517807
1788049454390653700,15.38665380859375,1.9249382019042969,10.101137161254883,0.13168109953403473
1788049454407133200,15.40313330078125,2.094926595687866,10.156203269958496,0.4644751250743866
1788049454422721500,15.418721435546875,2.4612393379211426,10.02691650390625,0.5817909836769104
1788049454439231500,15.4352314453125,2.8419175148010254,10.029311180114746,0.7158663272857666
1788049454455055000,15.45105517578125,2.5115175247192383,10.213664054870605,0.6967126727104187
1788049454470857700,15.466857666015626,1.3982137441635132,10.558429718017578,0.6847416758537292
1788049454487127600,15.48312744140625,0.42616790533065796,10.771512985229492,0.2777273952960968
1788049454503364400,15.4993642578125,0.4908113479614258,10.984597206115723,0.05506663769483566
1788049454519410700,15.51541064453125,1.4844050407409668,10.975020408630371,-0.3423708379268646
1788049454534993400,15.530993408203125,2.5785553455352783,10.886435508728027,-0.6799532771110535
1788049454551013400,15.547013427734376,3.6152446269989014,10.656591415405273,-0.7709329724311829
1788049454567277600,15.563277587890624,4.367023944854736,10.500968933105469,-0.5889736413955688
1788049454583156000,15.579156005859375,4.917690277099609,10.170568466186523,-0.37828385829925537
1788049454599535600,15.59553564453125,5.125985622406006,9.703699111938477,-0.14844051003456116
1788049454615261700,15.61126171875,4.807557106018066,9.172186851501465,-0.16519992053508759
1788049454631282000,15.627281982421875,3.73016619682312,8.738836288452148,-0.26336219906806946
1788049454647753000,15.6437529296875,2.6575639247894287,8.525752067565918,-0.5985504388809204
1788049454663466200,15.65946630859375,1.8267759084701538,8.518569946289062,-0.912190854549408
1788049454679869000,15.675868896484374,1.3072341680526733,8.724471092224121,-1.0869675874710083
1788049454695493600,15.69149365234375,1.2330138683319092,8.96149730682373,-1.1516109704971313
1788049454711556600,15.707556640625,1.5849615335464478,9.191340446472168,-1.1013327836990356
1788049454727883500,15.723883544921875,2.0661959648132324,9.32302188873291,-0.751779317855835
1788049454743721700,15.7397216796875,2.693476915359497,9.533711433410645,-0.3926490843296051
1788049454759963100,15.755963134765626,3.509899616241455,9.610325813293457,0.019153613597154617
1788049454775865000,15.771864990234375,4.060565948486328,9.53849983215332,0.4405331015586853
1788049454791687200,15.787687255859375,4.278438568115234,9.32541561126709,0.5937620401382446
1788049454808161000,15.8041611328125,3.754108190536499,9.05487060546875,0.5386953949928284
1788049454823894500,15.81989453125,2.853888511657715,8.83699893951416,0.5770025849342346
1788049454840182800,15.836182861328124,2.0398597717285156,8.669404029846191,0.49799394607543945
1788049454856052200,15.85205224609375,1.4915876388549805,8.554482460021973,0.40222588181495667
1788049454871948000,15.867947998046875,1.3431471586227417,8.513781547546387,0.4692635238170624
1788049454888116500,15.884116455078125,1.2401964664459229,8.585607528686523,0.43335050344467163
1788049454904091400,15.90009130859375,1.2258312702178955,8.681375503540039,0.4884171485900879
1788049454920289000,15.9162890625,1.2665326595306396,8.765172004699707,0.35673606395721436
1788049454936172800,15.9321728515625,1.5083470344543457,8.887276649475098,0.26575639843940735
1788049454952038100,15.9480380859375,1.7525556087493896,8.99740982055664,0.19632454216480255
1788049454968264400,15.964264404296875,1.9943699836730957,9.107542991638184,-0.014365210197865963
1788049454984102000,15.980101806640626,2.10210919380188,9.23443603515625,-0.16759411990642548
1788049455000503300,15.99650341796875,2.255337953567505,9.385271072387695,-0.2777273952960968
1788049455016202500,16.012202392578125,2.497152328491211,9.5408935546875,-0.3256114423274994
1788049455032247800,16.028247802734374,2.5019407272338867,9.670180320739746,-0.28969839215278625
1788049455048501800,16.044501708984374,2.31758713722229,9.871294021606445,-0.12689268589019775
1788049455064782800,16.060782958984376,2.1092917919158936,10.041281700134277,-0.033518824726343155
1788049455080718000,16.076718017578123,2.006340980529785,10.1753568649292,0.038307227194309235
1788049455096448300,16.0924482421875,2.1380221843719482,10.309432983398438,0.10773907601833344
1788049455112462300,16.10846240234375,2.3247697353363037,10.338163375854492,0.11013327538967133
1788049455128785000,16.124784912109376,2.5115175247192383,10.400412559509277,0.21787235140800476
1788049455144513300,16.14051318359375,2.6575639247894287,10.414777755737305,0.17956513166427612
1788049455160949800,16.15694970703125,2.477998733520508,10.575188636779785,0
1788049455176604000,16.17260400390625,1.6208745241165161,10.934319496154785,0.014365210197865963
1788049455192596000,16.188595947265625,0.9576807022094727,10.984597206115723,0.36152446269989014
1788049455208861000,16.20486083984375,0.9911994934082031,10.936713218688965,1.1994950771331787
1788049455224635100,16.22063525390625,1.8626888990402222,10.771512985229492,1.7286136150360107
1788049455241037600,16.23703759765625,3.098097085952759,10.649409294128418,1.702277421951294
1788049455256811300,16.252811279296875,4.101267337799072,10.383652687072754,1.0199298858642578
1788049455272862700,16.26886279296875,4.446032524108887,10.192116737365723,0.4405331015586853
1788049455289146000,16.28514599609375,4.577713489532471,9.928754806518555,-0.12449848651885986
1788049455305273000,16.301273193359375,4.754884719848633,9.485827445983887,-0.2968810200691223
1788049455321543200,16.317543212890627,4.474762916564941,9.069235801696777,-0.3256114423274994
1788049455337121000,16.33312109375,3.7660791873931885,8.669404029846191,-0.3256114423274994
1788049455353128700,16.349128662109376,2.942473888397217,8.547300338745117,-0.47884035110473633
1788049455369422800,16.3654228515625,2.032677173614502,8.506598472595215,-0.395043283700943
1788049455385268500,16.3812685546875,1.2330138683319092,8.616731643676758,-0.023942016065120697
1788049455401687800,16.397687744140626,1.0558429956436157,8.820239067077637,0.5099649429321289
1788049455417408300,16.413408203125,1.3623007535934448,8.947132110595703,1.0438719987869263
1788049455433442300,16.4294423828125,1.8722656965255737,8.99740982055664,1.173158884048462
1788049455449676500,16.445676513671874,2.5665841102600098,9.188945770263672,1.1085153818130493
1788049455465457700,16.461457763671874,3.56017804145813,9.277531623840332,0.9983820915222168
1788049455481822200,16.477822265625,4.489128112792969,9.272743225097656,0.7445967197418213
1788049455497600800,16.493600830078126,4.960785865783691,9.208099365234375,0.4165911078453064
1788049455513686500,16.5096865234375,4.702212333679199,9.095572471618652,-0.047884032130241394
1788049455529938700,16.525938720703124,4.091690540313721,8.966285705566406,-0.524330198764801
1788049455545739000,16.541739013671876,3.227383852005005,8.801085472106934,-0.6631938815116882
1788049455562144300,16.558144287109375,2.559401512145996,8.640673637390137,-0.545877993106842
1788049455578242000,16.574241943359375,1.98958158493042,8.547300338745117,-0.42856210470199585
1788049455594134500,16.590134521484377,1.5849615335464478,8.542511940002441,-0.2322375625371933
1788049455610344000,16.606343994140627,1.338358759880066,8.619126319885254,0.002394201699644327
1788049455626401800,16.62240185546875,1.3527239561080933,8.793902397155762,0.08379705995321274
1788049455642398700,16.638398681640624,1.7094600200653076,8.959102630615234,0.16998831927776337
1788049455658052600,16.654052490234374,2.2457611560821533,9.129091262817383,0.33279404044151306
1788049455674269400,16.67026953125,2.7437551021575928,9.30386734008789,0.38067805767059326
1788049455690519300,16.686519287109373,3.157952070236206,9.402029991149902,0.3495534360408783
1788049455706314000,16.70231396484375,3.2393548488616943,9.411606788635254,0.33279404044151306
1788049455722574600,16.71857470703125,3.272873640060425,9.394847869873047,0.4118026793003082
1788049455738588200,16.734588134765627,3.134010076522827,9.260771751403809,0.4357447028160095
1788049455754406100,16.75040625,2.8562827110290527,9.263166427612305,0.3758896589279175
1788049455770451000,16.766450927734375,2.38462495803833,9.253589630126953,0.26096799969673157
1788049455786273800,16.782273681640625,1.742978811264038,9.337387084960938,0.1412578970193863
1788049455802615000,16.798614990234373,1.41257905960083,9.397241592407227,0.2106897532939911
1788049455818348800,16.814348876953126,1.381454348564148,9.531316757202148,0.35434186458587646
1788049455834312700,16.830312744140624,1.6160861253738403,9.713275909423828,0.44771572947502136
1788049455850634200,16.84663427734375,1.8267759084701538,9.859322547912598,0.3902548849582672
1788049455866410200,16.86241015625,1.946485996246338,9.986215591430664,0.3998316824436188
1788049455882916900,16.878916748046876,2.169146776199341,10.160991668701172,0.5937620401382446
1788049455898657800,16.89465771484375,2.434903144836426,10.194510459899902,0.7230489253997803
1788049455914505000,16.9105048828125,2.8826189041137695,10.244789123535156,0.6440402865409851
1788049455930813400,16.9268134765625,3.138798475265503,10.316615104675293,0.45489832758903503
1788049455946702300,16.942702392578123,2.82515811920166,10.615890502929688,0.24899697303771973
1788049455962987300,16.9589873046875,2.0207061767578125,10.833763122558594,-0.08619125932455063
1788049455978700500,16.974700439453127,1.3263877630233765,11.075576782226562,-0.5171475410461426
1788049455994935000,16.99093505859375,1.5658079385757446,11.27190113067627,-0.6105214357376099
1788049456011034000,17.0070341796875,2.513911724090576,11.17852783203125,-0.5841852426528931
1788049456026926000,17.022926025390625,3.667917013168335,10.936713218688965,-0.8810662031173706
1788049456043204600,17.03920458984375,4.800374507904053,10.60152530670166,-0.9289502501487732
1788049456058983200,17.054983154296874,5.70777702331543,10.132261276245117,-1.0749965906143188
1788049456075032000,17.071031982421875,6.038176536560059,9.5624418258667,-1.094150185585022
1788049456091226000,17.08722607421875,5.544970989227295,9.02135181427002,-1.0534487962722778
1788049456107073000,17.103072998046876,4.4508209228515625,8.47547435760498,-0.7757213711738586
1788049456123441000,17.11944091796875,3.3423056602478027,8.159439086914062,-0.5841852426528931
1788049456139597300,17.135597412109377,2.1715409755706787,8.128314971923828,-0.38307225704193115
1788049456155226400,17.151226318359374,1.0773907899856567,8.362946510314941,-0.33039984107017517
1788049456171610400,17.1676103515625,0.5770025849342346,8.681375503540039,-0.33039984107017517
1788049456187323000,17.183322998046876,0.9840168952941895,8.975862503051758,-0.5434837937355042
1788049456203683300,17.199683349609376,1.9847931861877441,9.11233139038086,-0.5410895943641663
1788049456219343600,17.215343505859376,3.0119056701660156,9.253589630126953,-0.40462008118629456
1788049456235483000,17.23148291015625,3.907337188720703,9.454702377319336,-0.5578489899635315
1788049456251702800,17.247702880859375,4.797980308532715,9.543288230895996,-0.6057330369949341
1788049456267492900,17.263492919921877,5.363011837005615,9.435548782348633,-0.2059013396501541
1788049456283896800,17.279896728515624,5.037400245666504,9.141061782836914,0.3423708379268646
1788049456299697400,17.295697509765624,4.082113742828369,8.853757858276367,0.6751648783683777
1788049456315614700,17.31161474609375,3.0765492916107178,8.609549522399902,0.7972691655158997
1788049456331931600,17.327931640625,2.10210919380188,8.389283180236816,0.8212111592292786
1788049456347887600,17.3438876953125,1.3551181554794312,8.355764389038086,0.7541735172271729
1788049456364266800,17.360266845703126,0.9313444495201111,8.461109161376953,0.7086837291717529
1788049456379886800,17.375886962890625,0.8523358106613159,8.614337921142578,0.5123591423034668
1788049456396343000,17.392343017578124,1.216254472732544,8.808267593383789,0.33758243918418884
1788049456412178000,17.408177978515624,1.7334020137786865,9.074024200439453,0.002394201699644327
1788049456427970000,17.423969970703126,2.3080103397369385,9.260771751403809,-0.10055647045373917
1788049456444344800,17.4403447265625,2.7557260990142822,9.476250648498535,-0.26096799969673157
1788049456460090400,17.45609033203125,2.978386878967285,9.59835433959961,-0.4596867263317108
1788049456476102100,17.47210205078125,3.1507694721221924,9.706093788146973,-0.5434837937355042
1788049456492391000,17.488390869140623,3.3279404640197754,9.696516990661621,-0.6416460275650024
1788049456508390000,17.504389892578125,3.3710360527038574,9.691728591918945,-0.6584054827690125
1788049456524675000,17.520675048828124,3.1914708614349365,9.653421401977539,-0.5219359993934631
1788049456540531200,17.53653125,2.8131868839263916,9.694122314453125,-0.3471592366695404
1788049456556324400,17.552324462890624,2.410961151123047,9.739612579345703,-0.18914192914962769
1788049456572649200,17.568649169921876,2.049436569213867,9.84495735168457,-0.05267243832349777
1788049456588522200,17.584522216796874,1.9369091987609863,9.988609313964844,0.14365209639072418
1788049456604745700,17.600745849609375,1.9033904075622559,10.055646896362305,0.3758896589279175
1788049456620476200,17.61647607421875,1.9847931861877441,10.134655952453613,0.6631938815116882
1788049456636478500,17.632478515625,2.094926595687866,10.17296314239502,0.7781155705451965
1788049456652963300,17.64896337890625,2.3247697353363037,10.235212326049805,0.5937620401382446
1788049456668543000,17.66454296875,2.652775526046753,10.299856185913086,0.24420857429504395
1788049456685049300,17.68104931640625,2.695871114730835,10.577583312988281,-0.181959331035614
1788049456700646400,17.696646484375,2.097320795059204,10.972626686096191,-0.42856210470199585
1788049456716602600,17.7126025390625,1.2880805730819702,11.092336654663086,-0.17477671802043915
1788049456732893400,17.7288935546875,1.1659762859344482,11.276689529418945,0.37828385829925537
1788049456748709000,17.744709228515624,2.2002713680267334,11.338939666748047,1.161187767982483
1788049456765075700,17.76107568359375,3.751713991165161,11.025299072265625,1.9943699836730957
1788049456780818400,17.776818359375,5.3127336502075195,10.498574256896973,2.2888567447662354
1788049456796834600,17.79283447265625,5.942408561706543,9.871294021606445,1.8746598958969116
1788049456813114000,17.809114013671874,5.264849662780762,9.339780807495117,1.259350061416626
1788049456828940300,17.824940185546875,3.9384617805480957,8.801085472106934,0.6153098344802856
1788049456845441000,17.84144091796875,3.1028854846954346,8.346187591552734,0.24899697303771973
1788049456861071400,17.8570712890625,2.6001031398773193,7.886500358581543,-0.23702596127986908
1788049456877074400,17.873074462890624,2.145204782485962,7.85537576675415,-0.4429273009300232
1788049456893486800,17.88948681640625,1.8555063009262085,7.857769966125488,-0.7134721279144287
1788049456909179000,17.905178955078124,1.3503297567367554,8.202534675598145,-0.35913026332855225
1788049456925547500,17.921547607421875,1.237802267074585,8.504204750061035,0.047884032130241394
1788049456941264600,17.9372646484375,1.6065093278884888,8.710105895996094,0.5530605912208557
1788049456957720600,17.953720458984375,2.315192937850952,9.074024200439453,0.6871358752250671
1788049456973583600,17.96958349609375,3.3470940589904785,9.399636268615723,0.7565677165985107
1788049456989355300,17.985355224609375,4.776432514190674,9.53849983215332,1.1563993692398071
1788049457005715200,18.001715087890624,5.947196960449219,9.493009567260742,1.6328455209732056
1788049457021452500,18.01745263671875,6.289567947387695,9.337387084960938,1.6376339197158813
1788049457037432800,18.033432861328127,5.353435039520264,9.160215377807617,0.9983820915222168
1788049457053726000,18.049725830078124,3.93367338180542,8.995016098022461,0.3423708379268646
1788049457069502700,18.065502685546875,2.913743495941162,8.834604263305664,0.033518824726343155
1788049457085922600,18.081922607421873,2.52109432220459,8.616731643676758,-0.040701430290937424
1788049457101705700,18.097705810546874,2.367865562438965,8.520963668823242,-0.004788403399288654
1788049457117753900,18.11375390625,2.3032219409942627,8.516175270080566,0.10534487664699554
1788049457134076200,18.130076171875,2.229001760482788,8.561665534973145,0.2825157940387726
1788049457149815000,18.14581494140625,2.0254945755004883,8.757989883422852,0.43335050344467163
1788049457166331000,18.162330810546877,1.8555063009262085,9.002198219299316,0.5291185975074768
1788049457181920300,18.177920166015625,1.9177556037902832,9.251194953918457,0.6536170840263367
1788049457198071300,18.1940712890625,2.296039342880249,9.428366661071777,0.730231523513794
1788049457214400500,18.210400390625,2.6575639247894287,9.57201862335205,0.8834604024887085
1788049457230388000,18.226387939453126,3.1435868740081787,9.670180320739746,0.8379706144332886
1788049457246492000,18.242491943359376,3.5170822143554688,9.744400978088379,0.6536170840263367
1788049457262318000,18.258318115234374,3.7253777980804443,9.708487510681152,0.2849099934101105
1788049457278044400,18.27404443359375,3.8546648025512695,9.710882186889648,-0.3495534360408783
1788049457294428400,18.290428466796875,3.804386615753174,9.62947940826416,-0.8523358106613159
1788049457310282800,18.30628271484375,3.5266590118408203,9.586383819580078,-1.072602391242981
1788049457326614500,18.322614501953126,3.308786630630493,9.567230224609375,-1.1085153818130493
1788049457342359000,18.338359130859374,3.203441858291626,9.524134635925293,-1.0031704902648926
1788049457358370300,18.354370361328126,2.9975404739379883,9.411606788635254,-0.5937620401382446
1788049457374642000,18.370641845703126,2.806004285812378,9.296685218811035,-0.1364694982767105
1788049457390613500,18.386613525390626,2.8610711097717285,9.222464561462402,0.21547815203666687
1788049457406842000,18.402842041015624,2.9017724990844727,9.23443603515625,0.2944868206977844
1788049457422553900,18.418553955078124,2.779668092727661,9.30386734008789,0.304063618183136
1788049457438896000,18.434896240234377,2.499546527862549,9.41639518737793,0.38307225704193115
1788049457454809000,18.45080908203125,2.1140801906585693,9.615114212036133,0.5123591423034668
1788049457471128300,18.46712841796875,1.8507179021835327,9.93354320526123,0.6153098344802856
1788049457487075600,18.48307568359375,1.3215993642807007,10.321403503417969,0.7422025203704834
1788049457502781400,18.498781494140626,1.1013327836990356,10.520122528076172,0.7924807667732239
1788049457518762800,18.5147626953125,1.6855180263519287,10.690110206604004,0.7757213711738586
1788049457535043300,18.531043212890626,3.0095114707946777,10.539276123046875,0.38307225704193115
1788049457550797600,18.546797607421876,4.2544965744018555,10.259154319763184,-0.004788403399288654
1788049457567177700,18.563177734375,4.886565685272217,9.871294021606445,-0.4596867263317108
1788049457582915300,18.578915283203123,4.793191909790039,9.418789863586426,-0.5123591423034668
1788049457599050000,18.595050048828124,3.9049429893493652,9.160215377807617,-0.4381389021873474
1788049457615168800,18.611168701171874,2.8227639198303223,8.954314231872559,-0.507570743560791
1788049457631078700,18.62707861328125,2.140416383743286,8.83699893951416,-0.3926490843296051
1788049457647466200,18.64346630859375,1.9512743949890137,8.779537200927734,0.05027823522686958
1788049457663084300,18.659084228515624,1.900996208190918,8.801085472106934,0.45250412821769714
1788049457679174100,18.675174072265627,1.9393033981323242,8.83939266204834,0.7709329724311829
1788049457695352000,18.69135205078125,2.0015525817871094,8.96149730682373,0.8331822156906128
1788049457711149600,18.707149658203125,2.03507137298584,9.100360870361328,0.689530074596405
1788049457727658500,18.723658447265624,2.0374655723571777,9.272743225097656,0.33997663855552673
1788049457743310800,18.739310791015626,2.1954829692840576,9.378087997436523,0.08619125932455063
1788049457759244800,18.755244873046873,2.583343744277954,9.418789863586426,-0.10055647045373917
1788049457775683600,18.77168359375,3.136404275894165,9.442731857299805,-0.22026655077934265
1788049457791344600,18.7873447265625,3.6511576175689697,9.41639518737793,-0.3711012601852417
1788049457807723000,18.803722900390625,3.861847400665283,9.387664794921875,-0.6392518281936646
1788049457823468500,18.819468505859376,3.713406801223755,9.390059471130371,-0.9576807022094727
1788049457839471000,18.83547119140625,3.378218650817871,9.354146003723145,-1.213860273361206
1788049457855787800,18.851787841796874,2.9951462745666504,9.368511199951172,-1.1061211824417114
1788049457871466000,18.867466064453126,2.7485435009002686,9.320627212524414,-0.7493851184844971
1788049457887839000,18.8838388671875,2.540247917175293,9.287108421325684,-0.21308395266532898
1788049457903543800,18.899543701171876,2.5450363159179688,9.272743225097656,0.12928688526153564
1788049457919564000,18.91556396484375,2.698265314102173,9.26795482635498,0.30885201692581177
1788049457935911400,18.931911376953124,2.492363929748535,9.320627212524414,0.33758243918418884
1788049457951661000,18.9476611328125,2.1284453868865967,9.366117477416992,0.26096799969673157
1788049457968007400,18.96400732421875,1.764526605606079,9.497797966003418,0.12928688526153564
1788049457984188000,18.98018798828125,1.6424223184585571,9.627084732055664,-0.07182604819536209
1788049457999749000,18.9957490234375,1.9273324012756348,9.739612579345703,-0.3758896589279175
1788049458016011500,19.012011474609373,2.5115175247192383,9.856928825378418,-0.6584054827690125
1788049458031815400,19.0278154296875,3.3016040325164795,9.947908401489258,-0.8930372595787048
1788049458048208600,19.044208740234374,3.801992416381836,9.914389610290527,-0.9744400978088379
1788049458063914200,19.059914306640625,4.072536945343018,9.835380554199219,-0.9289502501487732
1788049458079909000,19.0759091796875,4.022258758544922,9.6989107131958,-0.912190854549408
1788049458096251100,19.092251220703126,3.797203779220581,9.603142738342285,-0.9409212470054626
1788049458112000800,19.108000732421875,3.3949780464172363,9.44991397857666,-0.9528923034667969
1788049458128341500,19.124341552734375,3.0310592651367188,9.332598686218262,-0.871489405632019
1788049458144071700,19.14007177734375,2.762908697128296,9.186552047729492,-0.6129156351089478
1788049458160059000,19.156058837890626,2.4660277366638184,9.11233139038086,-0.4189853072166443
1788049458176330800,19.172330810546875,2.3295583724975586,9.071630477905273,-0.29209262132644653
1788049458192258000,19.188258056640624,2.341529369354248,9.141061782836914,-0.2753331959247589
1788049458208522800,19.204522705078126,2.454056739807129,9.263166427612305,-0.4668693244457245
1788049458224261400,19.220261474609377,2.4157495498657227,9.452308654785156,-0.706289529800415
1788049458240270000,19.23627001953125,2.4684219360351562,9.653421401977539,-0.8403648138046265
1788049458256614400,19.252614501953126,2.6216509342193604,9.77791976928711,-0.7254431247711182
1788049458272419600,19.268419677734375,3.071760892868042,9.835380554199219,-0.5817909836769104
1788049458288907300,19.2849072265625,3.514688014984131,9.828198432922363,-0.5722141861915588
1788049458304547800,19.3005478515625,3.6774938106536865,9.775525093078613,-0.6607996821403503
1788049458320748800,19.316748779296876,3.464409828186035,9.6989107131958,-0.6033388376235962
1788049458337038800,19.333038818359373,3.0334534645080566,9.624691009521484,-0.5746083855628967
1788049458352659700,19.34865966796875,2.540247917175293,9.548076629638672,-0.6512228846549988
1788049458369133300,19.36513330078125,2.1763293743133545,9.526528358459473,-0.751779317855835
1788049458384909300,19.380909423828125,2.0685901641845703,9.545681953430176,-0.9313444495201111
1788049458401019600,19.39701953125,2.3127987384796143,9.524134635925293,-1.0749965906143188
1788049458417036000,19.4130361328125,2.499546527862549,9.519346237182617,-1.161187767982483
1788049458432845800,19.428845703125,2.516305923461914,9.461885452270508,-1.4532804489135742
1788049458449314300,19.445314208984374,2.669534921646118,9.461885452270508,-1.7166426181793213
1788049458464897000,19.46089697265625,2.762908697128296,9.433155059814453,-1.920149803161621
1788049458480858400,19.4768583984375,2.5498247146606445,9.445125579833984,-2.094926595687866
1788049458497138200,19.49313818359375,2.494758129119873,9.512163162231445,-1.9800047874450684
1788049458512882000,19.5088818359375,2.427720546722412,9.512163162231445,-2.0183119773864746
1788049458529386200,19.52538623046875,2.6599581241607666,9.603142738342285,-1.8315643072128296
1788049458545442600,19.541442626953124,2.9233202934265137,9.545681953430176,-1.766920804977417
1788049458560983300,19.5569833984375,3.050212860107422,9.624691009521484,-1.4963760375976562
1788049458577301500,19.573301513671876,2.829946517944336,9.770736694335938,-1.3024457693099976
1788049458593083000,19.589082763671875,2.5258827209472656,9.888052940368652,-1.173158884048462
1788049458609511200,19.60551123046875,2.427720546722412,9.923966407775879,-1.0438719987869263
1788049458625191700,19.621191650390625,2.7054479122161865,9.84495735168457,-0.950498104095459
1788049458641247700,19.637247802734375,3.1938650608062744,9.655815124511719,-0.8595184087753296
1788049458657474600,19.653474609375,3.5482068061828613,9.41639518737793,-0.7422025203704834
1788049458673391900,19.669391845703124,3.44765043258667,9.263166427612305,-0.8307880163192749
1788049458689654300,19.685654296875,2.9903578758239746,9.215282440185547,-1.1444283723831177
1788049458705378300,19.70137841796875,2.669534921646118,9.260771751403809,-1.3024457693099976
1788049458721362200,19.717362060546876,2.6024973392486572,9.260771751403809,-1.1492167711257935
1788049458737644800,19.733644775390626,2.6024973392486572,9.30386734008789,-0.7829039692878723
1788049458753446700,19.74944677734375,2.47560453414917,9.313444137573242,-0.24181437492370605
1788049458769827300,19.765827392578124,2.051830768585205,9.385271072387695,0.09576806426048279
1788049458785517300,19.781517333984375,1.45806884765625,9.591172218322754,0.22505496442317963
1788049458801953000,19.797953125,1.3120225667953491,9.835380554199219,0.19871874153614044
1788049458817784600,19.81378466796875,1.7094600200653076,9.95748519897461,0.002394201699644327
1788049458833680000,19.829679931640626,2.3582887649536133,10.055646896362305,-0.22266076505184174
1788049458849970200,19.84597021484375,3.0837318897247314,10.101137161254883,-0.3902548849582672
1788049458866060000,19.86206005859375,3.3901896476745605,9.952696800231934,-0.40462008118629456
1788049458881652500,19.877652587890626,3.3854012489318848,9.919178009033203,-0.6991068720817566
1788049458897985500,19.893985595703125,3.4308910369873047,9.75397777557373,-0.8307880163192749
1788049458913814500,19.909814453125,3.5482068061828613,9.485827445983887,-0.9169792532920837
1788049458930270200,19.926270263671874,3.687070608139038,9.155426979064941,-0.9217676520347595
1788049458945887000,19.941886962890624,3.6080620288848877,8.78432559967041,-0.7637503147125244
1788049458961892900,19.957892822265624,3.1651346683502197,8.585607528686523,-0.6607996821403503
1788049458978266000,19.97426611328125,2.5522189140319824,8.425195693969727,-0.507570743560791
1788049458993939200,19.989939208984374,2.1523873805999756,8.307879447937012,-0.40940847992897034
1788049459010439000,20.00643896484375,2.2002713680267334,8.276755332946777,-0.33279404044151306
1788049459026278100,20.022278076171876,2.5258827209472656,8.288725852966309,-0.2513911724090576
1788049459042523100,20.038523193359374,2.9257144927978516,8.473079681396484,-0.26336219906806946
1788049459058548200,20.05454833984375,3.179499864578247,8.614337921142578,-0.40701428055763245
1788049459074301000,20.070301025390624,3.2393548488616943,8.877699851989746,-0.5793967843055725
1788049459090537500,20.086537353515624,3.332728862762451,9.150638580322266,-0.8690952062606812
1788049459106281500,20.102281494140627,3.7493197917938232,9.41639518737793,-1.2090718746185303
1788049459122282200,20.1182822265625,4.37420654296875,9.651026725769043,-1.4987702369689941
1788049459138506000,20.134506103515626,5.403713226318359,9.876082420349121,-1.599326729774475
1788049459154261500,20.150261474609376,6.253654956817627,9.974244117736816,-1.1827356815338135
1788049459170640600,20.166640625,6.3302693367004395,9.919178009033203,-0.629675030708313
1788049459186331100,20.1823310546875,6.256049156188965,9.897629737854004,-0.35673606395721436
1788049459202335500,20.19833544921875,5.770026206970215,9.691728591918945,0.07422025501728058
1788049459218665200,20.214665283203125,5.236119270324707,9.75637149810791,0.0071826050989329815
1788049459234466800,20.230466796875,4.321534156799316,9.751583099365234,0.1364694982767105
1788049459250832600,20.24683251953125,3.4955344200134277,9.837775230407715,-0.090979665517807
1788049459266597400,20.262597412109375,3.1435868740081787,9.794678688049316,-0.6344634294509888
1788049459282581200,20.278581298828126,3.5889084339141846,9.634267807006836,-1.1228805780410767
1788049459298845000,20.294844970703124,4.424484729766846,9.349357604980469,-1.381454348564148
1788049459314679300,20.31067919921875,5.1116204261779785,8.973467826843262,-1.403002142906189
1788049459331113000,20.327113037109374,5.023035049438477,8.69095230102539,-1.2641384601593018
1788049459346739000,20.342739013671874,4.405331134796143,8.588001251220703,-1.290474772453308
1788049459363220200,20.35922021484375,3.689464807510376,8.671798706054688,-1.3407529592514038
1788049459379060000,20.37506005859375,3.4380736351013184,8.829815864562988,-1.1827356815338135
1788049459394869000,20.390868896484374,3.3446998596191406,9.014169692993164,-1.1228805780410767
1788049459411259100,20.407259033203125,3.248931646347046,9.258378028869629,-0.9816226959228516
1788049459426948400,20.4229482421875,3.157952070236206,9.39245319366455,-0.8451532125473022
1788049459442957800,20.438957763671876,3.3734302520751953,9.39245319366455,-0.7948749661445618
1788049459459220700,20.455220703125,3.6966474056243896,9.241618156433105,-0.5937620401382446
1788049459475033300,20.471033447265626,4.055777549743652,9.167398452758789,-0.6727706789970398
1788049459491378700,20.487378662109375,3.9863457679748535,9.119514465332031,-1.0127472877502441
1788049459507109600,20.503109619140623,3.670311212539673,9.174580574035645,-1.3407529592514038
1788049459523076600,20.51907666015625,3.0813376903533936,9.251194953918457,-1.4101848602294922
1788049459539349800,20.535349853515626,2.7269957065582275,9.263166427612305,-1.3623007535934448
1788049459555110400,20.5511103515625,2.5043349266052246,9.224859237670898,-1.0462661981582642
1788049459571524900,20.56752490234375,2.2002713680267334,9.248801231384277,-0.6943184733390808
1788049459587225300,20.583225341796876,2.011129379272461,9.27034854888916,-0.40222588181495667
1788049459603216000,20.5992158203125,1.8195933103561401,9.339780807495117,-0.3711012601852417
1788049459619774000,20.61577392578125,2.0015525817871094,9.394847869873047,-0.26815059781074524
1788049459635270100,20.631270263671876,2.4157495498657227,9.464279174804688,-0.3878606855869293
