time,seconds_elapsed,z,y,x
1788679264651313200,0.150313232421875,0.24740123748779297,0.0724107027053833,0.01930413395166397
1788679264667586600,0.166586669921875,0.34765052795410156,0.0392841100692749,-0.07944776117801666
1788679264683730000,0.18272998046875,0.13917922973632812,0.09360325336456299,-0.05500844120979309
1788679264699903000,0.198903076171875,0.13665771484375,0.11885285377502441,-0.08783099055290222
1788679264716056300,0.215056396484375,0.4046916961669922,0.0961456298828125,-0.048806771636009216
1788679264732197000,0.231197021484375,0.2752819061279297,0.0734710693359375,0.10726049542427063
1788679264748406800,0.24740673828125,-0.4980640411376953,0.05226707458496094,0.1857016235589981
1788679264764551200,0.26355126953125,-0.9096355438232422,0.06500720977783203,-0.09778459370136261
1788679264780723200,0.27972314453125,-0.3969917297363281,0.04875326156616211,-0.08537724614143372
1788679264796876000,0.2958759765625,0.30997371673583984,0.02922070026397705,0.11666768044233322
1788679264813026800,0.31202685546875,0.9142627716064453,-0.003510117530822754,0.028408780694007874
1788679264829242600,0.32824267578125,0.9603605270385742,-0.0020781755447387695,0.1125454232096672
1788679264845390000,0.34439013671875,0.8126411437988281,0.0601654052734375,0.14358454942703247
1788679264861563600,0.360563720703125,0.44434642791748047,0.05749046802520752,0.07180358469486237
1788679264877716500,0.376716552734375,0.1606912612915039,0.05793631076812744,0.036429598927497864
1788679264893875200,0.392875244140625,0.13706016540527344,0.052496910095214844,0.006174951791763306
1788679264910048300,0.40904833984375,0.8332986831665039,0.12725114822387695,-0.046997979283332825
1788679264926194400,0.4251943359375,1.1371660232543945,0.04533946514129639,0.008379817008972168
1788679264942366500,0.441366455078125,0.7247200012207031,-0.2276495099067688,0.10583838820457458
1788679264958516200,0.45751611328125,-0.16431236267089844,-0.11460578441619873,0.06697236001491547
1788679264974646000,0.47364599609375,-0.5839042663574219,0.11019027233123779,-0.0659213662147522
1788679264990827300,0.4898271484375,-0.6366128921508789,0.16223764419555664,-0.08765570819377899
1788679265006971400,0.505971435546875,-0.33245372772216797,-0.08099985122680664,-0.05220577120780945
1788679265023142700,0.522142578125,0.047069549560546875,-0.2440270185470581,0.04220178723335266
1788679265039295200,0.538295166015625,0.32415008544921875,-0.16534137725830078,-0.0903712660074234
1788679265055436300,0.554436279296875,0.4449167251586914,-0.03874635696411133,-0.15852336585521698
1788679265071634200,0.57063427734375,0.2733116149902344,0.06380593776702881,-0.04911419749259949
1788679265087782000,0.586781982421875,0.3548603057861328,0.23725616931915283,-0.10246223211288452
1788679265103955500,0.60295556640625,0.7023563385009766,0.10271525382995605,-0.2099875807762146
1788679265120106200,0.619106201171875,0.8057641983032227,0.0076552629470825195,-0.26964518427848816
1788679265136237000,0.635237060546875,0.7812376022338867,-0.1520911455154419,-0.3640254735946655
1788679265152439600,0.651439453125,0.2826662063598633,-0.36138129234313965,-0.0938708484172821
1788679265168583400,0.66758349609375,-0.38562583923339844,-0.2829858064651489,0.10056926310062408
1788679265184753700,0.683753662109375,-0.6278905868530273,-0.1193387508392334,-0.03743906319141388
1788679265200904000,0.699904052734375,-0.31209564208984375,-0.060810208320617676,-0.19299618899822235
1788679265217037600,0.71603759765625,-0.06180381774902344,-0.12978756427764893,-0.0687759518623352
1788679265233204000,0.732203857421875,0.3385801315307617,-0.30323493480682373,0.1765047162771225
1788679265249349000,0.74834912109375,0.45951366424560547,-0.3539602756500244,-0.0978422462940216
1788679265265519400,0.764519287109375,0.18294906616210938,-0.03570055961608887,-0.15324877202510834
1788679265281670100,0.780670166015625,0.018364906311035156,0.0474085807800293,-0.2285800576210022
1788679265297803300,0.79680322265625,0.02223491668701172,-0.06193888187408447,0.1377236694097519
1788679265313996800,0.812996826171875,-0.05914592742919922,-0.003415346145629883,-0.152186781167984
1788679265330140400,0.829140380859375,-0.4553489685058594,-0.043157100677490234,-0.20519879460334778
1788679265346305800,0.845305908203125,-0.37288665771484375,-0.07249128818511963,-0.04036685824394226
1788679265362454800,0.861454833984375,0.0011386871337890625,-0.0737389326095581,-0.3087119460105896
1788679265378585000,0.877585205078125,0.9361066818237305,0.12237608432769775,-0.38480132818222046
1788679265394761500,0.893761474609375,1.0357341766357422,0.09179913997650146,-0.5977978110313416
1788679265410905600,0.909905517578125,0.5421581268310547,0.0036094188690185547,-0.3931298851966858
1788679265427074600,0.926074462890625,0.00969696044921875,0.04394376277923584,-0.06808257102966309
1788679265443222300,0.94222216796875,-0.5315217971801758,0.024388551712036133,-0.0558856725692749
1788679265459357200,0.958357177734375,-1.1042852401733398,-0.13024258613586426,0.022410035133361816
1788679265475543600,0.97454345703125,-2.5815296173095703,0.060361266136169434,-0.24537038803100586
1788679265491689700,0.990689697265625,-0.3656120300292969,0.23846185207366943,0.09409558773040771
1788679265507862500,1.006862548828125,0.9843521118164062,-0.17766165733337402,0.1272677779197693
1788679265524011500,1.023011474609375,1.8383874893188477,-0.11779916286468506,-0.07526028156280518
1788679265540146200,1.039146240234375,1.6355667114257812,-0.06836938858032227,-0.09095937013626099
1788679265556340200,1.05534033203125,0.6794090270996094,-0.124916672706604,0.08051294088363647
1788679265572483600,1.071483642578125,-0.06611156463623047,0.09450352191925049,-0.1401759386062622
1788679265588650500,1.087650390625,-0.19238853454589844,0.20174181461334229,-0.20095819234848022
1788679265604797200,1.103797119140625,0.050701141357421875,0.12383043766021729,-0.08449804782867432
1788679265620927200,1.11992724609375,0.1680002212524414,0.03756427764892578,-0.09040218591690063
1788679265637133600,1.136133544921875,0.21784496307373047,0.060324668884277344,-0.0885811448097229
1788679265653274000,1.152274169921875,0.21983718872070312,0.11509060859680176,-0.05323219299316406
1788679265669443800,1.16844384765625,0.3562431335449219,0.0635528564453125,-0.05140203237533569
1788679265685591000,1.184591064453125,0.5484075546264648,0.03932344913482666,0.04891687631607056
1788679265701745400,1.200745361328125,0.4308815002441406,0.012700557708740234,0.03515768051147461
1788679265717912600,1.21691259765625,0.11840343475341797,-0.0005584955215454102,-0.02004033327102661
1788679265734058500,1.23305859375,0.1796436309814453,0.01111447811126709,-0.0018811821937561035
1788679265750229200,1.249229248046875,0.13538837432861328,-0.02866649627685547,-0.011915504932403564
1788679265766383400,1.26538330078125,-0.0000782012939453125,-0.05666184425354004,-0.02437770366668701
1788679265782541000,1.281541015625,0.06034278869628906,-0.0378495454788208,0.002843141555786133
1788679265798714400,1.29771435546875,0.2304697036743164,-0.025650620460510254,0.07722336053848267
1788679265814854400,1.3138544921875,0.22812843322753906,-0.061264991760253906,-0.003086775541305542
1788679265831026400,1.3300263671875,0.08237838745117188,-0.05261707305908203,-0.008735299110412598
1788679265847178500,1.346178466796875,0.08537769317626953,-0.028186440467834473,0.00737723708152771
1788679265863345200,1.36234521484375,0.12177848815917969,-0.0013976097106933594,0.01617833971977234
1788679265879529000,1.378529052734375,-0.014171600341796875,-0.003778696060180664,-0.052682191133499146
1788679265895678500,1.394678466796875,0.06250762939453125,0.05552399158477783,-0.07166421413421631
1788679265911850500,1.4108505859375,0.13894271850585938,0.06071043014526367,0.015303164720535278
1788679265928001300,1.427001220703125,0.09070396423339844,0.05877840518951416,-0.07636314630508423
1788679265944134400,1.443134521484375,0.01611804962158203,0.026604652404785156,-0.014396309852600098
1788679265960325600,1.45932568359375,0.04178810119628906,0.09221005439758301,0.1514992117881775
1788679265976468000,1.475468017578125,-0.09556293487548828,0.09140491485595703,0.17576150596141815
1788679265992637200,1.49163720703125,-0.09662437438964844,0.09424769878387451,0.10479974746704102
1788679266008781300,1.50778125,-0.055316925048828125,0.11318314075469971,0.09571701288223267
1788679266024912600,1.52391259765625,-0.07923603057861328,0.06390810012817383,0.08259066939353943
1788679266041112000,1.540112060546875,-0.0007381439208984375,0.05864369869232178,0.09865611791610718
1788679266057257500,1.556257568359375,0.14422321319580078,0.03995823860168457,0.0969843864440918
1788679266073429200,1.57242919921875,0.38718318939208984,0.03950226306915283,0.10358482599258423
1788679266089580500,1.58858056640625,0.5493412017822266,0.019446253776550293,0.05479198694229126
1788679266105713200,1.604713134765625,0.5115957260131836,0.006970643997192383,0.047708481550216675
1788679266121920500,1.62092041015625,0.30490684509277344,0.014440298080444336,0.11819325387477875
1788679266138064400,1.637064453125,0.16580867767333984,0.12615728378295898,0.007506877183914185
1788679266154230500,1.65323046875,0.09128761291503906,0.18544423580169678,0.08931180834770203
1788679266170380300,1.66938037109375,-0.07434558868408203,0.028265953063964844,0.11200754344463348
1788679266186511600,1.68551171875,-0.20475101470947266,-0.004381299018859863,0.13422492146492004
1788679266202721800,1.7017216796875,-0.12050247192382812,0.19406044483184814,0.18717962503433228
1788679266218860300,1.7178603515625,-0.027075767517089844,0.18074488639831543,0.041850000619888306
1788679266235025700,1.734025634765625,-0.02251911163330078,0.197623610496521,0.06601224839687347
1788679266251172900,1.7501728515625,-0.01837444305419922,0.17778348922729492,0.126351997256279
1788679266267313000,1.76631298828125,-0.00005817413330078125,0.15404582023620605,0.20965959131717682
1788679266283531300,1.78253125,0.2812957763671875,0.13847899436950684,0.22477278113365173
1788679266299679500,1.798679443359375,0.26096057891845703,0.06437897682189941,0.1763407588005066
1788679266315853300,1.814853271484375,0.19793033599853516,0.09470927715301514,0.20583316683769226
1788679266332006400,1.83100634765625,0.14242935180664062,0.12783634662628174,0.40040621161460876
1788679266348142000,1.84714208984375,0.1471242904663086,0.16708910465240479,0.4177473783493042
1788679266364323300,1.8633232421875,0.2476663589477539,0.14512598514556885,0.3188057839870453
1788679266380468500,1.879468505859375,0.38201904296875,0.1107323169708252,0.22578641772270203
1788679266396639700,1.8956396484375,0.2561960220336914,0.22052621841430664,0.26972463726997375
1788679266412792000,1.9117919921875,0.035381317138671875,0.2903367280960083,0.14688099920749664
1788679266428928800,1.9279287109375,0.013354301452636719,0.27453577518463135,0.047875553369522095
1788679266445117700,1.94411767578125,0.29274463653564453,0.21761131286621094,0.012756824493408203
1788679266461264600,1.9602646484375,0.36836910247802734,0.11634600162506104,-0.17113463580608368
1788679266477440500,1.9764404296875,0.17628765106201172,0.09420764446258545,-0.4282658100128174
1788679266493595000,1.992594970703125,0.008167266845703125,0.20144784450531006,-0.3544355034828186
1788679266509738000,2.008738037109375,-0.12434768676757812,0.28850650787353516,-0.15440088510513306
1788679266525931800,2.024931884765625,-0.12324714660644531,0.2545703649520874,-0.22958874702453613
1788679266542071800,2.04107177734375,-0.0703897476196289,0.15625011920928955,-0.3317231237888336
1788679266558239500,2.057239501953125,0.0008344650268554688,0.04298055171966553,-0.3044758439064026
1788679266574386700,2.07338671875,0.02479267120361328,-0.009394645690917969,-0.32098686695098877
1788679266590520300,2.089520263671875,0.2397470474243164,-0.00432741641998291,-0.18838483095169067
1788679266606722300,2.105722412109375,0.47107791900634766,-0.07515120506286621,-0.018177682533860207
1788679266622866700,2.12186669921875,0.4607563018798828,-0.16607582569122314,0.09587350487709045
1788679266639039000,2.1380390625,0.3843984603881836,-0.1660851240158081,0.19150927662849426
1788679266655209700,2.154209716796875,0.12691974639892578,-0.012108087539672852,0.07772482931613922
1788679266671362300,2.1703623046875,-0.027551651000976562,0.05758988857269287,-0.1260351836681366
1788679266687581000,2.186580810546875,0.011167526245117188,-0.0360943078994751,-0.26902228593826294
1788679266703728000,2.20272802734375,0.16607666015625,0.024335145950317383,-0.5858216285705566
1788679266719901700,2.218901611328125,0.13381290435791016,-0.054154038429260254,-0.8605539202690125
1788679266736055800,2.235055908203125,0.3602743148803711,0.032655954360961914,-0.7184817790985107
1788679266752211000,2.2512109375,0.3020200729370117,-0.005382657051086426,-0.6944891214370728
1788679266768382200,2.26738232421875,0.5429096221923828,0.3702125549316406,0.46475958824157715
1788679266784528000,2.28352783203125,0.6809892654418945,0.5252368450164795,0.2240622639656067
1788679266800695800,2.29969580078125,0.4876518249511719,0.35956257581710815,0.007226884365081787
1788679266816843500,2.315843505859375,0.2585487365722656,0.35640662908554077,-0.3549882769584656
1788679266833007400,2.33200732421875,-0.09896659851074219,0.3867449164390564,-0.6245577931404114
1788679266849187600,2.3481875,-0.22599124908447266,0.5007737874984741,-0.6613451242446899
1788679266865331500,2.36433154296875,-0.3504486083984375,0.5433169603347778,-0.48365798592567444
1788679266881506300,2.38050634765625,-0.43099021911621094,0.5638718605041504,-0.21674680709838867
1788679266897657300,2.3966572265625,-0.4429759979248047,0.5841542482376099,0.07051840424537659
1788679266913791000,2.412791015625,-0.30339813232421875,0.5199308395385742,0.30259889364242554
1788679266929983700,2.428983642578125,-0.1342306137084961,0.4797297716140747,0.4004392921924591
1788679266946130400,2.44513037109375,-0.09951114654541016,0.49692702293395996,0.311178594827652
1788679266962303200,2.46130322265625,-0.10400867462158203,0.5333876609802246,0.03183060884475708
1788679266978454300,2.477454345703125,-0.109588623046875,0.5415562391281128,-0.273568719625473
1788679266994589000,2.4935888671875,-0.0796670913696289,0.52044677734375,-0.4164328873157501
1788679267010785300,2.509785400390625,0.05936622619628906,0.43222153186798096,-0.3402405381202698
1788679267026928600,2.5259287109375,0.1639871597290039,0.3518860340118408,-0.16232222318649292
1788679267043103000,2.54210302734375,0.3041400909423828,0.31645309925079346,-0.09754014015197754
1788679267059253200,2.558253173828125,0.21720504760742188,0.3237442970275879,-0.19661825895309448
1788679267075385000,2.574385009765625,-0.07925891876220703,0.36182332038879395,-0.41946887969970703
1788679267091594800,2.5905947265625,-0.1016225814819336,0.3980391025543213,-0.4594303369522095
1788679267107740400,2.606740478515625,-0.08538818359375,0.40842175483703613,-0.35473448038101196
1788679267123915500,2.62291552734375,0.04561901092529297,0.392184853553772,-0.21474981307983398
1788679267140071400,2.639071533203125,0.04001045227050781,0.3555479049682617,-0.2034529447555542
1788679267156209000,2.655208984375,-0.0035400390625,0.3384205102920532,-0.29250985383987427
1788679267172425700,2.67142578125,-0.0038433074951171875,0.3836175203323364,-0.26801663637161255
1788679267188575700,2.68757568359375,0.12906169891357422,0.3653390407562256,-0.11209046840667725
1788679267204756200,2.703756103515625,0.24607467651367188,0.2958378791809082,-0.04417085647583008
1788679267220908800,2.71990869140625,0.4257984161376953,0.22158324718475342,-0.03434467315673828
1788679267237042700,2.736042724609375,0.5751237869262695,0.1826162338256836,0.07546526193618774
1788679267253219600,2.752219482421875,0.6283760070800781,0.2328892946243286,0.09271219372749329
1788679267269368800,2.768368896484375,0.5483169555664062,0.2451571226119995,0.004942476749420166
1788679267285545500,2.78454541015625,0.4045581817626953,0.14380955696105957,-0.1202583909034729
1788679267301696500,2.800696533203125,0.1968250274658203,0.06510627269744873,-0.2428233027458191
1788679267317833000,2.8168330078125,0.2956409454345703,-0.06744503974914551,-0.21619048714637756
1788679267334015000,2.833014892578125,0.39489078521728516,-0.3263801336288452,-0.20144128799438477
1788679267350164700,2.849164794921875,0.7978487014770508,-0.3994894027709961,-0.05374103784561157
1788679267366341600,2.865341552734375,1.1602802276611328,-0.3476407527923584,-0.2007681131362915
1788679267382497000,2.8814970703125,0.9974002838134766,-0.3984032869338989,-0.6049376726150513
1788679267398643200,2.897643310546875,1.0110692977905273,-0.4750893712043762,-0.5418909788131714
1788679267414834400,2.91383447265625,1.0191011428833008,-0.5349646210670471,-0.2576168179512024
1788679267430982700,2.929982666015625,1.1041126251220703,-0.6439437866210938,0.3557221293449402
1788679267447153400,2.9461533203125,0.9651565551757812,-0.8443983197212219,1.042001724243164
1788679267463306200,2.96230615234375,0.8844661712646484,-0.943013072013855,1.3979382514953613
1788679267479441400,2.97844140625,0.5032415390014648,-0.9761362075805664,1.1986415386199951
1788679267495640600,2.994640625,0.011832237243652344,-0.9428109526634216,0.7288568019866943
1788679267511788800,3.010788818359375,-0.4410085678100586,-0.9512503743171692,0.3666650056838989
1788679267527964000,3.0269638671875,-0.6462631225585938,-0.9910719394683838,0.09381231665611267
1788679267544120600,3.04312060546875,-0.4436988830566406,-1.065706491470337,-0.17971396446228027
1788679267560259000,3.059259033203125,-0.1837139129638672,-1.0370819568634033,-0.46433570981025696
1788679267576465000,3.07546484375,0.00629425048828125,-0.9815677404403687,-0.647323727607727
1788679267592616200,3.0916162109375,0.25228023529052734,-0.9889666438102722,-0.8590750694274902
1788679267608794600,3.107794677734375,0.032978057861328125,-1.1627033948898315,-0.8284765481948853
1788679267624948000,3.123947998046875,-0.17594623565673828,-1.151239275932312,-0.5142709016799927
1788679267641095400,3.140095458984375,-0.7901859283447266,-1.2497687339782715,-0.24119222164154053
1788679267657310700,3.156310791015625,1.2101163864135742,-1.317544937133789,-0.5629448890686035
1788679267673457200,3.17245703125,1.3398733139038086,-0.7243705987930298,0.322640985250473
1788679267689627400,3.18862744140625,0.9550380706787109,-0.9145375490188599,1.4699146747589111
1788679267705779000,3.204779052734375,0.36797237396240234,-0.9784764051437378,1.5665289163589478
1788679267721936600,3.2209365234375,-0.2684440612792969,-0.5611998438835144,0.7954362034797668
1788679267738107400,3.237107421875,-0.45966053009033203,-0.39238160848617554,0.25566303730010986
1788679267754251800,3.253251708984375,-0.5506057739257812,-0.376592755317688,0.07905492186546326
1788679267770427100,3.26942724609375,-0.8171749114990234,-0.47274523973464966,0.12576276063919067
1788679267786581800,3.285581787109375,-0.9006986618041992,-0.40292489528656006,0.07063126564025879
1788679267802746000,3.30174609375,-0.8106689453125,-0.22132062911987305,0.19121676683425903
1788679267818929000,3.317928955078125,-0.5188989639282227,-0.0703878402709961,0.30511343479156494
1788679267835075600,3.33407568359375,-0.10518360137939453,0.06282508373260498,0.4127848744392395
1788679267851246800,3.350246826171875,0.1426067352294922,0.1150428056716919,0.3800075054168701
1788679267867397000,3.366397216796875,0.2500143051147461,0.08573007583618164,0.33852601051330566
1788679267883529500,3.382529541015625,0.1987771987915039,0.1008608341217041,0.6160385012626648
1788679267899713000,3.398713134765625,0.26233863830566406,0.10058403015136719,1.109984040260315
1788679267915860000,3.41485986328125,0.6287689208984375,0.19384729862213135,1.3554834127426147
1788679267932034300,3.431034423828125,0.9300374984741211,0.2631206512451172,1.2209523916244507
1788679267948187600,3.447187744140625,0.8861942291259766,0.22178137302398682,1.0242266654968262
1788679267964327000,3.463326904296875,0.6089162826538086,0.2157527208328247,0.9168760776519775
1788679267980534800,3.47953466796875,0.4798574447631836,0.22388148307800293,0.8352445363998413
1788679267996706000,3.4957060546875,0.6699542999267578,0.19667482376098633,0.8067370653152466
1788679268012878000,3.511878173828125,0.8391046524047852,0.2230854034423828,0.7863304615020752
1788679268029028000,3.528028076171875,0.32495975494384766,0.28340232372283936,0.9457632303237915
1788679268045198000,3.544197998046875,-10.616562843322754,0.9696744680404663,4.928766250610352
1788679268061410300,3.560410400390625,2.12143611907959,0.41706418991088867,-1.8563990592956543
1788679268077554400,3.576554443359375,5.511002540588379,-0.9551525712013245,-1.5206856727600098
1788679268093762600,3.592762451171875,3.118494987487793,-1.3048641681671143,-0.12711358070373535
1788679268109915000,3.608914794921875,0.5754661560058594,-0.5309348106384277,0.24552786350250244
1788679268126081800,3.625081787109375,0.22437381744384766,-0.5639743804931641,-0.2607573866844177
1788679268142253000,3.641253173828125,-2.6740894317626953,-0.24538326263427734,0.8492060899734497
1788679268158399000,3.65739892578125,-2.87038516998291,0.8860676288604736,0.5434201955795288
1788679268174616000,3.673615966796875,1.3542594909667969,0.2788732051849365,0.6181576251983643
1788679268190766600,3.6897666015625,3.8851280212402344,-0.36581432819366455,0.32937073707580566
1788679268206933500,3.70593359375,3.061429023742676,-0.44458794593811035,0.5234416723251343
1788679268223110000,3.72210986328125,1.5978364944458008,-0.697650134563446,0.07060933113098145
1788679268239257900,3.7382578125,1.1436710357666016,-1.0016740560531616,-0.4135623574256897
1788679268255428900,3.754428955078125,1.8004522323608398,-1.203382968902588,-0.5500444173812866
1788679268271585500,3.77058544921875,2.402097702026367,-1.1013696193695068,-0.2553054094314575
1788679268287763200,3.78676318359375,2.780385971069336,-0.8874492049217224,0.01018458604812622
1788679268303956700,3.802956787109375,1.6361055374145508,-0.8039011359214783,0.046543776988983154
1788679268320109000,3.819109130859375,0.26422977447509766,-0.6644898056983948,-0.4696430265903473
1788679268336319200,3.8353193359375,-0.6722116470336914,-0.46128547191619873,-0.7186247706413269
1788679268352476000,3.851475830078125,-1.1406936645507812,-0.5810074806213379,-0.37714970111846924
1788679268368620800,3.867620849609375,-1.2615413665771484,-0.7827330827713013,-0.06689178943634033
1788679268384822000,3.883822021484375,-0.9973526000976562,-0.8605676889419556,-0.029577136039733887
1788679268400953300,3.899953369140625,-0.3566455841064453,-0.8692312240600586,-0.11328262090682983
1788679268417131300,3.91613134765625,0.13696670532226562,-0.9047174453735352,-0.25173163414001465
1788679268433288400,3.932288330078125,0.2983827590942383,-0.8364933729171753,-0.4011879563331604
1788679268449436400,3.9484365234375,0.17628097534179688,-0.7689353823661804,-0.5414129495620728
1788679268465644800,3.964644775390625,-0.10822010040283203,-0.7219133973121643,-0.631222665309906
1788679268481790500,3.98079052734375,-0.372467041015625,-0.5853339433670044,-0.6053900718688965
1788679268497964000,3.996964111328125,-0.5876951217651367,-0.43462109565734863,-0.598824143409729
1788679268514120200,4.0131201171875,-0.7650651931762695,-0.3139059543609619,-0.578052282333374
1788679268530271500,4.029271484375,-0.8797216415405273,-0.2556511163711548,-0.5160263180732727
1788679268546485200,4.0454853515625,-0.7651157379150391,-0.10677313804626465,-0.46088898181915283
1788679268562633200,4.06163330078125,-0.6058645248413086,-0.03876674175262451,-0.33725112676620483
1788679268578809300,4.077809326171875,-0.3442564010620117,-0.00038182735443115234,-0.15237778425216675
1788679268594962000,4.0939619140625,-0.06614208221435547,0.005279183387756348,-0.09803757071495056
1788679268611118000,4.1101181640625,0.08745479583740234,0.004701972007751465,-0.05513933300971985
1788679268627286800,4.126286865234375,0.2578468322753906,0.04160189628601074,0.033496975898742676
1788679268643431700,4.142431640625,0.18854904174804688,0.07253658771514893,0.13460227847099304
1788679268659602200,4.158602294921875,0.05888175964355469,0.03419029712677002,-0.03877183794975281
1788679268675752200,4.174752197265625,-0.037713050842285156,0.06104922294616699,-0.34831997752189636
1788679268691909600,4.19090966796875,-0.05049324035644531,0.01600348949432373,-0.7305083274841309
1788679268708078600,4.20707861328125,0.5192461013793945,0.27806806564331055,-0.8355972766876221
1788679268724223200,4.22322314453125,1.0078821182250977,0.24150776863098145,-0.6422737836837769
1788679268740394000,4.23939404296875,1.2060365676879883,0.24097967147827148,-0.39636319875717163
1788679268756547000,4.255547119140625,1.1534509658813477,0.3087961673736572,-0.09389452636241913
1788679268772683500,4.27168359375,0.9779844284057617,0.290682315826416,0.3310832977294922
1788679268788868000,4.2878681640625,0.5833606719970703,0.08268857002258301,0.8255983591079712
1788679268805016600,4.3040166015625,0.047649383544921875,-0.1991744041442871,1.2404004335403442
1788679268821189400,4.320189453125,-0.12672710418701172,-0.209297776222229,0.8283348679542542
1788679268837340200,4.336340087890625,-0.36556529998779297,-0.14360225200653076,0.4409019351005554
1788679268853474600,4.352474609375,-0.4256925582885742,-0.09139347076416016,0.041276514530181885
1788679268869668900,4.3686689453125,-0.3570747375488281,-0.21968698501586914,-0.11488157510757446
1788679268885818000,4.384818115234375,-0.3335552215576172,-0.3117222785949707,-0.21895676851272583
1788679268901994200,4.400994140625,-0.22440147399902344,-0.33618080615997314,-0.2171928584575653
1788679268918146000,4.41714599609375,0.6914968490600586,-1.534827709197998,1.4985380172729492
1788679268934318800,4.43331884765625,2.007826805114746,-0.362113356590271,0.2913934588432312
1788679268950526000,4.44952587890625,2.80100154876709,-0.20206224918365479,0.2564643621444702
1788679268966672600,4.465672607421875,2.4892940521240234,-0.7920154333114624,0.2300703525543213
1788679268982881000,4.481881103515625,1.9215879440307617,-1.3287663459777832,0.15761852264404297
1788679268999033000,4.498033203125,1.2800540924072266,-1.7871686220169067,0.39227622747421265
1788679269015168000,4.51416796875,0.836482048034668,-1.3709319829940796,0.0917583703994751
1788679269031378000,4.5303779296875,0.7345867156982422,-0.6914591789245605,-0.15450653433799744
1788679269047526100,4.546526123046875,0.48555660247802734,-0.13737475872039795,-0.12298351526260376
1788679269063700000,4.562699951171875,-0.00711822509765625,0.11027657985687256,0.0157163143157959
1788679269079854300,4.578854248046875,-0.5084867477416992,-0.04292631149291992,0.10444433987140656
1788679269095989000,4.594989013671875,-1.1779108047485352,-0.36422407627105713,0.040560416877269745
1788679269112203300,4.611203369140625,-1.5471267700195312,-0.5942624807357788,-0.04032996669411659
1788679269128350500,4.6273505859375,-1.470839500427246,-0.7115597128868103,-0.09502638131380081
1788679269144527400,4.64352734375,-1.1911640167236328,-0.7611852884292603,0.21916721761226654
1788679269160681200,4.65968115234375,-1.213587760925293,-0.9833279848098755,1.0116782188415527
1788679269176817400,4.6758173828125,-1.2390642166137695,-0.5891659259796143,0.8272886872291565
1788679269192992000,4.691991943359375,-1.2519493103027344,-0.23017621040344238,0.48361334204673767
1788679269209140200,4.70814013671875,-1.088688850402832,0.11345946788787842,-0.31577926874160767
1788679269225316000,4.724316162109375,-1.120168685913086,0.5646300315856934,-1.655646562576294
1788679269241469000,4.740468994140625,-0.8018684387207031,1.0368789434432983,-2.369901657104492
1788679269257599700,4.756599853515625,-0.6311397552490234,0.7378700971603394,-1.473189353942871
1788679269273782800,4.77278271484375,-0.22505760192871094,0.005497097969055176,0.12127654254436493
1788679269289936000,4.788935791015625,-0.051403045654296875,-0.19542348384857178,1.147856593132019
1788679269306115800,4.80511572265625,0.3006553649902344,0.1200098991394043,1.797455906867981
1788679269322269400,4.82126953125,0.47250938415527344,0.36767077445983887,1.8996269702911377
1788679269338400300,4.837400146484375,0.32069969177246094,0.6379125118255615,1.5861395597457886
1788679269354631400,4.85363134765625,0.29483699798583984,0.8533241748809814,0.7307053804397583
1788679269370777000,4.869777099609375,0.44707298278808594,0.8516911268234253,-0.11748814582824707
1788679269386949600,4.88594970703125,0.38895320892333984,0.562462568283081,-0.7351468205451965
1788679269403101700,4.902101806640625,0.39978504180908203,0.33099913597106934,-0.6087020039558411
1788679269419249400,4.91824951171875,0.6542263031005859,0.2886965274810791,-0.2335330843925476
1788679269435452200,4.9344521484375,1.1166753768920898,0.36551713943481445,0.22794190049171448
1788679269451598000,4.95059814453125,1.4427156448364258,0.17862164974212646,0.5463473200798035
1788679269467771600,4.966771728515625,1.636092185974121,-0.24751818180084229,0.7786871194839478
1788679269483922000,4.982921875,1.7143917083740234,-0.639907956123352,0.8909163475036621
1788679269500059400,4.999059326171875,1.242818832397461,-0.3740469217300415,1.006568431854248
1788679269516268500,5.0152685546875,0.7702369689941406,-0.17536664009094238,0.8226199150085449
1788679269532414700,5.031414794921875,0.4544525146484375,-0.08876585960388184,0.6982209086418152
1788679269548588000,5.047588134765625,0.3073558807373047,-0.1110454797744751,0.5561425089836121
1788679269564739000,5.063739013671875,0.5570392608642578,-0.4263397455215454,0.6648133397102356
1788679269580894700,5.079894775390625,1.2178535461425781,-0.6253315210342407,0.5237108469009399
1788679269597066800,5.096066650390625,1.6578025817871094,-0.7397142648696899,0.2810960114002228
1788679269613217300,5.11221728515625,1.2410383224487305,-1.0356769561767578,0.11381891369819641
1788679269629394000,5.128393798828125,0.5887374877929688,-1.2058851718902588,-0.2615394592285156
1788679269645546000,5.1445458984375,0.24503231048583984,-0.9405290484428406,-0.9588117599487305
1788679269661708800,5.160708740234375,0.010016441345214844,-1.109534740447998,-0.7884451150894165
1788679269677889800,5.176889892578125,-0.046314239501953125,-0.9750113487243652,0.022622525691986084
1788679269694039300,5.193039306640625,0.07910633087158203,-0.263921856880188,-0.09840273857116699
1788679269710211600,5.209211669921875,0.2047882080078125,0.14363431930541992,-0.3426884412765503
1788679269726368300,5.2253681640625,0.1620311737060547,0.09653818607330322,-0.2615141272544861
1788679269742497300,5.241497314453125,-0.5403070449829102,-0.27377617359161377,-0.21903571486473083
1788679269758686500,5.2576865234375,-1.1760101318359375,-0.47048234939575195,-0.3560696542263031
1788679269774834400,5.27383447265625,-1.478806495666504,-0.43257248401641846,-0.7098062038421631
1788679269791008800,5.2900087890625,-1.5606927871704102,-0.27527010440826416,-0.8094097375869751
1788679269807160000,5.30616015625,-1.1410160064697266,-0.1367090940475464,-0.25172874331474304
1788679269823298800,5.322298828125,-0.7561473846435547,0.02481210231781006,0.21554696559906006
1788679269839505200,5.338505126953125,-0.7710914611816406,0.09475934505462646,0.3125009536743164
1788679269855654000,5.35465380859375,-0.7321186065673828,0.13197553157806396,0.23258845508098602
1788679269871828000,5.370827880859375,-0.7342567443847656,0.01720905303955078,0.2270554155111313
1788679269887981300,5.386981201171875,-0.6752290725708008,0.0415644645690918,0.1548406183719635
1788679269904117500,5.403117431640625,-0.6417045593261719,0.1103980541229248,0.12886977195739746
1788679269920357600,5.419357666015625,-0.5242414474487305,0.09259247779846191,0.11533483862876892
1788679269936504300,5.43550439453125,-0.23009681701660156,0.014842629432678223,0.18783122301101685
1788679269952678700,5.4516787109375,-0.028161048889160156,-0.019361495971679688,0.21246814727783203
1788679269968834000,5.467833984375,0.38319969177246094,-0.004185676574707031,0.19443348050117493
1788679269984972800,5.483972900390625,0.9382724761962891,-0.01149892807006836,0.06900125741958618
1788679270001192000,5.50019189453125,1.242410659790039,-0.07901918888092041,-0.19104617834091187
1788679270017343500,5.516343505859375,1.0935430526733398,-0.04776191711425781,-0.46965640783309937
1788679270033510100,5.53251025390625,0.5384807586669922,0.2879374027252197,-0.6639582514762878
1788679270049646800,5.548646728515625,0.25809192657470703,0.4779120683670044,-0.6090119481086731
1788679270065783800,5.56478369140625,0.5664119720458984,0.36121106147766113,-0.19110918045043945
1788679270081955600,5.58095556640625,1.2752399444580078,0.08222293853759766,0.1936408281326294
1788679270098103300,5.597103271484375,2.1245107650756836,-0.311359167098999,0.4632428288459778
1788679270114313000,5.61331298828125,2.406888961791992,-0.30843496322631836,0.3868522047996521
1788679270130465800,5.6294658203125,2.2187118530273438,-0.3026907444000244,0.48253026604652405
1788679270146601500,5.6456015625,1.6596975326538086,-0.30973970890045166,0.48561349511146545
1788679270162783200,5.661783203125,1.2409963607788086,-0.19082510471343994,0.4644436240196228
1788679270178929400,5.677929443359375,1.3286628723144531,-0.4170719385147095,0.786531925201416
1788679270195102500,5.6941025390625,1.863840103149414,-0.6910308599472046,1.1700091361999512
1788679270211254500,5.710254638671875,2.26863956451416,-1.146244764328003,1.21550714969635
1788679270227426300,5.72642626953125,2.0950679779052734,-1.4284472465515137,0.8819091320037842
1788679270243618600,5.74261865234375,1.9552230834960938,-1.3547577857971191,0.1593414694070816
1788679270259764700,5.7587646484375,1.2083015441894531,-1.2425339221954346,-0.18333560228347778
1788679270275939000,5.77493896484375,0.123504638671875,-0.9249463081359863,-0.3653261959552765
1788679270292092400,5.791092529296875,-0.8912668228149414,-1.0969147682189941,0.07916063070297241
1788679270308233500,5.8072333984375,-1.3709802627563477,-0.7047113180160522,0.4500773549079895
1788679270324429000,5.823428955078125,-1.8383898735046387,-0.3801589012145996,0.8873523473739624
1788679270340573000,5.839572998046875,-2.073871612548828,-0.4836028814315796,1.1091020107269287
1788679270356780000,5.855780029296875,-1.8626933097839355,-0.6554508209228516,1.114035725593567
1788679270372930300,5.871930419921875,-0.916438102722168,-0.5813999176025391,0.9878416061401367
1788679270389069600,5.888069580078125,-0.4324359893798828,-0.7081798315048218,0.815880298614502
1788679270405277000,5.90427685546875,-0.7098121643066406,-0.6802874803543091,0.11249612271785736
1788679270421426400,5.920426513671875,-0.47355175018310547,-0.38809502124786377,-0.5688599348068237
1788679270437602000,5.93660205078125,-0.4392833709716797,-0.2624542713165283,-0.6473948955535889
1788679270453754600,5.952754638671875,-0.9155635833740234,-0.2682785987854004,-0.09101629257202148
1788679270469903000,5.968903076171875,-1.5245914459228516,0.12938165664672852,0.10938626527786255
1788679270486116000,5.9851162109375,-1.4959678649902344,0.4665408134460449,0.2283235788345337
1788679270502260700,6.0012607421875,-0.7283878326416016,0.42176055908203125,0.3538845479488373
1788679270518439000,6.01743896484375,0.2258615493774414,0.22488141059875488,0.4863933324813843
1788679270534591500,6.033591552734375,0.4560966491699219,0.11721968650817871,0.7786889672279358
1788679270550751500,6.04975146484375,-0.007319450378417969,0.26501965522766113,0.5641602277755737
1788679270566924000,6.065924072265625,-0.4228048324584961,0.30870509147644043,0.23658332228660583
1788679270583072000,6.082072021484375,-0.5362825393676758,0.2639024257659912,0.1155017614364624
1788679270599248000,6.098247802734375,-0.3417367935180664,0.3165476322174072,0.03122568130493164
1788679270615400400,6.114400390625,-0.26758480072021484,0.42901158332824707,-0.004358232021331787
1788679270631564300,6.130564208984375,-0.10081195831298828,0.5391759872436523,-0.01614433526992798
1788679270647746600,6.14674658203125,0.34778308868408203,0.4892592430114746,0.12628206610679626
1788679270663894000,6.16289404296875,1.1303787231445312,0.23616528511047363,0.12382099032402039
1788679270680069000,6.179069091796875,1.7610397338867188,0.020806312561035156,-0.10847210884094238
1788679270696245200,6.195245361328125,1.8332509994506836,-0.23309087753295898,-0.040467262268066406
1788679270712427800,6.211427734375,1.5365257263183594,-0.3116375207901001,0.09859520196914673
1788679270728635600,6.2276357421875,1.3079204559326172,-0.3422621488571167,0.1784563660621643
1788679270744781600,6.243781494140625,1.191359519958496,-0.42693889141082764,0.2107645571231842
1788679270760957200,6.259957275390625,1.1274166107177734,-0.4515259265899658,0.2046266496181488
1788679270777112300,6.2761123046875,1.4401140213012695,-0.5279035568237305,0.23598706722259521
1788679270793250300,6.292250244140625,2.125375747680664,-0.7170858383178711,0.2825472354888916
1788679270809455000,6.308455078125,2.489424705505371,-0.8810930252075195,0.12601429224014282
1788679270825606700,6.324606689453125,2.2175941467285156,-0.9051406383514404,-0.19736766815185547
1788679270841818600,6.340818603515625,0.8915262222290039,-0.7898842096328735,-0.5129715800285339
1788679270857975800,6.356975830078125,-0.7007122039794922,-0.44712162017822266,-0.8004658222198486
1788679270874149600,6.373149658203125,-1.5216093063354492,-0.18892741203308105,-0.7497285008430481
1788679270890359300,6.389359375,-1.340561866760254,-0.10068988800048828,-0.40537017583847046
1788679270906507800,6.4055078125,-0.3481884002685547,-0.22446465492248535,0.0932733416557312
1788679270922680800,6.421680908203125,0.3504981994628906,-0.3856849670410156,0.2615744173526764
1788679270938832400,6.437832275390625,0.5105466842651367,-0.5172303915023804,0.1297140121459961
1788679270954968600,6.453968505859375,0.3608131408691406,-0.7026835680007935,-0.12811410427093506
1788679270971185400,6.470185302734375,-0.02403545379638672,-0.746749997138977,-0.4592338502407074
1788679270987332400,6.486332275390625,-0.5618343353271484,-0.5563069581985474,-0.6542392373085022
1788679271003507200,6.502507080078125,-0.926640510559082,-0.3465369939804077,-0.5107553601264954
1788679271019657700,6.51865771484375,-1.101027488708496,-0.2054457664489746,-0.20621752738952637
1788679271035788800,6.534788818359375,-1.2692203521728516,-0.0710533857345581,-0.26493996381759644
1788679271051956500,6.55095654296875,-1.319453239440918,0.009984493255615234,-0.33745771646499634
1788679271068102400,6.567102294921875,-1.0229482650756836,0.00978398323059082,-0.05583980679512024
1788679271084275000,6.58327490234375,-0.7123823165893555,-0.09595108032226562,0.056838542222976685
1788679271100429600,6.5994296875,-0.7102127075195312,-0.13583433628082275,-0.13392508029937744
1788679271116565000,6.61556494140625,-0.5553798675537109,-0.06147360801696777,-0.34749773144721985
1788679271132745200,6.6317451171875,-0.0931539535522461,-0.04075276851654053,-0.19142338633537292
1788679271148889600,6.6478896484375,0.3753671646118164,-0.06325244903564453,0.08979146182537079
1788679271165062700,6.664062744140625,0.7697896957397461,-0.09767627716064453,0.04882071912288666
1788679271181217000,6.680217041015625,0.9977655410766602,-0.15797555446624756,-0.032139793038368225
1788679271197353000,6.69635302734375,0.7855081558227539,-0.12218952178955078,-0.13444295525550842
1788679271213540000,6.7125400390625,0.3515625,-0.0036573410034179688,-0.46668732166290283
1788679271229686000,6.72868603515625,0.54833984375,0.13346374034881592,-0.6929448843002319
1788679271245860900,6.74486083984375,0.9212846755981445,0.05557548999786377,-0.317504346370697
1788679271262017500,6.761017578125,0.8967924118041992,-0.24661707878112793,0.26245245337486267
1788679271278155800,6.77715576171875,0.9961690902709961,-0.45900118350982666,0.48780083656311035
1788679271294360600,6.793360595703125,1.2842721939086914,-0.5631248950958252,0.4852675199508667
1788679271310508300,6.80950830078125,1.727945327758789,-0.47108638286590576,0.21103185415267944
1788679271326679800,6.8256796875,1.5437040328979492,-0.42373597621917725,-0.22624342143535614
1788679271342829000,6.8418291015625,0.8710527420043945,-0.4493321180343628,-0.4382680058479309
1788679271358963200,6.857963134765625,0.33028411865234375,-0.3525886535644531,-0.2145855873823166
1788679271375165400,6.87416552734375,0.9617853164672852,-0.382961630821228,0.27456000447273254
1788679271391311400,6.890311279296875,2.3704023361206055,-0.8824863433837891,0.6167597770690918
1788679271407517400,6.906517333984375,3.627913475036621,-1.189568042755127,0.6597911715507507
1788679271423670000,6.922669921875,3.372020721435547,-1.284764289855957,0.44474780559539795
1788679271439849000,6.938848876953125,1.6055631637573242,-0.9625997543334961,-0.14973749220371246
1788679271456021800,6.955021728515625,-0.14805126190185547,-0.5574822425842285,-0.5269339084625244
1788679271472165600,6.97116552734375,-1.099822998046875,-0.31277990341186523,-0.1880244016647339
1788679271488372700,6.987372802734375,-1.2952861785888672,-0.24909162521362305,0.566895604133606
1788679271504523300,7.003523193359375,-1.2041616439819336,-0.2414698600769043,1.1234421730041504
1788679271520678100,7.01967822265625,-1.1244611740112305,-0.2616842985153198,1.2133746147155762
1788679271536851700,7.035851806640625,-1.1251392364501953,-0.3435126543045044,1.0695164203643799
1788679271552998000,7.051997802734375,-1.0769166946411133,-0.4160635471343994,0.8368452191352844
1788679271569171700,7.068171630859375,-1.091543197631836,-0.38400137424468994,0.22962439060211182
1788679271585322200,7.084322265625,-1.1773653030395508,-0.414509654045105,-0.2414858043193817
1788679271601487000,7.100487060546875,-1.0011272430419922,-0.39732325077056885,-0.3459662199020386
1788679271617672700,7.116672607421875,-1.1747636795043945,-0.29850566387176514,-0.09148076176643372
1788679271633817000,7.132817138671875,-1.4090509414672852,-0.09226441383361816,-0.08315020799636841
1788679271649988400,7.14898828125,-1.4016294479370117,0.061020851135253906,-0.16932913661003113
1788679271666142000,7.165141845703125,-1.283273696899414,0.06060135364532471,-0.10921689867973328
1788679271682280000,7.181280029296875,-0.7933979034423828,0.029401540756225586,0.13645502924919128
1788679271698482400,7.197482421875,-0.40076732635498047,-0.02923440933227539,0.5110077857971191
1788679271714628900,7.21362890625,-0.15946197509765625,0.09881591796875,0.5764197111129761
1788679271730805200,7.22980517578125,-0.02594470977783203,0.16623163223266602,0.40433958172798157
1788679271746959000,7.245958984375,0.10069465637207031,0.10602402687072754,0.11155718564987183
1788679271763092500,7.262092529296875,-0.027711868286132812,0.06097292900085449,-0.09772136807441711
1788679271779292200,7.278292236328125,-0.30741119384765625,0.2414799928665161,-0.18994063138961792
1788679271795437600,7.2944375,-0.3823089599609375,0.4471968412399292,0.04786399006843567
1788679271811608800,7.31060888671875,-0.23891067504882812,0.4855097532272339,0.3114173412322998
1788679271827757800,7.3267578125,0.17842960357666016,0.4899325370788574,0.28428882360458374
1788679271843891700,7.3428916015625,0.8143091201782227,0.4369494915008545,0.18670761585235596
1788679271860103200,7.359103271484375,1.5079383850097656,0.13785982131958008,0.1890496015548706
1788679271876247300,7.375247314453125,1.8631057739257812,-0.3610692024230957,0.45981544256210327
1788679271892417800,7.391417724609375,1.7923879623413086,-0.610633134841919,0.32575955986976624
1788679271908567000,7.407567138671875,1.181182861328125,-0.37238049507141113,-0.05669045448303223
1788679271924701400,7.423701416015625,0.1623363494873047,-0.20954275131225586,0.014300942420959473
1788679271940871200,7.43987109375,-0.3131723403930664,0.0238800048828125,-0.06281179189682007
1788679271957015300,7.456015380859375,0.4691448211669922,-0.030977725982666016,0.216344952583313
1788679271973186600,7.4721865234375,1.470168113708496,-0.3112064599990845,0.6468814611434937
1788679271989337900,7.488337890625,2.383687973022461,-0.5153050422668457,0.6147327423095703
1788679272005507000,7.504507080078125,2.9492406845092773,-0.8143501281738281,0.344510555267334
1788679272021682400,7.520682373046875,-0.9302501678466797,-0.5475330352783203,-1.3452160358428955
1788679272037850600,7.5368505859375,-1.1788692474365234,-1.0426888465881348,-1.2156975269317627
1788679272054057700,7.5530576171875,-0.39350128173828125,-0.5677131414413452,-0.39958739280700684
1788679272070210600,7.56921044921875,3.0998926162719727,-0.4950903654098511,0.7343522310256958
1788679272086387700,7.5853876953125,2.948349952697754,-0.4808999300003052,0.5871562957763672
1788679272102575400,7.601575439453125,-0.27801990509033203,-0.9220333099365234,-1.4873015880584717
1788679272118722600,7.61772265625,-2.7623138427734375,-1.2473201751708984,-2.459726333618164
1788679272134932200,7.63393212890625,-1.3737001419067383,-0.6844041347503662,-1.7949793338775635
1788679272151085800,7.6500859375,1.7517385482788086,-0.5407395362854004,0.5312584638595581
1788679272167254300,7.666254150390625,3.8404951095581055,-0.5697406530380249,1.6909637451171875
1788679272183446300,7.6824462890625,2.348116874694824,-0.6090606451034546,1.0585403442382812
1788679272199592000,7.698592041015625,-1.4460134506225586,-0.21591293811798096,-0.5035501718521118
1788679272215797200,7.71479736328125,-3.6945748329162598,-0.008462667465209961,-1.061232089996338
1788679272231953000,7.730952880859375,-3.733940601348877,-0.03217136859893799,-0.6076688766479492
1788679272248124400,7.74712451171875,-2.399085521697998,-0.03161966800689697,-0.15292656421661377
1788679272264325600,7.76332568359375,-0.9348211288452148,-0.0887988805770874,0.2795494794845581
1788679272280474000,7.77947412109375,-0.02631855010986328,-0.10956645011901855,0.6907254457473755
1788679272296682000,7.795681884765625,0.21341991424560547,-0.019351601600646973,0.5904419422149658
1788679272312833000,7.8118330078125,-0.2524232864379883,0.07678699493408203,0.007283031940460205
1788679272328985000,7.827985107421875,-0.9175615310668945,0.15203571319580078,-0.22571486234664917
1788679272345202400,7.844202392578125,-0.9032754898071289,0.11706531047821045,-0.02639448642730713
1788679272361348900,7.860348876953125,-0.16291046142578125,0.08167064189910889,0.15268677473068237
1788679272377521400,7.876521484375,0.6751623153686523,0.0038601160049438477,0.24114370346069336
1788679272393676800,7.8926767578125,0.9335546493530273,-0.04396235942840576,-0.047528982162475586
1788679272409834000,7.908833984375,0.6333341598510742,0.13054800033569336,-0.2853652238845825
1788679272426006500,7.925006591796875,0.007974624633789062,0.3728717565536499,-0.6292288899421692
1788679272442156000,7.941156005859375,0.08866119384765625,0.2674320936203003,-0.3964242935180664
1788679272458337800,7.957337890625,0.9111328125,0.040364742279052734,0.10573142766952515
1788679272474492700,7.97349267578125,1.7267122268676758,-0.3372422456741333,0.41758638620376587
1788679272490653700,7.98965380859375,1.9163150787353516,-0.5676058530807495,0.3908495604991913
1788679272506783700,8.00578369140625,1.7449884414672852,-0.4451369047164917,-0.09343814849853516
1788679272522862600,8.021862548828125,1.2486085891723633,-0.20103096961975098,-0.5338373780250549
1788679272539025000,8.03802490234375,0.5069217681884766,-0.1824474334716797,-0.6848517656326294
1788679272555179500,8.054179443359375,0.29191112518310547,-0.1915295124053955,-0.4567970633506775
1788679272571348200,8.07034814453125,0.6845035552978516,-0.21777939796447754,0.19790178537368774
1788679272587529200,8.086529296875,1.8374309539794922,-0.3559466600418091,0.7082284092903137
1788679272603679500,8.102679443359374,3.1970672607421875,-0.5932766199111938,0.8368484973907471
1788679272619889700,8.1188896484375,3.0378875732421875,-0.8811241984367371,0.47032466530799866
1788679272636044800,8.135044921875,1.294966697692871,-0.8946035504341125,-0.43347808718681335
1788679272652218400,8.15121826171875,-0.1587352752685547,-0.5191543102264404,-0.8672075271606445
1788679272668423000,8.1674228515625,-0.798405647277832,-0.2876739501953125,-0.3806496262550354
1788679272684572200,8.183572265625,-0.7072649002075195,-0.19633722305297852,0.5100904107093811
1788679272700743000,8.199742919921874,-0.5621662139892578,-0.22025907039642334,1.2389912605285645
1788679272716900000,8.215900146484374,-0.6536655426025391,-0.31115829944610596,1.5974491834640503
1788679272733037300,8.232037353515626,-0.8534612655639648,-0.25713813304901123,1.2981164455413818
1788679272749249800,8.248249755859375,-1.0018701553344727,-0.23883581161499023,0.6676479578018188
1788679272765399800,8.26439990234375,-1.1464967727661133,-0.33214282989501953,0.28864699602127075
1788679272781576700,8.28057666015625,-1.4063405990600586,-0.2162243127822876,-0.15430417656898499
1788679272797732400,8.296732421875,-1.4957456588745117,-0.11907994747161865,-0.38810792565345764
1788679272813857300,8.312857177734376,-1.3716259002685547,-0.011459112167358398,-0.3014063537120819
1788679272830019800,8.329019775390625,-1.3564205169677734,0.11527800559997559,-0.1319446861743927
1788679272846171000,8.3451708984375,-1.6989121437072754,0.18004977703094482,-0.057936012744903564
1788679272862348800,8.361348876953125,-1.9409360885620117,0.2593625783920288,0.07345348596572876
1788679272878504000,8.37750390625,-1.7616510391235352,0.22700238227844238,0.237485870718956
1788679272894638600,8.393638671875,-1.0947551727294922,0.27063655853271484,0.3341149687767029
1788679272910815700,8.409815673828126,-0.44852256774902344,0.41379034519195557,0.42565563321113586
1788679272926962000,8.4259619140625,-0.2309703826904297,0.4544476270675659,0.41616925597190857
1788679272943137800,8.4421376953125,0.1495656967163086,0.26698124408721924,0.21308442950248718
1788679272959289900,8.458289794921875,0.7665243148803711,0.2209796905517578,-0.20234382152557373
1788679272975428400,8.474428466796875,0.9234714508056641,0.31245410442352295,-0.3417236804962158
1788679272991611000,8.49061083984375,0.7817010879516602,0.515978217124939,-0.4440872073173523
1788679273007761400,8.506761474609375,0.42849159240722656,0.7115099430084229,-0.4091273546218872
1788679273023937500,8.5229375,0.3184051513671875,0.692276120185852,-0.11101272702217102
1788679273040096300,8.53909619140625,0.7151288986206055,0.3008958101272583,0.18794167041778564
1788679273056236800,8.55523681640625,1.4308109283447266,-0.1651444435119629,0.42033737897872925
1788679273072425200,8.57142529296875,2.090290069580078,-0.49001580476760864,0.29155516624450684
1788679273088574500,8.587574462890625,2.441592216491699,-0.5681631565093994,0.219346821308136
1788679273104786000,8.603785888671876,2.2573890686035156,-0.6150243282318115,0.301866352558136
1788679273120943000,8.619943115234374,2.064375877380371,-0.4965035915374756,0.34692931175231934
1788679273137123800,8.636123779296875,2.367579460144043,-0.5676253437995911,0.5062456727027893
1788679273153323800,8.65232373046875,2.942692756652832,-1.095668911933899,0.610289454460144
1788679273169474800,8.668474853515624,3.1802453994750977,-1.2835042476654053,0.2380279153585434
1788679273185688000,8.68468798828125,2.237194061279297,-1.1493297815322876,-0.450558066368103
1788679273201845500,8.700845458984375,0.5894241333007812,-0.9873540997505188,-0.8408012390136719
1788679273218020400,8.717020263671875,-0.9428615570068359,-0.6956027150154114,-1.1620739698410034
1788679273234226700,8.733226806640625,-1.5842132568359375,-0.39611852169036865,-1.014561653137207
1788679273250378000,8.7493779296875,-1.270655632019043,-0.19326305389404297,-0.4579533338546753
1788679273266549800,8.7655498046875,-0.8046207427978516,-0.0970078706741333,-0.0646933913230896
1788679273282708000,8.7817080078125,-0.5453367233276367,-0.036284446716308594,0.18558445572853088
1788679273298858500,8.7978583984375,-0.3864612579345703,-0.13089001178741455,0.19797654449939728
1788679273315027200,8.814027099609374,-0.37098026275634766,-0.2971665859222412,0.02919234335422516
1788679273331091000,8.830091064453125,-0.41741466522216797,-0.44245994091033936,-0.389758437871933
1788679273347198000,8.846197998046875,-0.4826011657714844,-0.36646735668182373,-0.7726666331291199
1788679273363316200,8.862316162109375,-0.6782007217407227,-0.19835078716278076,-0.7307103872299194
1788679273379412200,8.878412109375,-0.9630298614501953,-0.0708237886428833,-0.4761695861816406
1788679273395575300,8.8945751953125,-1.1553630828857422,0.055552124977111816,-0.2580316662788391
1788679273411680300,8.91068017578125,-1.1577320098876953,0.06180727481842041,-0.12754550576210022
1788679273427859500,8.926859375,-1.1095399856567383,0.06216299533843994,-0.09321969747543335
1788679273444017200,8.94301708984375,-0.9108285903930664,0.12926161289215088,0.04126781225204468
1788679273460166700,8.959166748046876,-0.5358037948608398,0.15199148654937744,0.15530401468276978
1788679273476343300,8.97534326171875,-0.08948230743408203,0.1268308162689209,0.1219678670167923
1788679273492494800,8.991494873046875,0.14670276641845703,0.008104681968688965,0.03988933563232422
1788679273508672800,9.0076728515625,-0.003864288330078125,-0.050186991691589355,-0.022645920515060425
1788679273524830500,9.02383056640625,-0.2611665725708008,0.027910709381103516,-0.020482808351516724
1788679273540969000,9.039968994140626,-0.3174552917480469,0.041883230209350586,0.033386439085006714
1788679273557165300,9.056165283203125,0.010562896728515625,0.19156432151794434,-0.15417635440826416
1788679273573309700,9.072309814453124,0.5697784423828125,0.19287312030792236,-0.2957252562046051
1788679273589486000,9.088486083984375,1.2049856185913086,-0.038939714431762695,-0.3271743953227997
1788679273605641200,9.10464111328125,1.6411027908325195,-0.2979992628097534,-0.2539598047733307
1788679273621781800,9.12078173828125,1.8666210174560547,-0.5395599603652954,-0.0373203307390213
1788679273637984800,9.13698486328125,1.855177879333496,-0.6800824403762817,0.03993578255176544
1788679273654131700,9.153131591796875,1.7405109405517578,-0.6042884588241577,-0.121779665350914
1788679273670305800,9.169305908203125,1.2859220504760742,-0.5242221355438232,-0.21994535624980927
1788679273686460000,9.1854599609375,0.7872982025146484,-0.28915131092071533,-0.20196107029914856
1788679273702600000,9.201599853515624,0.914952278137207,-0.11463809013366699,0.24903663992881775
1788679273718809600,9.2178095703125,1.8639192581176758,-0.40556347370147705,1.009617567062378
1788679273734890800,9.233890869140625,3.032266616821289,-0.8323524594306946,1.200570821762085
1788679273751031000,9.250031005859375,3.495621681213379,-1.2398430109024048,0.651997447013855
1788679273767173400,9.26617333984375,2.349501609802246,-1.2752163410186768,-0.46121472120285034
1788679273783340500,9.282340576171874,0.7394876480102539,-1.012542724609375,-1.3053665161132812
1788679273799556600,9.298556640625,-0.5862598419189453,-0.6802588105201721,-1.2503907680511475
1788679273815706600,9.31470654296875,-1.170236587524414,-0.48089486360549927,-0.1964980661869049
1788679273831880700,9.330880615234374,-1.3912010192871094,-0.4343951940536499,0.836600124835968
1788679273847922700,9.346922607421876,-1.519073486328125,-0.4566839933395386,1.3815919160842896
1788679273864026600,9.363026611328126,-1.5908880233764648,-0.3639107942581177,1.4262309074401855
1788679273880201000,9.379200927734376,-1.4970684051513672,-0.3081197738647461,1.0153189897537231
1788679273896349700,9.395349609375,-1.235407829284668,-0.3190617561340332,0.6003636121749878
1788679273912519200,9.411519287109375,-0.9721870422363281,-0.3631167411804199,0.31737178564071655
1788679273928674000,9.427674072265624,-0.9399328231811523,-0.271964430809021,0.021380513906478882
1788679273944809700,9.443809814453125,-1.218994140625,-0.08207786083221436,-0.3422568142414093
1788679273960995600,9.45999560546875,-1.3242454528808594,0.0819692611694336,-0.3778872787952423
1788679273977144800,9.476144775390624,-1.3380365371704102,0.1224137544631958,-0.03617599606513977
1788679273993318400,9.492318359375,-1.463994026184082,0.3034936189651489,0.3695663511753082
1788679274009474800,9.508474853515626,-1.5519561767578125,0.4784282445907593,0.45010149478912354
1788679274025614300,9.5246142578125,-1.2538022994995117,0.4863055944442749,0.4112234115600586
1788679274041806600,9.540806640625,-0.5529356002807617,0.45692622661590576,0.24279987812042236
1788679274057956600,9.55695654296875,0.13727951049804688,0.4385409355163574,0.1088501513004303
1788679274074133800,9.5731337890625,0.5910778045654297,0.4799906015396118,0.0496722012758255
1788679274090281700,9.58928173828125,0.8611917495727539,0.49543797969818115,0.114916130900383
1788679274106429000,9.605428955078125,0.6542835235595703,0.6118587255477905,0.1574307084083557
1788679274122606800,9.62160693359375,0.17913341522216797,0.6889548301696777,0.08058963716030121
1788679274138756900,9.6377568359375,0.03243446350097656,0.853126049041748,-0.06022125482559204
1788679274154934300,9.653934326171875,0.4050559997558594,0.7502919435501099,0.0730372965335846
1788679274171075000,9.670074951171875,1.0531024932861328,0.29596829414367676,0.30774572491645813
1788679274187213600,9.686213623046875,1.6812009811401367,-0.19166171550750732,0.22363142669200897
1788679274203420700,9.702420654296875,2.0551633834838867,-0.6184943914413452,0.15583235025405884
1788679274219570000,9.71856982421875,1.953883171081543,-0.8097187876701355,0.2550848722457886
1788679274235728100,9.73472802734375,1.167302131652832,-0.5815468430519104,0.3235790431499481
1788679274251882000,9.750882080078124,0.5126609802246094,-0.3279343843460083,0.24690596759319305
1788679274268028400,9.7670283203125,0.8184843063354492,-0.21006357669830322,0.1938781589269638
1788679274284247600,9.78324755859375,2.0689687728881836,-0.670291543006897,0.3967585563659668
1788679274300396000,9.79939599609375,3.1385602951049805,-1.2222607135772705,0.40608635544776917
1788679274316594000,9.815593994140626,3.2620325088500977,-1.4156919717788696,-0.21674370765686035
1788679274332752600,9.831752685546874,1.9736013412475586,-1.4582597017288208,-0.8106417655944824
1788679274348953900,9.847953857421874,0.19215774536132812,-1.2065770626068115,-1.0208518505096436
1788679274365133300,9.86413330078125,-0.6441078186035156,-0.8091316223144531,-0.9521703720092773
1788679274381284400,9.880284423828124,-0.5054636001586914,-0.6624552011489868,-0.5985034704208374
1788679274397451800,9.89645166015625,-0.12610149383544922,-0.6048755049705505,-0.17103710770606995
1788679274413604400,9.912604248046875,0.027449607849121094,-0.49715936183929443,0.029526829719543457
1788679274429771800,9.928771728515626,-0.06770133972167969,-0.5032248497009277,0.16431143879890442
1788679274445958100,9.944958251953125,-0.2370929718017578,-0.644027054309845,0.22615817189216614
1788679274462104800,9.961104736328124,-0.41901111602783203,-0.672426164150238,-0.0037605613470077515
1788679274478278400,9.9772783203125,-0.5201711654663086,-0.5272989869117737,-0.370194673538208
1788679274494435300,9.993435302734374,-0.801539421081543,-0.35978204011917114,-0.6148369908332825
1788679274510573300,10.0095732421875,-1.132796287536621,-0.2788809537887573,-0.6576903462409973
1788679274526767600,10.025767578125,-1.5337715148925781,-0.15480124950408936,-0.6011229753494263
1788679274542918100,10.041918212890625,-1.7609238624572754,-0.01215362548828125,-0.32485318183898926
1788679274559077000,10.0580771484375,-1.9756474494934082,0.07791304588317871,-0.04896891117095947
1788679274575216600,10.074216552734375,-1.8703923225402832,0.1676701307296753,0.10435265302658081
1788679274591341800,10.090341796875,-1.1949224472045898,0.06607377529144287,0.2692188024520874
1788679274607546400,10.10654638671875,-0.22447490692138672,-0.04919576644897461,0.3455014228820801
1788679274623693600,10.122693603515625,0.35562992095947266,-0.1745089292526245,0.29058533906936646
1788679274639868700,10.13886865234375,0.5107927322387695,-0.22482168674468994,0.1741870939731598
1788679274656021000,10.15502099609375,0.35088062286376953,-0.11225247383117676,0.14584587514400482
1788679274672156000,10.171156005859375,0.20089149475097656,-0.027179241180419922,0.194551020860672
1788679274688372700,10.187372802734375,0.25629425048828125,0.08060324192047119,0.11976692080497742
1788679274704519700,10.203519775390625,0.5436630249023438,0.23111939430236816,-0.1307084560394287
1788679274720693200,10.219693359375,0.9217615127563477,0.20756757259368896,-0.1510169953107834
1788679274736872400,10.23587255859375,1.2062702178955078,-0.11277830600738525,-0.03924603760242462
1788679274753010000,10.252010009765625,1.3897895812988281,-0.43076157569885254,-0.06392937898635864
1788679274769182000,10.268181884765625,1.539407730102539,-0.6691632866859436,-0.04184423387050629
1788679274785329700,10.28432958984375,1.4977149963378906,-0.803104817867279,0.021185047924518585
1788679274801506000,10.300506103515625,1.1877775192260742,-0.703841507434845,0.18102198839187622
1788679274817659600,10.31665966796875,0.8022794723510742,-0.5054856538772583,0.4224913418292999
1788679274833794300,10.332794189453125,0.5831737518310547,-0.4006422758102417,0.7419567108154297
1788679274849969200,10.34896923828125,1.054443359375,-0.6013691425323486,1.1427098512649536
1788679274866116400,10.365116455078125,1.7751331329345703,-0.9728642702102661,1.2205158472061157
1788679274882294500,10.38129443359375,2.7093448638916016,-1.1494190692901611,0.6383317112922668
1788679274898449000,10.397448974609375,2.616483688354492,-1.1374375820159912,-0.20713147521018982
1788679274914618400,10.413618408203124,1.569366455078125,-0.933469295501709,-0.90428227186203
1788679274930806500,10.429806640625,0.6066370010375977,-0.6611088514328003,-1.0038615465164185
1788679274946955500,10.44595556640625,-0.13263225555419922,-0.5151141881942749,-0.2602510452270508
1788679274963124500,10.46212451171875,-0.8460884094238281,-0.36803674697875977,0.5199878215789795
1788679274979278000,10.478278076171875,-1.4275827407836914,-0.2409147024154663,1.0282485485076904
1788679274995418000,10.494418212890626,-1.7778244018554688,-0.15973854064941406,1.3429503440856934
1788679275011615700,10.51061572265625,-1.8282442092895508,-0.030069828033447266,1.1958448886871338
1788679275027764500,10.526764404296875,-1.6469354629516602,0.019882798194885254,0.6581805348396301
1788679275043938000,10.54293798828125,-1.2500934600830078,-0.08341777324676514,0.09803937375545502
1788679275060089000,10.559089111328126,-1.1098260879516602,-0.1016547679901123,-0.21872012317180634
1788679275076231700,10.575231689453124,-1.2098817825317383,0.002149820327758789,-0.2805594801902771
1788679275092434400,10.591434326171875,-1.3633155822753906,0.15149319171905518,-0.21906259655952454
1788679275108582700,10.607582763671875,-1.4823293685913086,0.24081134796142578,-0.20086799561977386
1788679275124756500,10.623756591796875,-1.383662223815918,0.32070469856262207,-0.11504407227039337
1788679275140911900,10.639911865234374,-1.130082130432129,0.39798474311828613,0.06731018424034119
1788679275157051600,10.6560517578125,-0.7337427139282227,0.4388468265533447,0.4861398935317993
1788679275173262600,10.6722626953125,-0.33322620391845703,0.43427956104278564,0.6910017132759094
1788679275189408800,10.68840869140625,0.23547649383544922,0.3559417724609375,0.5258492231369019
1788679275205583600,10.70458349609375,0.7813692092895508,0.2472522258758545,0.22913338243961334
1788679275221742800,10.720742919921875,0.9484777450561523,0.25682592391967773,-0.2820386290550232
1788679275237895400,10.7368955078125,0.6908607482910156,0.41593027114868164,-0.5302689075469971
1788679275254094300,10.75309423828125,0.3368816375732422,0.5214464664459229,-0.4708033800125122
1788679275270243600,10.76924365234375,0.31755733489990234,0.46739041805267334,-0.19589002430438995
1788679275286419700,10.785419677734374,0.7575511932373047,0.2053072452545166,0.14625760912895203
1788679275302575600,10.80157568359375,1.357213020324707,-0.13688421249389648,0.2776094079017639
1788679275318737200,10.817737060546875,1.9687433242797852,-0.4386032819747925,0.30671945214271545
1788679275334910500,10.833910400390625,1.9300451278686523,-0.6793465614318848,0.4219912886619568
1788679275351063600,10.8500634765625,1.1987895965576172,-0.6163939833641052,0.4268154501914978
1788679275367238100,10.866238037109374,0.3570680618286133,-0.4508514404296875,0.34625691175460815
1788679275383393800,10.882393798828126,0.4003314971923828,-0.430763840675354,0.33473309874534607
1788679275399568000,10.89856787109375,1.5575790405273438,-0.8131555318832397,0.37912365794181824
1788679275415756800,10.9147568359375,2.6124305725097656,-1.1254552602767944,0.2231661081314087
1788679275431909600,10.93090966796875,2.8691558837890625,-1.1962791681289673,-0.33117929100990295
1788679275448088300,10.94708837890625,1.5618305206298828,-1.0653650760650635,-0.8571754693984985
1788679275464243000,10.963242919921875,-0.07760238647460938,-0.7626809477806091,-1.045396089553833
1788679275480415000,10.9794150390625,-0.6615486145019531,-0.4132199287414551,-0.8175190687179565
1788679275496611600,10.995611572265625,-0.3920764923095703,-0.26546335220336914,-0.2012588381767273
1788679275512760800,11.0117607421875,-0.054988861083984375,-0.2380354404449463,0.14501918852329254
1788679275528934700,11.0279345703125,-0.03366851806640625,-0.20174264907836914,0.17201274633407593
1788679275545090600,11.044090576171875,-0.23184585571289062,-0.11522674560546875,0.06452421098947525
1788679275561230800,11.06023095703125,-0.2407989501953125,-0.1321408748626709,-0.08225603401660919
1788679275577437400,11.0764375,-0.09641170501708984,-0.2167656421661377,-0.14322391152381897
1788679275593587500,11.09258740234375,-0.13262462615966797,-0.1908869743347168,-0.2827834486961365
1788679275609763300,11.108763427734376,-0.30144596099853516,-0.23208296298980713,-0.3482949733734131
1788679275625919700,11.124919677734376,-0.45214366912841797,-0.1882990598678589,-0.518022358417511
1788679275642057500,11.141057373046875,-0.6439542770385742,-0.13810443878173828,-0.6157669425010681
1788679275658275000,11.157275146484375,-0.9487905502319336,-0.23188543319702148,-0.472941517829895
1788679275674424600,11.173424560546875,-1.2522058486938477,-0.14880585670471191,-0.346935898065567
1788679275690601200,11.189601318359376,-1.3830480575561523,-0.0593869686126709,-0.05559876561164856
1788679275706755000,11.205755126953125,-1.1536197662353516,-0.08650171756744385,0.2693341076374054
1788679275722890500,11.221890380859374,-0.6480741500854492,-0.17770802974700928,0.5132490992546082
1788679275739109600,11.238109619140625,-0.26291942596435547,-0.2581350803375244,0.4581751227378845
1788679275755258400,11.25425830078125,-0.1460256576538086,-0.16613256931304932,0.042389675974845886
1788679275771433000,11.270432861328125,-0.06031322479248047,-0.15390431880950928,-0.21443352103233337
1788679275787588400,11.28658837890625,0.17615985870361328,-0.037853360176086426,-0.3105389475822449
1788679275803729000,11.30272900390625,0.4531526565551758,-0.11969947814941406,-0.2665663957595825
1788679275819912700,11.31891259765625,0.6833648681640625,-0.43401122093200684,-0.10576638579368591
1788679275836059400,11.335059326171875,1.2055788040161133,-0.6169605851173401,0.2054610550403595
1788679275852235300,11.3512353515625,1.75372314453125,-0.8028584718704224,0.5169475078582764
1788679275868386300,11.36738623046875,2.3073348999023438,-0.8625414967536926,0.45594704151153564
1788679275884557800,11.383557861328125,2.0861968994140625,-0.6777620315551758,0.2365158200263977
1788679275900742700,11.39974267578125,1.1535329818725586,-0.5160685777664185,-0.08188436180353165
1788679275916895000,11.41589501953125,0.8995552062988281,-0.41579151153564453,-0.023246146738529205
1788679275933071400,11.4320712890625,1.288492202758789,-0.6489228010177612,0.6497220993041992
1788679275949226500,11.4482265625,2.2795839309692383,-0.8569083213806152,0.7821753025054932
1788679275965407200,11.4644072265625,2.555304527282715,-0.9887246489524841,0.42297911643981934
1788679275981608400,11.4806083984375,1.2438831329345703,-1.0162690877914429,-0.14012983441352844
1788679275997757000,11.4967568359375,-0.6378173828125,-0.72853022813797,-0.6717889308929443
1788679276013969700,11.5129697265625,-1.4662456512451172,-0.539216160774231,-0.6634373664855957
1788679276030127400,11.52912744140625,-1.5007143020629883,-0.40092504024505615,-0.20482535660266876
1788679276046271200,11.545271240234374,-0.9420804977416992,-0.3589218854904175,0.33959925174713135
1788679276062483200,11.561483154296875,-0.3563957214355469,-0.437722384929657,0.8808627128601074
1788679276078637000,11.577636962890624,-0.09368610382080078,-0.4003228545188904,0.9462290406227112
1788679276094814500,11.593814453125,-0.3012676239013672,-0.21353507041931152,0.7393760681152344
1788679276110970600,11.609970703125,-0.9693326950073242,-0.08705747127532959,0.4469008445739746
1788679276127114800,11.62611474609375,-1.7490434646606445,-0.009397625923156738,0.23520758748054504
1788679276143324000,11.642323974609376,-2.1192169189453125,0.10887455940246582,0.21684890985488892
1788679276159474000,11.658473876953124,-2.2239198684692383,0.20537269115447998,0.18271851539611816
1788679276175687200,11.674687255859375,-2.323573589324951,0.17715561389923096,0.22259938716888428
1788679276191844000,11.690843994140625,-2.4581446647644043,0.26527857780456543,0.2884339690208435
1788679276208036600,11.70703662109375,-2.474799156188965,0.3647116422653198,0.24946609139442444
1788679276224211200,11.723211181640625,-2.2333292961120605,0.34526944160461426,0.2632795572280884
1788679276240354000,11.73935400390625,-1.8846521377563477,0.2966402769088745,0.12086937576532364
1788679276256516000,11.75551611328125,-1.691415786743164,0.3065100908279419,-0.07843147963285446
1788679276272672000,11.771672119140625,-1.6622295379638672,0.257254958152771,-0.2706856429576874
1788679276288840000,11.78783984375,-1.9257993698120117,0.21422851085662842,-0.4084314703941345
1788679276305003800,11.804003662109375,-2.159520149230957,0.2904951572418213,-0.48668453097343445
1788679276321094100,11.82009423828125,-1.9285974502563477,0.33770740032196045,-0.31506145000457764
1788679276337258800,11.8362587890625,-1.553915023803711,0.35338103771209717,-0.17129352688789368
1788679276353404400,11.852404296875,-1.3910894393920898,0.17092692852020264,-0.10206171870231628
1788679276369601300,11.868601318359374,-1.3868942260742188,-0.200935959815979,-0.015218570828437805
1788679276385788000,11.884787841796875,-1.1394758224487305,-0.5857409238815308,0.22870555520057678
1788679276401939200,11.900939208984376,-0.8847570419311523,-0.43550312519073486,0.3416074514389038
1788679276418117600,11.91711767578125,-1.0146007537841797,0.18681347370147705,0.08212071657180786
1788679276434275600,11.933275634765625,-1.2774229049682617,0.5096714496612549,-0.22320523858070374
1788679276450411500,11.94941162109375,-0.2980012893676758,0.2936973571777344,-0.3209269642829895
1788679276466608000,11.965608154296875,1.5941553115844727,-0.10600221157073975,0.3721615672111511
1788679276482759400,11.981759521484374,2.778204917907715,-0.5514671802520752,0.7570526599884033
1788679276498969000,11.997968994140624,3.0773582458496094,-0.7723226547241211,0.45501601696014404
1788679276515125000,12.014125,2.8409156799316406,-0.9966238141059875,0.3796900510787964
1788679276531296500,12.030296630859375,2.028575897216797,-1.1670947074890137,0.7076305150985718
1788679276547508700,12.0465087890625,1.0961732864379883,-0.8188308477401733,0.8313725590705872
1788679276563658000,12.062657958984374,0.7989826202392578,-0.40781474113464355,0.6704427599906921
1788679276579836000,12.0788359375,1.1237592697143555,-0.33978235721588135,0.14966991543769836
1788679276595966000,12.094966064453125,1.6006860733032227,-0.43123888969421387,-0.08201003074645996
1788679276612106500,12.1111064453125,1.8945817947387695,-0.4220641851425171,-0.03845978528261185
1788679276628282600,12.12728271484375,1.4045162200927734,-0.3956528902053833,-0.13846373558044434
1788679276644368600,12.14336865234375,0.146209716796875,-0.5653151273727417,-0.23011991381645203
1788679276660581400,12.159581298828124,-1.714287281036377,-0.7561314105987549,-0.30435827374458313
1788679276676717300,12.17571728515625,-2.5818657875061035,-0.7456293702125549,-0.5465781092643738
1788679276692889900,12.191889892578125,-1.987067699432373,-0.5837403535842896,-0.6796308159828186
1788679276709064700,12.208064697265625,-1.191396713256836,-0.3967287540435791,-0.534034252166748
1788679276725213000,12.224212890625,-1.4693784713745117,-0.2522033452987671,-0.09835720807313919
1788679276741387800,12.2403876953125,-2.8982367515563965,-0.11417436599731445,0.28222382068634033
1788679276757543700,12.256543701171875,-3.4013476371765137,0.3041224479675293,0.06542371213436127
1788679276773719000,12.272718994140625,-1.5700006484985352,0.5538963079452515,0.2669432759284973
1788679276789901800,12.28890185546875,0.4440164566040039,0.36602842807769775,0.9156351089477539
1788679276806054100,12.30505419921875,0.6342744827270508,0.12636423110961914,0.8323563933372498
1788679276822224600,12.321224609375,0.2350006103515625,-0.030398011207580566,0.28898945450782776
1788679276838347300,12.33734716796875,-0.07902908325195312,-0.1774221658706665,-0.019584115594625473
1788679276854488600,12.353488525390626,-0.2911520004272461,-0.08516621589660645,-0.17691344022750854
1788679276870683100,12.36968310546875,0.9666862487792969,0.5824737548828125,-0.4909404516220093
1788679276886834200,12.385834228515625,2.8932199478149414,0.15341830253601074,-0.22683320939540863
1788679276903047200,12.402047119140626,3.5759363174438477,-0.25211668014526367,0.022552097216248512
1788679276919203800,12.418203857421876,1.9586982727050781,0.16342127323150635,-0.2849913239479065
1788679276935388700,12.434388671875,-0.6574316024780273,0.6043879985809326,-0.49047622084617615
1788679276951592200,12.45059228515625,-1.981142520904541,0.3154881000518799,-0.2433076798915863
1788679276967744300,12.466744140625,-0.8699865341186523,-0.167472243309021,-0.2450035810470581
1788679276983913200,12.482913330078125,0.7013835906982422,-0.560186505317688,-0.534304141998291
1788679277000072400,12.499072509765625,-0.0001049041748046875,-0.5648326277732849,-0.7780355215072632
1788679277016238300,12.51523828125,-1.9110331535339355,-0.02565443515777588,-1.2031277418136597
1788679277032428800,12.5314287109375,-3.2266249656677246,0.9076701402664185,-2.005547046661377
1788679277048562400,12.5475625,-1.5046615600585938,0.8592875003814697,-1.5239492654800415
1788679277064680700,12.5636806640625,1.0462207794189453,-0.2294621467590332,0.48250889778137207
1788679277080762600,12.5797626953125,1.4925899505615234,-0.3478466272354126,1.5946006774902344
1788679277096814600,12.595814697265626,0.044028282165527344,0.6940162181854248,1.216414213180542
1788679277112936200,12.611936279296875,-0.18683815002441406,0.8229117393493652,1.5832774639129639
1788679277128974300,12.627974365234374,2.956324577331543,-0.26810383796691895,1.4818395376205444
1788679277145188600,12.644188720703125,8.509469032287598,-1.4597046375274658,0.9825907945632935
1788679277161348400,12.660348388671874,10.077606201171875,-1.765487790107727,0.24359595775604248
1788679277177538800,12.676538818359376,7.016761779785156,-1.4796346426010132,-0.20720085501670837
1788679277193758700,12.6927587890625,2.176553726196289,-0.2720750570297241,-0.6602907180786133
1788679277209898500,12.7088984375,-1.5057287216186523,1.0500448942184448,-0.40938183665275574
1788679277226115300,12.725115234375,-3.209296703338623,1.7856396436691284,0.1020900309085846
1788679277242274600,12.741274658203125,-3.0623345375061035,1.7083609104156494,0.6166858077049255
1788679277258478300,12.757478271484375,-1.938028335571289,0.7569509744644165,0.505961537361145
1788679277274660600,12.77366064453125,-1.2207889556884766,-0.10033142566680908,0.1381720006465912
1788679277290810600,12.789810546875,-1.535691261291504,-0.34850013256073,-0.29555457830429077
1788679277306981600,12.805981689453125,-2.342942714691162,-0.14654254913330078,-0.7245954275131226
1788679277323127300,12.822127197265624,-2.6630330085754395,0.23357975482940674,-1.141511082649231
1788679277339335700,12.838335693359374,-1.5528135299682617,0.4996459484100342,-0.9969139099121094
1788679277355527200,12.854527099609374,1.2751188278198242,0.252410888671875,-0.630314826965332
1788679277371680500,12.870680419921875,2.959588050842285,0.11498260498046875,0.9690566062927246
1788679277387890200,12.88689013671875,2.74276065826416,-0.4400562047958374,1.8782967329025269
1788679277404046600,12.903046630859375,0.5089321136474609,-0.43189263343811035,1.2051336765289307
1788679277420218000,12.919218017578125,-1.4671955108642578,0.033942222595214844,0.3854353725910187
1788679277436436200,12.935436279296875,-1.4701967239379883,0.14605712890625,-0.036527201533317566
1788679277452588500,12.951588623046876,0.5703344345092773,-0.1020505428314209,0.04803770035505295
1788679277468775700,12.967775634765625,2.94631290435791,-0.30523037910461426,0.43487298488616943
1788679277484929000,12.983928955078126,3.336611747741699,-0.3617117404937744,0.6968761086463928
1788679277501105200,13.000105224609374,1.8736076354980469,-0.03887903690338135,0.5998143553733826
1788679277517161200,13.0161611328125,-0.17730236053466797,0.6252611875534058,0.007883377373218536
1788679277533266000,13.032265869140625,-1.184194564819336,0.9224541187286377,-0.08318740129470825
1788679277549476400,13.048476318359375,-0.8093366622924805,0.8215029239654541,0.3307346999645233
1788679277565633500,13.064633544921875,-0.050721168518066406,0.736595630645752,0.8263996839523315
1788679277581774800,13.08077490234375,0.8282079696655273,0.387195348739624,0.996121883392334
1788679277597999000,13.0969990234375,1.1617431640625,-0.01006937026977539,0.6961585283279419
1788679277614147600,13.113147705078125,0.37083911895751953,-0.1908276081085205,0.17774206399917603
1788679277630322700,13.12932275390625,-0.36620521545410156,-0.3447939157485962,-0.2719939649105072
1788679277646480400,13.14548046875,-0.45002174377441406,-0.3096630573272705,-0.5028848052024841
1788679277662617000,13.1616171875,0.3251810073852539,-0.18123507499694824,-0.6149042248725891
1788679277678794200,13.177794189453126,1.380716323852539,-0.056705474853515625,-0.7535804510116577
1788679277694942700,13.193942626953126,2.1748151779174805,0.009132623672485352,-0.6039574146270752
1788679277711149300,13.2101494140625,2.3071746826171875,0.26158618927001953,-0.6942898035049438
1788679277727303400,13.226303466796875,1.5492095947265625,0.5938432216644287,-0.9168239831924438
1788679277743439600,13.242439697265626,1.0693283081054688,0.2848799228668213,-0.1436060070991516
1788679277759619600,13.25861962890625,1.9958457946777344,-0.15971159934997559,0.9227238893508911
1788679277775768600,13.2747685546875,3.8274688720703125,-0.23867154121398926,1.358363389968872
1788679277791976400,13.2909765625,3.7900609970092773,-0.7429386377334595,1.2462161779403687
1788679277808132400,13.30713232421875,1.9875555038452148,-0.7318211793899536,-0.013285279273986816
1788679277824212500,13.32321240234375,0.014537811279296875,-0.07313156127929688,-1.1169655323028564
1788679277840403700,13.33940380859375,-1.2258567810058594,0.2915003299713135,-1.0648679733276367
1788679277856554500,13.355554443359376,-1.152496337890625,0.6505603790283203,-0.8649613261222839
1788679277872720600,13.371720703125,-0.15390586853027344,0.8554445505142212,-0.3273234963417053
1788679277888873700,13.387873779296875,0.6450262069702148,0.7519561052322388,0.18740737438201904
1788679277905015000,13.40401513671875,0.5686759948730469,0.6494473218917847,0.2070450782775879
1788679277921216500,13.420216552734376,0.23325729370117188,0.5346372127532959,-0.09642010927200317
1788679277937357600,13.436357666015626,-0.11614799499511719,0.037912964820861816,-0.24389907717704773
1788679277953535500,13.452535400390625,0.1736297607421875,-0.30011653900146484,-0.30464962124824524
1788679277969694200,13.468694091796875,0.9844827651977539,-0.34633731842041016,-0.04071691632270813
1788679277985835500,13.48483544921875,1.3018245697021484,-0.29604601860046387,0.18061164021492004
1788679278002051000,13.501051025390625,0.7602405548095703,-0.36533522605895996,0.46301203966140747
1788679278018200600,13.51720068359375,0.2481527328491211,-0.605475664138794,0.7323294878005981
1788679278034376400,13.53337646484375,0.3676586151123047,-0.6790473461151123,0.7991870641708374
1788679278050532000,13.549531982421875,0.7627334594726562,-0.7670551538467407,0.8280586004257202
1788679278066682400,13.565682373046876,0.7737302780151367,-0.534716010093689,0.5560154914855957
1788679278082903000,13.581903076171875,0.4371652603149414,-0.2142493724822998,0.3101823329925537
1788679278099052500,13.598052490234375,0.23180294036865234,-0.10062980651855469,0.25880807638168335
1788679278115231000,13.61423095703125,0.33925533294677734,-0.16571104526519775,0.4158526062965393
1788679278131384600,13.630384521484375,1.2973051071166992,-0.55497145652771,0.4454769194126129
1788679278147574300,13.64657421875,3.3402767181396484,-0.6210895776748657,0.4221573770046234
1788679278163746800,13.662746826171874,4.56573486328125,-0.7159491777420044,0.4326229989528656
1788679278179894300,13.678894287109374,3.4284515380859375,-0.9057712554931641,0.47990190982818604
1788679278196101600,13.6951015625,0.7949619293212891,-0.48149728775024414,-0.05211721360683441
1788679278212256500,13.711256591796875,-1.1422224044799805,0.11836361885070801,-0.46961385011672974
1788679278228459500,13.72745947265625,-1.908799171447754,0.3321279287338257,-0.04101743549108505
1788679278244640000,13.743639892578125,-1.9509658813476562,0.3085663318634033,0.7481347322463989
1788679278260786200,13.7597861328125,-1.6350746154785156,0.1202392578125,1.220053791999817
1788679278276955100,13.775955078125,-1.1761760711669922,-0.05910015106201172,1.2224202156066895
1788679278293110000,13.792110107421875,-0.5377311706542969,0.006067037582397461,0.8666529059410095
1788679278309246200,13.80824609375,-0.10389232635498047,-0.02308368682861328,0.23279082775115967
1788679278325440000,13.82443994140625,-0.026627540588378906,-0.17640864849090576,-0.14561733603477478
1788679278341588000,13.840587890625,-0.5228404998779297,-0.16271448135375977,-0.11869010329246521
1788679278357763800,13.856763916015625,-0.9604101181030273,0.09550321102142334,-0.06822963804006577
1788679278373916700,13.872916748046874,-1.3015022277832031,0.3367401361465454,-0.1359855830669403
1788679278390055000,13.889054931640626,-1.3283891677856445,0.41249406337738037,-0.2019387185573578
1788679278406257000,13.9052568359375,-1.1730823516845703,0.4496663808822632,0.00546206533908844
1788679278422403800,13.92140380859375,-1.0481042861938477,0.499517560005188,0.39943641424179077
1788679278438576000,13.937576171875,-1.2815437316894531,0.5358978509902954,0.6947957873344421
1788679278454730800,13.953730712890625,-1.4270286560058594,0.5495861768722534,0.8347034454345703
1788679278470869000,13.969868896484375,-1.1747016906738281,0.5365869998931885,0.7973655462265015
1788679278487084300,13.986084228515624,-0.5749711990356445,0.43332111835479736,0.594929039478302
1788679278503235000,14.002235107421875,0.13774394989013672,0.26758873462677,0.24556225538253784
1788679278519409200,14.0184091796875,0.9825010299682617,0.23869562149047852,-0.14490443468093872
1788679278535568100,14.034568115234375,1.5763273239135742,0.2502176761627197,-0.4897299110889435
1788679278551705000,14.050705078125,1.6345596313476562,0.3387719392776489,-0.5928260087966919
1788679278567922700,14.066922607421875,1.3236923217773438,0.43081021308898926,-0.5904182195663452
1788679278584071400,14.083071533203125,1.1403131484985352,0.33561885356903076,-0.3912400007247925
1788679278600250600,14.099250732421876,1.096144676208496,-0.029511332511901855,-0.005138532258570194
1788679278616408800,14.115408935546874,0.9649133682250977,-0.4152578115463257,0.26828211545944214
1788679278632550700,14.131550537109375,0.28724098205566406,-0.27246642112731934,0.11544512212276459
1788679278648725500,14.1477255859375,-0.04363059997558594,0.020325183868408203,0.008681543171405792
1788679278664877600,14.163877685546876,0.004082679748535156,0.02582085132598877,0.18638737499713898
1788679278681055000,14.180054931640624,0.8360757827758789,-0.33999621868133545,0.5427449345588684
1788679278697210400,14.19621044921875,2.265103340148926,-0.7679370641708374,0.7525041699409485
1788679278713414100,14.2124140625,3.2576417922973633,-1.0307130813598633,0.5481539368629456
1788679278729592800,14.2285927734375,2.9575815200805664,-1.088165283203125,-0.025412965565919876
1788679278745742600,14.24474267578125,1.3337459564208984,-0.8238949775695801,-0.6304303407669067
1788679278761955000,14.260955078125,0.03250885009765625,-0.38362574577331543,-0.8849731087684631
1788679278778134000,14.277134033203126,-0.7331371307373047,-0.1389005184173584,-0.7070817351341248
1788679278794312200,14.293312255859375,-0.9920454025268555,-0.015547037124633789,-0.3254896402359009
1788679278810499300,14.309499267578126,-0.8205013275146484,0.06274127960205078,-0.12869054079055786
1788679278826652200,14.325652099609375,-0.6649179458618164,-0.02564537525177002,0.022989176213741302
1788679278842810600,14.341810546875,-0.7394132614135742,-0.14561498165130615,0.19288426637649536
1788679278858968000,14.357968017578125,-0.6033344268798828,-0.2298063039779663,0.27602189779281616
1788679278875105500,14.37410546875,-0.5247879028320312,-0.2231985330581665,0.29977482557296753
1788679278891301000,14.390301025390626,-0.6147956848144531,-0.15845715999603271,0.007783710956573486
1788679278907446300,14.4064462890625,-0.8438653945922852,0.021331191062927246,-0.3847113251686096
1788679278923620600,14.42262060546875,-1.016413688659668,0.19597125053405762,-0.4680401384830475
1788679278939775200,14.438775146484375,-0.867344856262207,0.1581714153289795,-0.38296985626220703
1788679278955923500,14.45492333984375,-0.7625865936279297,0.08286464214324951,-0.3408468961715698
1788679278972130300,14.47113037109375,-0.8507461547851562,0.04348349571228027,-0.1633930206298828
1788679278988282000,14.4872822265625,-0.9021739959716797,0.13841509819030762,0.07144990563392639
1788679279004459800,14.503459716796876,-0.6428556442260742,0.227319598197937,0.26428449153900146
1788679279020615200,14.519615234375,0.06811904907226562,0.11819207668304443,0.4074820280075073
1788679279036759600,14.535759521484374,-1.1974859237670898,-0.20009171962738037,0.41229063272476196
1788679279052979700,14.551979736328125,-1.019266128540039,0.15752756595611572,-0.9968116283416748
1788679279069132000,14.568132080078126,-0.1535177230834961,-0.046823978424072266,0.5017772316932678
1788679279085343200,14.58434326171875,2.7631845474243164,0.25805866718292236,0.5735965371131897
1788679279101500400,14.60050048828125,2.519989013671875,0.3898872137069702,1.0635274648666382
1788679279117694000,14.61669384765625,0.26107120513916016,0.38243043422698975,0.15596666932106018
1788679279133869000,14.632869140625,-1.1409730911254883,-0.10402846336364746,-0.9395126700401306
1788679279150017500,14.649017578125,0.2300586700439453,0.024685382843017578,-1.2467920780181885
1788679279166188800,14.665188720703124,2.7925662994384766,-0.17447960376739502,-0.10010325163602829
1788679279182345500,14.681345458984374,4.434277534484863,-0.4592416286468506,0.8473334312438965
1788679279198549000,14.697549072265625,3.4533767700195312,-0.12762105464935303,0.6037930846214294
1788679279214672600,14.713672607421875,1.4221878051757812,0.14852988719940186,-0.17974844574928284
1788679279230781700,14.72978173828125,0.10283088684082031,0.3556497097015381,-0.28900566697120667
1788679279246995000,14.745994873046875,0.39873695373535156,-0.054177284240722656,0.35572630167007446
1788679279263153400,14.7621533203125,1.815718650817871,-0.6253553628921509,0.8178499937057495
1788679279279325700,14.77832568359375,2.9741897583007812,-0.7857344150543213,0.44512295722961426
1788679279295519500,14.79451953125,2.5539846420288086,-0.7689385414123535,-0.11649798601865768
1788679279311670000,14.810669921875,1.2041301727294922,-0.49105334281921387,-0.7789467573165894
1788679279327882500,14.826882568359375,-0.19840240478515625,-0.31359100341796875,-0.6838914155960083
1788679279344039200,14.8430390625,-0.9312715530395508,-0.25266385078430176,0.028453867882490158
1788679279360170500,14.85917041015625,-1.1939010620117188,-0.10481607913970947,0.8021031618118286
1788679279376379400,14.87537939453125,-1.0447053909301758,-0.10637271404266357,1.359961986541748
1788679279392530000,14.891530029296876,-0.885228157043457,-0.14436638355255127,1.420608639717102
1788679279408704000,14.9077041015625,-0.898951530456543,-0.20096147060394287,1.004878282546997
1788679279424857600,14.923857666015625,-1.1020002365112305,-0.24467337131500244,0.35675349831581116
1788679279440994600,14.93999462890625,-1.4387664794921875,-0.2308880090713501,0.0015520518645644188
1788679279457201200,14.956201171875,-1.6743125915527344,-0.06769263744354248,-0.02510879375040531
1788679279473347800,14.972347900390625,-1.894981861114502,0.11911046504974365,0.0023456141352653503
1788679279489523500,14.9885234375,-1.976374626159668,0.15529894828796387,0.015565454959869385
1788679279505676300,15.00467626953125,-2.0147786140441895,0.1897900104522705,-0.11523717641830444
1788679279521813200,15.020813232421874,-1.917370319366455,0.2352619171142578,-0.19358524680137634
1788679279538032400,15.037032470703124,-1.5076866149902344,0.3363382816314697,-0.06290032714605331
1788679279554181400,15.053181396484375,-0.6826810836791992,0.3631781339645386,0.37236136198043823
1788679279570354200,15.069354248046874,-0.09964466094970703,0.35981178283691406,0.8075516223907471
1788679279586510300,15.08551025390625,-0.05369091033935547,0.44277727603912354,0.9509491324424744
1788679279602650600,15.101650634765624,-0.3197164535522461,0.6211913824081421,0.7314915657043457
1788679279618834000,15.117833984375,-0.17957019805908203,0.59675133228302,0.1939041018486023
1788679279634984000,15.13398388671875,0.558100700378418,0.4260202646255493,-0.3267834782600403
1788679279651156700,15.15015673828125,1.2078304290771484,0.3296264410018921,-0.666430652141571
1788679279667310800,15.166310791015626,1.6942462921142578,0.43304622173309326,-0.8088761568069458
1788679279683451000,15.182450927734376,1.784524917602539,0.32793986797332764,-0.4740424156188965
1788679279699635500,15.198635498046874,1.8687753677368164,0.00039136409759521484,-0.11543847620487213
1788679279715784200,15.2147841796875,1.922511100769043,-0.3170229196548462,0.07076054811477661
1788679279731962600,15.230962646484375,1.5787477493286133,-0.27562105655670166,-0.07467405498027802
1788679279748119000,15.247119140625,1.2203178405761719,-0.1003795862197876,-0.523849606513977
1788679279764264700,15.2632646484375,1.625321388244629,-0.10933518409729004,-0.6399407982826233
1788679279780461600,15.279461669921876,2.762040138244629,-0.4077852964401245,-0.21408821642398834
1788679279796612600,15.295612548828124,3.424696922302246,-0.7928467392921448,0.15498678386211395
1788679279812822000,15.311822021484375,3.071491241455078,-0.9029717445373535,-0.0030965805053710938
1788679279828977700,15.327977783203124,1.4076614379882812,-0.7170771956443787,-0.3900640904903412
1788679279845149200,15.344149169921875,-0.2667703628540039,-0.4660712480545044,-0.565979540348053
1788679279861356000,15.36035595703125,-1.2010831832885742,-0.1837862730026245,-0.5366536378860474
1788679279877504000,15.37650390625,-1.2417488098144531,0.04400599002838135,-0.377089262008667
1788679279893673000,15.3926728515625,-0.8073835372924805,-0.02792227268218994,-0.2594907581806183
1788679279909827000,15.4088271484375,-0.4309730529785156,-0.21839404106140137,-0.2093198448419571
1788679279925971700,15.4249716796875,-0.32369041442871094,-0.4700322151184082,-0.3548133373260498
1788679279942179300,15.441179443359376,-0.32627296447753906,-0.6239229440689087,-0.5195525288581848
1788679279958326800,15.457326904296876,-0.24457359313964844,-0.6523907780647278,-0.5397796630859375
1788679279974502700,15.473502685546874,-0.33619213104248047,-0.6686054468154907,-0.48029282689094543
1788679279990663400,15.489663330078125,-0.578399658203125,-0.549468994140625,-0.469703733921051
1788679280006823000,15.505822998046876,-0.8005399703979492,-0.3393399715423584,-0.5253109931945801
1788679280023043300,15.522043212890624,-0.9352445602416992,-0.184395432472229,-0.49486681818962097
1788679280039192300,15.5381923828125,-1.1929512023925781,-0.17263829708099365,-0.3685300946235657
1788679280055367400,15.554367431640625,-1.4185056686401367,-0.11397862434387207,-0.19559982419013977
1788679280071522000,15.57052197265625,-1.4571876525878906,-0.0023192167282104492,-0.01639971137046814
1788679280087687000,15.58668701171875,-1.1402521133422852,-0.04051220417022705,0.1472151279449463
1788679280103864000,15.602864013671875,-0.6332597732543945,-0.10625767707824707,0.3090074956417084
1788679280120032800,15.61903271484375,-0.25858211517333984,-0.09787428379058838,0.2637879252433777
1788679280136210000,15.6352099609375,-0.2833871841430664,-0.024848580360412598,0.214204341173172
1788679280152366300,15.651366455078126,-0.523442268371582,0.010269999504089355,0.0947660431265831
1788679280168535300,15.667535400390625,-0.4530162811279297,-0.03532612323760986,-0.20466800034046173
1788679280184717300,15.68371728515625,-0.22517108917236328,0.04700636863708496,-0.4839142858982086
1788679280200868900,15.699868896484375,0.17093658447265625,0.24932467937469482,-0.6755110621452332
1788679280217045200,15.716045166015626,0.4416685104370117,0.2820112705230713,-0.5503474473953247
1788679280233201700,15.73220166015625,0.6719331741333008,0.19888758659362793,0.0016118884086608887
1788679280249344800,15.7483447265625,0.9863767623901367,0.034787535667419434,0.5312159657478333
1788679280265531400,15.764531494140625,1.6050729751586914,-0.14885342121124268,0.6542681455612183
1788679280281675000,15.780675048828124,2.478281021118164,-0.23984241485595703,0.3629762530326843
1788679280297858000,15.796858154296874,2.5282936096191406,-0.18852543830871582,-0.09900690615177155
1788679280313995800,15.812995849609376,1.8641996383666992,-0.14258277416229248,-0.4005800187587738
1788679280330136300,15.82913623046875,1.518052101135254,-0.1701033115386963,-0.3206680417060852
1788679280346339000,15.845339111328125,1.8062858581542969,-0.3288336992263794,0.12123817205429077
1788679280362491400,15.861491455078125,2.5369577407836914,-0.48451054096221924,0.338703989982605
1788679280378694400,15.8776943359375,2.583909034729004,-0.640401303768158,0.23063641786575317
1788679280394851000,15.89385107421875,1.7668352127075195,-0.5621776580810547,-0.1718333661556244
1788679280410994400,15.909994384765625,0.6505584716796875,-0.46093320846557617,-0.5599228739738464
1788679280427207700,15.926207763671876,-0.4225311279296875,-0.3671424388885498,-0.6899410486221313
1788679280443357700,15.942357666015624,-0.8886547088623047,-0.31393933296203613,-0.2444932907819748
1788679280459533000,15.958532958984375,-0.8030061721801758,-0.30146515369415283,0.37204402685165405
1788679280475692300,15.9746923828125,-0.5841464996337891,-0.2665417194366455,0.7894180417060852
1788679280491831000,15.9908310546875,-0.4814338684082031,-0.19945693016052246,0.5639960765838623
1788679280508056000,16.00705615234375,-0.6606550216674805,-0.15493249893188477,0.10324285924434662
1788679280524209000,16.023208984375,-1.015620231628418,-0.11204946041107178,-0.22065432369709015
1788679280540367000,16.0393671875,-1.1088533401489258,0.010826468467712402,-0.22318464517593384
1788679280556478200,16.055478271484375,-1.1365890502929688,0.11540806293487549,-0.1581132411956787
1788679280572607500,16.071607421875,-1.0391321182250977,0.21117639541625977,-0.10663214325904846
1788679280588773400,16.0877734375,-1.103196144104004,0.21385741233825684,-0.08415165543556213
1788679280604924200,16.103924072265624,-1.2445335388183594,0.19189679622650146,-0.11419722437858582
1788679280621086500,16.12008642578125,-1.4048328399658203,0.2987351417541504,-0.24918195605278015
1788679280637239800,16.13623974609375,-1.1810579299926758,0.33168017864227295,-0.1324213147163391
1788679280653380000,16.152380126953126,-0.6836433410644531,0.37030327320098877,0.24997465312480927
1788679280669569800,16.16856982421875,-0.24191856384277344,0.3549143075942993,0.5453872084617615
1788679280685721300,16.184721435546876,-0.09396934509277344,0.3060648441314697,0.5461151599884033
1788679280701901000,16.200901123046876,-0.059871673583984375,0.20049047470092773,0.320330947637558
1788679280718056200,16.21705615234375,-0.05864143371582031,0.16626906394958496,0.1219642162322998
1788679280734193400,16.233193359375,0.17795372009277344,0.19353342056274414,0.014466196298599243
1788679280750390300,16.249390380859374,0.3918943405151367,0.36693739891052246,-0.12720534205436707
1788679280766538800,16.265538818359374,0.20611286163330078,0.5456483364105225,-0.1141931414604187
1788679280782712800,16.281712890625,-0.14668560028076172,0.5217095613479614,0.09988793730735779
1788679280798865400,16.297865478515625,0.12020397186279297,0.3435176610946655,0.48033347725868225
1788679280815016000,16.314015869140626,0.9421377182006836,0.025263309478759766,0.7993953227996826
1788679280831222000,16.330221923828127,1.7145757675170898,-0.34697890281677246,0.767420768737793
1788679280847372000,16.3463720703125,1.4919242858886719,-0.5125565528869629,0.5169733762741089
1788679280863550000,16.362550048828126,0.7637500762939453,-0.3387587070465088,0.3593372702598572
1788679280879709200,16.378709228515625,0.4421567916870117,-0.11656618118286133,0.18449091911315918
1788679280895854300,16.394854248046876,0.8445167541503906,0.035565853118896484,0.03603392839431763
1788679280912073500,16.411073486328124,1.5211334228515625,-0.2422717809677124,0.0732453465461731
1788679280928221200,16.42722119140625,2.380061149597168,-0.5663204193115234,-0.05576896667480469
1788679280944433200,16.44343310546875,2.7165603637695312,-0.7154074907302856,-0.4463459849357605
1788679280960589300,16.45958935546875,2.273360252380371,-0.770108699798584,-0.5737226009368896
1788679280976745500,16.475745361328126,1.1376752853393555,-0.7138054370880127,-0.5783893465995789
1788679280992918300,16.491918212890624,0.28757190704345703,-0.43976831436157227,-0.7249364256858826
1788679281009071400,16.5080712890625,-0.10207557678222656,-0.25990545749664307,-0.5632578730583191
1788679281025243100,16.5242431640625,-0.29370784759521484,-0.20082569122314453,-0.2465529441833496
1788679281041399300,16.5403994140625,-0.37902355194091797,-0.17368710041046143,-0.20067304372787476
1788679281057556000,16.556555908203126,-0.2906761169433594,-0.20426201820373535,0.02802485227584839
1788679281073729800,16.572729736328125,-0.3874387741088867,-0.3079249858856201,0.19302862882614136
1788679281089879600,16.588879638671877,-0.35863304138183594,-0.38693463802337646,0.09318709373474121
1788679281106056700,16.605056640625,-0.5611734390258789,-0.34235167503356934,-0.03536868095397949
1788679281122211800,16.6212119140625,-0.9145469665527344,-0.17070090770721436,0.013767838478088379
1788679281138387000,16.637386962890623,-1.2788057327270508,-0.10922038555145264,-0.11493968963623047
1788679281154575600,16.65357568359375,-1.5722408294677734,-0.043702006340026855,-0.2698046565055847
1788679281170728000,16.66972802734375,-1.6343293190002441,0.0738222599029541,-0.1089322566986084
1788679281186904600,16.685904541015624,-1.3056621551513672,0.04386794567108154,0.19765180349349976
1788679281203060500,16.702060546875,-0.42821693420410156,-0.11576032638549805,0.38169237971305847
1788679281219201300,16.718201171875,0.21010208129882812,-0.09520220756530762,0.5671727061271667
1788679281235395600,16.7343955078125,0.03319835662841797,-0.021982789039611816,0.4142475724220276
1788679281251544000,16.7505439453125,-0.12580585479736328,0.038469791412353516,0.8016146421432495
1788679281267718700,16.76671875,-2.8856329917907715,0.5725165605545044,-0.7874883413314819
1788679281283873500,16.78287353515625,-0.7772388458251953,-0.1878499984741211,0.8422783017158508
1788679281300045000,16.799045166015624,1.2368040084838867,0.28753185272216797,0.546075165271759
1788679281316254200,16.815254150390626,1.5107202529907227,0.2051149606704712,0.6555565595626831
1788679281332402200,16.831402099609374,0.3999605178833008,0.352777361869812,0.010258793830871582
1788679281348568800,16.84756884765625,-0.9656295776367188,0.42917895317077637,-0.6610116362571716
1788679281364721000,16.863720947265627,-0.7873096466064453,0.12068569660186768,-1.5214000940322876
1788679281380859000,16.87985888671875,0.7247734069824219,-0.1122204065322876,-0.7102880477905273
1788679281397070600,16.896070556640623,3.0072059631347656,-0.21151983737945557,0.07955554127693176
1788679281413222100,16.91222216796875,4.309857368469238,-0.5770506858825684,0.4733237624168396
1788679281429431300,16.928431396484374,3.1905698776245117,-0.4227715730667114,0.07824262976646423
1788679281445584400,16.94458447265625,0.8234081268310547,-0.0035126209259033203,-0.4257809817790985
1788679281461757400,16.96075732421875,-0.06998825073242188,0.19614958763122559,-0.29411885142326355
1788679281477958100,16.976958251953125,0.7713661193847656,-0.119759202003479,0.4065629541873932
1788679281494108200,16.993108154296873,1.9871845245361328,-0.40849924087524414,0.8122562170028687
1788679281510318600,17.009318603515624,2.7931175231933594,-0.6308194398880005,0.8367651700973511
1788679281526471200,17.02547119140625,2.4784774780273438,-0.8028364181518555,0.33212417364120483
1788679281542607600,17.041607666015626,1.5072851181030273,-0.7196440100669861,-0.46466267108917236
1788679281558782200,17.0577822265625,0.5906925201416016,-0.6372619867324829,-0.6664766073226929
1788679281574932200,17.07393212890625,0.06553268432617188,-0.5935180187225342,-0.22171175479888916
1788679281591100200,17.09010009765625,-0.22105884552001953,-0.5313330888748169,0.1907157599925995
1788679281607254800,17.1062548828125,-0.3425006866455078,-0.4447065591812134,0.5346693992614746
1788679281623389400,17.122389404296875,-0.40642642974853516,-0.4054955244064331,0.6979016065597534
1788679281639574300,17.13857421875,-0.5478553771972656,-0.33298420906066895,0.455794095993042
1788679281655723000,17.154722900390624,-1.0331611633300781,-0.21046316623687744,0.01115041971206665
1788679281671899000,17.17089892578125,-1.50079345703125,-0.06614398956298828,-0.21981653571128845
1788679281688055300,17.18705517578125,-1.9311556816101074,0.0496143102645874,-0.07328322529792786
1788679281704234200,17.203234130859375,-2.226210594177246,0.18063104152679443,0.1612156629562378
1788679281720435700,17.219435791015623,-2.3369832038879395,0.3105611801147461,0.3418178856372833
1788679281736585000,17.2355849609375,-2.3474607467651367,0.34832048416137695,0.25441646575927734
1788679281752798200,17.251798095703126,-2.1695022583007812,0.4284646511077881,0.054239243268966675
1788679281768927200,17.26792724609375,-1.9140243530273438,0.5352082252502441,0.17754575610160828
1788679281785076500,17.284076416015626,-1.6222352981567383,0.6400752067565918,0.49997884035110474
1788679281801282600,17.300282470703124,-1.114553451538086,0.6273516416549683,0.7318884134292603
1788679281817432600,17.3164326171875,-0.40478992462158203,0.5101306438446045,0.7642607688903809
1788679281833610200,17.3326103515625,0.19248008728027344,0.44003450870513916,0.5037063956260681
1788679281849767400,17.348767333984377,0.4506721496582031,0.4320254325866699,0.08003470301628113
1788679281865917700,17.364917724609374,0.2648916244506836,0.5688261985778809,-0.26187917590141296
1788679281882137900,17.381137939453126,-0.01157379150390625,0.6800092458724976,-0.5638890266418457
1788679281898283500,17.397283447265625,0.0838775634765625,0.6104370355606079,-0.5972643494606018
1788679281914455600,17.41345556640625,0.5264263153076172,0.4292716979980469,-0.5531672239303589
1788679281930606000,17.429606201171875,1.1648921966552734,0.2370281219482422,-0.5546164512634277
1788679281946756400,17.44575634765625,1.5760784149169922,-0.07901334762573242,-0.4426709711551666
1788679281962927900,17.461927978515625,1.880014419555664,-0.4422508478164673,0.02853420376777649
1788679281979074300,17.47807421875,1.8470335006713867,-0.49964749813079834,0.3835492730140686
1788679281995249200,17.494249267578127,1.1909027099609375,-0.2544659376144409,0.26640957593917847
1788679282011399700,17.510399658203124,0.8232479095458984,0.03755998611450195,0.0680898129940033
1788679282027562000,17.52656201171875,1.460794448852539,0.09112727642059326,0.20375323295593262
1788679282043740700,17.54274072265625,2.407597541809082,-0.15770649909973145,0.3217424154281616
1788679282059887900,17.558887939453125,3.281688690185547,-0.33698606491088867,0.3257806897163391
1788679282076097000,17.575096923828124,2.9984989166259766,-0.4561532735824585,0.2028527557849884
1788679282092248800,17.591248779296876,1.4102344512939453,-0.25262022018432617,-0.3891109824180603
1788679282108450600,17.607450439453125,0.038565635681152344,0.027318596839904785,-0.6383180618286133
1788679282124640500,17.623640625,-0.3652811050415039,0.14938092231750488,-0.2228471040725708
1788679282140787200,17.639787109375,-0.0974588394165039,0.2614126205444336,0.27074161171913147
1788679282156953600,17.65595361328125,0.08243751525878906,0.293359637260437,0.4442361891269684
1788679282173107000,17.67210693359375,0.013121604919433594,0.3177917003631592,0.26610618829727173
1788679282189243600,17.68824365234375,-0.20435237884521484,0.1796022653579712,-0.007555902004241943
1788679282205438200,17.704438232421875,-0.5154647827148438,-0.07716822624206543,-0.10735702514648438
1788679282221585700,17.720585693359375,-0.7333984375,-0.15151715278625488,-0.11987146735191345
1788679282237759000,17.736759033203125,-0.6810007095336914,-0.06645488739013672,-0.1647014319896698
1788679282253912000,17.752912109375,-0.417449951171875,-0.08782660961151123,0.1270473301410675
1788679282270046700,17.769046630859375,-0.755467414855957,-0.03899228572845459,0.14879930019378662
1788679282286254300,17.78525439453125,-1.4404487609863281,0.06684279441833496,-0.23344600200653076
1788679282302400500,17.801400390625,-1.2170515060424805,0.11178970336914062,-0.674355149269104
1788679282318578000,17.817577880859375,-1.6573724746704102,0.009424209594726562,-0.13953956961631775
1788679282334736600,17.833736572265625,-1.259730339050293,-0.08249664306640625,0.35068392753601074
1788679282350875100,17.849875244140627,-1.0876121520996094,-0.2303069829940796,0.33180010318756104
1788679282367093000,17.866093017578127,-0.7380533218383789,-0.15842390060424805,0.43126583099365234
1788679282383243300,17.8822431640625,-0.12588214874267578,-0.013802051544189453,0.1590142697095871
1788679282399421400,17.89842138671875,0.035788536071777344,-0.1196221113204956,0.2929829955101013
1788679282415573800,17.91457373046875,-0.013411521911621094,-0.28427696228027344,0.3503333330154419
1788679282431716900,17.930716796875,-0.0007610321044921875,-0.17385518550872803,0.21961788833141327
1788679282447893500,17.9468935546875,0.09351634979248047,-0.0011942386627197266,-0.02533915638923645
1788679282464043300,17.963043212890625,0.01877117156982422,0.22491610050201416,-0.07773935794830322
1788679282480218000,17.979218017578123,0.06583881378173828,0.3806506395339966,0.019591718912124634
1788679282496371700,17.995371826171876,0.3980674743652344,0.16900765895843506,0.29538494348526
1788679282512509000,18.011509033203126,1.1109981536865234,-0.09752810001373291,0.4416741132736206
1788679282528697300,18.027697265625,1.7775487899780273,-0.25145959854125977,0.2680787742137909
1788679282544847400,18.043847412109375,2.001805305480957,-0.24081134796142578,0.22196781635284424
1788679282561020400,18.0600205078125,1.7524518966674805,-0.1776447296142578,0.3229837119579315
1788679282577173800,18.076173828125,1.5685348510742188,-0.07624971866607666,0.655583381652832
1788679282593314800,18.092314697265625,2.0588645935058594,-0.1563122272491455,0.9632203578948975
1788679282609501700,18.108501708984374,3.1929025650024414,-0.6077056527137756,0.9166977405548096
1788679282625644800,18.124644775390625,3.8292741775512695,-0.9954100847244263,0.11572214215993881
1788679282641855500,18.14085546875,3.167530059814453,-0.9746002554893494,-0.9976662993431091
1788679282658008300,18.15700830078125,1.8096466064453125,-0.8145289421081543,-1.4593805074691772
1788679282674181400,18.173181396484374,0.3793458938598633,-0.707107424736023,-0.9900919795036316
1788679282690376700,18.189376708984376,-0.5373878479003906,-0.5334212183952332,-0.13173270225524902
1788679282706518300,18.205518310546875,-0.9070730209350586,-0.38868534564971924,0.20020990073680878
1788679282722680600,18.2216806640625,-0.8245735168457031,-0.3531225323677063,0.15792889893054962
1788679282738831600,18.23783154296875,-0.5907220840454102,-0.4137258529663086,-0.006287798285484314
1788679282754971400,18.253971435546877,-0.6397275924682617,-0.4204447865486145,-0.20894724130630493
1788679282771168300,18.270168212890624,-0.8874063491821289,-0.31667762994766235,-0.4326896071434021
1788679282787308300,18.286308349609374,-1.3898029327392578,-0.14952707290649414,-0.2492775171995163
1788679282803483400,18.3024833984375,-1.660191535949707,0.0650719404220581,0.05640324950218201
1788679282819656700,18.31865673828125,-1.8655009269714355,0.1662670373916626,0.1992901861667633
1788679282835804200,18.33480419921875,-1.9464521408081055,0.17261111736297607,0.06320227682590485
1788679282852021200,18.351021240234374,-1.7192869186401367,0.241599440574646,-0.16264301538467407
1788679282868168700,18.367168701171874,-1.3948211669921875,0.24399161338806152,-0.10767927765846252
1788679282884342000,18.383342041015624,-1.2093734741210938,0.24627196788787842,0.12892964482307434
1788679282900493800,18.399493896484376,-1.1315898895263672,0.3597259521484375,0.23632246255874634
1788679282916649000,18.41564892578125,-1.0925426483154297,0.4339025020599365,0.423433780670166
1788679282932819200,18.431819091796875,-0.6958656311035156,0.4511333703994751,0.4818940758705139
1788679282948965400,18.44796533203125,-0.03269481658935547,0.4526859521865845,0.36743682622909546
1788679282965137700,18.4641376953125,0.7727994918823242,0.37406015396118164,0.07730105519294739
1788679282981287700,18.48028759765625,0.9997930526733398,0.404119610786438,-0.2706925868988037
1788679282997453300,18.496453369140625,0.5703458786010742,0.6175655126571655,-0.36103007197380066
1788679283013657900,18.512657958984374,0.1576375961303711,0.7618707418441772,-0.3148450255393982
1788679283029802500,18.528802490234376,0.695979118347168,0.7346458435058594,-0.6903765201568604
1788679283045885400,18.544885498046874,1.9468088150024414,0.3984307050704956,-0.9494297504425049
1788679283062038000,18.5610380859375,2.942655563354492,-0.2377873659133911,-0.48277342319488525
1788679283078206200,18.577206298828123,2.45123291015625,-0.7783342003822327,0.19458609819412231
1788679283094397400,18.5933974609375,1.0458612442016602,-0.8734709620475769,0.2911317050457001
1788679283110544000,18.6095439453125,0.09711933135986328,-0.43609511852264404,-0.0989266037940979
1788679283126751000,18.6257509765625,0.046471595764160156,-0.14145493507385254,-0.6507782340049744
1788679283142904000,18.641904052734375,0.8263969421386719,-0.2791086435317993,-0.3490676283836365
1788679283159037700,18.65803759765625,1.9392166137695312,-0.4546794891357422,0.3256838619709015
1788679283175237600,18.674237548828124,2.5004100799560547,-0.7234343886375427,0.25420281291007996
1788679283191384600,18.690384521484376,1.936356544494629,-0.9305463433265686,-0.10106688737869263
1788679283207559400,18.706559326171874,0.6336746215820312,-0.5997629165649414,-0.3622005879878998
1788679283223714300,18.72271435546875,-0.5902843475341797,-0.2502586841583252,-0.20718026161193848
1788679283239844900,18.738844970703123,-1.048762321472168,-0.009995102882385254,0.15505743026733398
1788679283256058400,18.755058349609374,-0.7340459823608398,0.046016693115234375,0.37731224298477173
1788679283272207000,18.77120703125,-0.20905590057373047,-0.08729219436645508,0.37543147802352905
1788679283288380700,18.787380615234376,-0.055052757263183594,-0.16364455223083496,0.3089785873889923
1788679283304539400,18.803539306640626,-0.20857810974121094,-0.2464054822921753,0.08855992555618286
1788679283320675300,18.81967529296875,-0.21531963348388672,-0.36446404457092285,-0.1349717080593109
1788679283336891600,18.8358916015625,-0.21119976043701172,-0.4243069291114807,-0.31383392214775085
1788679283353038800,18.852038818359375,-0.43509387969970703,-0.31235170364379883,-0.4717716872692108
1788679283369213000,18.868212890625,-0.6355657577514648,-0.16625761985778809,-0.5431790351867676
1788679283385366300,18.8843662109375,-0.8937664031982422,-0.08967816829681396,-0.35249534249305725
1788679283401501000,18.9005009765625,-1.2557926177978516,0.017015814781188965,-0.14742252230644226
1788679283417673000,18.9166728515625,-1.22735595703125,0.07704341411590576,0.16774079203605652
1788679283433823200,18.9328232421875,-0.9338111877441406,0.02019345760345459,0.31612610816955566
1788679283449997000,18.9489970703125,-0.6665782928466797,0.09935879707336426,0.18516169488430023
1788679283466147300,18.965147216796876,-0.6765584945678711,0.06497550010681152,0.24028028547763824
1788679283482278000,18.98127783203125,-0.569035530090332,0.016858696937561035,0.26080822944641113
1788679283498452500,18.997452392578126,-0.29422473907470703,-0.021508455276489258,0.25807714462280273
1788679283514597600,19.01359765625,0.03767585754394531,-0.03904581069946289,0.19441711902618408
1788679283530770700,19.029770751953127,0.36270809173583984,-0.09975218772888184,0.07662783563137054
1788679283546919400,19.04591943359375,0.16712379455566406,-0.10324907302856445,-0.07469117641448975
1788679283563053800,19.0620537109375,-0.07725143432617188,0.12507855892181396,-0.27223268151283264
1788679283579246600,19.07824658203125,0.23545360565185547,0.29510414600372314,-0.08249159157276154
1788679283595391500,19.0943916015625,0.9436578750610352,-0.014249682426452637,0.024800673127174377
1788679283611563300,19.110563232421875,1.3588180541992188,-0.3835146427154541,-0.1382204294204712
1788679283627715600,19.126715576171875,1.488722801208496,-0.48180699348449707,-0.27443477511405945
1788679283643856000,19.14285595703125,1.9286174774169922,-0.5829817056655884,-0.2556253671646118
1788679283660055800,19.159055908203126,2.285829544067383,-0.47552692890167236,-0.1919512152671814
1788679283676205000,19.175205078125,1.8056440353393555,-0.10253298282623291,-0.16284999251365662
1788679283692379000,19.19137890625,0.8380165100097656,0.2681312561035156,-0.18531441688537598
1788679283708533000,19.207532958984373,0.6177682876586914,0.1896040439605713,0.30851036310195923
1788679283724683500,19.22368359375,1.7646074295043945,-0.47666680812835693,1.0379821062088013
1788679283740887800,19.2398876953125,2.991999626159668,-0.9526967406272888,0.8408131003379822
1788679283757031200,19.25603125,3.4452028274536133,-1.1575865745544434,-0.011889614164829254
1788679283773235700,19.272235595703126,2.297658920288086,-1.182687759399414,-0.8375569581985474
1788679283789387800,19.2883876953125,0.5163793563842773,-1.015751838684082,-1.209721326828003
1788679283805570600,19.304570556640623,-0.5062227249145508,-0.7149584889411926,-0.980472981929779
1788679283821784600,19.32078466796875,-1.134840965270996,-0.46654754877090454,-0.09064962714910507
1788679283837932500,19.3369326171875,-1.3399724960327148,-0.306524395942688,0.40738654136657715
1788679283854100000,19.353099853515626,-1.1116142272949219,-0.1528153419494629,0.48268941044807434
1788679283870254000,19.369254150390624,-0.9106760025024414,-0.2342313528060913,0.5716398358345032
1788679283886411000,19.385410888671874,-0.875117301940918,-0.4225636124610901,0.3352469503879547
1788679283902580700,19.401580810546875,-0.9801177978515625,-0.47929883003234863,0.005395755171775818
1788679283918724000,19.41772412109375,-1.0487089157104492,-0.3954150080680847,-0.08339853584766388
1788679283934896600,19.433896728515624,-1.1679658889770508,-0.20280539989471436,0.03323434293270111
1788679283951049500,19.450049560546876,-1.6276159286499023,-0.026109814643859863,0.15118461847305298
1788679283967218000,19.466218017578125,-2.1006970405578613,0.14675211906433105,0.206936314702034
1788679283983400700,19.482400634765625,-2.1295104026794434,0.2929706573486328,0.12336042523384094
1788679283999545900,19.4985458984375,-1.7389140129089355,0.3024641275405884,0.11595753580331802
1788679284015722800,19.51472265625,-1.091750144958496,0.34662675857543945,0.10784692317247391
1788679284031878100,19.530878173828125,-0.37614917755126953,0.352405309677124,0.17098543047904968
1788679284048014800,19.547014892578126,0.059589385986328125,0.2492222785949707,0.4484216570854187
1788679284064210000,19.5632099609375,0.14963054656982422,0.09749269485473633,0.7959672808647156
1788679284080355800,19.57935595703125,0.08061504364013672,0.19898319244384766,0.5595505237579346
1788679284096532500,19.595532470703127,0.21335697174072266,0.45271527767181396,-0.05016074329614639
1788679284112684300,19.611684326171876,0.373077392578125,0.5090104341506958,-0.531084418296814
1788679284128821200,19.6278212890625,0.41428661346435547,0.4595695734024048,-0.44608357548713684
1788679284145007900,19.6440078125,0.21044540405273438,0.5503135919570923,0.024340301752090454
1788679284161176000,19.660176025390626,0.4237489700317383,0.7800147533416748,0.3051779270172119
1788679284177351200,19.67635107421875,0.9284915924072266,0.5872647762298584,0.22801965475082397
1788679284193502000,19.692501953125,1.408447265625,-0.04747450351715088,0.17039301991462708
1788679284209634000,19.708634033203126,1.6656980514526367,-0.5922881960868835,0.10781316459178925
1788679284225838000,19.724838134765626,1.4685516357421875,-0.6597849130630493,0.08780322223901749
1788679284241980700,19.740980712890625,0.6236572265625,-0.35922956466674805,-0.08361738920211792
1788679284258150700,19.757150634765626,0.20131206512451172,-0.17848002910614014,-0.279853880405426
1788679284274300700,19.77330078125,0.7504653930664062,-0.18877315521240234,-0.15114203095436096
1788679284290433500,19.78943359375,1.7024621963500977,-0.46384143829345703,0.1747947633266449
1788679284306652000,19.80565185546875,2.164973258972168,-0.683596670627594,0.2068706452846527
1788679284322798000,19.821798095703127,2.095065116882324,-0.7910700440406799,-0.3061952292919159
1788679284339004400,19.83800439453125,1.4604549407958984,-0.8440080881118774,-0.6824347972869873
1788679284355157000,19.854156982421873,0.7846889495849609,-0.6774041652679443,-0.8287816643714905
1788679284371292200,19.870292236328126,0.4487171173095703,-0.4400806427001953,-0.8270729780197144
1788679284387467500,19.886467529296876,0.4418067932128906,-0.36451685428619385,-0.5719088315963745
1788679284403615000,19.902614990234376,0.3597087860107422,-0.32317447662353516,-0.25437694787979126
1788679284419792000,19.9187919921875,-0.014311790466308594,-0.193107008934021,0.07725466787815094
1788679284435945500,19.934945556640624,-0.2543478012084961,-0.08282256126403809,0.3256247937679291
1788679284452088000,19.951088134765627,-0.41098594665527344,-0.1997816562652588,0.6182432770729065
1788679284468276200,19.967276123046876,-0.4030618667602539,-0.3442227244377136,0.4895101487636566
1788679284484425500,19.983425537109376,-0.32042694091796875,-0.22764945030212402,0.10643135011196136
1788679284500598500,19.9995986328125,-0.1207284927368164,-0.057708740234375,-0.07564547657966614
1788679284516753000,20.0157529296875,-0.39414405822753906,0.03966963291168213,-0.1373799443244934
1788679284532890400,20.031890380859377,-1.087254524230957,0.15278112888336182,-0.22678223252296448
1788679284549081300,20.048081298828127,-1.5919780731201172,0.31046032905578613,-0.1753549873828888
1788679284565231600,20.064231689453123,-1.5873117446899414,0.3179863691329956,0.1643829345703125
1788679284581398300,20.080398193359375,-1.270822525024414,0.25701165199279785,0.6368539333343506
1788679284597553000,20.096552978515625,-0.9099359512329102,0.24019598960876465,0.8478446006774902
