time,seconds_elapsed,z,y,x
1788679264651313200,0.150313232421875,9.724449157714844,1.2611596584320068,-0.12225480377674103
1788679264667586600,0.166586669921875,9.724756240844727,1.2583732604980469,-0.12645357847213745
1788679264683730000,0.18272998046875,9.724931716918945,1.2567265033721924,-0.1293450891971588
1788679264699903000,0.198903076171875,9.725059509277344,1.2554188966751099,-0.13243556022644043
1788679264716056300,0.215056396484375,9.725175857543945,1.2541841268539429,-0.1355467587709427
1788679264732197000,0.231197021484375,9.725298881530762,1.252916693687439,-0.1383851170539856
1788679264748406800,0.24740673828125,9.725317001342773,1.2525728940963745,-0.1402117908000946
1788679264764551200,0.26355126953125,9.725086212158203,1.2541979551315308,-0.14163558185100555
1788679264780723200,0.27972314453125,9.724802017211914,1.2560867071151733,-0.1444661170244217
1788679264796876000,0.2958759765625,9.731307983398438,1.2013989686965942,-0.169340118765831
1788679264813026800,0.31202685546875,9.737540245056152,1.1455442905426025,-0.19600290060043335
1788679264829242600,0.32824267578125,9.741721153259277,1.1058051586151123,-0.21549609303474426
1788679264845390000,0.34439013671875,9.743393898010254,1.089051365852356,-0.22498741745948792
1788679264861563600,0.360563720703125,9.742981910705566,1.091726303100586,-0.22982089221477509
1788679264877716500,0.376716552734375,9.741726875305176,1.1032514572143555,-0.22796572744846344
1788679264893875200,0.392875244140625,9.741415977478027,1.108690857887268,-0.2144705057144165
1788679264910048300,0.40904833984375,9.741889953613281,1.1081569194793701,-0.19481639564037323
1788679264926194400,0.4251943359375,9.742086410522461,1.1110599040985107,-0.1663971245288849
1788679264942366500,0.441366455078125,9.740335464477539,1.1302635669708252,-0.13696300983428955
1788679264958516200,0.45751611328125,9.73633098602295,1.1656603813171387,-0.12443320453166962
1788679264974646000,0.47364599609375,9.732149124145508,1.1994380950927734,-0.13040317595005035
1788679264990827300,0.4898271484375,9.729790687561035,1.2168225049972534,-0.1445818543434143
1788679265006971400,0.505971435546875,9.729695320129395,1.2158514261245728,-0.15848398208618164
1788679265023142700,0.522142578125,9.730850219726562,1.2041019201278687,-0.17627708613872528
1788679265039295200,0.538295166015625,9.731496810913086,1.1948480606079102,-0.20172135531902313
1788679265055436300,0.554436279296875,9.730440139770508,1.1975399255752563,-0.23412571847438812
1788679265071634200,0.57063427734375,9.727269172668457,1.2146977186203003,-0.274103045463562
1788679265087782000,0.586781982421875,9.722334861755371,1.244754672050476,-0.311734676361084
1788679265103955500,0.60295556640625,9.717209815979004,1.2811332941055298,-0.323919415473938
1788679265120106200,0.619106201171875,9.711963653564453,1.3259150981903076,-0.3001748025417328
1788679265136237000,0.635237060546875,9.705366134643555,1.3827108144760132,-0.253678560256958
1788679265152439600,0.651439453125,9.696366310119629,1.4507430791854858,-0.21498116850852966
1788679265168583400,0.66758349609375,9.68709945678711,1.515999674797058,-0.17957791686058044
1788679265184753700,0.683753662109375,9.680367469787598,1.5606482028961182,-0.15888547897338867
1788679265200904000,0.699904052734375,9.678213119506836,1.5739456415176392,-0.15895144641399384
1788679265217037600,0.71603759765625,9.676918029785156,1.5806738138198853,-0.17064422369003296
1788679265233204000,0.732203857421875,9.676365852355957,1.5817385911941528,-0.19086992740631104
1788679265249349000,0.74834912109375,9.675142288208008,1.5869741439819336,-0.20861557126045227
1788679265265519400,0.764519287109375,9.671585083007812,1.6062968969345093,-0.22503508627414703
1788679265281670100,0.780670166015625,9.668575286865234,1.6213500499725342,-0.24547186493873596
1788679265297803300,0.79680322265625,9.664705276489258,1.6397178173065186,-0.2741931676864624
1788679265313996800,0.812996826171875,9.659894943237305,1.660202980041504,-0.31707674264907837
1788679265330140400,0.829140380859375,9.653871536254883,1.6831852197647095,-0.37419798970222473
1788679265346305800,0.845305908203125,9.64802360534668,1.7029426097869873,-0.431290864944458
1788679265362454800,0.861454833984375,9.642705917358398,1.7161612510681152,-0.49334561824798584
1788679265378585000,0.877585205078125,9.639081954956055,1.7211592197418213,-0.5441489219665527
1788679265394761500,0.893761474609375,9.635222434997559,1.7325825691223145,-0.5753610730171204
1788679265410905600,0.909905517578125,9.628410339355469,1.7633113861083984,-0.5956754088401794
1788679265427074600,0.926074462890625,9.619782447814941,1.804379940032959,-0.6118707060813904
1788679265443222300,0.94222216796875,9.6127290725708,1.838300347328186,-0.6216734051704407
1788679265459357200,0.958357177734375,9.608489990234375,1.8540678024291992,-0.6401140689849854
1788679265475543600,0.97454345703125,9.606117248535156,1.852605938911438,-0.6787914633750916
1788679265491689700,0.990689697265625,9.607230186462402,1.8229457139968872,-0.7405300736427307
1788679265507862500,1.006862548828125,9.619566917419434,1.757834792137146,-0.7377892136573792
1788679265524011500,1.023011474609375,9.632232666015625,1.6907896995544434,-0.7291914820671082
1788679265540146200,1.039146240234375,9.638729095458984,1.6581193208694458,-0.7182807922363281
1788679265556340200,1.05534033203125,9.63960075378418,1.659600019454956,-0.7030053734779358
1788679265572483600,1.071483642578125,9.638130187988281,1.6772056818008423,-0.6810352206230164
1788679265588650500,1.087650390625,9.637514114379883,1.6896774768829346,-0.6585602164268494
1788679265604797200,1.103797119140625,9.638632774353027,1.690974473953247,-0.638550877571106
1788679265620927200,1.11992724609375,9.641044616699219,1.6838667392730713,-0.6206757426261902
1788679265637133600,1.136133544921875,9.643872261047363,1.6730773448944092,-0.6057373285293579
1788679265653274000,1.152274169921875,9.646668434143066,1.6614069938659668,-0.5932022929191589
1788679265669443800,1.16844384765625,9.649126052856445,1.650695562362671,-0.5830613970756531
1788679265685591000,1.184591064453125,9.650891304016113,1.6438003778457642,-0.5732470750808716
1788679265701745400,1.200745361328125,9.651102066040039,1.6464812755584717,-0.5618820786476135
1788679265717912600,1.21691259765625,9.64993953704834,1.6573461294174194,-0.5497796535491943
1788679265734058500,1.23305859375,9.648554801940918,1.6696151494979858,-0.5368142127990723
1788679265750229200,1.249229248046875,9.647319793701172,1.6806656122207642,-0.5243856906890869
1788679265766383400,1.26538330078125,9.646316528320312,1.6895073652267456,-0.5143176913261414
1788679265782541000,1.281541015625,9.645750999450684,1.6946371793746948,-0.5080196857452393
1788679265798714400,1.29771435546875,9.645612716674805,1.6968034505844116,-0.5033912658691406
1788679265814854400,1.3138544921875,9.645559310913086,1.6988989114761353,-0.4973013699054718
1788679265831026400,1.3300263671875,9.645262718200684,1.7022219896316528,-0.49165284633636475
1788679265847178500,1.346178466796875,9.644658088684082,1.7065218687057495,-0.48861178755760193
1788679265863345200,1.36234521484375,9.644169807434082,1.710857629776001,-0.4830476641654968
1788679265879529000,1.378529052734375,9.643651008605957,1.7156329154968262,-0.47643640637397766
1788679265895678500,1.394678466796875,9.643586158752441,1.7185794115066528,-0.46703118085861206
1788679265911850500,1.4108505859375,9.643765449523926,1.7205756902694702,-0.4558362662792206
1788679265928001300,1.427001220703125,9.644120216369629,1.7225077152252197,-0.44078439474105835
1788679265944134400,1.443134521484375,9.644485473632812,1.7235567569732666,-0.4285309910774231
1788679265960325600,1.45932568359375,9.64515209197998,1.7225948572158813,-0.41725561022758484
1788679265976468000,1.475468017578125,9.64603328704834,1.7210057973861694,-0.40321066975593567
1788679265992637200,1.49163720703125,9.6470947265625,1.718163013458252,-0.3897097408771515
1788679266008781300,1.50778125,9.648882865905762,1.7111985683441162,-0.37583860754966736
1788679266024912600,1.52391259765625,9.651254653930664,1.7006185054779053,-0.3627122640609741
1788679266041112000,1.540112060546875,9.654159545898438,1.6867293119430542,-0.3500472903251648
1788679266057257500,1.556257568359375,9.657638549804688,1.669501781463623,-0.33640456199645996
1788679266073429200,1.57242919921875,9.66128158569336,1.6508041620254517,-0.3238513767719269
1788679266089580500,1.58858056640625,9.664322853088379,1.6349470615386963,-0.31336575746536255
1788679266105713200,1.604713134765625,9.666155815124512,1.6258748769760132,-0.3038880527019501
1788679266121920500,1.62092041015625,9.666943550109863,1.623193621635437,-0.2929699718952179
1788679266138064400,1.637064453125,9.6671781539917,1.6240041255950928,-0.2804458737373352
1788679266154230500,1.65323046875,9.667478561401367,1.6245722770690918,-0.26648274064064026
1788679266170380300,1.66938037109375,9.667911529541016,1.6237331628799438,-0.25565963983535767
1788679266186511600,1.68551171875,9.66903018951416,1.6180732250213623,-0.24914661049842834
1788679266202721800,1.7017216796875,9.67097282409668,1.6063792705535889,-0.2494288682937622
1788679266218860300,1.7178603515625,9.673314094543457,1.5909643173217773,-0.2573281526565552
1788679266235025700,1.734025634765625,9.67594051361084,1.5740855932235718,-0.262336790561676
1788679266251172900,1.7501728515625,9.678977966308594,1.5556185245513916,-0.2604272961616516
1788679266267313000,1.76631298828125,9.682209968566895,1.5362606048583984,-0.2551494240760803
1788679266283531300,1.78253125,9.685766220092773,1.5159143209457397,-0.24153219163417816
1788679266299679500,1.798679443359375,9.68934154510498,1.4966405630111694,-0.21704219281673431
1788679266315853300,1.814853271484375,9.692517280578613,1.480675458908081,-0.18189115822315216
1788679266332006400,1.83100634765625,9.695345878601074,1.4667019844055176,-0.1394382119178772
1788679266348142000,1.84714208984375,9.697833061218262,1.4537854194641113,-0.0945301204919815
1788679266364323300,1.8633232421875,9.700242042541504,1.439835548400879,-0.05065517872571945
1788679266380468500,1.879468505859375,9.70235824584961,1.4263452291488647,-0.012702464126050472
1788679266396639700,1.8956396484375,9.703682899475098,1.4171077013015747,0.027156375348567963
1788679266412792000,1.9117919921875,9.704231262207031,1.4119406938552856,0.06859715282917023
1788679266428928800,1.9279287109375,9.704710006713867,1.4061938524246216,0.10774755477905273
1788679266445117700,1.94411767578125,9.70544147491455,1.3984748125076294,0.13807788491249084
1788679266461264600,1.9602646484375,9.70643138885498,1.3896068334579468,0.15676942467689514
1788679266477440500,1.9764404296875,9.706976890563965,1.3854089975357056,0.16011522710323334
1788679266493595000,1.992594970703125,9.707503318786621,1.3835136890411377,0.14374573528766632
1788679266509738000,2.008738037109375,9.70833683013916,1.3802521228790283,0.11609365046024323
1788679266525931800,2.024931884765625,9.709630966186523,1.3734867572784424,0.08354242891073227
1788679266542071800,2.04107177734375,9.71183967590332,1.3592795133590698,0.05399572104215622
1788679266558239500,2.057239501953125,9.714836120605469,1.3384737968444824,0.029142653569579124
1788679266574386700,2.07338671875,9.71721363067627,1.321417212486267,-0.0022303895093500614
1788679266590520300,2.089520263671875,9.720131874084473,1.2995905876159668,-0.022304916754364967
1788679266606722300,2.105722412109375,9.723432540893555,1.274646282196045,-0.022523747757077217
1788679266622866700,2.12186669921875,9.726572036743164,1.2506492137908936,-0.007288038264960051
1788679266639039000,2.1380390625,9.72870922088623,1.2338991165161133,0.009603658691048622
1788679266655209700,2.154209716796875,9.730009078979492,1.223574161529541,0.013254838064312935
1788679266671362300,2.1703623046875,9.731250762939453,1.2137311697006226,-0.003251695306971669
1788679266687581000,2.186580810546875,9.733233451843262,1.197282075881958,-0.03264711797237396
1788679266703728000,2.20272802734375,9.73634147644043,1.1703715324401855,-0.06540127843618393
1788679266719901700,2.218901611328125,9.739874839782715,1.1387274265289307,-0.09233838319778442
1788679266736055800,2.235055908203125,9.743256568908691,1.104589819908142,-0.13864241540431976
1788679266752211000,2.2512109375,9.746444702148438,1.0684082508087158,-0.18897129595279694
1788679266768382200,2.26738232421875,9.749763488769531,1.0303953886032104,-0.2253393977880478
1788679266784528000,2.28352783203125,9.752942085266113,0.9950811862945557,-0.2456100732088089
1788679266800695800,2.29969580078125,9.754742622375488,0.9764019846916199,-0.24904125928878784
1788679266816843500,2.315843505859375,9.754002571105957,0.9795579314231873,-0.26510995626449585
1788679266833007400,2.33200732421875,9.752388000488281,0.9899210333824158,-0.2852388620376587
1788679266849187600,2.3481875,9.750125885009766,1.0051790475845337,-0.30830657482147217
1788679266865331500,2.36433154296875,9.747690200805664,1.020096778869629,-0.33515897393226624
1788679266881506300,2.38050634765625,9.742040634155273,1.0570026636123657,-0.38180363178253174
1788679266897657300,2.3966572265625,9.737266540527344,1.0869985818862915,-0.417677640914917
1788679266913791000,2.412791015625,9.734158515930176,1.1081262826919556,-0.4342799782752991
1788679266929983700,2.428983642578125,9.732584953308105,1.1219911575317383,-0.43395811319351196
1788679266946130400,2.44513037109375,9.73138427734375,1.1335242986679077,-0.43088868260383606
1788679266962303200,2.46130322265625,9.731093406677246,1.132976770401001,-0.4388448894023895
1788679266978454300,2.477454345703125,9.731884956359863,1.120019793510437,-0.45426860451698303
1788679266994589000,2.4935888671875,9.733088493347168,1.105216145515442,-0.4646333158016205
1788679267010785300,2.509785400390625,9.732918739318848,1.104856014251709,-0.46899962425231934
1788679267026928600,2.5259287109375,9.73124885559082,1.1181538105010986,-0.47214120626449585
1788679267043103000,2.54210302734375,9.729959487915039,1.1272505521774292,-0.4770682454109192
1788679267059253200,2.558253173828125,9.72830867767334,1.13671875,-0.48812341690063477
1788679267075385000,2.574385009765625,9.725497245788574,1.1513121128082275,-0.5094813704490662
1788679267091594800,2.5905947265625,9.721525192260742,1.1701630353927612,-0.5413459539413452
1788679267107740400,2.606740478515625,9.71726131439209,1.190904974937439,-0.5718215703964233
1788679267123915500,2.62291552734375,9.713147163391113,1.2143244743347168,-0.5920961499214172
1788679267140071400,2.639071533203125,9.709178924560547,1.2413846254348755,-0.6009988188743591
1788679267156209000,2.655208984375,9.704845428466797,1.2704830169677734,-0.6101042032241821
1788679267172425700,2.67142578125,9.700360298156738,1.2995063066482544,-0.6202321648597717
1788679267188575700,2.68757568359375,9.696742057800293,1.324967384338379,-0.6229294538497925
1788679267204756200,2.703756103515625,9.694650650024414,1.344190239906311,-0.6142346262931824
1788679267220908800,2.71990869140625,9.69449234008789,1.3538014888763428,-0.5953303575515747
1788679267237042700,2.736042724609375,9.696001052856445,1.3544613122940063,-0.5686708092689514
1788679267253219600,2.752219482421875,9.697815895080566,1.3520722389221191,-0.5428221225738525
1788679267269368800,2.768368896484375,9.69886589050293,1.3517754077911377,-0.5244842171669006
1788679267285545500,2.78454541015625,9.698972702026367,1.3549606800079346,-0.5142050385475159
1788679267301696500,2.800696533203125,9.698410987854004,1.3618379831314087,-0.506561815738678
1788679267317833000,2.8168330078125,9.69775676727295,1.369890809059143,-0.49728164076805115
1788679267334015000,2.833014892578125,9.696669578552246,1.3774347305297852,-0.4976655840873718
1788679267350164700,2.849164794921875,9.695937156677246,1.3811120986938477,-0.501713752746582
1788679267366341600,2.865341552734375,9.695030212402344,1.3843300342559814,-0.5103098154067993
1788679267382497000,2.8814970703125,9.692709922790527,1.3967853784561157,-0.5203371047973633
1788679267398643200,2.897643310546875,9.691012382507324,1.4160106182098389,-0.49958670139312744
1788679267414834400,2.91383447265625,9.690162658691406,1.4423670768737793,-0.4367016553878784
1788679267430982700,2.929982666015625,9.688948631286621,1.4747318029403687,-0.3461453318595886
1788679267447153400,2.9461533203125,9.686646461486816,1.512380599975586,-0.2279731184244156
1788679267463306200,2.96230615234375,9.683540344238281,1.5463519096374512,-0.09070413559675217
1788679267479441400,2.97844140625,9.679298400878906,1.5746866464614868,0.0439491793513298
1788679267495640600,2.994640625,9.675107955932617,1.5940338373184204,0.14742103219032288
1788679267511788800,3.010788818359375,9.673049926757812,1.60007905960083,0.20554916560649872
1788679267527964000,3.0269638671875,9.674798011779785,1.5872281789779663,0.22222229838371277
1788679267544120600,3.04312060546875,9.68052864074707,1.5541236400604248,0.20605018734931946
1788679267560259000,3.059259033203125,9.688694953918457,1.506345510482788,0.1746373176574707
1788679267576465000,3.07546484375,9.697404861450195,1.4532254934310913,0.13735876977443695
1788679267592616200,3.0916162109375,9.705204963684082,1.4031635522842407,0.10250738263130188
1788679267608794600,3.107794677734375,9.71142292022705,1.3614221811294556,0.07190883159637451
1788679267624948000,3.123947998046875,9.716839790344238,1.3236217498779297,0.03782477602362633
1788679267641095400,3.140095458984375,9.722952842712402,1.2784991264343262,0.004166252911090851
1788679267657310700,3.156310791015625,9.731385231018066,1.2122000455856323,-0.0332113653421402
1788679267673457200,3.17245703125,9.735703468322754,1.1768747568130493,-0.037730999290943146
1788679267689627400,3.18862744140625,9.735072135925293,1.1826881170272827,0.0025193989276885986
1788679267705779000,3.204779052734375,9.730770111083984,1.215502381324768,0.0711050033569336
1788679267721936600,3.2209365234375,9.723146438598633,1.2650951147079468,0.17421548068523407
1788679267738107400,3.237107421875,9.713250160217285,1.316543459892273,0.29979175329208374
1788679267754251800,3.253251708984375,9.701244354248047,1.3653980493545532,0.4380926191806793
1788679267770427100,3.26942724609375,9.687692642211914,1.4136664867401123,0.5661615133285522
1788679267786581800,3.285581787109375,9.675447463989258,1.456373691558838,0.6596002578735352
1788679267802746000,3.30174609375,9.666821479797363,1.4854590892791748,0.718579888343811
1788679267818929000,3.317928955078125,9.662355422973633,1.4949378967285156,0.7579121589660645
1788679267835075600,3.33407568359375,9.660442352294922,1.4886176586151123,0.7938928008079529
1788679267851246800,3.350246826171875,9.659255027770996,1.4771013259887695,0.8290643692016602
1788679267867397000,3.366397216796875,9.65719223022461,1.4681068658828735,0.8681516647338867
1788679267883529500,3.382529541015625,9.653363227844238,1.4625529050827026,0.9186448454856873
1788679267899713000,3.398713134765625,9.647262573242188,1.4580413103103638,0.9873367547988892
1788679267915860000,3.41485986328125,9.639962196350098,1.4533634185791016,1.0626603364944458
1788679267932034300,3.431034423828125,9.633180618286133,1.4511277675628662,1.1253653764724731
1788679267948187600,3.447187744140625,9.626745223999023,1.461342453956604,1.1664679050445557
1788679267964327000,3.463326904296875,9.619112968444824,1.4865247011184692,1.1972041130065918
1788679267980534800,3.47953466796875,9.609308242797852,1.523885726928711,1.2285572290420532
1788679267996706000,3.4957060546875,9.598776817321777,1.5702459812164307,1.2522763013839722
1788679268012878000,3.511878173828125,9.585249900817871,1.62763249874115,1.2822597026824951
1788679268029028000,3.528028076171875,9.56788158416748,1.7061792612075806,1.3095747232437134
1788679268045198000,3.544197998046875,9.555931091308594,1.7764748334884644,1.303341031074524
1788679268061410300,3.560410400390625,9.6029691696167,1.5868825912475586,1.197993516921997
1788679268077554400,3.576554443359375,9.63711166381836,1.3813204765319824,1.1783148050308228
1788679268093762600,3.592762451171875,9.647388458251953,1.312046766281128,1.1733797788619995
1788679268109915000,3.608914794921875,9.640592575073242,1.3665112257003784,1.1670511960983276
1788679268126081800,3.625081787109375,9.627766609191895,1.4474347829818726,1.1753424406051636
1788679268142253000,3.641253173828125,9.617274284362793,1.5167043209075928,1.1738942861557007
1788679268158399000,3.65739892578125,9.622034072875977,1.532076120376587,1.1133674383163452
1788679268174616000,3.673615966796875,9.644702911376953,1.45452880859375,1.0170820951461792
1788679268190766600,3.6897666015625,9.666053771972656,1.3570138216018677,0.9467387199401855
1788679268206933500,3.70593359375,9.67332935333252,1.3328367471694946,0.905896782875061
1788679268223110000,3.72210986328125,9.669276237487793,1.368026614189148,0.8966481685638428
1788679268239257900,3.7382578125,9.661361694335938,1.4086883068084717,0.9187389016151428
1788679268255428900,3.754428955078125,9.655802726745605,1.4260437488555908,0.9498761296272278
1788679268271585500,3.77058544921875,9.652708053588867,1.4293752908706665,0.9759601354598999
1788679268287763200,3.78676318359375,9.650309562683105,1.445298194885254,0.9762265086174011
1788679268303956700,3.802956787109375,9.64297866821289,1.5030080080032349,0.9614151120185852
1788679268320109000,3.819109130859375,9.62861156463623,1.6030168533325195,0.9436949491500854
1788679268336319200,3.8353193359375,9.609766960144043,1.7110587358474731,0.9460739493370056
1788679268352476000,3.851475830078125,9.592226028442383,1.794867753982544,0.968517541885376
1788679268368620800,3.867620849609375,9.581392288208008,1.838576078414917,0.9934478402137756
1788679268384822000,3.883822021484375,9.578171730041504,1.846978783607483,1.0088056325912476
1788679268400953300,3.899953369140625,9.583898544311523,1.8197293281555176,1.0039256811141968
1788679268417131300,3.91613134765625,9.595462799072266,1.7714184522628784,0.9795689582824707
1788679268433288400,3.932288330078125,9.608823776245117,1.7223479747772217,0.935094952583313
1788679268449436400,3.9484365234375,9.620792388916016,1.6859146356582642,0.8766012191772461
1788679268465644800,3.964644775390625,9.629960060119629,1.6652288436889648,0.81318199634552
1788679268481790500,3.98079052734375,9.63563346862793,1.6603305339813232,0.75383061170578
1788679268497964000,3.996964111328125,9.637777328491211,1.6676349639892578,0.7089574337005615
1788679268514120200,4.0131201171875,9.63797664642334,1.6809951066970825,0.6738203167915344
1788679268530271500,4.029271484375,9.637711524963379,1.6945663690567017,0.6429190039634705
1788679268546485200,4.0454853515625,9.640421867370605,1.6941288709640503,0.6021468639373779
1788679268562633200,4.06163330078125,9.643976211547852,1.6883716583251953,0.5599119067192078
1788679268578809300,4.077809326171875,9.648123741149902,1.6763230562210083,0.5234790444374084
1788679268594962000,4.0939619140625,9.652525901794434,1.6586910486221313,0.49786925315856934
1788679268611118000,4.1101181640625,9.656946182250977,1.6377203464508057,0.4813072383403778
1788679268627286800,4.126286865234375,9.661331176757812,1.6151857376098633,0.46928536891937256
1788679268643431700,4.142431640625,9.665985107421875,1.5914336442947388,0.4543713629245758
1788679268659602200,4.158602294921875,9.671154022216797,1.567530632019043,0.42663252353668213
1788679268675752200,4.174752197265625,9.676769256591797,1.5430659055709839,0.386627197265625
1788679268691909600,4.19090966796875,9.682366371154785,1.5186798572540283,0.34025347232818604
1788679268708078600,4.20707861328125,9.687235832214355,1.498429536819458,0.2873251140117645
1788679268724223200,4.22322314453125,9.689411163330078,1.491894245147705,0.24483627080917358
1788679268740394000,4.23939404296875,9.687581062316895,1.5043933391571045,0.2407400906085968
1788679268756547000,4.255547119140625,9.680312156677246,1.5467101335525513,0.2638828456401825
1788679268772683500,4.27168359375,9.66663646697998,1.6198906898498535,0.3201395869255066
1788679268788868000,4.2878681640625,9.647063255310059,1.7153569459915161,0.4026270806789398
1788679268805016600,4.3040166015625,9.62492561340332,1.8152605295181274,0.4858189523220062
1788679268821189400,4.320189453125,9.607766151428223,1.887633204460144,0.5459368824958801
1788679268837340200,4.336340087890625,9.595212936401367,1.9320709705352783,0.6077584624290466
1788679268853474600,4.352474609375,9.590696334838867,1.9421113729476929,0.6458593606948853
1788679268869668900,4.3686689453125,9.593904495239258,1.921964406967163,0.6583653688430786
1788679268885818000,4.384818115234375,9.603903770446777,1.8751360177993774,0.6475188732147217
1788679268901994200,4.400994140625,9.61924934387207,1.8038264513015747,0.6218129396438599
1788679268918146000,4.41714599609375,9.639483451843262,1.7048159837722778,0.5868117213249207
1788679268934318800,4.43331884765625,9.66151237487793,1.5879446268081665,0.5513655543327332
1788679268950526000,4.44952587890625,9.679971694946289,1.4733833074569702,0.5455932021141052
1788679268966672600,4.465672607421875,9.692403793334961,1.3785948753356934,0.5719872117042542
1788679268982881000,4.481881103515625,9.699867248535156,1.312006950378418,0.6013433933258057
1788679268999033000,4.498033203125,9.704543113708496,1.272415280342102,0.6108942627906799
1788679269015168000,4.51416796875,9.707582473754883,1.263192892074585,0.5810123085975647
1788679269031378000,4.5303779296875,9.708921432495117,1.287615418434143,0.49927157163619995
1788679269047526100,4.546526123046875,9.706560134887695,1.3464466333389282,0.3743746876716614
1788679269063700000,4.562699951171875,9.698846817016602,1.4291951656341553,0.24525168538093567
1788679269079854300,4.578854248046875,9.68785572052002,1.5153603553771973,0.1397642344236374
1788679269095989000,4.594989013671875,9.677327156066895,1.5852669477462769,0.08154387027025223
1788679269112203300,4.611203369140625,9.670653343200684,1.626163363456726,0.06666618585586548
1788679269128350500,4.6273505859375,9.668585777282715,1.6381157636642456,0.073478564620018
1788679269144527400,4.64352734375,9.671426773071289,1.6207036972045898,0.08489640057086945
1788679269160681200,4.65968115234375,9.677090644836426,1.5866668224334717,0.08247201889753342
1788679269176817400,4.6758173828125,9.6834135055542,1.5492408275604248,0.04180654138326645
1788679269192992000,4.691991943359375,9.689116477966309,1.5134682655334473,-0.02871500328183174
1788679269209140200,4.70814013671875,9.693449974060059,1.481078863143921,-0.11757124960422516
1788679269225316000,4.724316162109375,9.696199417114258,1.4536819458007812,-0.20225392282009125
1788679269241469000,4.740468994140625,9.698721885681152,1.4267545938491821,-0.26372024416923523
1788679269257599700,4.756599853515625,9.702770233154297,1.3929694890975952,-0.2937314212322235
1788679269273782800,4.77278271484375,9.708490371704102,1.3520152568817139,-0.2960532605648041
1788679269289936000,4.788935791015625,9.714401245117188,1.3111214637756348,-0.2859439551830292
1788679269306115800,4.80511572265625,9.71907901763916,1.275809645652771,-0.286714643239975
1788679269322269400,4.82126953125,9.722001075744629,1.2484153509140015,-0.3074827790260315
1788679269338400300,4.837400146484375,9.722976684570312,1.2319589853286743,-0.34115466475486755
1788679269354631400,4.85363134765625,9.722502708435059,1.2224485874176025,-0.3859403729438782
1788679269370777000,4.869777099609375,9.721101760864258,1.216899037361145,-0.43557244539260864
1788679269386949600,4.88594970703125,9.719366073608398,1.216429352760315,-0.47392505407333374
1788679269403101700,4.902101806640625,9.718111038208008,1.21804940700531,-0.49502497911453247
1788679269419249400,4.91824951171875,9.717455863952637,1.2196505069732666,-0.50388103723526
1788679269435452200,4.9344521484375,9.717087745666504,1.2218385934829712,-0.5056692957878113
1788679269451598000,4.95059814453125,9.716658592224121,1.2291688919067383,-0.496069073677063
1788679269467771600,4.966771728515625,9.714818000793457,1.248294472694397,-0.48420026898384094
1788679269483922000,4.982921875,9.710739135742188,1.2815539836883545,-0.4791136384010315
1788679269500059400,4.999059326171875,9.703471183776855,1.3317276239395142,-0.48942092061042786
1788679269516268500,5.0152685546875,9.692424774169922,1.3940153121948242,-0.5329214930534363
1788679269532414700,5.031414794921875,9.680203437805176,1.4534608125686646,-0.5928760170936584
1788679269548588000,5.047588134765625,9.671676635742188,1.494894027709961,-0.6279685497283936
1788679269564739000,5.063739013671875,9.668596267700195,1.5133073329925537,-0.6312944889068604
1788679269580894700,5.079894775390625,9.670975685119629,1.5087919235229492,-0.605113685131073
1788679269597066800,5.096066650390625,9.676348686218262,1.4938877820968628,-0.5540350079536438
1788679269613217300,5.11221728515625,9.681309700012207,1.4833927154541016,-0.4921027719974518
1788679269629394000,5.128393798828125,9.682387351989746,1.488400936126709,-0.454326868057251
1788679269645546000,5.1445458984375,9.678934097290039,1.5079548358917236,-0.46334412693977356
1788679269661708800,5.160708740234375,9.672135353088379,1.5380967855453491,-0.5044238567352295
1788679269677889800,5.176889892578125,9.666216850280762,1.566379189491272,-0.5301932692527771
1788679269694039300,5.193039306640625,9.6628999710083,1.5903096199035645,-0.5193012952804565
1788679269710211600,5.209211669921875,9.659322738647461,1.6208922863006592,-0.4904937744140625
1788679269726368300,5.2253681640625,9.654195785522461,1.6608058214187622,-0.4567463994026184
1788679269742497300,5.241497314453125,9.647850036621094,1.705508828163147,-0.4250045716762543
1788679269758686500,5.2576865234375,9.641907691955566,1.7418034076690674,-0.41246911883354187
1788679269774834400,5.27383447265625,9.638245582580566,1.758960247039795,-0.42504534125328064
1788679269791008800,5.2900087890625,9.638729095458984,1.7500983476638794,-0.4499403238296509
1788679269807160000,5.30616015625,9.642826080322266,1.7216706275939941,-0.47132018208503723
1788679269823298800,5.322298828125,9.648212432861328,1.6870421171188354,-0.4860917627811432
1788679269839505200,5.338505126953125,9.653579711914062,1.6577962636947632,-0.4800950586795807
1788679269855654000,5.35465380859375,9.657702445983887,1.637339472770691,-0.4672202169895172
1788679269871828000,5.370827880859375,9.65984058380127,1.6276074647903442,-0.4568987786769867
1788679269887981300,5.386981201171875,9.66066837310791,1.6247999668121338,-0.4493274390697479
1788679269904117500,5.403117431640625,9.660662651062012,1.6253981590270996,-0.4472985863685608
1788679269920357600,5.419357666015625,9.660514831542969,1.6240501403808594,-0.45531147718429565
1788679269936504300,5.43550439453125,9.660857200622559,1.6156086921691895,-0.4775296151638031
1788679269952678700,5.4516787109375,9.662428855895996,1.5971404314041138,-0.5069549679756165
1788679269968834000,5.467833984375,9.665265083312988,1.5699936151504517,-0.5368043184280396
1788679269984972800,5.483972900390625,9.668041229248047,1.543787956237793,-0.5622068047523499
1788679270001192000,5.50019189453125,9.667966842651367,1.5275112390518188,-0.6062229871749878
1788679270017343500,5.516343505859375,9.661211013793945,1.5393495559692383,-0.6795603632926941
1788679270033510100,5.53251025390625,9.648847579956055,1.5819340944290161,-0.753409206867218
1788679270049646800,5.548646728515625,9.637144088745117,1.633773922920227,-0.791595995426178
1788679270065783800,5.56478369140625,9.6304931640625,1.6786487102508545,-0.7785425186157227
1788679270081955600,5.58095556640625,9.630349159240723,1.70624577999115,-0.7179710268974304
1788679270098103300,5.597103271484375,9.633413314819336,1.7215440273284912,-0.6356253623962402
1788679270114313000,5.61331298828125,9.635945320129395,1.7353792190551758,-0.5544463396072388
1788679270130465800,5.6294658203125,9.634981155395508,1.7559711933135986,-0.5040780901908875
1788679270146601500,5.6456015625,9.63135814666748,1.782173752784729,-0.4808250963687897
1788679270162783200,5.661783203125,9.628679275512695,1.8021228313446045,-0.459655225276947
1788679270178929400,5.677929443359375,9.629598617553711,1.805708885192871,-0.42500749230384827
1788679270195102500,5.6941025390625,9.635510444641113,1.7875752449035645,-0.36316317319869995
1788679270211254500,5.710254638671875,9.64490795135498,1.751977801322937,-0.27698007225990295
1788679270227426300,5.72642626953125,9.653279304504395,1.7157514095306396,-0.20195582509040833
1788679270243618600,5.74261865234375,9.656655311584473,1.699522852897644,-0.17610087990760803
1788679270259764700,5.7587646484375,9.6517972946167,1.7237684726715088,-0.20452508330345154
1788679270275939000,5.77493896484375,9.640049934387207,1.784464716911316,-0.2356184422969818
1788679270292092400,5.791092529296875,9.622920036315918,1.8702418804168701,-0.2683025598526001
1788679270308233500,5.8072333984375,9.604640007019043,1.9592729806900024,-0.2872716188430786
1788679270324429000,5.823428955078125,9.588420867919922,2.0369465351104736,-0.288801908493042
1788679270340573000,5.839572998046875,9.574905395507812,2.09968900680542,-0.28789085149765015
1788679270356780000,5.855780029296875,9.569628715515137,2.125490665435791,-0.27367088198661804
1788679270372930300,5.871930419921875,9.573871612548828,2.108900547027588,-0.2528217136859894
1788679270389069600,5.888069580078125,9.580680847167969,2.0752689838409424,-0.2723964750766754
1788679270405277000,5.90427685546875,9.585118293762207,2.044982433319092,-0.337551087141037
1788679270421426400,5.920426513671875,9.585883140563965,2.0209405422210693,-0.4438873827457428
1788679270437602000,5.93660205078125,9.58273983001709,2.0078272819519043,-0.5568885803222656
1788679270453754600,5.952754638671875,9.575390815734863,2.0160458087921143,-0.6463978290557861
1788679270469903000,5.968903076171875,9.566715240478516,2.0397651195526123,-0.6983599066734314
1788679270486116000,5.9851162109375,9.562033653259277,2.056947708129883,-0.7119523286819458
1788679270502260700,6.0012607421875,9.562992095947266,2.0562381744384766,-0.7010437846183777
1788679270518439000,6.01743896484375,9.566423416137695,2.0472159385681152,-0.6803236603736877
1788679270534591500,6.033591552734375,9.568426132202148,2.0471386909484863,-0.651796281337738
1788679270550751500,6.04975146484375,9.567366600036621,2.0621442794799805,-0.61922687292099
1788679270566924000,6.065924072265625,9.56386661529541,2.087890863418579,-0.5861367583274841
1788679270583072000,6.082072021484375,9.560029029846191,2.113539934158325,-0.5560348629951477
1788679270599248000,6.098247802734375,9.557019233703613,2.130326509475708,-0.5435848236083984
1788679270615400400,6.114400390625,9.554693222045898,2.1375725269317627,-0.5558849573135376
1788679270631564300,6.130564208984375,9.553120613098145,2.1375415325164795,-0.5824061036109924
1788679270647746600,6.14674658203125,9.552241325378418,2.1371800899505615,-0.5979397892951965
1788679270663894000,6.16289404296875,9.552549362182617,2.136488676071167,-0.5954787135124207
1788679270680069000,6.179069091796875,9.551563262939453,2.14355206489563,-0.5858463644981384
1788679270696245200,6.195245361328125,9.548784255981445,2.155634880065918,-0.5868135690689087
1788679270712427800,6.211427734375,9.543839454650879,2.17672061920166,-0.5894065499305725
1788679270728635600,6.2276357421875,9.537813186645508,2.200162649154663,-0.5998358726501465
1788679270744781600,6.243781494140625,9.532269477844238,2.217801809310913,-0.6225672364234924
1788679270760957200,6.259957275390625,9.5291748046875,2.2232351303100586,-0.6499481797218323
1788679270777112300,6.2761123046875,9.530117988586426,2.213421583175659,-0.6693375706672668
1788679270793250300,6.292250244140625,9.53678035736084,2.1871256828308105,-0.660831093788147
1788679270809455000,6.308455078125,9.54622745513916,2.1572024822235107,-0.6216140389442444
1788679270825606700,6.324606689453125,9.552301406860352,2.1429429054260254,-0.5759595036506653
1788679270841818600,6.340818603515625,9.54958724975586,2.16176176071167,-0.5500540137290955
1788679270857975800,6.356975830078125,9.540104866027832,2.204465627670288,-0.545075535774231
1788679270874149600,6.373149658203125,9.532608032226562,2.2359697818756104,-0.5479288697242737
1788679270890359300,6.389359375,9.533519744873047,2.2339236736297607,-0.540339469909668
1788679270906507800,6.4055078125,9.541922569274902,2.2044694423675537,-0.5122586488723755
1788679270922680800,6.421680908203125,9.554314613342285,2.1597883701324463,-0.4698699712753296
1788679270938832400,6.437832275390625,9.566648483276367,2.1141629219055176,-0.4242008328437805
1788679270954968600,6.453968505859375,9.577518463134766,2.072166919708252,-0.38424503803253174
1788679270971185400,6.470185302734375,9.586477279663086,2.0348305702209473,-0.3595831096172333
1788679270987332400,6.486332275390625,9.595157623291016,1.9928280115127563,-0.3632964491844177
1788679271003507200,6.502507080078125,9.60083293914795,1.962623119354248,-0.3774934411048889
1788679271019657700,6.51865771484375,9.602837562561035,1.9508187770843506,-0.38754451274871826
1788679271035788800,6.534788818359375,9.603436470031738,1.9457132816314697,-0.3982539176940918
1788679271051956500,6.55095654296875,9.60339069366455,1.9460783004760742,-0.3975622057914734
1788679271068102400,6.567102294921875,9.603767395019531,1.9486730098724365,-0.3751164972782135
1788679271084275000,6.58327490234375,9.604447364807129,1.9514573812484741,-0.34174853563308716
1788679271100429600,6.5994296875,9.6046724319458,1.955427646636963,-0.31139644980430603
1788679271116565000,6.61556494140625,9.605462074279785,1.9552870988845825,-0.2869656980037689
1788679271132745200,6.6317451171875,9.607711791992188,1.9465373754501343,-0.2706575393676758
1788679271148889600,6.6478896484375,9.610848426818848,1.9331239461898804,-0.2549913823604584
1788679271165062700,6.664062744140625,9.613862991333008,1.9196637868881226,-0.24275106191635132
1788679271181217000,6.680217041015625,9.615730285644531,1.9105311632156372,-0.2407992035150528
1788679271197353000,6.69635302734375,9.614904403686523,1.9130524396896362,-0.2534177303314209
1788679271213540000,6.7125400390625,9.610711097717285,1.9309897422790527,-0.27551519870758057
1788679271229686000,6.72868603515625,9.605469703674316,1.9542802572250366,-0.2934662401676178
1788679271245860900,6.74486083984375,9.601231575012207,1.9747074842453003,-0.29541128873825073
1788679271262017500,6.761017578125,9.596993446350098,1.9991726875305176,-0.26724085211753845
1788679271278155800,6.77715576171875,9.593384742736816,2.0224149227142334,-0.21725605428218842
1788679271294360600,6.793360595703125,9.592586517333984,2.0307705402374268,-0.16923290491104126
1788679271310508300,6.80950830078125,9.594234466552734,2.024923324584961,-0.14399419724941254
1788679271326679800,6.8256796875,9.596516609191895,2.013485908508301,-0.15204043686389923
1788679271342829000,6.8418291015625,9.598791122436523,2.00077486038208,-0.17464761435985565
1788679271358963200,6.857963134765625,9.603259086608887,1.978251576423645,-0.18524609506130219
1788679271375165400,6.87416552734375,9.6134033203125,1.9296159744262695,-0.17160934209823608
1788679271391311400,6.890311279296875,9.6293363571167,1.8521380424499512,-0.12594839930534363
1788679271407517400,6.906517333984375,9.645541191101074,1.7689648866653442,-0.068423330783844
1788679271423670000,6.922669921875,9.654830932617188,1.7181147336959839,-0.052098728716373444
1788679271439849000,6.938848876953125,9.654367446899414,1.7191674709320068,-0.0896826833486557
1788679271456021800,6.955021728515625,9.645849227905273,1.761765718460083,-0.15541355311870575
1788679271472165600,6.97116552734375,9.635151863098145,1.8139443397521973,-0.209413081407547
1788679271488372700,6.987372802734375,9.627107620239258,1.853206753730774,-0.2341015338897705
1788679271504523300,7.003523193359375,9.622175216674805,1.8791037797927856,-0.23040486872196198
1788679271520678100,7.01967822265625,9.619089126586914,1.8969240188598633,-0.21259835362434387
1788679271536851700,7.035851806640625,9.617372512817383,1.9069263935089111,-0.20042115449905396
1788679271552998000,7.051997802734375,9.617033958435059,1.9076511859893799,-0.20956440269947052
1788679271569171700,7.068171630859375,9.617295265197754,1.9019252061843872,-0.24638380110263824
1788679271585322200,7.084322265625,9.616926193237305,1.8965204954147339,-0.29720959067344666
1788679271601487000,7.100487060546875,9.61546516418457,1.896093487739563,-0.34356385469436646
1788679271617672700,7.116672607421875,9.611930847167969,1.9098033905029297,-0.3658117651939392
1788679271633817000,7.132817138671875,9.606797218322754,1.9334055185317993,-0.3765365183353424
1788679271649988400,7.14898828125,9.601770401000977,1.9572911262512207,-0.3813372552394867
1788679271666142000,7.165141845703125,9.598336219787598,1.9744700193405151,-0.3792002499103546
1788679271682280000,7.181280029296875,9.596877098083496,1.9817278385162354,-0.37826940417289734
1788679271698482400,7.197482421875,9.596896171569824,1.980508804321289,-0.384115070104599
1788679271714628900,7.21362890625,9.597405433654785,1.976956844329834,-0.3896719515323639
1788679271730805200,7.22980517578125,9.597963333129883,1.9741847515106201,-0.3899743854999542
1788679271746959000,7.245958984375,9.59821605682373,1.9721429347991943,-0.3940729796886444
1788679271763092500,7.262092529296875,9.597335815429688,1.9717042446136475,-0.4170319736003876
1788679271779292200,7.278292236328125,9.59451961517334,1.9755507707595825,-0.46128225326538086
1788679271795437600,7.2944375,9.590408325195312,1.9829179048538208,-0.5123391151428223
1788679271811608800,7.31060888671875,9.585874557495117,1.992488980293274,-0.5580201148986816
1788679271827757800,7.3267578125,9.580336570739746,2.0096139907836914,-0.5907466411590576
1788679271843891700,7.3428916015625,9.574131965637207,2.0338666439056396,-0.6080871224403381
1788679271860103200,7.359103271484375,9.570033073425293,2.048046350479126,-0.6247943043708801
1788679271876247300,7.375247314453125,9.566813468933105,2.058558225631714,-0.6393805742263794
1788679271892417800,7.391417724609375,9.560916900634766,2.0782787799835205,-0.6633419990539551
1788679271908567000,7.407567138671875,9.549629211425781,2.1105709075927734,-0.7214251160621643
1788679271924701400,7.423701416015625,9.534180641174316,2.146451950073242,-0.813964307308197
1788679271940871200,7.43987109375,9.521271705627441,2.1644203662872314,-0.9116283059120178
1788679271957015300,7.456015380859375,9.517070770263672,2.1474521160125732,-0.9920663237571716
1788679271973186600,7.4721865234375,9.521612167358398,2.10206937789917,-1.0443189144134521
1788679271989337900,7.488337890625,9.52985954284668,2.0475940704345703,-1.0768136978149414
1788679272005507000,7.504507080078125,9.536520957946777,2.0018742084503174,-1.1034724712371826
1788679272021682400,7.520682373046875,9.535011291503906,1.9816598892211914,-1.1519362926483154
1788679272037850600,7.5368505859375,9.53463363647461,1.9692449569702148,-1.176110029220581
1788679272054057700,7.5530576171875,9.551322937011719,1.9228312969207764,-1.1159422397613525
1788679272070210600,7.56921044921875,9.567828178405762,1.8621795177459717,-1.0767230987548828
1788679272086387700,7.5853876953125,9.568536758422852,1.8479890823364258,-1.0947270393371582
1788679272102575400,7.601575439453125,9.553156852722168,1.8868966102600098,-1.1606855392456055
1788679272118722600,7.61772265625,9.542693138122559,1.9129083156585693,-1.2034021615982056
1788679272134932200,7.63393212890625,9.552292823791504,1.8695340156555176,-1.1953785419464111
1788679272151085800,7.6500859375,9.580018043518066,1.7593882083892822,-1.13938570022583
1788679272167254300,7.666254150390625,9.602947235107422,1.6567082405090332,-1.0995959043502808
1788679272183446300,7.6824462890625,9.603737831115723,1.636173129081726,-1.1231838464736938
1788679272199592000,7.698592041015625,9.586298942565918,1.7075005769729614,-1.1652084589004517
1788679272215797200,7.71479736328125,9.567551612854004,1.8017197847366333,-1.1773464679718018
1788679272231953000,7.730952880859375,9.559033393859863,1.8637356758117676,-1.1496751308441162
1788679272248124400,7.74712451171875,9.56253719329834,1.877549171447754,-1.0968466997146606
1788679272264325600,7.76332568359375,9.573101043701172,1.8581138849258423,-1.0361171960830688
1788679272280474000,7.77947412109375,9.583971977233887,1.8333916664123535,-0.9780296683311462
1788679272296682000,7.795681884765625,9.590835571289062,1.819791316986084,-0.9352070093154907
1788679272312833000,7.8118330078125,9.592204093933105,1.824209213256836,-0.9122912883758545
1788679272328985000,7.827985107421875,9.591753959655762,1.8375458717346191,-0.8899831175804138
1788679272345202400,7.844202392578125,9.59422779083252,1.841391682624817,-0.8546717166900635
1788679272361348900,7.860348876953125,9.60085391998291,1.8265081644058228,-0.8110922574996948
1788679272377521400,7.876521484375,9.60793399810791,1.8037621974945068,-0.7774448990821838
1788679272393676800,7.8926767578125,9.612903594970703,1.7869411706924438,-0.7545285820960999
1788679272409834000,7.908833984375,9.613848686218262,1.7872076034545898,-0.741747260093689
1788679272426006500,7.925006591796875,9.61192798614502,1.8010634183883667,-0.7330718636512756
1788679272442156000,7.941156005859375,9.610249519348145,1.8155232667922974,-0.7192736864089966
1788679272458337800,7.957337890625,9.613778114318848,1.8127473592758179,-0.677945613861084
1788679272474492700,7.97349267578125,9.621804237365723,1.7953110933303833,-0.6067283153533936
1788679272490653700,7.98965380859375,9.628525733947754,1.7814661264419556,-0.5368958711624146
1788679272506783700,8.00578369140625,9.632258415222168,1.773918867111206,-0.4931412935256958
1788679272522862600,8.021862548828125,9.633038520812988,1.7716273069381714,-0.4860925078392029
1788679272539025000,8.03802490234375,9.632522583007812,1.7698031663894653,-0.5026723146438599
1788679272555179500,8.054179443359375,9.634449005126953,1.7549432516098022,-0.5176430344581604
1788679272571348200,8.07034814453125,9.641688346862793,1.7165496349334717,-0.5115422010421753
1788679272587529200,8.086529296875,9.65473747253418,1.6536040306091309,-0.47120243310928345
1788679272603679500,8.102679443359374,9.66937255859375,1.582081913948059,-0.4130748212337494
1788679272619889700,8.1188896484375,9.677717208862305,1.5371354818344116,-0.3865275979042053
1788679272636044800,8.135044921875,9.675265312194824,1.5434322357177734,-0.42125192284584045
1788679272652218400,8.15121826171875,9.666110038757324,1.5821799039840698,-0.48312222957611084
1788679272668423000,8.1674228515625,9.656951904296875,1.6236385107040405,-0.5267528295516968
1788679272684572200,8.183572265625,9.652002334594727,1.6520118713378906,-0.5292440056800842
1788679272700743000,8.199742919921874,9.650555610656738,1.6711453199386597,-0.4943945109844208
1788679272716900000,8.215900146484374,9.65107536315918,1.6830358505249023,-0.44104984402656555
1788679272733037300,8.232037353515626,9.652152061462402,1.6864765882492065,-0.4026850163936615
1788679272749249800,8.248249755859375,9.654515266418457,1.6753568649291992,-0.39231476187705994
1788679272765399800,8.26439990234375,9.657883644104004,1.6513479948043823,-0.4107512831687927
1788679272781576700,8.28057666015625,9.661547660827637,1.6216206550598145,-0.44185206294059753
1788679272797732400,8.296732421875,9.664761543273926,1.5939081907272339,-0.47141048312187195
1788679272813857300,8.312857177734376,9.667534828186035,1.5724786520004272,-0.4862860143184662
1788679272830019800,8.329019775390625,9.669088363647461,1.5630574226379395,-0.48575934767723083
1788679272846171000,8.3451708984375,9.669209480285645,1.5653232336044312,-0.475970983505249
1788679272862348800,8.361348876953125,9.669419288635254,1.569807529449463,-0.4565257430076599
1788679272878504000,8.37750390625,9.672093391418457,1.5590721368789673,-0.43620461225509644
1788679272894638600,8.393638671875,9.67796802520752,1.5226205587387085,-0.43467143177986145
1788679272910815700,8.409815673828126,9.685352325439453,1.4704463481903076,-0.44959765672683716
1788679272926962000,8.4259619140625,9.692855834960938,1.4178180694580078,-0.4568706750869751
1788679272943137800,8.4421376953125,9.700180053710938,1.3682584762573242,-0.45250460505485535
1788679272959289900,8.458289794921875,9.705714225769043,1.3328572511672974,-0.4393022060394287
1788679272975428400,8.474428466796875,9.70678424835205,1.3275740146636963,-0.43160349130630493
1788679272991611000,8.49061083984375,9.704902648925781,1.3347396850585938,-0.45134425163269043
1788679273007761400,8.506761474609375,9.701375961303711,1.3522918224334717,-0.4743330478668213
1788679273023937500,8.5229375,9.696540832519531,1.381102442741394,-0.4899319112300873
1788679273040096300,8.53909619140625,9.692465782165527,1.4061700105667114,-0.4991878867149353
1788679273056236800,8.55523681640625,9.690256118774414,1.422100305557251,-0.4969518482685089
1788679273072425200,8.57142529296875,9.68918228149414,1.4333312511444092,-0.4854855239391327
1788679273088574500,8.587574462890625,9.687433242797852,1.4468351602554321,-0.48031482100486755
1788679273104786000,8.603785888671876,9.68488883972168,1.4649659395217896,-0.47664305567741394
1788679273120943000,8.619943115234374,9.683971405029297,1.4757320880889893,-0.46185100078582764
1788679273137123800,8.636123779296875,9.687226295471191,1.4654510021209717,-0.42484280467033386
1788679273153323800,8.65232373046875,9.693903923034668,1.435645580291748,-0.37086930871009827
1788679273169474800,8.668474853515624,9.700559616088867,1.4032143354415894,-0.31703656911849976
1788679273185688000,8.68468798828125,9.702690124511719,1.3959325551986694,-0.2820676565170288
1788679273201845500,8.700845458984375,9.698460578918457,1.4254930019378662,-0.2796851396560669
1788679273218020400,8.717020263671875,9.691274642944336,1.47132408618927,-0.2912064790725708
1788679273234226700,8.733226806640625,9.68619155883789,1.50223970413208,-0.3022492527961731
1788679273250378000,8.7493779296875,9.686274528503418,1.5004972219467163,-0.308191180229187
1788679273266549800,8.7655498046875,9.68950366973877,1.4808564186096191,-0.3016194701194763
1788679273282708000,8.7817080078125,9.693581581115723,1.4584403038024902,-0.2789583206176758
1788679273298858500,8.7978583984375,9.697511672973633,1.438124179840088,-0.24586057662963867
1788679273315027200,8.814027099609374,9.701184272766113,1.41765296459198,-0.21833427250385284
1788679273331091000,8.830091064453125,9.704523086547852,1.3953522443771362,-0.2135803997516632
1788679273347198000,8.846197998046875,9.707460403442383,1.3720320463180542,-0.2305038422346115
1788679273363316200,8.862316162109375,9.709129333496094,1.354750156402588,-0.2604890763759613
1788679273379412200,8.878412109375,9.7090482711792,1.3493274450302124,-0.2899749279022217
1788679273395575300,8.8945751953125,9.707451820373535,1.3570269346237183,-0.30699992179870605
1788679273411680300,8.91068017578125,9.705032348632812,1.3723195791244507,-0.315381795167923
1788679273427859500,8.926859375,9.702329635620117,1.3911174535751343,-0.316188782453537
1788679273444017200,8.94301708984375,9.699942588806152,1.410210132598877,-0.30463001132011414
1788679273460166700,8.959166748046876,9.698413848876953,1.4257874488830566,-0.27980250120162964
1788679273476343300,8.97534326171875,9.697413444519043,1.4365829229354858,-0.2584373652935028
1788679273492494800,8.991494873046875,9.695860862731934,1.4475699663162231,-0.2553674876689911
1788679273508672800,9.0076728515625,9.693198204040527,1.4627660512924194,-0.2694467008113861
1788679273524830500,9.02383056640625,9.689533233642578,1.48283052444458,-0.29076340794563293
1788679273540969000,9.039968994140626,9.685966491699219,1.502376914024353,-0.3087196350097656
1788679273557165300,9.056165283203125,9.68355941772461,1.5155014991760254,-0.319875568151474
1788679273573309700,9.072309814453124,9.6821928024292,1.523769497871399,-0.32197877764701843
1788679273589486000,9.088486083984375,9.681449890136719,1.5305273532867432,-0.31207743287086487
1788679273605641200,9.10464111328125,9.681077003479004,1.5381957292556763,-0.2847355902194977
1788679273621781800,9.12078173828125,9.68061351776123,1.5475188493728638,-0.24758966267108917
1788679273637984800,9.13698486328125,9.680086135864258,1.5563602447509766,-0.2099241018295288
1788679273654131700,9.153131591796875,9.679831504821777,1.5619691610336304,-0.1774955540895462
1788679273670305800,9.169305908203125,9.679521560668945,1.565699815750122,-0.160732701420784
1788679273686460000,9.1854599609375,9.68015193939209,1.5628665685653687,-0.14998656511306763
1788679273702600000,9.201599853515624,9.684178352355957,1.5391881465911865,-0.13411496579647064
1788679273718809600,9.2178095703125,9.692892074584961,1.4853484630584717,-0.10939773172140121
1788679273734890800,9.233890869140625,9.704886436462402,1.4069608449935913,-0.07769026607275009
1788679273751031000,9.250031005859375,9.715582847595215,1.3308227062225342,-0.08217746019363403
1788679273767173400,9.26617333984375,9.719669342041016,1.2943699359893799,-0.15170089900493622
1788679273783340500,9.282340576171874,9.715991020202637,1.3046352863311768,-0.260441392660141
1788679273799556600,9.298556640625,9.708168029785156,1.3410584926605225,-0.3513301610946655
1788679273815706600,9.31470654296875,9.700777053833008,1.3811147212982178,-0.3972639739513397
1788679273831880700,9.330880615234374,9.696686744689941,1.4112294912338257,-0.39127859473228455
1788679273847922700,9.346922607421876,9.695272445678711,1.4311240911483765,-0.3520852029323578
1788679273864026600,9.363026611328126,9.695261001586914,1.4413015842437744,-0.30813875794410706
1788679273880201000,9.379200927734376,9.697209358215332,1.4333945512771606,-0.2826932370662689
1788679273896349700,9.395349609375,9.701305389404297,1.4060293436050415,-0.2795405983924866
1788679273912519200,9.411519287109375,9.7062349319458,1.3686814308166504,-0.29342976212501526
1788679273928674000,9.427674072265624,9.709893226623535,1.3373842239379883,-0.3158673346042633
1788679273944809700,9.443809814453125,9.711227416992188,1.3222743272781372,-0.33769646286964417
1788679273960995600,9.45999560546875,9.71113395690918,1.3210328817367554,-0.34516164660453796
1788679273977144800,9.476144775390624,9.710559844970703,1.3284724950790405,-0.33253106474876404
1788679273993318400,9.492318359375,9.709624290466309,1.341322898864746,-0.3073171079158783
1788679274009474800,9.508474853515626,9.709001541137695,1.3507418632507324,-0.28490158915519714
1788679274025614300,9.5246142578125,9.710123062133789,1.3452587127685547,-0.272359699010849
1788679274041806600,9.540806640625,9.713150978088379,1.3243598937988281,-0.26674190163612366
1788679274057956600,9.55695654296875,9.717254638671875,1.294861078262329,-0.26207906007766724
1788679274074133800,9.5731337890625,9.720748901367188,1.27017080783844,-0.2531793415546417
1788679274090281700,9.58928173828125,9.721179962158203,1.269088625907898,-0.24180881679058075
1788679274106429000,9.605428955078125,9.717398643493652,1.298714280128479,-0.23643936216831207
1788679274122606800,9.62160693359375,9.71131420135498,1.3413281440734863,-0.24818375706672668
1788679274138756900,9.6377568359375,9.707178115844727,1.3662989139556885,-0.272572785615921
1788679274154934300,9.653934326171875,9.703263282775879,1.3901244401931763,-0.29090964794158936
1788679274171075000,9.670074951171875,9.699256896972656,1.4182801246643066,-0.2885921001434326
1788679274187213600,9.686213623046875,9.696045875549316,1.4438291788101196,-0.2691212594509125
1788679274203420700,9.702420654296875,9.693183898925781,1.4660418033599854,-0.2516004145145416
1788679274219570000,9.71856982421875,9.689119338989258,1.4944604635238647,-0.24071967601776123
1788679274235728100,9.73472802734375,9.683219909667969,1.5296506881713867,-0.2565414011478424
1788679274251882000,9.750882080078124,9.677061080932617,1.5609482526779175,-0.29718419909477234
1788679274268028400,9.7670283203125,9.675301551818848,1.5651817321777344,-0.3303476572036743
1788679274284247600,9.78324755859375,9.679378509521484,1.5393867492675781,-0.332115113735199
1788679274300396000,9.79939599609375,9.687178611755371,1.497593879699707,-0.29355886578559875
1788679274316594000,9.815593994140626,9.6929931640625,1.4683643579483032,-0.24533721804618835
1788679274332752600,9.831752685546874,9.693343162536621,1.4702306985855103,-0.21886494755744934
1788679274348953900,9.847953857421874,9.688713073730469,1.5010639429092407,-0.21455621719360352
1788679274365133300,9.86413330078125,9.684613227844238,1.5273921489715576,-0.2138059139251709
1788679274381284400,9.880284423828124,9.684832572937012,1.5267620086669922,-0.2083425223827362
1788679274397451800,9.89645166015625,9.688543319702148,1.505095362663269,-0.19288155436515808
1788679274413604400,9.912604248046875,9.693009376525879,1.478782057762146,-0.17078472673892975
1788679274429771800,9.928771728515626,9.69718074798584,1.4537229537963867,-0.147552028298378
1788679274445958100,9.944958251953125,9.701372146606445,1.4269310235977173,-0.13278430700302124
1788679274462104800,9.961104736328124,9.710907936096191,1.3595620393753052,-0.14228574931621552
1788679274478278400,9.9772783203125,9.716300010681152,1.3173855543136597,-0.16850070655345917
1788679274494435300,9.993435302734374,9.717546463012695,1.3030974864959717,-0.203979954123497
1788679274510573300,10.0095732421875,9.716009140014648,1.3083876371383667,-0.2401352971792221
1788679274526767600,10.025767578125,9.712364196777344,1.3303543329238892,-0.2655780613422394
1788679274542918100,10.041918212890625,9.707279205322266,1.3648775815963745,-0.27609145641326904
1788679274559077000,10.0580771484375,9.701736450195312,1.4040977954864502,-0.274248331785202
1788679274575216600,10.074216552734375,9.697037696838379,1.4388391971588135,-0.25997576117515564
1788679274591341800,10.090341796875,9.69433879852295,1.461426854133606,-0.23330578207969666
1788679274607546400,10.10654638671875,9.69354248046875,1.4713516235351562,-0.2018493264913559
1788679274623693600,10.122693603515625,9.692834854125977,1.47934889793396,-0.17566366493701935
1788679274639868700,10.13886865234375,9.690900802612305,1.4937485456466675,-0.15982188284397125
1788679274656021000,10.15502099609375,9.688007354736328,1.5128604173660278,-0.15542268753051758
1788679274672156000,10.171156005859375,9.684767723083496,1.5331320762634277,-0.15863800048828125
1788679274688372700,10.187372802734375,9.682037353515625,1.5498480796813965,-0.16286255419254303
1788679274704519700,10.203519775390625,9.679577827453613,1.564531922340393,-0.1685667634010315
1788679274720693200,10.219693359375,9.677369117736816,1.5785069465637207,-0.16501761972904205
1788679274736872400,10.23587255859375,9.675376892089844,1.5923949480056763,-0.14750169217586517
1788679274753010000,10.252010009765625,9.673816680908203,1.6039204597473145,-0.12281835079193115
1788679274769182000,10.268181884765625,9.672638893127441,1.6124787330627441,-0.1018078625202179
1788679274785329700,10.28432958984375,9.671236038208008,1.6219217777252197,-0.08343429118394852
1788679274801506000,10.300506103515625,9.669927597045898,1.6303975582122803,-0.06849449872970581
1788679274817659600,10.31665966796875,9.66995906829834,1.6307604312896729,-0.05378426983952522
1788679274833794300,10.332794189453125,9.673585891723633,1.609714150428772,-0.030878758057951927
1788679274849969200,10.34896923828125,9.681157112121582,1.563838243484497,-0.0006756342481821775
1788679274866116400,10.365116455078125,9.693093299865723,1.4876176118850708,0.03644004464149475
1788679274882294500,10.38129443359375,9.706985473632812,1.393627643585205,0.05119834467768669
1788679274898449000,10.397448974609375,9.718443870544434,1.3122142553329468,0.017989538609981537
1788679274914618400,10.413618408203124,9.724082946777344,1.2686575651168823,-0.055792614817619324
1788679274930806500,10.429806640625,9.724343299865723,1.2620534896850586,-0.1214132010936737
1788679274946955500,10.44595556640625,9.721409797668457,1.2812587022781372,-0.15155161917209625
1788679274963124500,10.46212451171875,9.716606140136719,1.3185348510742188,-0.13930976390838623
1788679274979278000,10.478278076171875,9.711520195007324,1.3590068817138672,-0.09929835796356201
1788679274995418000,10.494418212890626,9.707420349121094,1.3903582096099854,-0.05726407468318939
1788679275011615700,10.51061572265625,9.705167770385742,1.4067357778549194,-0.034657180309295654
1788679275027764500,10.526764404296875,9.705818176269531,1.4022730588912964,-0.03329392895102501
1788679275043938000,10.54293798828125,9.708807945251465,1.381075143814087,-0.045366935431957245
1788679275060089000,10.559089111328126,9.71219253540039,1.3562164306640625,-0.06618987023830414
1788679275076231700,10.575231689453124,9.714086532592773,1.340997338294983,-0.09293598681688309
1788679275092434400,10.591434326171875,9.7142915725708,1.3377002477645874,-0.11612565070390701
1788679275108582700,10.607582763671875,9.713594436645508,1.341755986213684,-0.12713764607906342
1788679275124756500,10.623756591796875,9.713089942932129,1.3456597328186035,-0.12437610328197479
1788679275140911900,10.639911865234374,9.713294982910156,1.344994068145752,-0.11519421637058258
1788679275157051600,10.6560517578125,9.714393615722656,1.3376507759094238,-0.10785602033138275
1788679275173262600,10.6722626953125,9.716102600097656,1.3254586458206177,-0.10442227870225906
1788679275189408800,10.68840869140625,9.717220306396484,1.3176052570343018,-0.09968133270740509
1788679275205583600,10.70458349609375,9.717205047607422,1.3185557126998901,-0.08787548542022705
1788679275221742800,10.720742919921875,9.715296745300293,1.3329240083694458,-0.08188004791736603
1788679275237895400,10.7368955078125,9.711945533752441,1.3557789325714111,-0.101800337433815
1788679275254094300,10.75309423828125,9.706794738769531,1.3891265392303467,-0.13732384145259857
1788679275270243600,10.76924365234375,9.702177047729492,1.4168462753295898,-0.17521123588085175
1788679275286419700,10.785419677734374,9.697927474975586,1.4419034719467163,-0.20371845364570618
1788679275302575600,10.80157568359375,9.694421768188477,1.463271975517273,-0.21775434911251068
1788679275318737200,10.817737060546875,9.691019058227539,1.4848694801330566,-0.2229223996400833
1788679275334910500,10.833910400390625,9.68662166595459,1.5125287771224976,-0.22806093096733093
1788679275351063600,10.8500634765625,9.680462837219238,1.5477384328842163,-0.25203874707221985
1788679275367238100,10.866238037109374,9.674636840820312,1.576126217842102,-0.2959786653518677
1788679275383393800,10.882393798828126,9.674468994140625,1.570403814315796,-0.3299447000026703
1788679275399568000,10.89856787109375,9.680803298950195,1.5290218591690063,-0.3384222388267517
1788679275415756800,10.9147568359375,9.69137191772461,1.4654319286346436,-0.3165399730205536
1788679275431909600,10.93090966796875,9.700403213500977,1.4093631505966187,-0.29370734095573425
1788679275448088300,10.94708837890625,9.702888488769531,1.3909765481948853,-0.299223929643631
1788679275464243000,10.963242919921875,9.699898719787598,1.4067212343215942,-0.3216930031776428
1788679275480415000,10.9794150390625,9.697265625,1.4235730171203613,-0.3269093334674835
1788679275496611600,10.995611572265625,9.698338508605957,1.4218627214431763,-0.30152350664138794
1788679275512760800,11.0117607421875,9.701227188110352,1.4111943244934082,-0.25515246391296387
1788679275528934700,11.0279345703125,9.703848838806152,1.4012377262115479,-0.20553156733512878
1788679275545090600,11.044090576171875,9.70570182800293,1.3937304019927979,-0.16508068144321442
1788679275561230800,11.06023095703125,9.707472801208496,1.3843083381652832,-0.13801051676273346
1788679275577437400,11.0764375,9.711525917053223,1.3564056158065796,-0.12971508502960205
1788679275593587500,11.09258740234375,9.71422004699707,1.3377095460891724,-0.12183664739131927
1788679275609763300,11.108763427734376,9.715447425842285,1.328627347946167,-0.12336276471614838
1788679275625919700,11.124919677734376,9.715310096740723,1.3279390335083008,-0.14038312435150146
1788679275642057500,11.141057373046875,9.713190078735352,1.3399937152862549,-0.1695312261581421
1788679275658275000,11.157275146484375,9.709174156188965,1.3643428087234497,-0.20222334563732147
1788679275674424600,11.173424560546875,9.70373821258545,1.3985791206359863,-0.2276724874973297
1788679275690601200,11.189601318359376,9.698110580444336,1.436052918434143,-0.2340996265411377
1788679275706755000,11.205755126953125,9.693737030029297,1.4679560661315918,-0.21666166186332703
1788679275722890500,11.221890380859374,9.690974235534668,1.4897305965423584,-0.19003187119960785
1788679275739109600,11.238109619140625,9.688891410827637,1.505514144897461,-0.17087094485759735
1788679275755258400,11.25425830078125,9.686919212341309,1.5188565254211426,-0.16449396312236786
1788679275771433000,11.270432861328125,9.685004234313965,1.5305702686309814,-0.16863873600959778
1788679275787588400,11.28658837890625,9.683162689208984,1.5414119958877563,-0.17548400163650513
1788679275803729000,11.30272900390625,9.681503295898438,1.5514321327209473,-0.17875511944293976
1788679275819912700,11.31891259765625,9.681134223937988,1.5544975996017456,-0.1719610095024109
1788679275836059400,11.335059326171875,9.683250427246094,1.5435166358947754,-0.15039440989494324
1788679275852235300,11.3512353515625,9.685772895812988,1.5306957960128784,-0.1147216260433197
1788679275868386300,11.36738623046875,9.687615394592285,1.520946979522705,-0.08484576642513275
1788679275884557800,11.383557861328125,9.68848705291748,1.5157326459884644,-0.07849851250648499
1788679275900742700,11.39974267578125,9.68741226196289,1.521633267402649,-0.09528657048940659
1788679275916895000,11.41589501953125,9.687604904174805,1.519518494606018,-0.10843495279550552
1788679275933071400,11.4320712890625,9.691316604614258,1.4964702129364014,-0.0966615080833435
1788679275949226500,11.4482265625,9.698607444763184,1.4506703615188599,-0.05433795973658562
1788679275965407200,11.4644072265625,9.705402374267578,1.4053157567977905,-0.025541633367538452
1788679275981608400,11.4806083984375,9.707195281982422,1.3921587467193604,-0.051406290382146835
1788679275997757000,11.4967568359375,9.704659461975098,1.4060893058776855,-0.11350926011800766
1788679276013969700,11.5129697265625,9.702299118041992,1.4154939651489258,-0.17932163178920746
1788679276030127400,11.52912744140625,9.703248977661133,1.4040955305099487,-0.21415995061397552
1788679276046271200,11.545271240234374,9.707252502441406,1.3788517713546753,-0.19594715535640717
1788679276062483200,11.561483154296875,9.712936401367188,1.3451248407363892,-0.1410544067621231
1788679276078637000,11.577636962890624,9.718377113342285,1.3101195096969604,-0.0843164473772049
1788679276094814500,11.593814453125,9.722451210021973,1.2813490629196167,-0.04984598234295845
1788679276110970600,11.609970703125,9.72492790222168,1.2626105546951294,-0.04467497393488884
1788679276127114800,11.62611474609375,9.726523399353027,1.2495940923690796,-0.060430869460105896
1788679276143324000,11.642323974609376,9.72799015045166,1.2366667985916138,-0.08516780287027359
1788679276159474000,11.658473876953124,9.729742050170898,1.2215715646743774,-0.10131565481424332
1788679276175687200,11.674687255859375,9.731233596801758,1.2090871334075928,-0.10767769813537598
1788679276191844000,11.690843994140625,9.731729507446289,1.204761266708374,-0.11126305162906647
1788679276208036600,11.70703662109375,9.731624603271484,1.2058846950531006,-0.10820819437503815
1788679276224211200,11.723211181640625,9.731968879699707,1.2037791013717651,-0.10047383606433868
1788679276240354000,11.73935400390625,9.732845306396484,1.1973415613174438,-0.09213895350694656
1788679276256516000,11.75551611328125,9.733539581298828,1.1922601461410522,-0.08437424153089523
1788679276272672000,11.771672119140625,9.733083724975586,1.1960254907608032,-0.08365622907876968
1788679276288840000,11.78783984375,9.730896949768066,1.212715744972229,-0.09674505889415741
1788679276305003800,11.804003662109375,9.727591514587402,1.2370054721832275,-0.11904851347208023
1788679276321094100,11.82009423828125,9.72411823272705,1.2616193294525146,-0.14223109185695648
1788679276337258800,11.8362587890625,9.720537185668945,1.286647081375122,-0.16150051355361938
1788679276353404400,11.852404296875,9.715728759765625,1.3206607103347778,-0.17566567659378052
1788679276369601300,11.868601318359374,9.709138870239258,1.3669122457504272,-0.18589437007904053
1788679276385788000,11.884787841796875,9.701141357421875,1.4213173389434814,-0.19518673419952393
1788679276401939200,11.900939208984376,9.690630912780762,1.4889519214630127,-0.21232056617736816
1788679276418117600,11.91711767578125,9.676822662353516,1.5729247331619263,-0.2353496253490448
1788679276434275600,11.933275634765625,9.661917686462402,1.6618695259094238,-0.23648148775100708
1788679276450411500,11.94941162109375,9.65214729309082,1.7222204208374023,-0.20100905001163483
1788679276466608000,11.965608154296875,9.649015426635742,1.746030330657959,-0.13513562083244324
1788679276482759400,11.981759521484374,9.64770221710205,1.7581448554992676,-0.03400375694036484
1788679276498969000,11.997968994140624,9.645429611206055,1.768310546875,0.09565035998821259
1788679276515125000,12.014125,9.642452239990234,1.774739384651184,0.20928360521793365
1788679276531296500,12.030296630859375,9.640763282775879,1.7776161432266235,0.25723275542259216
1788679276547508700,12.0465087890625,9.641820907592773,1.774117350578308,0.241229847073555
1788679276563658000,12.062657958984374,9.646919250488281,1.7533560991287231,0.18189306557178497
1788679276579836000,12.0788359375,9.654936790466309,1.7140541076660156,0.12087488919496536
1788679276595966000,12.094966064453125,9.664032936096191,1.664252758026123,0.08440423011779785
1788679276612106500,12.1111064453125,9.671806335449219,1.619165062904358,0.06958440691232681
1788679276628282600,12.12728271484375,9.675848960876465,1.595147967338562,0.061849284917116165
1788679276644368600,12.14336865234375,9.674805641174316,1.6020044088363647,0.04576638340950012
1788679276660581400,12.159581298828124,9.670219421386719,1.6300150156021118,0.017054084688425064
1788679276676717300,12.17571728515625,9.666308403015137,1.653031826019287,-0.018453503027558327
1788679276692889900,12.191889892578125,9.66527271270752,1.6587369441986084,-0.03862973675131798
1788679276709064700,12.208064697265625,9.66447639465332,1.6632614135742188,-0.042968351393938065
1788679276725213000,12.224212890625,9.657547950744629,1.7030895948410034,-0.04050648957490921
1788679276741387800,12.2403876953125,9.64270305633545,1.7853271961212158,-0.03562105819582939
1788679276757543700,12.256543701171875,9.626272201538086,1.8722069263458252,-0.010357070714235306
1788679276773719000,12.272718994140625,9.619306564331055,1.9073430299758911,0.037120357155799866
1788679276789901800,12.28890185546875,9.621207237243652,1.8964921236038208,0.07795856148004532
1788679276806054100,12.30505419921875,9.624879837036133,1.8775825500488281,0.0822286382317543
1788679276822224600,12.321224609375,9.629110336303711,1.8571739196777344,0.039016179740428925
1788679276838347300,12.33734716796875,9.636682510375977,1.8174502849578857,-0.04027092829346657
1788679276854488600,12.353488525390626,9.647692680358887,1.75392484664917,-0.12715017795562744
1788679276870683100,12.36968310546875,9.663569450378418,1.660893201828003,-0.1650708168745041
1788679276886834200,12.385834228515625,9.683521270751953,1.5440707206726074,-0.12511442601680756
1788679276903047200,12.402047119140626,9.699912071228027,1.4420349597930908,-0.05128251761198044
1788679276919203800,12.418203857421876,9.705852508544922,1.4023866653442383,-0.011889686807990074
1788679276935388700,12.434388671875,9.702725410461426,1.4235007762908936,-0.03385397419333458
1788679276951592200,12.45059228515625,9.697654724121094,1.456221103668213,-0.07272694259881973
1788679276967744300,12.466744140625,9.697408676147461,1.457947015762329,-0.07103102654218674
1788679276983913200,12.482913330078125,9.699028968811035,1.4484353065490723,-0.03551584109663963
1788679277000072400,12.499072509765625,9.69183349609375,1.496177077293396,-0.01444521639496088
1788679277016238300,12.51523828125,9.67064094543457,1.6273753643035889,-0.027491964399814606
1788679277032428800,12.5314287109375,9.643085479736328,1.7834125757217407,-0.027130145579576492
1788679277048562400,12.5475625,9.62339973449707,1.886861801147461,0.01799640618264675
1788679277064680700,12.5636806640625,9.615159034729004,1.9245569705963135,0.1232241541147232
1788679277080762600,12.5797626953125,9.609323501586914,1.942384958267212,0.24175196886062622
1788679277096814600,12.595814697265626,9.604604721069336,1.9587593078613281,0.2919328212738037
1788679277112936200,12.611936279296875,9.60802173614502,1.9447853565216064,0.27222880721092224
1788679277128974300,12.627974365234374,9.627599716186523,1.8363059759140015,0.32817697525024414
1788679277145188600,12.644188720703125,9.660128593444824,1.6177219152450562,0.4850548803806305
1788679277161348400,12.660348388671874,9.684135437011719,1.4087517261505127,0.6350760459899902
1788679277177538800,12.676538818359376,9.694766998291016,1.3216173648834229,0.6597049832344055
1788679277193758700,12.6927587890625,9.696292877197266,1.3590426445007324,0.5525516271591187
1788679277209898500,12.7088984375,9.69150447845459,1.4447132349014282,0.3974108397960663
1788679277226115300,12.725115234375,9.683218002319336,1.5279356241226196,0.2666170299053192
1788679277242274600,12.741274658203125,9.675119400024414,1.5860605239868164,0.21649639308452606
1788679277258478300,12.757478271484375,9.666511535644531,1.6324623823165894,0.2530003786087036
1788679277274660600,12.77366064453125,9.655561447143555,1.6852929592132568,0.31672632694244385
1788679277290810600,12.789810546875,9.640064239501953,1.7658675909042358,0.34822702407836914
1788679277306981600,12.805981689453125,9.621315956115723,1.8703677654266357,0.3199753165245056
1788679277323127300,12.822127197265624,9.6038236618042,1.9666916131973267,0.26283904910087585
1788679277339335700,12.838335693359374,9.59254264831543,2.0262367725372314,0.21879830956459045
1788679277355527200,12.854527099609374,9.589768409729004,2.0388400554656982,0.2233005166053772
1788679277371680500,12.870680419921875,9.588422775268555,2.037404775619507,0.2855050563812256
1788679277387890200,12.88689013671875,9.582590103149414,2.0585365295410156,0.32676300406455994
1788679277404046600,12.903046630859375,9.570656776428223,2.119804859161377,0.2816656231880188
1788679277420218000,12.919218017578125,9.55959701538086,2.178300142288208,0.1987498700618744
1788679277436436200,12.935436279296875,9.56020450592041,2.1811068058013916,0.12511266767978668
1788679277452588500,12.951588623046876,9.576292037963867,2.110785722732544,0.09800861030817032
1788679277468775700,12.967775634765625,9.59930419921875,2.0027194023132324,0.11339922249317169
1788679277484929000,12.983928955078126,9.616019248962402,1.9203370809555054,0.12194083631038666
1788679277501105200,13.000105224609374,9.618560791015625,1.9087505340576172,0.10168671607971191
1788679277517161200,13.0161611328125,9.610457420349121,1.9508999586105347,0.05915427207946777
1788679277533266000,13.032265869140625,9.599813461303711,2.003260374069214,0.03051496483385563
1788679277549476400,13.048476318359375,9.59366226196289,2.0323855876922607,0.03797236829996109
1788679277565633500,13.064633544921875,9.591614723205566,2.0406782627105713,0.08339695632457733
1788679277581774800,13.08077490234375,9.588963508605957,2.0501019954681396,0.13872969150543213
1788679277597999000,13.0969990234375,9.581039428710938,2.0834479331970215,0.18251346051692963
1788679277614147600,13.113147705078125,9.56509780883789,2.1540729999542236,0.19814759492874146
1788679277630322700,13.12932275390625,9.545574188232422,2.238607406616211,0.2025621235370636
1788679277646480400,13.14548046875,9.531229019165039,2.2992446422576904,0.19882117211818695
1788679277662617000,13.1616171875,9.524564743041992,2.328834056854248,0.1719769388437271
1788679277678794200,13.177794189453126,9.522478103637695,2.3383796215057373,0.15742424130439758
1788679277694942700,13.193942626953126,9.520859718322754,2.3419735431671143,0.19694310426712036
1788679277711149300,13.2101494140625,9.51778793334961,2.3456995487213135,0.28248709440231323
1788679277727303400,13.226303466796875,9.514396667480469,2.348630666732788,0.36136919260025024
1788679277743439600,13.242439697265626,9.515437126159668,2.334376811981201,0.4213334023952484
1788679277759619600,13.25861962890625,9.525053024291992,2.2785801887512207,0.5018261671066284
1788679277775768600,13.2747685546875,9.544147491455078,2.163609743118286,0.6312181353569031
1788679277791976400,13.2909765625,9.564796447753906,2.0405960083007812,0.7218176126480103
1788679277808132400,13.30713232421875,9.58362102508545,1.9528640508651733,0.7147863507270813
1788679277824212500,13.32321240234375,9.602970123291016,1.8855422735214233,0.6309426426887512
1788679277840403700,13.33940380859375,9.622322082519531,1.8225798606872559,0.5094132423400879
1788679277856554500,13.355554443359376,9.639941215515137,1.753218173980713,0.4100629985332489
1788679277872720600,13.371720703125,9.654098510742188,1.6848033666610718,0.3608423173427582
1788679277888873700,13.387873779296875,9.662012100219727,1.639851450920105,0.3560764193534851
1788679277905015000,13.40401513671875,9.661747932434082,1.6394094228744507,0.36516910791397095
1788679277921216500,13.420216552734376,9.65479564666748,1.6799993515014648,0.3645707070827484
1788679277937357600,13.436357666015626,9.645071029663086,1.7385846376419067,0.3468497395515442
1788679277953535500,13.452535400390625,9.635415077209473,1.796492576599121,0.3190148174762726
1788679277969694200,13.468694091796875,9.626619338989258,1.8475017547607422,0.29210808873176575
1788679277985835500,13.48483544921875,9.615735054016113,1.9073437452316284,0.2647098898887634
1788679278002051000,13.501051025390625,9.6018648147583,1.9790271520614624,0.2408832311630249
1788679278018200600,13.51720068359375,9.587227821350098,2.0491793155670166,0.23732224106788635
1788679278034376400,13.53337646484375,9.575461387634277,2.101203203201294,0.25665590167045593
1788679278050532000,13.549531982421875,9.568246841430664,2.1317501068115234,0.27327415347099304
1788679278066682400,13.565682373046876,9.566826820373535,2.13883113861084,0.26758989691734314
1788679278082903000,13.581903076171875,9.570597648620605,2.1272165775299072,0.221330463886261
1788679278099052500,13.598052490234375,9.579635620117188,2.0926055908203125,0.1482061892747879
1788679278115231000,13.61423095703125,9.594287872314453,2.02839994430542,0.07495872676372528
1788679278131384600,13.630384521484375,9.615466117858887,1.9268490076065063,0.021392405033111572
1788679278147574300,13.64657421875,9.641084671020508,1.7942484617233276,0.023164164274930954
1788679278163746800,13.662746826171874,9.663005828857422,1.6712356805801392,0.06058255210518837
1788679278179894300,13.678894287109374,9.672619819641113,1.614454984664917,0.065976083278656
1788679278196101600,13.6951015625,9.670093536376953,1.6307140588760376,0.020992591977119446
1788679278212256500,13.711256591796875,9.660792350769043,1.684470295906067,-0.045139484107494354
1788679278228459500,13.72745947265625,9.651647567749023,1.7340680360794067,-0.09545206278562546
1788679278244640000,13.743639892578125,9.645930290222168,1.7648122310638428,-0.10888291150331497
1788679278260786200,13.7597861328125,9.64367961883545,1.7783626317977905,-0.0852021798491478
1788679278276955100,13.775955078125,9.6444673538208,1.775742769241333,-0.03729037940502167
1788679278293110000,13.792110107421875,9.647668838500977,1.7584595680236816,0.026384368538856506
1788679278309246200,13.80824609375,9.651968955993652,1.732543706893921,0.09042641520500183
1788679278325440000,13.82443994140625,9.656106948852539,1.7063034772872925,0.13604052364826202
1788679278341588000,13.840587890625,9.659113883972168,1.6878209114074707,0.15220892429351807
1788679278357763800,13.856763916015625,9.66093921661377,1.6786001920700073,0.13766148686408997
1788679278373916700,13.872916748046874,9.662055015563965,1.6743892431259155,0.10725516825914383
1788679278390055000,13.889054931640626,9.662605285644531,1.6728557348251343,0.07744023948907852
1788679278406257000,13.9052568359375,9.662921905517578,1.6715964078903198,0.06396978348493576
1788679278422403800,13.92140380859375,9.662442207336426,1.6744176149368286,0.06264452636241913
1788679278438576000,13.937576171875,9.661250114440918,1.6811329126358032,0.06656031310558319
1788679278454730800,13.953730712890625,9.660688400268555,1.6842039823532104,0.07030483335256577
1788679278470869000,13.969868896484375,9.66214656829834,1.6756553649902344,0.07412388175725937
1788679278487084300,13.986084228515624,9.665755271911621,1.6544228792190552,0.08023586124181747
1788679278503235000,14.002235107421875,9.668906211853027,1.6358016729354858,0.08244337886571884
1788679278519409200,14.0184091796875,9.669301986694336,1.6335700750350952,0.0802609920501709
1788679278535568100,14.034568115234375,9.66684341430664,1.6483842134475708,0.07313881069421768
1788679278551705000,14.050705078125,9.663678169250488,1.6675690412521362,0.05413059890270233
1788679278567922700,14.066922607421875,9.6585111618042,1.6976351737976074,0.0397518016397953
1788679278584071400,14.083071533203125,9.64795970916748,1.7569135427474976,0.022532954812049866
1788679278600250600,14.099250732421876,9.644244194030762,1.7772785425186157,0.014715339057147503
1788679278616408800,14.115408935546874,9.636611938476562,1.8182599544525146,-0.004919921047985554
1788679278632550700,14.131550537109375,9.629542350769043,1.8550337553024292,-0.03404226154088974
1788679278648725500,14.1477255859375,9.625226020812988,1.8758825063705444,-0.08050759136676788
1788679278664877600,14.163877685546876,9.625396728515625,1.8727810382843018,-0.12174393236637115
1788679278681055000,14.180054931640624,9.63137435913086,1.8411606550216675,-0.13094225525856018
1788679278697210400,14.19621044921875,9.643655776977539,1.7782901525497437,-0.08931027352809906
1788679278713414100,14.2124140625,9.656682014465332,1.7082722187042236,-0.026217926293611526
1788679278729592800,14.2285927734375,9.664649963378906,1.662773609161377,0.011047756299376488
1788679278745742600,14.24474267578125,9.665216445922852,1.6594713926315308,-0.01121565978974104
1788679278761955000,14.260955078125,9.661613464355469,1.6788889169692993,-0.07031337916851044
1788679278778134000,14.277134033203126,9.658720970153809,1.6927374601364136,-0.11891783773899078
1788679278794312200,14.293312255859375,9.659055709838867,1.689094066619873,-0.1413796991109848
1788679278810499300,14.309499267578126,9.662288665771484,1.6706607341766357,-0.13946005702018738
1788679278826652200,14.325652099609375,9.667116165161133,1.6441256999969482,-0.11875724047422409
1788679278842810600,14.341810546875,9.67218017578125,1.6156548261642456,-0.09472199529409409
1788679278858968000,14.357968017578125,9.677358627319336,1.5849244594573975,-0.08448576927185059
1788679278875105500,14.37410546875,9.682609558105469,1.5519804954528809,-0.09387348592281342
1788679278891301000,14.390301025390626,9.686426162719727,1.5255463123321533,-0.12749379873275757
1788679278907446300,14.4064462890625,9.6880464553833,1.5109578371047974,-0.1707434505224228
1788679278923620600,14.42262060546875,9.688212394714355,1.5063061714172363,-0.19994214177131653
1788679278939775200,14.438775146484375,9.687583923339844,1.508193016052246,-0.21558059751987457
1788679278955923500,14.45492333984375,9.685776710510254,1.5188562870025635,-0.22179047763347626
1788679278972130300,14.47113037109375,9.68295669555664,1.5366896390914917,-0.22207346558570862
1788679278988282000,14.4872822265625,9.679317474365234,1.5590739250183105,-0.22467881441116333
1788679279004459800,14.503459716796876,9.676178932189941,1.5779085159301758,-0.22837147116661072
1788679279020615200,14.519615234375,9.673887252807617,1.5912679433822632,-0.23270532488822937
1788679279036759600,14.535759521484374,9.670565605163574,1.6102765798568726,-0.2399080991744995
1788679279052979700,14.551979736328125,9.667122840881348,1.626152753829956,-0.26972106099128723
1788679279069132000,14.568132080078126,9.672863960266113,1.6006609201431274,-0.2096845954656601
1788679279085343200,14.58434326171875,9.679481506347656,1.5663230419158936,-0.1570054292678833
1788679279101500400,14.60050048828125,9.678468704223633,1.573358178138733,-0.14894239604473114
1788679279117694000,14.61669384765625,9.670077323913574,1.6215163469314575,-0.1751202791929245
1788679279133869000,14.632869140625,9.66193675994873,1.6650480031967163,-0.21209830045700073
1788679279150017500,14.649017578125,9.665177345275879,1.6488616466522217,-0.18972894549369812
1788679279166188800,14.665188720703124,9.67883014678955,1.575087547302246,-0.09861548990011215
1788679279182345500,14.681345458984374,9.691512107849121,1.4983251094818115,0.00021400807600002736
1788679279198549000,14.697549072265625,9.695578575134277,1.4707682132720947,0.05461239069700241
1788679279214672600,14.713672607421875,9.691696166992188,1.4962866306304932,0.050461556762456894
1788679279230781700,14.72978173828125,9.68705940246582,1.5261927843093872,0.04479710012674332
1788679279246995000,14.745994873046875,9.688035011291504,1.5194287300109863,0.060864802449941635
1788679279263153400,14.7621533203125,9.695603370666504,1.4681143760681152,0.1015234887599945
1788679279279325700,14.77832568359375,9.7055025100708,1.398650050163269,0.13187961280345917
1788679279295519500,14.79451953125,9.71151065826416,1.3579121828079224,0.1141037866473198
1788679279311670000,14.810669921875,9.71103572845459,1.3649369478225708,0.055897828191518784
1788679279327882500,14.826882568359375,9.705777168273926,1.402952790260315,-0.0008502601413056254
1788679279344039200,14.8430390625,9.698838233947754,1.4497647285461426,-0.03324227035045624
1788679279360170500,14.85917041015625,9.693317413330078,1.4862704277038574,-0.03117021545767784
1788679279376379400,14.87537939453125,9.690167427062988,1.5069806575775146,-0.0072379885241389275
1788679279392530000,14.891530029296876,9.68870735168457,1.5162439346313477,0.018306640908122063
1788679279408704000,14.9077041015625,9.688065528869629,1.5201666355133057,0.029416795819997787
1788679279424857600,14.923857666015625,9.687607765197754,1.5231770277023315,0.023924553766846657
1788679279440994600,14.93999462890625,9.68679141998291,1.5285453796386719,0.0032363515347242355
1788679279457201200,14.956201171875,9.685311317443848,1.537732481956482,-0.022775238379836082
1788679279473347800,14.972347900390625,9.683320045471191,1.5496481657028198,-0.047835446894168854
1788679279489523500,14.9885234375,9.680915832519531,1.5637378692626953,-0.07063209265470505
1788679279505676300,15.00467626953125,9.678618431091309,1.5771307945251465,-0.08587576448917389
1788679279521813200,15.020813232421874,9.67697811126709,1.5867255926132202,-0.09371895343065262
1788679279538032400,15.037032470703124,9.676702499389648,1.5885999202728271,-0.09032858163118362
1788679279554181400,15.053181396484375,9.67769718170166,1.5833078622817993,-0.07548033446073532
1788679279570354200,15.069354248046874,9.678845405578613,1.5770974159240723,-0.05577230453491211
1788679279586510300,15.08551025390625,9.67838191986084,1.5803231000900269,-0.043546661734580994
1788679279602650600,15.101650634765624,9.676257133483887,1.5934451818466187,-0.037173107266426086
1788679279618834000,15.117833984375,9.67497444152832,1.6011258363723755,-0.040675196796655655
1788679279634984000,15.13398388671875,9.677111625671387,1.5875033140182495,-0.06107720360159874
1788679279651156700,15.15015673828125,9.680998802185059,1.5617928504943848,-0.09731968492269516
1788679279667310800,15.166310791015626,9.683000564575195,1.546958565711975,-0.12965090572834015
1788679279683451000,15.182450927734376,9.681306838989258,1.5562968254089355,-0.14366160333156586
1788679279699635500,15.198635498046874,9.678459167480469,1.574993371963501,-0.1311642974615097
1788679279715784200,15.2147841796875,9.675002098083496,1.5979207754135132,-0.10667356848716736
1788679279731962600,15.230962646484375,9.671606063842773,1.6187682151794434,-0.10010266304016113
1788679279748119000,15.247119140625,9.668511390686035,1.6350629329681396,-0.12976744771003723
1788679279764264700,15.2632646484375,9.66812801361084,1.634441614151001,-0.16211678087711334
1788679279780461600,15.279461669921876,9.671049118041992,1.6168571710586548,-0.16419564187526703
1788679279796612600,15.295612548828124,9.673980712890625,1.6020869016647339,-0.13343897461891174
1788679279812822000,15.311822021484375,9.672843933105469,1.6116554737091064,-0.09506569057703018
1788679279828977700,15.327977783203124,9.665521621704102,1.6556042432785034,-0.08398783206939697
1788679279845149200,15.344149169921875,9.654435157775879,1.7182387113571167,-0.09960852563381195
1788679279861356000,15.36035595703125,9.645432472229004,1.7663536071777344,-0.12654022872447968
1788679279877504000,15.37650390625,9.6430025100708,1.7779815196990967,-0.14724092185497284
1788679279893673000,15.3926728515625,9.64677619934082,1.7565358877182007,-0.1571003496646881
1788679279909827000,15.4088271484375,9.653437614440918,1.7195584774017334,-0.15699301660060883
1788679279925971700,15.4249716796875,9.661077499389648,1.6767098903656006,-0.15036322176456451
1788679279942179300,15.441179443359376,9.668448448181152,1.634276032447815,-0.1436413675546646
1788679279958326800,15.457326904296876,9.675333976745605,1.5933120250701904,-0.14017361402511597
1788679279974502700,15.473502685546874,9.68315601348877,1.5424890518188477,-0.16614165902137756
1788679279990663400,15.489663330078125,9.688337326049805,1.5047554969787598,-0.20546112954616547
1788679280006823000,15.505822998046876,9.690211296081543,1.486162543296814,-0.2480161488056183
1788679280023043300,15.522043212890624,9.688446044921875,1.4940237998962402,-0.26888349652290344
1788679280039192300,15.5381923828125,9.685184478759766,1.5133912563323975,-0.2779043912887573
1788679280055367400,15.554367431640625,9.680895805358887,1.5409228801727295,-0.2760578989982605
1788679280071522000,15.57052197265625,9.676482200622559,1.570521354675293,-0.26372188329696655
1788679280087687000,15.58668701171875,9.673187255859375,1.5943491458892822,-0.2405889928340912
1788679280103864000,15.602864013671875,9.671371459960938,1.609816312789917,-0.2084510326385498
1788679280120032800,15.61903271484375,9.670188903808594,1.6205865144729614,-0.17759667336940765
1788679280136210000,15.6352099609375,9.668658256530762,1.6313579082489014,-0.16153189539909363
1788679280152366300,15.651366455078126,9.666898727416992,1.6417291164398193,-0.1618036925792694
1788679280168535300,15.667535400390625,9.66590404510498,1.6466238498687744,-0.17122165858745575
1788679280184717300,15.68371728515625,9.665508270263672,1.6480884552001953,-0.17927959561347961
1788679280200868900,15.699868896484375,9.664443969726562,1.654065728187561,-0.18161314725875854
1788679280217045200,15.716045166015626,9.66186237335205,1.6692631244659424,-0.17988406121730804
1788679280233201700,15.73220166015625,9.65904712677002,1.6877433061599731,-0.15723499655723572
1788679280249344800,15.7483447265625,9.658244132995605,1.6962202787399292,-0.10744228214025497
1788679280265531400,15.764531494140625,9.659646034240723,1.6907193660736084,-0.055717721581459045
1788679280281675000,15.780675048828124,9.662715911865234,1.6739692687988281,-0.011028612963855267
1788679280297858000,15.796858154296874,9.665375709533691,1.6585652828216553,0.008027239702641964
1788679280313995800,15.812995849609376,9.666275978088379,1.653324007987976,-0.004040069412440062
1788679280330136300,15.82913623046875,9.667657852172852,1.6449315547943115,-0.03127959370613098
1788679280346339000,15.845339111328125,9.671517372131348,1.6217026710510254,-0.04701791703701019
1788679280362491400,15.861491455078125,9.678258895874023,1.581054925918579,-0.04421718046069145
1788679280378694400,15.8776943359375,9.683980941772461,1.5454095602035522,-0.05107128620147705
1788679280394851000,15.89385107421875,9.68463134765625,1.5390119552612305,-0.09871143102645874
1788679280410994400,15.909994384765625,9.680421829223633,1.559871792793274,-0.16312603652477264
1788679280427207700,15.926207763671876,9.673726081848145,1.5953679084777832,-0.21027882397174835
1788679280443357700,15.942357666015624,9.668191909790039,1.6259618997573853,-0.22955863177776337
1788679280459533000,15.958532958984375,9.666340827941895,1.6374297142028809,-0.2259977161884308
1788679280475692300,15.9746923828125,9.667747497558594,1.6312366724014282,-0.2100212723016739
1788679280491831000,15.9908310546875,9.670379638671875,1.6168243885040283,-0.2000773847103119
1788679280508056000,16.00705615234375,9.672430038452148,1.6034245491027832,-0.20858773589134216
1788679280524209000,16.023208984375,9.673053741455078,1.5964545011520386,-0.231849804520607
1788679280540367000,16.0393671875,9.67291259765625,1.5932886600494385,-0.2580499053001404
1788679280556478200,16.055478271484375,9.671917915344238,1.59644615650177,-0.2752372622489929
1788679280572607500,16.071607421875,9.670228958129883,1.6060227155685425,-0.27883434295654297
1788679280588773400,16.0877734375,9.667255401611328,1.6248894929885864,-0.2725844085216522
1788679280604924200,16.103924072265624,9.66254711151123,1.6540327072143555,-0.26408663392066956
1788679280621086500,16.12008642578125,9.657646179199219,1.6836638450622559,-0.255994588136673
1788679280637239800,16.13623974609375,9.65413761138916,1.703391194343567,-0.2578335702419281
1788679280653380000,16.152380126953126,9.652322769165039,1.7126520872116089,-0.2643398642539978
1788679280669569800,16.16856982421875,9.651131629943848,1.7184642553329468,-0.27005401253700256
1788679280685721300,16.184721435546876,9.6492280960083,1.7290065288543701,-0.2707819640636444
1788679280701901000,16.200901123046876,9.646255493164062,1.7459955215454102,-0.2676585018634796
1788679280718056200,16.21705615234375,9.642630577087402,1.7658517360687256,-0.26801052689552307
1788679280734193400,16.233193359375,9.638273239135742,1.7864713668823242,-0.28740519285202026
1788679280750390300,16.249390380859374,9.632628440856934,1.809391975402832,-0.33008718490600586
1788679280766538800,16.265538818359374,9.624479293823242,1.8413708209991455,-0.38619500398635864
1788679280782712800,16.281712890625,9.613359451293945,1.8868573904037476,-0.4398645758628845
1788679280798865400,16.297865478515625,9.602648735046387,1.9333680868148804,-0.4707566797733307
1788679280815016000,16.314015869140626,9.594743728637695,1.9715008735656738,-0.47378385066986084
1788679280831222000,16.330221923828127,9.58845043182373,2.0037665367126465,-0.4657513499259949
1788679280847372000,16.3463720703125,9.581258773803711,2.037662982940674,-0.4666951298713684
1788679280863550000,16.362550048828126,9.57201862335205,2.0721607208251953,-0.5029893517494202
1788679280879709200,16.378709228515625,9.565606117248535,2.086994171142578,-0.5603805780410767
1788679280895854300,16.394854248046876,9.565472602844238,2.071331739425659,-0.617824912071228
1788679280912073500,16.411073486328124,9.571203231811523,2.03074049949646,-0.6622189879417419
1788679280928221200,16.42722119140625,9.58137035369873,1.9788994789123535,-0.6720683574676514
1788679280944433200,16.44343310546875,9.59203052520752,1.9340561628341675,-0.6501984000205994
1788679280960589300,16.45958935546875,9.597091674804688,1.9169312715530396,-0.6257724761962891
1788679280976745500,16.475745361328126,9.59553050994873,1.9300599098205566,-0.6091347336769104
1788679280992918300,16.491918212890624,9.590904235839844,1.9552979469299316,-0.6014513373374939
1788679281009071400,16.5080712890625,9.587903022766113,1.9717596769332886,-0.5955356955528259
1788679281025243100,16.5242431640625,9.587998390197754,1.9725348949432373,-0.591417670249939
1788679281041399300,16.5403994140625,9.591911315917969,1.9525790214538574,-0.594201922416687
1788679281057556000,16.556555908203126,9.599331855773926,1.9161162376403809,-0.5930564403533936
1788679281073729800,16.572729736328125,9.605114936828613,1.8928865194320679,-0.5737066864967346
1788679281089879600,16.588879638671877,9.612222671508789,1.856974482536316,-0.5720274448394775
1788679281106056700,16.605056640625,9.616044044494629,1.831545114517212,-0.5895179510116577
1788679281122211800,16.6212119140625,9.615076065063477,1.825094223022461,-0.6242892742156982
1788679281138387000,16.637386962890623,9.610627174377441,1.8330456018447876,-0.6679642796516418
1788679281154575600,16.65357568359375,9.604787826538086,1.8489301204681396,-0.7070296406745911
1788679281170728000,16.66972802734375,9.599838256835938,1.867875337600708,-0.7242499589920044
1788679281186904600,16.685904541015624,9.596782684326172,1.8834644556045532,-0.7243762016296387
1788679281203060500,16.702060546875,9.59561538696289,1.8922579288482666,-0.7168806195259094
1788679281219201300,16.718201171875,9.59415340423584,1.9028245210647583,-0.7084305882453918
1788679281235395600,16.7343955078125,9.58909797668457,1.9253731966018677,-0.7159169912338257
1788679281251544000,16.7505439453125,9.582902908325195,1.9535059928894043,-0.7226060032844543
1788679281267718700,16.76671875,9.57742691040039,1.9773081541061401,-0.7304354906082153
1788679281283873500,16.78287353515625,9.585506439208984,1.9619534015655518,-0.6627131700515747
1788679281300045000,16.799045166015624,9.596959114074707,1.9247105121612549,-0.6035360097885132
1788679281316254200,16.815254150390626,9.600769996643066,1.9065710306167603,-0.6004899144172668
1788679281332402200,16.831402099609374,9.593437194824219,1.9312909841537476,-0.6375396251678467
1788679281348568800,16.84756884765625,9.582361221313477,1.969811201095581,-0.684529721736908
1788679281364721000,16.863720947265627,9.578818321228027,1.9814234972000122,-0.7004190683364868
1788679281380859000,16.87985888671875,9.589447975158691,1.9509673118591309,-0.6376475095748901
1788679281397070600,16.896070556640623,9.607842445373535,1.8898552656173706,-0.5368480682373047
1788679281413222100,16.91222216796875,9.624396324157715,1.8268239498138428,-0.4517759382724762
1788679281429431300,16.928431396484374,9.630380630493164,1.8042259216308594,-0.4134308695793152
1788679281445584400,16.94458447265625,9.62728214263916,1.8231059312820435,-0.4026128351688385
1788679281461757400,16.96075732421875,9.62524700164795,1.8389217853546143,-0.37865182757377625
1788679281477958100,16.976958251953125,9.631440162658691,1.8148540258407593,-0.3347369134426117
1788679281494108200,16.993108154296873,9.643847465515137,1.7564347982406616,-0.28553178906440735
1788679281510318600,17.009318603515624,9.656731605529785,1.689056634902954,-0.25497421622276306
1788679281526471200,17.02547119140625,9.664913177490234,1.6384128332138062,-0.2746633291244507
1788679281542607600,17.041607666015626,9.666454315185547,1.6174696683883667,-0.3373948931694031
1788679281558782200,17.0577822265625,9.663673400878906,1.6188846826553345,-0.4037316143512726
1788679281574932200,17.07393212890625,9.659714698791504,1.6326014995574951,-0.4414821267127991
1788679281591100200,17.09010009765625,9.656607627868652,1.6494252681732178,-0.4468953311443329
1788679281607254800,17.1062548828125,9.65594482421875,1.6585668325424194,-0.42693033814430237
1788679281623389400,17.122389404296875,9.657621383666992,1.6552687883377075,-0.4010205864906311
1788679281639574300,17.13857421875,9.660186767578125,1.6426125764846802,-0.39115065336227417
1788679281655723000,17.154722900390624,9.661864280700684,1.6302248239517212,-0.40140530467033386
1788679281671899000,17.17089892578125,9.662627220153809,1.6223751306533813,-0.4146468937397003
1788679281688055300,17.18705517578125,9.662033081054688,1.6239327192306519,-0.4223165214061737
1788679281704234200,17.203234130859375,9.66020679473877,1.63417387008667,-0.42457786202430725
1788679281720435700,17.219435791015623,9.658452033996582,1.6478958129882812,-0.41124972701072693
1788679281736585000,17.2355849609375,9.65695858001709,1.660414695739746,-0.39567434787750244
1788679281752798200,17.251798095703126,9.656170845031738,1.6664619445800781,-0.3894274830818176
1788679281768927200,17.26792724609375,9.656872749328613,1.6626689434051514,-0.38823550939559937
1788679281785076500,17.284076416015626,9.659570693969727,1.6487815380096436,-0.38026875257492065
1788679281801282600,17.300282470703124,9.664247512817383,1.6255921125411987,-0.36078715324401855
1788679281817432600,17.3164326171875,9.670350074768066,1.5943727493286133,-0.335698664188385
1788679281833610200,17.3326103515625,9.676419258117676,1.5615180730819702,-0.31456446647644043
1788679281849767400,17.348767333984377,9.679195404052734,1.5479793548583984,-0.295512855052948
1788679281865917700,17.364917724609374,9.678228378295898,1.55483078956604,-0.29118141531944275
1788679281882137900,17.381137939453126,9.676965713500977,1.558569312095642,-0.31238874793052673
1788679281898283500,17.397283447265625,9.677282333374023,1.5467387437820435,-0.35802215337753296
1788679281914455600,17.41345556640625,9.677660942077637,1.5315794944763184,-0.40930184721946716
1788679281930606000,17.429606201171875,9.678447723388672,1.5155274868011475,-0.44855400919914246
1788679281946756400,17.44575634765625,9.67906379699707,1.5059576034545898,-0.46712568402290344
1788679281962927900,17.461927978515625,9.679191589355469,1.5052764415740967,-0.4666731059551239
1788679281979074300,17.47807421875,9.678653717041016,1.5100005865097046,-0.46255794167518616
1788679281995249200,17.494249267578127,9.676379203796387,1.5162101984024048,-0.4890703558921814
1788679282011399700,17.510399658203124,9.675326347351074,1.5090943574905396,-0.530170738697052
1788679282027562000,17.52656201171875,9.679426193237305,1.4722864627838135,-0.5580950975418091
1788679282043740700,17.54274072265625,9.687909126281738,1.4122681617736816,-0.5659509897232056
1788679282059887900,17.558887939453125,9.69727897644043,1.3497333526611328,-0.5580182671546936
1788679282076097000,17.575096923828124,9.702740669250488,1.3132774829864502,-0.5500119924545288
1788679282092248800,17.591248779296876,9.701255798339844,1.3204342126846313,-0.558992862701416
1788679282108450600,17.607450439453125,9.696258544921875,1.3517415523529053,-0.570753812789917
1788679282124640500,17.623640625,9.69309139251709,1.375725507736206,-0.5672394633293152
1788679282140787200,17.639787109375,9.693419456481934,1.3810096979141235,-0.5484690070152283
1788679282156953600,17.65595361328125,9.69548225402832,1.3753989934921265,-0.5256390571594238
1788679282173107000,17.67210693359375,9.697760581970215,1.3677263259887695,-0.503132164478302
1788679282189243600,17.68824365234375,9.699756622314453,1.3598694801330566,-0.48564964532852173
1788679282205438200,17.704438232421875,9.702016830444336,1.3484892845153809,-0.47203975915908813
1788679282221585700,17.720585693359375,9.704472541809082,1.3342528343200684,-0.46191951632499695
1788679282237759000,17.736759033203125,9.707140922546387,1.318622350692749,-0.45060840249061584
1788679282253912000,17.752912109375,9.709346771240234,1.306475281715393,-0.43829354643821716
1788679282270046700,17.769046630859375,9.709781646728516,1.3079191446304321,-0.42413249611854553
1788679282286254300,17.78525439453125,9.707627296447754,1.3265825510025024,-0.4153826832771301
1788679282302400500,17.801400390625,9.704496383666992,1.3486733436584473,-0.4174008071422577
1788679282318578000,17.817577880859375,9.701889991760254,1.3720301389694214,-0.4015500247478485
1788679282334736600,17.833736572265625,9.699291229248047,1.3945192098617554,-0.3865969479084015
1788679282350875100,17.849875244140627,9.697161674499512,1.413042664527893,-0.37250152230262756
1788679282367093000,17.866093017578127,9.694762229919434,1.4345333576202393,-0.3522571921348572
1788679282383243300,17.8822431640625,9.69311237335205,1.4527173042297363,-0.3218199908733368
1788679282399421400,17.89842138671875,9.691852569580078,1.469951868057251,-0.278617799282074
1788679282415573800,17.91457373046875,9.690774917602539,1.4837720394134521,-0.24020007252693176
1788679282431716900,17.930716796875,9.690094947814941,1.490666151046753,-0.22440628707408905
1788679282447893500,17.9468935546875,9.689191818237305,1.495176076889038,-0.23323461413383484
1788679282464043300,17.963043212890625,9.687322616577148,1.5036975145339966,-0.25505468249320984
1788679282480218000,17.979218017578123,9.685744285583496,1.5131628513336182,-0.2590118944644928
1788679282496371700,17.995371826171876,9.686309814453125,1.5141161680221558,-0.230741485953331
1788679282512509000,18.011509033203126,9.68924617767334,1.5029244422912598,-0.17352351546287537
1788679282528697300,18.027697265625,9.693071365356445,1.484473466873169,-0.1052730530500412
1788679282544847400,18.043847412109375,9.696264266967773,1.4666426181793213,-0.04240268096327782
1788679282561020400,18.0600205078125,9.699014663696289,1.4489657878875732,-0.0021606851369142532
1788679282577173800,18.076173828125,9.70336627960205,1.4193968772888184,0.01958148367702961
1788679282593314800,18.092314697265625,9.711030960083008,1.3653841018676758,0.04473850131034851
1788679282609501700,18.108501708984374,9.721421241760254,1.287658929824829,0.07929017394781113
1788679282625644800,18.124644775390625,9.731484413146973,1.2084940671920776,0.0901791974902153
1788679282641855500,18.14085546875,9.73721694946289,1.163742184638977,0.0519566535949707
1788679282658008300,18.15700830078125,9.737587928771973,1.161688208580017,-0.01544770784676075
1788679282674181400,18.173181396484374,9.73376178741455,1.190736174583435,-0.08011621236801147
1788679282690376700,18.189376708984376,9.728728294372559,1.227739691734314,-0.12205266952514648
1788679282706518300,18.205518310546875,9.7249174118042,1.2553863525390625,-0.14274905622005463
1788679282722680600,18.2216806640625,9.723821640014648,1.2629191875457764,-0.15074630081653595
1788679282738831600,18.23783154296875,9.724601745605469,1.256484866142273,-0.1541237086057663
1788679282754971400,18.253971435546877,9.725723266601562,1.2464443445205688,-0.16454821825027466
1788679282771168300,18.270168212890624,9.726799011230469,1.233656883239746,-0.1945912092924118
1788679282787308300,18.286308349609374,9.72641372680664,1.2293120622634888,-0.2367454320192337
1788679282803483400,18.3024833984375,9.723862648010254,1.2421622276306152,-0.2718814015388489
1788679282819656700,18.31865673828125,9.720876693725586,1.2606772184371948,-0.2926640510559082
1788679282835804200,18.33480419921875,9.71803092956543,1.2806693315505981,-0.3002282381057739
1788679282852021200,18.351021240234374,9.715920448303223,1.2978723049163818,-0.29464951157569885
1788679282868168700,18.367168701171874,9.714672088623047,1.3098453283309937,-0.2825756072998047
1788679282884342000,18.383342041015624,9.713578224182129,1.3195359706878662,-0.2749759554862976
1788679282900493800,18.399493896484376,9.712409019470215,1.328186273574829,-0.274629682302475
1788679282916649000,18.41564892578125,9.711668968200684,1.3330183029174805,-0.27738747000694275
1788679282932819200,18.431819091796875,9.71242904663086,1.327758550643921,-0.2759927213191986
1788679282948965400,18.44796533203125,9.71484661102295,1.3118406534194946,-0.2668803632259369
1788679282965137700,18.4641376953125,9.716197967529297,1.3042752742767334,-0.2544719874858856
1788679282981287700,18.48028759765625,9.714259147644043,1.319705605506897,-0.24884916841983795
1788679282997453300,18.496453369140625,9.707962036132812,1.3624392747879028,-0.26385655999183655
1788679283013657900,18.512657958984374,9.701684951782227,1.40009343624115,-0.29567641019821167
1788679283029802500,18.528802490234376,9.694856643676758,1.4392893314361572,-0.3295533359050751
1788679283045885400,18.544885498046874,9.689011573791504,1.4738349914550781,-0.3482276201248169
1788679283062038000,18.5610380859375,9.68196964263916,1.521079421043396,-0.3408319354057312
1788679283078206200,18.577206298828123,9.670610427856445,1.5971511602401733,-0.3142961859703064
1788679283094397400,18.5933974609375,9.656220436096191,1.682711124420166,-0.3102853298187256
1788679283110544000,18.6095439453125,9.64249324798584,1.750511884689331,-0.358365923166275
1788679283126751000,18.6257509765625,9.635680198669434,1.774300456047058,-0.4194299578666687
1788679283142904000,18.641904052734375,9.63865852355957,1.7515426874160767,-0.4458073377609253
1788679283159037700,18.65803759765625,9.648719787597656,1.6996643543243408,-0.42863452434539795
1788679283175237600,18.674237548828124,9.659740447998047,1.6475962400436401,-0.3810954988002777
1788679283191384600,18.690384521484376,9.665945053100586,1.6200764179229736,-0.3394662141799927
1788679283207559400,18.706559326171874,9.666181564331055,1.6196928024291992,-0.3345120847225189
1788679283223714300,18.72271435546875,9.664308547973633,1.6269246339797974,-0.3530629277229309
1788679283239844900,18.738844970703123,9.665493965148926,1.616504430770874,-0.36814138293266296
1788679283256058400,18.755058349609374,9.671601295471191,1.5796462297439575,-0.36773544549942017
1788679283272207000,18.77120703125,9.68051815032959,1.526207447052002,-0.35867205262184143
1788679283288380700,18.787380615234376,9.68932056427002,1.4708787202835083,-0.35207420587539673
1788679283304539400,18.803539306640626,9.696799278259277,1.421958565711975,-0.34713369607925415
1788679283320675300,18.81967529296875,9.703540802001953,1.374817132949829,-0.3486570417881012
1788679283336891600,18.8358916015625,9.70899772644043,1.331709384918213,-0.3637251555919647
1788679283353038800,18.852038818359375,9.712625503540039,1.2987627983093262,-0.3853525221347809
1788679283369213000,18.868212890625,9.714378356933594,1.2795614004135132,-0.40492478013038635
1788679283385366300,18.8843662109375,9.714005470275879,1.2795964479446411,-0.41364917159080505
1788679283401501000,18.9005009765625,9.712113380432129,1.2926125526428223,-0.4176090657711029
1788679283417673000,18.9166728515625,9.710012435913086,1.3115935325622559,-0.4071609675884247
1788679283433823200,18.9328232421875,9.7085599899292,1.3301362991333008,-0.3807695508003235
1788679283449997000,18.9489970703125,9.707083702087402,1.3491332530975342,-0.3503616154193878
1788679283466147300,18.965147216796876,9.705093383789062,1.3715455532073975,-0.3168947398662567
1788679283482278000,18.98127783203125,9.70291519165039,1.3933261632919312,-0.2871444523334503
1788679283498452500,18.997452392578126,9.701043128967285,1.4101454019546509,-0.2676539421081543
1788679283514597600,19.01359765625,9.699542045593262,1.4228943586349487,-0.2542721629142761
1788679283530770700,19.029770751953127,9.69772720336914,1.4357167482376099,-0.2514045536518097
1788679283546919400,19.04591943359375,9.69459342956543,1.4559730291366577,-0.2557086646556854
1788679283563053800,19.0620537109375,9.689970970153809,1.4862191677093506,-0.25688591599464417
1788679283579246600,19.07824658203125,9.686118125915527,1.5149123668670654,-0.2335430234670639
1788679283595391500,19.0943916015625,9.684203147888184,1.5345677137374878,-0.17802958190441132
1788679283611563300,19.110563232421875,9.683239936828613,1.547096610069275,-0.10838234424591064
1788679283627715600,19.126715576171875,9.682621955871582,1.554409384727478,-0.03202303126454353
1788679283643856000,19.14285595703125,9.683260917663574,1.5502392053604126,0.04014723002910614
1788679283660055800,19.159055908203126,9.685178756713867,1.5361583232879639,0.08900054544210434
1788679283676205000,19.175205078125,9.686524391174316,1.5270830392837524,0.0982065498828888
1788679283692379000,19.19137890625,9.686894416809082,1.5251258611679077,0.09194054454565048
1788679283708533000,19.207532958984373,9.68927001953125,1.5102791786193848,0.08653291314840317
1788679283724683500,19.22368359375,9.696435928344727,1.4630779027938843,0.09447532147169113
1788679283740887800,19.2398876953125,9.706846237182617,1.3908356428146362,0.11447342485189438
1788679283757031200,19.25603125,9.715723991394043,1.3275748491287231,0.11244608461856842
1788679283773235700,19.272235595703126,9.718839645385742,1.307186245918274,0.07620083540678024
1788679283789387800,19.2883876953125,9.716438293457031,1.3269981145858765,0.017408888787031174
1788679283805570600,19.304570556640623,9.711928367614746,1.3589987754821777,-0.044245313853025436
1788679283821784600,19.32078466796875,9.708477020263672,1.3811326026916504,-0.09130970388650894
1788679283837932500,19.3369326171875,9.707707405090332,1.3839151859283447,-0.12487075477838516
1788679283854100000,19.353099853515626,9.709192276000977,1.3714640140533447,-0.1451069712638855
1788679283870254000,19.369254150390624,9.711761474609375,1.3523235321044922,-0.1526545137166977
1788679283886411000,19.385410888671874,9.714509963989258,1.3323602676391602,-0.1532876193523407
1788679283902580700,19.401580810546875,9.716559410095215,1.3172694444656372,-0.15383626520633698
1788679283918724000,19.41772412109375,9.71811294555664,1.3052116632461548,-0.15841583907604218
1788679283934896600,19.433896728515624,9.717659950256348,1.306532382965088,-0.1744922399520874
1788679283951049500,19.450049560546876,9.715229034423828,1.3213729858398438,-0.19667445123195648
1788679283967218000,19.466218017578125,9.711864471435547,1.3424413204193115,-0.21890732645988464
1788679283983400700,19.482400634765625,9.709552764892578,1.356634259223938,-0.23349370062351227
1788679283999545900,19.4985458984375,9.709211349487305,1.3591119050979614,-0.23327341675758362
1788679284015722800,19.51472265625,9.71087646484375,1.3508622646331787,-0.21079759299755096
1788679284031878100,19.530878173828125,9.713536262512207,1.3379011154174805,-0.1661970317363739
1788679284048014800,19.547014892578126,9.715935707092285,1.3261624574661255,-0.11083923280239105
1788679284064210000,19.5632099609375,9.716875076293945,1.3222689628601074,-0.06573577225208282
1788679284080355800,19.57935595703125,9.716458320617676,1.3261232376098633,-0.047191374003887177
1788679284096532500,19.595532470703127,9.715397834777832,1.3333592414855957,-0.05997253209352493
1788679284112684300,19.611684326171876,9.71369457244873,1.3441016674041748,-0.08901384472846985
1788679284128821200,19.6278212890625,9.710792541503906,1.3624179363250732,-0.12134221941232681
1788679284145007900,19.6440078125,9.706337928771973,1.3913840055465698,-0.14644458889961243
1788679284161176000,19.660176025390626,9.701330184936523,1.4250450134277344,-0.15434323251247406
1788679284177351200,19.67635107421875,9.694581031799316,1.4717485904693604,-0.13943418860435486
1788679284193502000,19.692501953125,9.691071510314941,1.4959665536880493,-0.12490319460630417
1788679284209634000,19.708634033203126,9.687606811523438,1.5188442468643188,-0.1173899695277214
1788679284225838000,19.724838134765626,9.683639526367188,1.5432453155517578,-0.12611044943332672
1788679284241980700,19.740980712890625,9.678592681884766,1.5706956386566162,-0.1677737832069397
1788679284258150700,19.757150634765626,9.67477035522461,1.5862705707550049,-0.23011107742786407
1788679284274300700,19.77330078125,9.67628288269043,1.5702275037765503,-0.2726316750049591
1788679284290433500,19.78943359375,9.681966781616211,1.5316554307937622,-0.2897164523601532
1788679284306652000,19.80565185546875,9.688719749450684,1.4904426336288452,-0.2786966860294342
1788679284322798000,19.821798095703127,9.693984031677246,1.459052324295044,-0.26123055815696716
1788679284339004400,19.83800439453125,9.696524620056152,1.4425585269927979,-0.25848641991615295
1788679284355157000,19.854156982421873,9.697126388549805,1.436366081237793,-0.2701569199562073
1788679284371292200,19.870292236328126,9.697909355163574,1.4288859367370605,-0.28144243359565735
1788679284387467500,19.886467529296876,9.700031280517578,1.413177251815796,-0.28760960698127747
1788679284403615000,19.902614990234376,9.703121185302734,1.3909884691238403,-0.2915010452270508
1788679284419792000,19.9187919921875,9.706040382385254,1.3686600923538208,-0.2999154329299927
1788679284435945500,19.934945556640624,9.709050178527832,1.344566822052002,-0.31125959753990173
1788679284452088000,19.951088134765627,9.712459564208984,1.3178738355636597,-0.3189680576324463
1788679284468276200,19.967276123046876,9.716506004333496,1.2851439714431763,-0.329098641872406
1788679284484425500,19.983425537109376,9.720063209533691,1.2547619342803955,-0.34106311202049255
1788679284500598500,19.9995986328125,9.721477508544922,1.2404444217681885,-0.3529166281223297
1788679284516753000,20.0157529296875,9.719559669494629,1.2531993389129639,-0.36061400175094604
1788679284532890400,20.031890380859377,9.713562965393066,1.2957109212875366,-0.37176820635795593
1788679284549081300,20.048081298828127,9.705927848815918,1.3487215042114258,-0.3824940025806427
1788679284565231600,20.064231689453123,9.698866844177246,1.3986562490463257,-0.38225528597831726
1788679284581398300,20.080398193359375,9.693624496459961,1.4380831718444824,-0.36870336532592773
1788679284597553000,20.096552978515625,9.689473152160645,1.469264030456543,-0.35463908314704895
1788679284613698300,20.1126982421875,9.685879707336426,1.4955743551254272,-0.3425964415073395
1788679284629899000,20.12889892578125,9.682781219482422,1.518264651298523,-0.3301672041416168
1788679284646044000,20.1450439453125,9.680804252624512,1.533637285232544,-0.31681621074676514
1788679284662217200,20.16121728515625,9.67959213256836,1.543262004852295,-0.30695751309394836
1788679284678370300,20.177370361328126,9.677533149719238,1.5559109449386597,-0.30802449584007263
1788679284694513700,20.193513671875,9.673757553100586,1.5778167247772217,-0.31512531638145447
1788679284710723000,20.20972314453125,9.667048454284668,1.610365867614746,-0.3539477288722992
1788679284726870000,20.2258701171875,9.656594276428223,1.6582999229431152,-0.41305291652679443
1788679284743079200,20.2420791015625,9.656852722167969,1.6629741191864014,-0.38744163513183594
1788679284759231500,20.2582314453125,9.664529800415039,1.6404194831848145,-0.2761646807193756
1788679284775413500,20.27441357421875,9.663143157958984,1.6585743427276611,-0.20778094232082367
1788679284791607000,20.29060693359375,9.648468017578125,1.7428721189498901,-0.19962051510810852
1788679284807754200,20.306754150390624,9.634779930114746,1.8154120445251465,-0.21373862028121948
1788679284823962000,20.322962158203126,9.637288093566895,1.8026869297027588,-0.20826968550682068
1788679284840115200,20.339115234375,9.65658950805664,1.7017902135849,-0.15678031742572784
1788679284856303900,20.355303955078124,9.680686950683594,1.5654191970825195,-0.06441175937652588
1788679284872473000,20.37147314453125,9.698677062988281,1.4508280754089355,0.0339190736413002
1788679284888620300,20.387620361328125,9.707862854003906,1.3855172395706177,0.09019055962562561
1788679284904827600,20.40382763671875,9.710112571716309,1.3706201314926147,0.07424706965684891
1788679284920984000,20.419984130859376,9.709465026855469,1.3771049976348877,0.01641271822154522
1788679284937145900,20.436145751953124,9.709391593933105,1.3772975206375122,-0.03395801782608032
1788679284953328000,20.452328125,9.709712028503418,1.3742396831512451,-0.057814549654722214
1788679284969475000,20.46847509765625,9.708593368530273,1.3824721574783325,-0.04861132428050041
1788679284985642500,20.484642578125,9.706188201904297,1.4000355005264282,-0.014168226160109043
1788679285001791700,20.500791748046876,9.703770637512207,1.4165557622909546,0.024437619373202324
1788679285017924400,20.51692431640625,9.702680587768555,1.4234856367111206,0.045441024005413055
1788679285034112500,20.533112548828125,9.702975273132324,1.4217064380645752,0.037484366446733475
1788679285050255000,20.549255126953124,9.70368766784668,1.417330026626587,0.0008529635961167514
1788679285066425900,20.56542578125,9.704248428344727,1.4127676486968994,-0.04514642432332039
1788679285082575600,20.58157568359375,9.704507827758789,1.4094210863113403,-0.0802457258105278
1788679285098710500,20.59771044921875,9.704498291015625,1.4084434509277344,-0.09690847247838974
1788679285114908200,20.613908203125,9.70440673828125,1.4089739322662354,-0.09832615405321121
1788679285131053800,20.6300537109375,9.704139709472656,1.4110302925109863,-0.09518230706453323
1788679285147227600,20.6462275390625,9.703700065612793,1.4139622449874878,-0.09647022187709808
1788679285163380700,20.662380615234376,9.703506469726562,1.4149664640426636,-0.1011318564414978
1788679285179516000,20.678515869140625,9.704334259033203,1.4089349508285522,-0.10577069967985153
