time,seconds_elapsed,z,y,x
1788679264659819300,0.1588193359375,0.09224065393209457,-0.05742133408784866,0.006719517521560192
1788679264675986400,0.174986328125,0.09224065393209457,-0.05742133408784866,0.006719517521560192
1788679264692119000,0.191119140625,0.09224065393209457,-0.05742133408784866,0.006719517521560192
1788679264708306000,0.207305908203125,0.09224065393209457,-0.05742133408784866,0.006719517521560192
1788679264724527400,0.22352734375,0.09224065393209457,-0.05742133408784866,0.006719517521560192
1788679264740638700,0.239638671875,0.09224065393209457,-0.05742133408784866,0.006719517521560192
1788679264756806000,0.255805908203125,0.09224065393209457,-0.05742133408784866,0.006719517521560192
1788679264772940000,0.27193994140625,0.09224065393209457,-0.05742133408784866,0.006719517521560192
1788679264789124900,0.288124755859375,0.11301007121801376,0.09773843735456467,-0.3488040566444397
1788679264805358300,0.3043583984375,0.10812314599752426,0.09407325088977814,-0.3274237811565399
1788679264821474300,0.320474365234375,0.10751228034496307,0.033597588539123535,-0.19486601650714874
1788679264837644800,0.336644775390625,0.10018189996480942,-0.021991148591041565,-0.04886921867728233
1788679264853781000,0.352781005859375,0.08674286305904388,-0.05192354694008827,0.06536258012056351
1788679264869965600,0.368965576171875,0.07635815441608429,-0.09834930300712585,0.09285151958465576
1788679264886207500,0.38520751953125,0.06536258012056351,-0.17898350954055786,0.04214970022439957
1788679264902280400,0.401280517578125,0.054367005825042725,-0.2021963894367218,0.01160643994808197
1788679264918450400,0.417450439453125,0.07452555745840073,-0.2736676335334778,0.05253441259264946
1788679264934582800,0.433582763671875,0.09407325088977814,-0.24556782841682434,0.17409659922122955
1788679264950766300,0.449766357421875,0.09285151958465576,-0.11239920556545258,0.2730567753314972
1788679264966979000,0.46597900390625,0.0959058403968811,-0.006719517521560192,0.22357667982578278
1788679264983060000,0.48206005859375,0.11484266817569733,0.018325956538319588,0.09468411654233932
1788679264999227000,0.498226806640625,0.1215621829032898,0.02076941914856434,-0.01038470957428217
1788679265015360300,0.5143603515625,0.12034045159816742,0.051312681287527084,-0.05925392732024193
1788679265031543800,0.530543701171875,0.11545353382825851,0.09712757170200348,-0.02626720629632473
1788679265047762200,0.54676220703125,0.11972958594560623,0.14538592100143433,0.05925392732024193
1788679265063865600,0.562865478515625,0.13377949595451355,0.19914206862449646,0.16982053220272064
1788679265080035800,0.579035888671875,0.13744467496871948,0.1472185254096985,0.22846360504627228
1788679265096171500,0.595171630859375,0.12522737681865692,-0.05864306539297104,0.26022860407829285
1788679265112356000,0.611356201171875,0.11423180252313614,-0.2791654169559479,0.32131510972976685
1788679265128570600,0.627570556640625,0.12217304855585098,-0.3677408695220947,0.40256020426750183
1788679265144671500,0.64367138671875,0.17776179313659668,-0.31154128909111023,0.47769662737846375
1788679265160839000,0.6598388671875,0.17898350954055786,-0.2889392673969269,0.4434881806373596
1788679265176971300,0.67597119140625,0.14049901068210602,-0.18875735998153687,0.29626965522766113
1788679265193153800,0.69215380859375,0.11545353382825851,-0.0806342139840126,0.13988813757896423
1788679265209370000,0.7083701171875,0.11423180252313614,0.02382374368607998,0.05864306539297104
1788679265225438200,0.724438232421875,0.09040805697441101,0.05803219974040985,0.04153883829712868
1788679265241603300,0.740603271484375,0.04948008432984352,0.024434609338641167,0.09224065393209457
1788679265257737200,0.7567373046875,0.02382374368607998,0.021380282938480377,0.18081611394882202
1788679265273920000,0.772919921875,0.02687807008624077,0.03176499158143997,0.18814650177955627
1788679265290136000,0.789135986328125,0.01466076634824276,0.10934487730264664,0.1875356286764145
1788679265306230000,0.80522998046875,-0.07269296050071716,0.22968533635139465,0.19914206862449646
1788679265322396700,0.821396728515625,-0.04764748737215996,0.2724458873271942,0.19914206862449646
1788679265338527000,0.83752685546875,-0.01160643994808197,0.28649580478668213,0.13255776464939117
1788679265354705700,0.85370556640625,-0.0012217304902151227,0.3090978264808655,0.10323622822761536
1788679265370919400,0.86991943359375,-0.015271631069481373,0.2064724564552307,0.06658431142568588
1788679265386996000,0.885995849609375,-0.02321287989616394,0.06963863968849182,0.13561208546161652
1788679265403160800,0.902160888671875,0.036041051149368286,0.029932396486401558,0.25473082065582275
1788679265419294000,0.9182939453125,0.08735372871160507,0.015882495790719986,0.2889392673969269
1788679265435473200,0.93447314453125,0.09957103431224823,-0.010995574295520782,0.21135938167572021
1788679265451688400,0.9506884765625,0.11362093687057495,0.07452555745840073,0.08735372871160507
1788679265467778300,0.9667783203125,0.10812314599752426,0.2119702398777008,-0.02321287989616394
1788679265483945000,0.982945068359375,0.08491026610136032,0.31459560990333557,-0.2376265823841095
1788679265500079600,0.99907958984375,0.03726277872920036,-0.13744467496871948,-0.4392121136188507
1788679265516262700,1.0152626953125,-0.006108652334660292,-0.14844025671482086,-0.375071257352829
1788679265532485400,1.0314853515625,0.009773843921720982,-0.1508837193250656,-0.1319468915462494
1788679265548575700,1.04757568359375,0.019547687843441963,-0.2021963894367218,0.08429940044879913
1788679265564739000,1.063739013671875,0.015271631069481373,-0.22907446324825287,0.1417207419872284
1788679265580870000,1.079869873046875,0.04398229718208313,-0.2217440903186798,0.07880161702632904
1788679265597047800,1.0960478515625,0.06902777403593063,-0.19975294172763824,0.009773843921720982
1788679265613261600,1.112261474609375,0.06291911751031876,-0.19058994948863983,-0.03481931984424591
1788679265629368600,1.12836865234375,0.06658431142568588,-0.18631389737129211,-0.059864792972803116
1788679265645531600,1.14453173828125,0.07391469180583954,-0.1667662113904953,-0.06352998316287994
1788679265661662000,1.160661865234375,0.0861319974064827,-0.1459967941045761,-0.05497787147760391
1788679265677842200,1.17684228515625,0.09224065393209457,-0.1411098688840866,-0.01771509274840355
1788679265694078000,1.193077880859375,0.07757988572120667,-0.1508837193250656,0.05497787147760391
1788679265710146600,1.209146484375,0.06169738993048668,-0.15882496535778046,0.09651670604944229
1788679265726313500,1.2253134765625,0.05009094998240471,-0.1618792861700058,0.09712757170200348
1788679265742447000,1.241447021484375,0.03420845419168472,-0.16310101747512817,0.09162978827953339
1788679265758629400,1.25762939453125,0.02871066704392433,-0.14538592100143433,0.07757988572120667
1788679265774874600,1.27387451171875,0.02871066704392433,-0.11850785464048386,0.04948008432984352
1788679265790948600,1.289948486328125,0.01466076634824276,-0.1160643994808197,0.036651913076639175
1788679265807112000,1.30611181640625,-0.001832595793530345,-0.13072516024112701,0.042760565876960754
1788679265823244800,1.322244873046875,-0.003054326167330146,-0.1215621829032898,0.054367005825042725
1788679265839428400,1.338428466796875,0.0012217304902151227,-0.1062905490398407,0.056810468435287476
1788679265855678000,1.354677978515625,0.006108652334660292,-0.12522737681865692,0.05742133408784866
1788679265871760600,1.3707607421875,0.01160643994808197,-0.13439035415649414,0.05925392732024193
1788679265887933400,1.386933349609375,0.024434609338641167,-0.14844025671482086,0.04153883829712868
1788679265904066800,1.40306689453125,0.03298672288656235,-0.16737708449363708,0.03420845419168472
1788679265920252000,1.419251953125,0.02382374368607998,-0.182648703455925,0.03420845419168472
1788679265936466700,1.435466796875,0.04337143152952194,-0.15515977144241333,0.022602014243602753
1788679265952561000,1.451560791015625,0.05497787147760391,-0.15515977144241333,0.01038470957428217
1788679265968725200,1.467725341796875,0.04092797264456749,-0.17104226350784302,0.00733038317412138
1788679265984855300,1.483855224609375,0.01771509274840355,-0.16432274878025055,-0.00733038317412138
1788679266001033700,1.50003369140625,0.01038470957428217,-0.17043140530586243,-0.03848451003432274
1788679266017245400,1.516245361328125,0.006108652334660292,-0.16310101747512817,-0.06475171446800232
1788679266033346600,1.5323466796875,0.001832595793530345,-0.1618792861700058,-0.08918632566928864
1788679266049512000,1.548511962890625,-0.0024434609804302454,-0.16859880089759827,-0.10812314599752426
1788679266065646300,1.564646240234375,-0.0012217304902151227,-0.15943582355976105,-0.10934487730264664
1788679266081830000,1.580829833984375,-0.00366519158706069,-0.14416420459747314,-0.07757988572120667
1788679266098045400,1.59704541015625,-0.00733038317412138,-0.1466076523065567,-0.027488935738801956
1788679266114154000,1.613154052734375,-0.012828170321881771,-0.15577064454555511,0.01160643994808197
1788679266130321000,1.62932080078125,-0.01771509274840355,-0.1716531366109848,0.02626720629632473
1788679266146450400,1.645450439453125,-0.019547687843441963,-0.17409659922122955,0.018936822190880775
1788679266162631000,1.661630859375,-0.029932396486401558,-0.14905111491680145,0.006719517521560192
1788679266178844700,1.6778447265625,-0.030543262138962746,-0.11789698898792267,-0.03298672288656235
1788679266194957600,1.69395751953125,-0.027488935738801956,-0.0555887371301651,-0.07635815441608429
1788679266211119000,1.710119140625,-0.03481931984424591,-0.015271631069481373,-0.1111774742603302
1788679266227247000,1.7262470703125,-0.03237585723400116,-0.04459316283464432,-0.1313360333442688
1788679266243425300,1.74242529296875,-0.02076941914856434,-0.07941248267889023,-0.15271630883216858
1788679266259646200,1.758646240234375,-0.0024434609804302454,-0.09224065393209457,-0.16737708449363708
1788679266275763700,1.774763671875,0,-0.1459967941045761,-0.1771509200334549
1788679266291933000,1.790932861328125,-0.018325956538319588,-0.23151792585849762,-0.1411098688840866
1788679266308069400,1.8070693359375,-0.029932396486401558,-0.3023782968521118,-0.11545353382825851
1788679266324256000,1.823256103515625,-0.0403171069920063,-0.33108896017074585,-0.10506882518529892
1788679266340473900,1.839473876953125,-0.08124507963657379,-0.33536502718925476,-0.10812314599752426
1788679266356557800,1.855557861328125,-0.12889257073402405,-0.3237585723400116,-0.11850785464048386
1788679266372724000,1.871723876953125,-0.14905111491680145,-0.303600013256073,-0.09773843735456467
1788679266388857900,1.88785791015625,-0.15454891324043274,-0.33169981837272644,-0.0659734457731247
1788679266405041700,1.904041748046875,-0.17409659922122955,-0.33719760179519653,-0.06108652427792549
1788679266421258000,1.920258056640625,-0.182648703455925,-0.3280346393585205,-0.08307767659425735
1788679266437349000,1.93634912109375,-0.17287486791610718,-0.27550023794174194,-0.09529497474431992
1788679266453518800,1.952518798828125,-0.16065755486488342,-0.21319197118282318,-0.07880161702632904
1788679266469655300,1.9686552734375,-0.10445795953273773,-0.11667526513338089,-0.036041051149368286
1788679266485843700,1.98484375,0.02015855349600315,0.024434609338641167,-0.01160643994808197
1788679266502070800,2.00107080078125,0.11728613078594208,0.11423180252313614,-0.012828170321881771
1788679266518167800,2.017167724609375,0.14538592100143433,0.13316862285137177,-0.05009094998240471
1788679266534328600,2.03332861328125,0.1508837193250656,0.10018189996480942,-0.10262536257505417
1788679266550458600,2.049458740234375,0.16004669666290283,0.0757472887635231,-0.1368338167667389
1788679266566638000,2.06563818359375,0.1771509200334549,0.059864792972803116,-0.1612684279680252
1788679266582852600,2.0818525390625,0.1918116807937622,-0.018936822190880775,-0.1716531366109848
1788679266598957000,2.09795703125,0.19120082259178162,-0.12400564551353455,-0.1661553531885147
1788679266615121400,2.114121337890625,0.16004669666290283,-0.18448130786418915,-0.12400564551353455
1788679266631256600,2.130256591796875,0.12034045159816742,-0.17104226350784302,-0.07147123664617538
1788679266647459800,2.1464599609375,0.08124507963657379,-0.06169738993048668,-0.033597588539123535
1788679266663692500,2.162692626953125,0.05253441259264946,0.05864306539297104,-0.04948008432984352
1788679266679812600,2.1788125,0.039706241339445114,0.11850785464048386,-0.09773843735456467
1788679266695983000,2.194983154296875,0.014049900695681572,0.10995574295520782,-0.16371189057826996
1788679266712118500,2.211118408203125,0.05375614017248154,0.06719517707824707,-0.18387043476104736
1788679266728303600,2.2273037109375,0.2675589919090271,0.10812314599752426,-0.22602014243602753
1788679266744542700,2.243542724609375,0.342695415019989,0.18936823308467865,-0.21991148591041565
1788679266760616400,2.259616455078125,0.3445279896259308,0.13988813757896423,-0.24129177629947662
1788679266776783000,2.275783203125,0.17531833052635193,0.054367005825042725,-0.18936823308467865
1788679266792915000,2.2919150390625,0.0959058403968811,-0.08429940044879913,-0.0861319974064827
1788679266809094400,2.308094482421875,0.11423180252313614,0.04214970022439957,0.019547687843441963
1788679266825339000,2.3243388671875,0.15332718193531036,0.04886921867728233,0.07452555745840073
1788679266841422300,2.34042236328125,0.21868975460529327,0.0708603709936142,0.08857546001672745
1788679266857586400,2.35658642578125,0.2871066629886627,0.09224065393209457,0.06780604273080826
1788679266873722000,2.37272216796875,0.3176499307155609,0.10018189996480942,0.029932396486401558
1788679266889907000,2.388906982421875,0.304210901260376,0.06658431142568588,-0.021380282938480377
1788679266906123300,2.405123291015625,0.25045475363731384,-0.012217304669320583,-0.07452555745840073
1788679266922216000,2.4212158203125,0.17837265133857727,-0.06169738993048668,-0.10934487730264664
1788679266938386000,2.437385986328125,0.08979719132184982,-0.03237585723400116,-0.11728613078594208
1788679266954520600,2.4535205078125,0.00733038317412138,0.012828170321881771,-0.10812314599752426
1788679266970704600,2.46970458984375,-0.04764748737215996,0.01038470957428217,-0.10506882518529892
1788679266986919400,2.48591943359375,-0.06108652427792549,-0.05253441259264946,-0.12217304855585098
1788679267003018800,2.502018798828125,-0.04214970022439957,-0.11545353382825851,-0.1362229436635971
1788679267019185000,2.518184814453125,-0.021991148591041565,-0.14233160018920898,-0.13866640627384186
1788679267035319300,2.5343193359375,-0.009162978269159794,-0.10690141469240189,-0.12400564551353455
1788679267051503400,2.55050341796875,-0.01160643994808197,-0.060475658625364304,-0.08368854224681854
1788679267067718000,2.5667177734375,-0.013439035043120384,-0.01038470957428217,-0.0403171069920063
1788679267083827000,2.582826904296875,0.01466076634824276,0.02015855349600315,-0.02626720629632473
1788679267099995400,2.598995361328125,0.05314527451992035,-0.01466076634824276,-0.019547687843441963
1788679267116131000,2.615131103515625,0.06230825558304787,-0.08368854224681854,0.00366519158706069
1788679267132319000,2.631319091796875,0.04337143152952194,-0.13377949595451355,0.0403171069920063
1788679267148539000,2.647538818359375,0.039706241339445114,-0.12400564551353455,0.05864306539297104
1788679267164657200,2.6636572265625,0.05314527451992035,-0.13011430203914642,0.05619960278272629
1788679267180829200,2.6798291015625,0.05375614017248154,-0.17287486791610718,0.03420845419168472
1788679267196971300,2.69597119140625,0.03726277872920036,-0.22602014243602753,0.012828170321881771
1788679267213158100,2.712158203125,0.016493361443281174,-0.2632829248905182,-0.01466076634824276
1788679267229374500,2.72837451171875,0.007941247895359993,-0.29016098380088806,-0.03787364438176155
1788679267245453000,2.744453125,-0.005497787147760391,-0.2565633952617645,-0.028099801391363144
1788679267261620700,2.760620849609375,-0.02687807008624077,-0.19792033731937408,-0.001832595793530345
1788679267277760500,2.776760498046875,-0.036651913076639175,-0.15515977144241333,0.02687807008624077
1788679267293947400,2.792947509765625,-0.03298672288656235,-0.16249015927314758,0.0507018156349659
1788679267310163700,2.809163818359375,-0.025656340643763542,-0.1612684279680252,0.06291911751031876
1788679267326248000,2.825248046875,-0.018936822190880775,-0.09346238523721695,0.07391469180583954
1788679267342418000,2.84141796875,-0.00366519158706069,-0.08796459436416626,0.059864792972803116
1788679267358556000,2.857555908203125,-0.009773843921720982,-0.02382374368607998,0.09468411654233932
1788679267374744300,2.873744384765625,-0.007941247895359993,-0.0861319974064827,0.17104226350784302
1788679267390969600,2.889969482421875,0.016493361443281174,-0.32681289315223694,0.19303341209888458
1788679267407065600,2.906065673828125,0.06230825558304787,-0.5351179838180542,0.20097467303276062
1788679267423236400,2.922236328125,0.13011430203914642,-0.6841690540313721,0.2431243658065796
1788679267439370000,2.938369873046875,0.1459967941045761,-0.856433093547821,0.2681698501110077
1788679267455556000,2.95455615234375,0.010995574295520782,-0.9712757468223572,0.24129177629947662
1788679267471772200,2.970772216796875,-0.19853121042251587,-0.9382890462875366,0.21135938167572021
1788679267487873000,2.986873046875,-0.3933972120285034,-0.7250970602035522,0.16065755486488342
1788679267504043000,3.00304296875,-0.5143485069274902,-0.43249258399009705,0.08307767659425735
1788679267520179500,3.019179443359375,-0.5699372887611389,-0.20586158335208893,-0.018325956538319588
1788679267536367600,3.03536767578125,-0.5998696684837341,-0.027488935738801956,-0.14782938361167908
1788679267552589800,3.05158984375,-0.5839871764183044,0.04092797264456749,-0.23640485107898712
1788679267568696000,3.067696044921875,-0.5296201705932617,0.07269296050071716,-0.25534167885780334
1788679267584868000,3.0838681640625,-0.4196644127368927,0.03848451003432274,-0.21563543379306793
1788679267601007900,3.1000078125,-0.2321287989616394,0.04886921867728233,-0.1459967941045761
1788679267617197000,3.116197021484375,-0.013439035043120384,0.09529497474431992,-0.14355333149433136
1788679267633426000,3.132426025390625,0.16982053220272064,0.12400564551353455,-0.21380282938480377
1788679267649541600,3.148541748046875,0.30604347586631775,0.15577064454555511,-0.3390302062034607
1788679267665712400,3.16471240234375,0.5632177591323853,-0.06780604273080826,-0.05619960278272629
1788679267681844700,3.1808447265625,0.6255260109901428,-0.3127630054950714,0.14966198801994324
1788679267698028800,3.19702880859375,0.4740314185619354,-0.48747047781944275,0.3219259977340698
1788679267714269400,3.21326953125,0.33719760179519653,-0.7195992469787598,0.4245513379573822
1788679267730340000,3.229340087890625,0.29077184200286865,-0.8521569967269897,0.4331034719944
1788679267746507300,3.24550732421875,0.29016098380088806,-0.9187413454055786,0.4129449129104614
1788679267762642200,3.26164208984375,0.2981022298336029,-0.8185594081878662,0.39645153284072876
1788679267778830300,3.277830322265625,0.3384193480014801,-0.5791002511978149,0.3378084897994995
1788679267795079000,3.294078857421875,0.4202753007411957,-0.3549126982688904,0.2370157092809677
1788679267811161900,3.310161865234375,0.46792277693748474,-0.25534167885780334,0.10873401165008545
1788679267827330000,3.326330078125,0.45875978469848633,-0.23457226157188416,0.015882495790719986
1788679267843464400,3.34246435546875,0.42577308416366577,-0.24007004499435425,-0.01160643994808197
1788679267859647200,3.358647216796875,0.40622538328170776,-0.27611109614372253,0.012217304669320583
1788679267875862000,3.374862060546875,0.4190535545349121,-0.3176499307155609,0.045204028487205505
1788679267891947300,3.390947265625,0.42638394236564636,-0.3176499307155609,0.05497787147760391
1788679267908114000,3.407114013671875,0.384845107793808,-0.29626965522766113,0.033597588539123535
1788679267924250000,3.42325,0.30054569244384766,-0.22968533635139465,0.04398229718208313
1788679267940436000,3.43943603515625,0.24129177629947662,-0.15027284622192383,0.12767083942890167
1788679267956656000,3.45565625,0.22907446324825287,-0.11972958594560623,0.23151792585849762
1788679267972765200,3.47176513671875,0.24984388053417206,-0.1368338167667389,0.30604347586631775
1788679267988959000,3.487958984375,0.28038713335990906,-0.192422553896904,0.3683517575263977
1788679268005095200,3.50409521484375,0.323147714138031,-0.20952677726745605,0.4550946056842804
1788679268021278200,3.5202783203125,0.3781255781650543,-0.17409659922122955,0.608421802520752
1788679268037494500,3.53649462890625,0.3335324227809906,0.18997909128665924,0.3536909818649292
1788679268053641700,3.552641845703125,-0.19364428520202637,0.45692721009254456,-1.4874569177627563
1788679268069809400,3.568809326171875,0.13439035415649414,0.01710422709584236,-1.160033106803894
1788679268085978400,3.584978271484375,0.4593706727027893,0.03176499158143997,-0.059864792972803116
1788679268102164000,3.6011640625,0.5051855444908142,0.001832595793530345,0.5601634383201599
1788679268118379800,3.6173798828125,0.5112941861152649,-0.07208210229873657,0.6059783101081848
1788679268134485000,3.633485107421875,0.5711590051651001,0.0757472887635231,0.5467243790626526
1788679268150654500,3.649654541015625,0.47280970215797424,0.4862487316131592,0.05314527451992035
1788679268166835000,3.6658349609375,0.36529740691185,0.6261368989944458,-0.5558874011039734
1788679268183015700,3.682015625,0.2376265823841095,0.36163222789764404,-0.5088507533073425
1788679268199231200,3.698231201171875,0.152105450630188,0.16065755486488342,0.03420845419168472
1788679268215341000,3.714341064453125,0.10567969083786011,-0.09040805697441101,0.3090978264808655
1788679268231512000,3.730511962890625,0.11484266817569733,-0.2431243658065796,0.26022860407829285
1788679268247644000,3.746643798828125,0.16371189057826996,-0.2675589919090271,0.09896016865968704
1788679268263833900,3.762833740234375,0.2272418737411499,-0.19547687470912933,0.05925392732024193
1788679268280057300,3.779057373046875,0.2571742534637451,-0.014049900695681572,0.1869247704744339
1788679268296187400,3.7951875,0.2217440903186798,0.0507018156349659,0.48197266459465027
1788679268312360700,3.811360595703125,0.15027284622192383,0.04153883829712868,0.7116580009460449
1788679268328535300,3.827535400390625,0.13439035415649414,-0.13377949595451355,0.7165449261665344
1788679268344722400,3.843722412109375,0.14844025671482086,-0.24373523890972137,0.5632177591323853
1788679268360953300,3.859953369140625,0.11301007121801376,-0.2431243658065796,0.32131510972976685
1788679268377053000,3.876052978515625,0.06108652427792549,-0.1661553531885147,0.08674286305904388
1788679268393204700,3.892204833984375,0.007941247895359993,-0.03176499158143997,-0.1514945775270462
1788679268409346300,3.90834619140625,-0.03848451003432274,0.08002334833145142,-0.25961771607398987
1788679268425535000,3.924534912109375,-0.06841690838336945,0.20097467303276062,-0.23335053026676178
1788679268441766700,3.9407666015625,-0.06902777403593063,0.27122417092323303,-0.1368338167667389
1788679268457876200,3.956876220703125,-0.04459316283464432,0.2974913716316223,-0.025656340643763542
1788679268474046000,3.9730458984375,-0.009773843921720982,0.2480112910270691,0.06536258012056351
1788679268490180400,3.989180419921875,0.005497787147760391,0.15454891324043274,0.12339477986097336
1788679268506368000,4.005367919921875,0.009773843921720982,0.11301007121801376,0.13927727937698364
1788679268522602500,4.0216025390625,0.02321287989616394,0.09651670604944229,0.12339477986097336
1788679268538717400,4.037717529296875,0.03237585723400116,0.11972958594560623,0.07452555745840073
1788679268554887200,4.05388720703125,0.03237585723400116,0.13255776464939117,0.014049900695681572
1788679268571025200,4.070025146484375,0.00366519158706069,0.08185594528913498,-0.04459316283464432
1788679268587210800,4.086210693359375,-0.04948008432984352,0.01710422709584236,-0.09162978827953339
1788679268603447800,4.10244775390625,-0.1007927656173706,-0.033597588539123535,-0.11667526513338089
1788679268619520800,4.118520751953125,-0.13561208546161652,-0.04703662544488907,-0.13255776464939117
1788679268635686700,4.134686767578125,-0.16310101747512817,-0.007941247895359993,-0.1411098688840866
1788679268651820000,4.150820068359375,-0.18570303916931152,0.08185594528913498,-0.14355333149433136
1788679268668002600,4.16700244140625,-0.1918116807937622,0.1459967941045761,-0.1514945775270462
1788679268684242200,4.1832421875,-0.1466076523065567,0.15943582355976105,-0.1569923609495163
1788679268700313300,4.199313232421875,-0.02687807008624077,0.11545353382825851,-0.14049901068210602
1788679268716479200,4.215479248046875,0.12461651116609573,0.0403171069920063,-0.031154127791523933
1788679268732611600,4.231611572265625,0.22418753802776337,-0.09468411654233932,0.15760323405265808
1788679268748796200,4.247796142578125,0.26022860407829285,-0.24556782841682434,0.34025195240974426
1788679268765013800,4.264013671875,0.25534167885780334,-0.45204028487205505,0.5326744914054871
1788679268781101300,4.280101318359375,0.17837265133857727,-0.6145304441452026,0.6640105247497559
1788679268797270800,4.296270751953125,-0.00427605677396059,-0.5736024379730225,0.6438519954681396
1788679268813406500,4.312406494140625,-0.23457226157188416,-0.5180137157440186,0.4337143301963806
1788679268829590300,4.32859033203125,-0.35063666105270386,-0.5002986192703247,0.24434609711170197
1788679268845805800,4.344805908203125,-0.37629300355911255,-0.34086281061172485,0.010995574295520782
1788679268861900800,4.36090087890625,-0.3335324227809906,-0.18814650177955627,-0.16432274878025055
1788679268878071300,4.3770712890625,-0.27977627515792847,-0.04398229718208313,-0.3323107063770294
1788679268894209500,4.39320947265625,-0.24373523890972137,0.05375614017248154,-0.48685958981513977
1788679268910395100,4.40939501953125,-0.2541199326515198,0.12400564551353455,-0.6444628238677979
1788679268926614300,4.4256142578125,-0.5503895878791809,0.036651913076639175,-0.7422012686729431
1788679268942757600,4.441757568359375,-0.6108652353286743,-0.2064724564552307,-0.7214318513870239
1788679268958927000,4.457927001953125,-0.5693264007568359,-0.37079519033432007,-0.5717698931694031
1788679268975097000,4.47409716796875,-0.5192354321479797,-0.32131510972976685,-0.3842342495918274
1788679268991282000,4.490281982421875,-0.49357911944389343,-0.17287486791610718,-0.22296582162380219
1788679269007499000,4.5064990234375,-0.5167919993400574,0.10018189996480942,-0.02687807008624077
1788679269023611000,4.52261083984375,-0.50335294008255,0.44715335965156555,0.19486601650714874
1788679269039778800,4.53877880859375,-0.41599923372268677,0.6866125464439392,0.4245513379573822
1788679269055915500,4.55491552734375,-0.33108896017074585,0.6786713004112244,0.5760459303855896
1788679269072102400,4.571102294921875,-0.2974913716316223,0.4899139404296875,0.5876523852348328
1788679269088320000,4.587320068359375,-0.304210901260376,0.16920967400074005,0.4697553813457489
1788679269104436700,4.603436767578125,-0.27611109614372253,-0.08246681094169617,0.26083946228027344
1788679269120605000,4.61960498046875,-0.22113321721553802,-0.18081611394882202,0.07024950534105301
1788679269136742100,4.6357421875,-0.13255776464939117,-0.17592918872833252,-0.11789698898792267
1788679269152929500,4.651929443359375,-0.09407325088977814,-0.04398229718208313,-0.2076941877603531
1788679269169148200,4.668148193359375,-0.2168571650981903,0.1869247704744339,-0.2174680233001709
1788679269185224000,4.684223876953125,-0.3579670190811157,0.3604104816913605,-0.20341812074184418
1788679269201394000,4.700393798828125,-0.4691445231437683,0.43127086758613586,-0.1722639948129654
1788679269217531000,4.71653076171875,-0.394618958234787,0.35124751925468445,-0.1368338167667389
1788679269233718500,4.732718505859375,-0.05192354694008827,0.26633724570274353,-0.1569923609495163
1788679269249936600,4.7489365234375,0.5106833577156067,0.11484266817569733,-0.22479841113090515
1788679269266014700,4.7650146484375,0.9187413454055786,0.015271631069481373,-0.29077184200286865
1788679269282185700,4.781185791015625,1.034194827079773,-0.021991148591041565,-0.27550023794174194
1788679269298320000,4.79731982421875,0.9150761365890503,0.09224065393209457,-0.23518311977386475
1788679269314518300,4.813518310546875,0.6249151229858398,0.21319197118282318,-0.17776179313659668
1788679269330737700,4.829737548828125,0.2773328125476837,0.27611109614372253,-0.11178833991289139
1788679269346864000,4.845864013671875,0,0.31459560990333557,-0.0757472887635231
1788679269363031800,4.86203173828125,-0.09468411654233932,0.28099802136421204,-0.04948008432984352
1788679269379165200,4.878165283203125,-0.021991148591041565,0.17287486791610718,-0.018936822190880775
1788679269395351000,4.89435107421875,0.1973094791173935,0.06536258012056351,-0.012828170321881771
1788679269411580200,4.910580078125,0.3927863538265228,0.01771509274840355,-0.015271631069481373
1788679269427685400,4.926685302734375,0.48319441080093384,-0.028099801391363144,-0.0024434609804302454
1788679269443852500,4.9428525390625,0.49235737323760986,-0.0959058403968811,0.0507018156349659
1788679269459989000,4.958989013671875,0.43676865100860596,-0.09346238523721695,0.14782938361167908
1788679269476172800,4.9751728515625,0.3744603991508484,-0.0555887371301651,0.2376265823841095
1788679269492392000,4.991391845703125,0.31031954288482666,0.054367005825042725,0.3481931984424591
1788679269508502500,5.00750244140625,0.21563543379306793,0.2718350291252136,0.41722095012664795
1788679269524669400,5.02366943359375,0.09834930300712585,0.30604347586631775,0.38240164518356323
1788679269540804400,5.039804443359375,-0.029932396486401558,0.10445795953273773,0.2675589919090271
1788679269556989200,5.0559892578125,-0.1459967941045761,-0.12217304855585098,0.11362093687057495
1788679269573226200,5.072226318359375,-0.29016098380088806,-0.33292156457901,-0.00855211354792118
1788679269589298200,5.088298095703125,-0.3885102868080139,-0.5100724697113037,-0.05009094998240471
1788679269605470200,5.10447021484375,-0.4105014503002167,-0.5393940210342407,-0.004886921960860491
1788679269621609000,5.12060888671875,-0.40072759985923767,-0.32986724376678467,0.10445795953273773
1788679269637796900,5.136796875,-0.37262779474258423,-0.019547687843441963,0.2064724564552307
1788679269654040300,5.153040283203125,-0.28038713335990906,0.1362229436635971,0.27977627515792847
1788679269670120700,5.16912060546875,-0.3127630054950714,-0.036651913076639175,0.2767219543457031
1788679269686292700,5.185292724609375,-0.423329621553421,-0.2767219543457031,0.2687807083129883
1788679269702426600,5.201426513671875,-0.4343251883983612,-0.38117989897727966,0.31459560990333557
1788679269718614800,5.21761474609375,-0.38179078698158264,-0.3885102868080139,0.3500257730484009
1788679269734838300,5.23383837890625,-0.2981022298336029,-0.3536909818649292,0.3646865487098694
1788679269750918000,5.24991796875,-0.21380282938480377,-0.19547687470912933,0.2840523421764374
1788679269767087900,5.266087890625,-0.1160643994808197,-0.016493361443281174,0.12278391420841217
1788679269783224600,5.282224609375,0.027488935738801956,0.06719517707824707,-0.06475171446800232
1788679269799409000,5.298408935546875,0.17531833052635193,0.07147123664617538,-0.19425514340400696
1788679269815628300,5.314628173828125,0.22418753802776337,0.016493361443281174,-0.20525072515010834
1788679269831736000,5.330736083984375,0.19364428520202637,-0.1264491081237793,-0.1612684279680252
1788679269847907000,5.346906982421875,0.152105450630188,-0.13927727937698364,-0.10262536257505417
1788679269864044000,5.3630439453125,0.11362093687057495,-0.13439035415649414,-0.03481931984424591
1788679269880230100,5.379230224609375,0.06841690838336945,-0.11789698898792267,0.001832595793530345
1788679269896449000,5.395448974609375,0.05375614017248154,-0.07941248267889023,0.016493361443281174
1788679269912562000,5.41156201171875,0.06963863968849182,0.00855211354792118,-0.01160643994808197
1788679269928758500,5.427758544921875,0.09529497474431992,0.10567969083786011,-0.06902777403593063
1788679269944895200,5.443895263671875,0.0806342139840126,0.1270599663257599,-0.12767083942890167
1788679269961082000,5.46008203125,0.04459316283464432,0.12034045159816742,-0.1667662113904953
1788679269977302300,5.47630224609375,0.009162978269159794,0.1508837193250656,-0.16249015927314758
1788679269993422600,5.492422607421875,-0.0012217304902151227,0.26450464129447937,-0.05925392732024193
1788679270009596200,5.50859619140625,0.018936822190880775,0.42699480056762695,0.1508837193250656
1788679270025736700,5.52473681640625,0.028099801391363144,0.35674530267715454,0.3243694305419922
1788679270041890300,5.540890380859375,0.03237585723400116,0.06841690838336945,0.3549126982688904
1788679270058113800,5.55711376953125,0.02015855349600315,-0.26633724570274353,0.2816088795661926
1788679270074187800,5.573187744140625,-0.03481931984424591,-0.5571091175079346,0.17348572611808777
1788679270090357200,5.589357177734375,-0.08307767659425735,-0.6340781450271606,0.11178833991289139
1788679270106528800,5.60552880859375,-0.1258382350206375,-0.607810914516449,0.12767083942890167
1788679270122714400,5.62171435546875,-0.1612684279680252,-0.38728857040405273,0.17348572611808777
1788679270138932200,5.63793212890625,-0.21563543379306793,-0.25473082065582275,0.2015855312347412
1788679270155016000,5.654015869140625,-0.294437050819397,-0.29138273000717163,0.14233160018920898
1788679270171183900,5.670183837890625,-0.3530801236629486,-0.4129449129104614,0.02382374368607998
1788679270187319000,5.686319091796875,-0.43188172578811646,-0.626747727394104,-0.11972958594560623
1788679270203504000,5.702504150390625,-0.5229006409645081,-0.7513642311096191,-0.2076941877603531
1788679270219722500,5.718722412109375,-0.608421802520752,-0.627358615398407,-0.18020524084568024
1788679270235851000,5.73485107421875,-0.6133087277412415,-0.27488934993743896,-0.033597588539123535
1788679270252019500,5.75101953125,-0.5094616413116455,0.022602014243602753,0.24373523890972137
1788679270268154600,5.767154541015625,-0.3628539443016052,0.05192354694008827,0.4660901725292206
1788679270284342000,5.783342041015625,-0.16554448008537292,0.09040805697441101,0.636521577835083
1788679270300570400,5.7995703125,-0.056810468435287476,0.001832595793530345,0.6707300543785095
1788679270316662000,5.815662109375,-0.00733038317412138,-0.059864792972803116,0.5778785347938538
1788679270332829700,5.83182958984375,-0.00366519158706069,-0.09040805697441101,0.4098905920982361
1788679270348997400,5.847997314453125,-0.05619960278272629,-0.22296582162380219,0.1258382350206375
1788679270365181000,5.864180908203125,-0.1258382350206375,-0.21868975460529327,-0.12828169763088226
1788679270381402000,5.880402099609375,-0.182648703455925,0.07024950534105301,-0.19364428520202637
1788679270397509600,5.896509521484375,-0.23335053026676178,0.3695734739303589,-0.15027284622192383
1788679270413678600,5.9126787109375,-0.25961771607398987,0.607810914516449,-0.10812314599752426
1788679270429816600,5.928816650390625,-0.1722639948129654,0.5827654600143433,-0.00855211354792118
1788679270446003200,5.945003173828125,-0.05619960278272629,0.43799036741256714,0.11911872029304504
1788679270462234600,5.961234619140625,0.006719517521560192,0.19364428520202637,0.1820378452539444
1788679270478347500,5.977347412109375,0.00366519158706069,-0.04581489413976669,0.11362093687057495
1788679270494516500,5.9935166015625,-0.00366519158706069,-0.18020524084568024,-0.005497787147760391
1788679270510655200,6.0096552734375,-0.009773843921720982,-0.22907446324825287,-0.03787364438176155
1788679270526840800,6.0258408203125,-0.010995574295520782,-0.27122417092323303,0.04153883829712868
1788679270543084500,6.04208447265625,-0.0354301854968071,-0.26939156651496887,0.13316862285137177
1788679270559157800,6.05815771484375,-0.051312681287527084,-0.22113321721553802,0.14844025671482086
1788679270575325200,6.0743251953125,-0.04092797264456749,-0.18020524084568024,0.10262536257505417
1788679270591463200,6.090463134765625,0.0024434609804302454,-0.06414084881544113,0.03787364438176155
1788679270607650300,6.106650390625,0.04703662544488907,0.06352998316287994,0.006719517521560192
1788679270623894800,6.122894775390625,0.08307767659425735,0.10751228034496307,-0.01038470957428217
1788679270639978000,6.13897802734375,0.1007927656173706,0.015882495790719986,-0.02321287989616394
1788679270656148000,6.15514794921875,0.09773843735456467,-0.09957103431224823,-0.014049900695681572
1788679270672284400,6.171284423828125,0.10690141469240189,-0.08246681094169617,0.039095375686883926
1788679270688494600,6.18749462890625,0.1771509200334549,-0.030543262138962746,0.11178833991289139
1788679270704711000,6.2037109375,0.23273965716362,-0.015271631069481373,0.15515977144241333
1788679270720870000,6.219869873046875,0.242513507604599,0.05253441259264946,0.15515977144241333
1788679270737036300,6.236036376953125,0.22663100063800812,0.1264491081237793,0.10873401165008545
1788679270753171500,6.25217138671875,0.21319197118282318,0.13744467496871948,0.022602014243602753
1788679270769361000,6.26836083984375,0.20097467303276062,0.05253441259264946,-0.08857546001672745
1788679270785580800,6.284580810546875,0.18020524084568024,-0.1716531366109848,-0.18448130786418915
1788679270801687600,6.3006875,0.16737708449363708,-0.3433062732219696,-0.1722639948129654
1788679270817857800,6.31685791015625,0.18325957655906677,-0.3292563557624817,-0.042760565876960754
1788679270834032600,6.33303271484375,0.2223549485206604,-0.16859880089759827,0.17898350954055786
1788679270850222800,6.349222900390625,0.251676470041275,-0.04337143152952194,0.2981022298336029
1788679270866443800,6.36544384765625,0.2773328125476837,-0.02687807008624077,0.20952677726745605
1788679270882590700,6.3815908203125,0.27488934993743896,-0.1411098688840866,-0.007941247895359993
1788679270898761500,6.397761474609375,0.22418753802776337,-0.2889392673969269,-0.19853121042251587
1788679270914898000,6.41389794921875,0.13744467496871948,-0.3683517575263977,-0.2565633952617645
1788679270931082000,6.43008203125,0.04948008432984352,-0.38606682419776917,-0.23396138846874237
1788679270947298800,6.446298828125,0.003054326167330146,-0.3481931984424591,-0.20402899384498596
1788679270963417300,6.462417236328125,0.005497787147760391,-0.24678955972194672,-0.16554448008537292
1788679270979586600,6.478586669921875,0.05742133408784866,-0.12828169763088226,-0.11301007121801376
1788679270995723800,6.494723876953125,0.12095131725072861,-0.05253441259264946,-0.07024950534105301
1788679271011908900,6.510908935546875,0.15027284622192383,-0.00427605677396059,-0.03237585723400116
1788679271028121600,6.52712158203125,0.1368338167667389,-0.00855211354792118,0
1788679271044192300,6.543192138671875,0.13255776464939117,-0.1264491081237793,0.029932396486401558
1788679271060356000,6.559356201171875,0.12522737681865692,-0.25106561183929443,0.033597588539123535
1788679271076492000,6.575491943359375,0.09529497474431992,-0.2919935882091522,0.03787364438176155
1788679271092678400,6.591678466796875,0.05192354694008827,-0.2669481039047241,0.04398229718208313
1788679271108896000,6.60789599609375,0.04459316283464432,-0.2321287989616394,0.00855211354792118
1788679271124977400,6.623977294921875,0.06902777403593063,-0.22602014243602753,-0.05314527451992035
1788679271141144300,6.640144287109375,0.0708603709936142,-0.21624629199504852,-0.07208210229873657
1788679271157277700,6.656277587890625,0.03176499158143997,-0.18020524084568024,-0.05497787147760391
1788679271173465300,6.67246533203125,0.006719517521560192,-0.09651670604944229,0.0012217304902151227
1788679271189684700,6.688684814453125,0.012828170321881771,-0.0012217304902151227,0.08857546001672745
1788679271205773300,6.704773193359375,0.013439035043120384,0.04703662544488907,0.1716531366109848
1788679271221942000,6.72094189453125,0.022602014243602753,0.004886921960860491,0.17470745742321014
1788679271238075600,6.73707568359375,0.08185594528913498,-0.14233160018920898,0.17592918872833252
1788679271254264800,6.753264892578125,0.10018189996480942,-0.3274237811565399,0.20525072515010834
1788679271270485500,6.769485595703125,0.033597588539123535,-0.4202753007411957,0.16249015927314758
1788679271286591500,6.785591552734375,-0.036041051149368286,-0.3793473243713379,0.0555887371301651
1788679271302761200,6.80176123046875,-0.08735372871160507,-0.21991148591041565,-0.02626720629632473
1788679271318896600,6.817896728515625,-0.1411098688840866,-0.02626720629632473,-0.05314527451992035
1788679271335079400,6.834079345703125,-0.14966198801994324,0.027488935738801956,-0.06108652427792549
1788679271351295500,6.85029541015625,-0.12339477986097336,-0.07941248267889023,-0.14233160018920898
1788679271367399200,6.866399169921875,-0.13988813757896423,-0.25534167885780334,-0.34513887763023376
1788679271383566300,6.88256640625,-0.18509216606616974,-0.4789183437824249,-0.5106833577156067
1788679271399734800,6.89873486328125,-0.23457226157188416,-0.4660901725292206,-0.4893030524253845
1788679271415918800,6.9149189453125,-0.24434609711170197,-0.12950342893600464,-0.20830504596233368
1788679271432144400,6.931144287109375,-0.22357667982578278,0.18448130786418915,0.10567969083786011
1788679271448253000,6.9472529296875,-0.14966198801994324,0.3139847218990326,0.33292156457901
1788679271464422000,6.963421875,-0.01710422709584236,0.2223549485206604,0.35613444447517395
1788679271480589600,6.979589599609375,0.07452555745840073,0.05009094998240471,0.2938261926174164
1788679271496772900,6.99577294921875,0.04153883829712868,-0.11423180252313614,0.21868975460529327
1788679271513009400,7.012009521484375,-0.07391469180583954,-0.18570303916931152,0.15332718193531036
1788679271529083400,7.02808349609375,-0.19914206862449646,-0.1472185254096985,0.09224065393209457
1788679271545253400,7.04425341796875,-0.2883284091949463,-0.01038470957428217,0.02382374368607998
1788679271561387800,7.0603876953125,-0.3225368559360504,0.13805554807186127,-0.006719517521560192
1788679271577571800,7.07657177734375,-0.31459560990333557,0.1814269721508026,0.00366519158706069
1788679271593819400,7.0928193359375,-0.25473082065582275,0.12828169763088226,0.0403171069920063
1788679271609906200,7.10890625,-0.1319468915462494,0.00366519158706069,0.1362229436635971
1788679271626071300,7.1250712890625,-0.07391469180583954,-0.04703662544488907,0.18448130786418915
1788679271642206000,7.1412060546875,-0.04642575979232788,-0.07696902006864548,0.1716531366109848
1788679271658390300,7.157390380859375,-0.018325956538319588,-0.11667526513338089,0.1160643994808197
1788679271674609200,7.173609130859375,0.021991148591041565,-0.0806342139840126,0.051312681287527084
1788679271690714000,7.189714111328125,0.06780604273080826,-0.02932153269648552,0.006108652334660292
1788679271706884000,7.205884033203125,0.05864306539297104,-0.03298672288656235,-0.010995574295520782
1788679271723018500,7.2220185546875,0.025045474991202354,-0.03176499158143997,-0.01466076634824276
1788679271739209000,7.238208984375,0.01466076634824276,0.031154127791523933,-0.02076941914856434
1788679271755423700,7.254423828125,0.05375614017248154,0.16493362188339233,0
1788679271771525400,7.270525390625,0.13377949595451355,0.2675589919090271,0.03787364438176155
1788679271787692800,7.28669287109375,0.20525072515010834,0.2883284091949463,0.05375614017248154
1788679271803826200,7.302826171875,0.2272418737411499,0.26145032048225403,0.051312681287527084
1788679271820009200,7.31900927734375,0.21930062770843506,0.22846360504627228,0.03298672288656235
1788679271836223700,7.3352236328125,0.2070833146572113,0.1966986060142517,0.010995574295520782
1788679271852336000,7.351336181640625,0.2064724564552307,0.1569923609495163,0.022602014243602753
1788679271868502500,7.36750244140625,0.21868975460529327,0.09773843735456467,0.08796459436416626
1788679271884636700,7.38363671875,0.22540926933288574,0.1722639948129654,0.16798794269561768
1788679271900818200,7.399818115234375,0.24678955972194672,0.41661009192466736,0.22968533635139465
1788679271917032000,7.416031982421875,0.27122417092323303,0.6120869517326355,0.2321287989616394
1788679271933105000,7.43210498046875,0.2583959996700287,0.6096435189247131,0.09040805697441101
1788679271949270000,7.44827001953125,0.23884831368923187,0.4740314185619354,-0.14844025671482086
1788679271965404000,7.46440380859375,0.17592918872833252,0.2675589919090271,-0.3090978264808655
1788679271981588000,7.480587890625,0.07757988572120667,0.11362093687057495,-0.33719760179519653
1788679271997804000,7.496803955078125,-0.006108652334660292,0.09773843735456467,-0.2376265823841095
1788679272013914400,7.512914306640625,-0.05192354694008827,0.29138273000717163,-0.04153883829712868
1788679272030105900,7.52910595703125,0.018325956538319588,-0.1362229436635971,-0.08796459436416626
1788679272046274600,7.545274658203125,0.16432274878025055,-0.5400048494338989,-0.30115658044815063
1788679272062459600,7.561459716796875,0.1765400618314743,-0.24007004499435425,-0.35246923565864563
1788679272078678800,7.5776787109375,-0.00855211354792118,0.11850785464048386,0.025656340643763542
1788679272094807300,7.593807373046875,-0.17959438264369965,0.3225368559360504,0.33597588539123535
1788679272110977000,7.60997705078125,-0.09162978827953339,0.04214970022439957,0.17348572611808777
1788679272127148000,7.62614794921875,0.19975294172763824,-0.3280346393585205,-0.37751471996307373
1788679272143334000,7.642333984375,0.46731191873550415,-0.45692721009254456,-0.7544185519218445
1788679272159552500,7.658552490234375,0.46364670991897583,-0.18875735998153687,-0.6053674817085266
1788679272175681800,7.674681884765625,0.26083946228027344,0.18387043476104736,0.003054326167330146
1788679272191847700,7.69084765625,0.10445795953273773,0.182648703455925,0.5736024379730225
1788679272208014600,7.7070146484375,0.13988813757896423,-0.05192354694008827,0.636521577835083
1788679272224200000,7.723199951171875,0.2535090744495392,-0.27061331272125244,0.32620203495025635
1788679272240420600,7.739420654296875,0.2919935882091522,-0.4031710624694824,-0.00855211354792118
1788679272256557600,7.7555576171875,0.2724458873271942,-0.4294382631778717,-0.16554448008537292
1788679272272728300,7.771728271484375,0.2223549485206604,-0.4043927788734436,-0.14782938361167908
1788679272288898800,7.78789892578125,0.14966198801994324,-0.3023782968521118,-0.05375614017248154
1788679272305082600,7.80408251953125,0.06780604273080826,-0.20463985204696655,0.06841690838336945
1788679272321314800,7.820314697265625,0.05009094998240471,-0.23457226157188416,0.10323622822761536
1788679272337434400,7.836434326171875,0.06841690838336945,-0.32681289315223694,0.014049900695681572
1788679272353603000,7.85260302734375,0.06414084881544113,-0.3591887652873993,-0.1111774742603302
1788679272369737500,7.868737548828125,0.04153883829712868,-0.28038713335990906,-0.1417207419872284
1788679272385924600,7.884924560546875,0.01038470957428217,-0.2125810980796814,-0.06169738993048668
1788679272402162400,7.901162353515625,0.0024434609804302454,-0.16065755486488342,0.0555887371301651
1788679272418237700,7.91723779296875,0.016493361443281174,-0.1875356286764145,0.10873401165008545
1788679272434409700,7.93340966796875,0.06780604273080826,-0.2932153046131134,0.05375614017248154
1788679272450552800,7.949552734375,0.1007927656173706,-0.44226643443107605,-0.05314527451992035
1788679272466741200,7.9657412109375,0.08491026610136032,-0.5497786998748779,-0.09773843735456467
1788679272482981400,7.9819814453125,0.014049900695681572,-0.5002986192703247,-0.05192354694008827
1788679272499052800,7.998052734375,-0.06536258012056351,-0.32009339332580566,-0.014049900695681572
1788679272515129300,8.01412939453125,-0.06902777403593063,-0.07635815441608429,0.018936822190880775
1788679272531239000,8.030239013671874,-0.04764748737215996,0.025656340643763542,0.005497787147760391
1788679272547428000,8.046427978515625,0.00427605677396059,-0.00855211354792118,-0.09468411654233932
1788679272563677400,8.062677490234375,0.033597588539123535,-0.16859880089759827,-0.2541199326515198
1788679272579766800,8.078766845703125,-0.028099801391363144,-0.39767327904701233,-0.4098905920982361
1788679272595933400,8.094933349609375,-0.14905111491680145,-0.48258355259895325,-0.4190535545349121
1788679272612104400,8.1111044921875,-0.25045475363731384,-0.18570303916931152,-0.16982053220272064
1788679272628292900,8.12729296875,-0.2840523421764374,0.1869247704744339,0.16310101747512817
1788679272644513000,8.143512939453124,-0.17837265133857727,0.28099802136421204,0.3066543638706207
1788679272660654000,8.159654052734375,-0.009162978269159794,0.14049901068210602,0.28527405858039856
1788679272676825300,8.175825439453124,0.11545353382825851,-0.10812314599752426,0.21135938167572021
1788679272692957000,8.19195703125,0.11789698898792267,-0.313373863697052,0.16737708449363708
1788679272709146600,8.208146728515626,0.016493361443281174,-0.37629300355911255,0.12522737681865692
1788679272725367300,8.2243671875,-0.13805554807186127,-0.2565633952617645,0.05253441259264946
1788679272741481500,8.2404814453125,-0.26572638750076294,-0.10262536257505417,-0.05314527451992035
1788679272757652200,8.25665234375,-0.3090978264808655,0.04398229718208313,-0.1313360333442688
1788679272773791500,8.27279150390625,-0.29565876722335815,0.07696902006864548,-0.15577064454555511
1788679272789979400,8.2889794921875,-0.23151792585849762,0.05253441259264946,-0.13744467496871948
1788679272806202000,8.3052021484375,-0.13988813757896423,-0.042760565876960754,-0.09529497474431992
1788679272822249500,8.32124951171875,-0.06291911751031876,-0.11423180252313614,-0.016493361443281174
1788679272838423300,8.33742333984375,-0.02932153269648552,-0.17287486791610718,0.0555887371301651
1788679272854562800,8.353562744140625,-0.015271631069481373,-0.22602014243602753,0.03848451003432274
1788679272870751700,8.369751708984374,-0.0012217304902151227,-0.20036379992961884,-0.08979719132184982
1788679272886970000,8.38597021484375,0.0024434609804302454,-0.0507018156349659,-0.25595253705978394
1788679272903048700,8.402048583984374,0.009162978269159794,0.01710422709584236,-0.323147714138031
1788679272919217200,8.418217041015625,-0.01160643994808197,-0.06230825558304787,-0.30970868468284607
1788679272935352000,8.43435205078125,-0.04337143152952194,-0.12339477986097336,-0.304210901260376
1788679272951539700,8.450539794921875,0.007941247895359993,-0.1472185254096985,-0.2724458873271942
1788679272967757800,8.4667578125,0.1258382350206375,-0.05742133408784866,-0.1472185254096985
1788679272983843300,8.48284326171875,0.24007004499435425,0.10323622822761536,0
1788679273000014000,8.49901416015625,0.3585779070854187,0.08368854224681854,0.12339477986097336
1788679273016152300,8.51515234375,0.40256020426750183,0.05375614017248154,0.16065755486488342
1788679273032342800,8.5313427734375,0.4147774875164032,0.02076941914856434,0.1264491081237793
1788679273048564500,8.547564453125,0.394618958234787,-0.05925392732024193,0.08429940044879913
1788679273064656400,8.563656494140625,0.36224308609962463,-0.10201449692249298,0.07269296050071716
1788679273080827600,8.57982763671875,0.36163222789764404,-0.05009094998240471,0.10201449692249298
1788679273097000400,8.59600048828125,0.3597996234893799,-0.06475171446800232,0.12095131725072861
1788679273113190700,8.612190673828126,0.33658674359321594,-0.16065755486488342,0.04642575979232788
1788679273129418200,8.628418212890624,0.27550023794174194,-0.32620203495025635,-0.09957103431224823
1788679273145554200,8.64455419921875,0.2021963894367218,-0.4141666293144226,-0.1973094791173935
1788679273161727000,8.66072705078125,0.12522737681865692,-0.39767327904701233,-0.17348572611808777
1788679273177901300,8.6769013671875,0.09896016865968704,-0.24923302233219147,0.022602014243602753
1788679273194093000,8.693093017578125,0.1264491081237793,-0.04459316283464432,0.25045475363731384
1788679273210315000,8.70931494140625,0.1814269721508026,0.02382374368607998,0.3121521472930908
1788679273226457300,8.725457275390625,0.2834414839744568,-0.0006108652451075613,0.18875735998153687
1788679273242630000,8.7416298828125,0.3274237811565399,-0.06475171446800232,0.00855211354792118
1788679273258763300,8.75776318359375,0.3072652220726013,-0.14416420459747314,-0.08124507963657379
1788679273274954200,8.773954345703125,0.24129177629947662,-0.23945917189121246,-0.10201449692249298
1788679273291187700,8.790187744140624,0.13988813757896423,-0.2981022298336029,-0.09285151958465576
1788679273307302400,8.806302490234375,0.04764748737215996,-0.24007004499435425,-0.10018189996480942
1788679273323361300,8.822361328125,0.0024434609804302454,-0.09346238523721695,-0.11178833991289139
1788679273339426300,8.83842626953125,0.024434609338641167,0.04398229718208313,-0.1111774742603302
1788679273355602200,8.854602294921875,0.10384709388017654,0.10751228034496307,-0.06169738993048668
1788679273371745500,8.87074560546875,0.16432274878025055,0.09529497474431992,0.009162978269159794
1788679273387842000,8.886842041015624,0.19058994948863983,0.01771509274840355,0.08246681094169617
1788679273403938000,8.90293798828125,0.18936823308467865,-0.036651913076639175,0.12034045159816742
1788679273420073200,8.9190732421875,0.17776179313659668,-0.08185594528913498,0.1368338167667389
1788679273436263700,8.935263671875,0.1716531366109848,-0.17043140530586243,0.13316862285137177
1788679273452516400,8.951516357421875,0.15332718193531036,-0.2370157092809677,0.10506882518529892
1788679273468573200,8.9675732421875,0.12034045159816742,-0.18814650177955627,0.07513642311096191
1788679273484747000,8.9837470703125,0.10201449692249298,-0.05375614017248154,0.08735372871160507
1788679273500887000,8.999886962890624,0.09957103431224823,0.036651913076639175,0.12339477986097336
1788679273517077800,9.016077880859376,0.10812314599752426,0.06658431142568588,0.14966198801994324
1788679273533298000,9.0322978515625,0.11667526513338089,0.03726277872920036,0.13744467496871948
1788679273549396200,9.048396240234375,0.09040805697441101,-0.012217304669320583,0.09040805697441101
1788679273565568300,9.064568359375,0.07147123664617538,-0.08918632566928864,0.05864306539297104
1788679273581700900,9.080700927734375,0.060475658625364304,-0.19058994948863983,0.06169738993048668
1788679273597889300,9.09688916015625,0.06352998316287994,-0.29138273000717163,0.07880161702632904
1788679273614109700,9.113109619140625,0.08002334833145142,-0.3170390725135803,0.08368854224681854
1788679273630216000,9.1292158203125,0.06169738993048668,-0.31581732630729675,0.07513642311096191
1788679273646385700,9.1453857421875,0.025656340643763542,-0.2767219543457031,0.051312681287527084
1788679273662520800,9.161520751953125,0.00733038317412138,-0.16798794269561768,0.04214970022439957
1788679273678709000,9.177708984375,-0.02932153269648552,-0.16493362188339233,-0.021380282938480377
1788679273694928400,9.193928466796875,-0.07208210229873657,-0.20952677726745605,-0.1771509200334549
1788679273711039500,9.21003955078125,-0.18020524084568024,-0.29565876722335815,-0.3805690407752991
1788679273727156000,9.226156005859375,-0.34513887763023376,-0.33108896017074585,-0.5009095072746277
1788679273743291100,9.242291015625,-0.5009095072746277,-0.0403171069920063,-0.42699480056762695
1788679273759420000,9.258419921875,-0.5613851547241211,0.3646865487098694,-0.13439035415649414
1788679273775637500,9.274637451171875,-0.46853363513946533,0.5571091175079346,0.1508837193250656
1788679273791787000,9.290787109375,-0.2272418737411499,0.4080579876899719,0.28038713335990906
1788679273807959800,9.306959716796875,0.025045474991202354,0.10445795953273773,0.2883284091949463
1788679273824093200,9.32309326171875,0.12828169763088226,-0.19120082259178162,0.25045475363731384
1788679273840214000,9.339214111328126,0.08307767659425735,-0.33597588539123535,0.17776179313659668
1788679273856363000,9.355363037109376,-0.007941247895359993,-0.33597588539123535,0.08918632566928864
1788679273872432000,9.37143212890625,-0.1313360333442688,-0.22418753802776337,-0.04581489413976669
1788679273888603400,9.387603271484375,-0.21380282938480377,-0.10873401165008545,-0.16859880089759827
1788679273904742400,9.403742431640625,-0.22968533635139465,-0.015271631069481373,-0.21380282938480377
1788679273920920600,9.419920654296876,-0.1966986060142517,0.04398229718208313,-0.1466076523065567
1788679273937143000,9.43614306640625,-0.1258382350206375,0.021991148591041565,-0.039095375686883926
1788679273953225200,9.45222509765625,-0.022602014243602753,-0.08002334833145142,0.03481931984424591
1788679273969398300,9.468398193359375,0.06841690838336945,-0.18325957655906677,0.07635815441608429
1788679273985535200,9.48453515625,0.12278391420841217,-0.23518311977386475,0.10201449692249298
1788679274001721600,9.5007216796875,0.10018189996480942,-0.2028072625398636,0.0659734457731247
1788679274017942300,9.5169423828125,0.05314527451992035,-0.1472185254096985,-0.0403171069920063
1788679274034038500,9.53303857421875,0.031154127791523933,-0.1062905490398407,-0.13927727937698364
1788679274050210300,9.549210205078126,0.0354301854968071,-0.11484266817569733,-0.1771509200334549
1788679274066347800,9.56534765625,0.07330382615327835,-0.12889257073402405,-0.14294247329235077
1788679274082537200,9.581537109375,0.11667526513338089,-0.1007927656173706,-0.08429940044879913
1788679274098758400,9.59775830078125,0.16982053220272064,-0.004886921960860491,0.015882495790719986
1788679274114839300,9.61383935546875,0.20402899384498596,0.1014036312699318,0.11178833991289139
1788679274131009500,9.630009521484375,0.22418753802776337,0.10873401165008545,0.13316862285137177
1788679274147148500,9.6461484375,0.24495697021484375,0.05742133408784866,0.11728613078594208
1788679274163339000,9.662339111328125,0.24068090319633484,-0.07880161702632904,0.10323622822761536
1788679274179544300,9.67854443359375,0.2119702398777008,-0.16249015927314758,0.1270599663257599
1788679274195652000,9.694652099609375,0.22357667982578278,-0.15882496535778046,0.16982053220272064
1788679274211823600,9.71082373046875,0.26572638750076294,-0.09407325088977814,0.20586158335208893
1788679274227941000,9.726941162109375,0.313373863697052,0.11423180252313614,0.24556782841682434
1788679274244131300,9.74313134765625,0.28099802136421204,0.22968533635139465,0.19058994948863983
1788679274260358700,9.759358642578125,0.2272418737411499,0.1313360333442688,-0.001832595793530345
1788679274276478700,9.775478759765624,0.16554448008537292,-0.12522737681865692,-0.20036379992961884
1788679274292648700,9.791648681640625,0.08857546001672745,-0.37629300355911255,-0.25045475363731384
1788679274308821800,9.80782177734375,0.015271631069481373,-0.3683517575263977,-0.11728613078594208
1788679274324999400,9.82399951171875,0.02687807008624077,-0.21013765037059784,0.08491026610136032
1788679274341249000,9.8402490234375,0.11239920556545258,-0.08002334833145142,0.2321287989616394
1788679274357364500,9.856364501953125,0.18570303916931152,-0.06475171446800232,0.16004669666290283
1788679274373536500,9.87253662109375,0.2376265823841095,-0.11301007121801376,0.005497787147760391
1788679274389666800,9.888666748046875,0.24373523890972137,-0.18875735998153687,-0.08674286305904388
1788679274405853200,9.904853271484376,0.2028072625398636,-0.23090706765651703,-0.09285151958465576
1788679274422101000,9.92110107421875,0.14416420459747314,-0.22846360504627228,-0.08307767659425735
1788679274438189600,9.937189453125,0.08429940044879913,-0.15882496535778046,-0.09712757170200348
1788679274454358800,9.95335888671875,0.039095375686883926,-0.042760565876960754,-0.11301007121801376
1788679274470494500,9.969494384765625,0.018936822190880775,0.07880161702632904,-0.09407325088977814
1788679274486681600,9.985681640625,0.04214970022439957,0.13988813757896423,-0.014049900695681572
1788679274502904300,10.001904296875,0.09773843735456467,0.1319468915462494,0.10018189996480942
1788679274518998300,10.017998291015624,0.1618792861700058,0.059864792972803116,0.192422553896904
1788679274535171800,10.034171875,0.22540926933288574,-0.010995574295520782,0.2528982162475586
1788679274551299000,10.050299072265625,0.24862214922904968,-0.08368854224681854,0.26572638750076294
1788679274567480600,10.06648046875,0.22540926933288574,-0.16859880089759827,0.21930062770843506
1788679274583670800,10.0826708984375,0.19120082259178162,-0.2431243658065796,0.13927727937698364
1788679274599778000,10.098778076171875,0.14355333149433136,-0.26450464129447937,0.07147123664617538
1788679274615947800,10.11494775390625,0.09957103431224823,-0.22418753802776337,0.0757472887635231
1788679274632083700,10.131083740234375,0.07635815441608429,-0.15393804013729095,0.12889257073402405
1788679274648269800,10.147269775390624,0.07819075137376785,-0.06658431142568588,0.1716531366109848
1788679274664486700,10.163486572265626,0.06780604273080826,-0.02626720629632473,0.17592918872833252
1788679274680603400,10.179603271484375,0.03420845419168472,-0.02626720629632473,0.14905111491680145
1788679274696772900,10.19577294921875,-0.0024434609804302454,-0.039706241339445114,0.12339477986097336
1788679274712908800,10.21190869140625,-0.025045474991202354,-0.13500121235847473,0.11239920556545258
1788679274729119500,10.228119384765625,-0.033597588539123535,-0.21991148591041565,0.11484266817569733
1788679274745339400,10.24433935546875,-0.0403171069920063,-0.25595253705978394,0.11056660860776901
1788679274761413400,10.260413330078125,-0.019547687843441963,-0.2174680233001709,0.10201449692249298
1788679274777583600,10.27658349609375,0.0024434609804302454,-0.20036379992961884,0.08735372871160507
1788679274793720800,10.292720947265625,0.015271631069481373,-0.17409659922122955,0.06902777403593063
1788679274809908700,10.30890869140625,0.0012217304902151227,-0.18509216606616974,0.00427605677396059
1788679274826125600,10.32512548828125,-0.05619960278272629,-0.24862214922904968,-0.11545353382825851
1788679274842200300,10.341200439453125,-0.1618792861700058,-0.313373863697052,-0.3084869384765625
1788679274858371000,10.35737109375,-0.3029891550540924,-0.3677408695220947,-0.5027421116828918
1788679274874508000,10.373508056640626,-0.43737950921058655,-0.18997909128665924,-0.588263213634491
1788679274890698000,10.389697998046875,-0.4642575979232788,0.16920967400074005,-0.4434881806373596
1788679274906915300,10.405915283203125,-0.3683517575263977,0.3640756905078888,-0.17898350954055786
1788679274923037700,10.42203759765625,-0.16737708449363708,0.2565633952617645,0.03848451003432274
1788679274939208200,10.438208251953125,0.033597588539123535,0.05192354694008827,0.17592918872833252
1788679274955339300,10.45433935546875,0.16371189057826996,-0.1966986060142517,0.2974913716316223
1788679274971527000,10.47052685546875,0.16371189057826996,-0.32070425152778625,0.32070425152778625
1788679274987747000,10.4867470703125,0.09529497474431992,-0.29565876722335815,0.2376265823841095
1788679275003845600,10.502845703125,-0.04214970022439957,-0.17104226350784302,0.09712757170200348
1788679275020019000,10.51901904296875,-0.192422553896904,-0.08857546001672745,-0.04337143152952194
1788679275036154000,10.535154052734375,-0.2816088795661926,-0.030543262138962746,-0.13500121235847473
1788679275052339200,10.551339111328126,-0.2816088795661926,0.01771509274840355,-0.13011430203914642
1788679275068561700,10.567561767578125,-0.24190263450145721,0.05253441259264946,-0.0555887371301651
1788679275084665000,10.5836650390625,-0.1973094791173935,0.024434609338641167,0.01466076634824276
1788679275100836000,10.599836181640624,-0.17287486791610718,-0.05925392732024193,0.05497787147760391
1788679275116972500,10.61597265625,-0.14416420459747314,-0.13927727937698364,0.04337143152952194
1788679275133160700,10.63216064453125,-0.10995574295520782,-0.16249015927314758,0.006719517521560192
1788679275149381600,10.648381591796875,-0.08491026610136032,-0.13805554807186127,-0.036651913076639175
1788679275165495000,10.6644951171875,-0.11056660860776901,-0.10934487730264664,-0.06902777403593063
1788679275181664500,10.68066455078125,-0.152105450630188,-0.09040805697441101,-0.08735372871160507
1788679275197800200,10.69680029296875,-0.1667662113904953,-0.0861319974064827,-0.08124507963657379
1788679275213988000,10.712988037109374,-0.14049901068210602,-0.021380282938480377,-0.010995574295520782
1788679275230224100,10.72922412109375,-0.05375614017248154,0.07635815441608429,0.0959058403968811
1788679275246325500,10.745325439453126,0.05192354694008827,0.14782938361167908,0.16432274878025055
1788679275262496800,10.761496826171875,0.13377949595451355,0.16554448008537292,0.17776179313659668
1788679275278634800,10.777634765625,0.17776179313659668,0.09346238523721695,0.15882496535778046
1788679275294822700,10.79382275390625,0.18814650177955627,0.01038470957428217,0.14905111491680145
1788679275311067100,10.810067138671876,0.19425514340400696,-0.02932153269648552,0.15943582355976105
1788679275327141600,10.8261416015625,0.22113321721553802,-0.009162978269159794,0.20525072515010834
1788679275343313700,10.842313720703125,0.22418753802776337,0.14233160018920898,0.24678955972194672
1788679275359454000,10.858453857421875,0.17592918872833252,0.2370157092809677,0.17531833052635193
1788679275375640800,10.874640869140626,0.10751228034496307,0.1466076523065567,-0.04886921867728233
1788679275391894300,10.890894287109376,0.03848451003432274,-0.08918632566928864,-0.3029891550540924
1788679275407990300,10.906990234375,-0.013439035043120384,-0.26450464129447937,-0.4001167416572571
1788679275424162000,10.923162109375,-0.028099801391363144,-0.21013765037059784,-0.2993239760398865
1788679275440308000,10.939307861328125,0.01710422709584236,-0.006108652334660292,-0.0354301854968071
1788679275456491800,10.95549169921875,0.1111774742603302,0.07024950534105301,0.14477506279945374
1788679275472710400,10.97171044921875,0.21930062770843506,-0.06536258012056351,0.11301007121801376
1788679275488844000,10.987843994140626,0.2840523421764374,-0.26939156651496887,0.014049900695681572
1788679275505013800,11.004013671875,0.251676470041275,-0.3903428912162781,-0.021380282938480377
1788679275521151000,11.02015087890625,0.1771509200334549,-0.3891211748123169,-0.0024434609804302454
1788679275537337000,11.036337158203125,0.10384709388017654,-0.32070425152778625,0.006108652334660292
1788679275553559800,11.052559814453126,0.05375614017248154,-0.25106561183929443,-0.018325956538319588
1788679275569667800,11.068667724609375,0.03298672288656235,-0.21563543379306793,-0.033597588539123535
1788679275585840400,11.08484033203125,0.012217304669320583,-0.21380282938480377,0.007941247895359993
1788679275601977900,11.100977783203126,0.01038470957428217,-0.15332718193531036,0.059864792972803116
1788679275618167000,11.1171669921875,0.02932153269648552,-0.06414084881544113,0.11484266817569733
1788679275634387200,11.13338720703125,0.05253441259264946,-0.009773843921720982,0.1814269721508026
1788679275650503200,11.149503173828125,0.10018189996480942,0.02871066704392433,0.24556782841682434
1788679275666678300,11.16567822265625,0.1466076523065567,0.00427605677396059,0.28038713335990906
1788679275682816500,11.18181640625,0.1716531366109848,-0.08552113175392151,0.26572638750076294
1788679275699003400,11.19800341796875,0.16493362188339233,-0.20097467303276062,0.20952677726745605
1788679275715221000,11.214220947265625,0.1160643994808197,-0.23945917189121246,0.1459967941045761
1788679275731340800,11.2303408203125,0.04214970022439957,-0.1820378452539444,0.12034045159816742
1788679275747511300,11.24651123046875,-0.02076941914856434,-0.09834930300712585,0.11850785464048386
1788679275763649500,11.2626494140625,-0.03420845419168472,-0.04886921867728233,0.11362093687057495
1788679275779836200,11.278836181640624,-0.01771509274840355,-0.05619960278272629,0.11239920556545258
1788679275796057900,11.295057861328125,-0.00427605677396059,-0.1014036312699318,0.11789698898792267
1788679275812143600,11.3111435546875,0.00855211354792118,-0.19058994948863983,0.11423180252313614
1788679275828314000,11.327314208984374,0.019547687843441963,-0.2779437005519867,0.0659734457731247
1788679275844450600,11.343450439453125,0.00855211354792118,-0.32070425152778625,0
1788679275860635600,11.3596357421875,-0.04764748737215996,-0.2535090744495392,-0.039706241339445114
1788679275876852500,11.3758525390625,-0.09162978827953339,-0.08552113175392151,0.009162978269159794
1788679275892972500,11.39197265625,-0.1362229436635971,0.01710422709584236,0.06963863968849182
1788679275909145900,11.408145751953125,-0.15821409225463867,-0.056810468435287476,-0.02626720629632473
1788679275925286000,11.424285888671875,-0.16554448008537292,-0.23579397797584534,-0.15882496535778046
1788679275941474300,11.440474365234374,-0.2535090744495392,-0.4184426963329315,-0.28955012559890747
1788679275957702700,11.45670263671875,-0.34147366881370544,-0.2583959996700287,-0.24129177629947662
1788679275973840000,11.47283984375,-0.3689626157283783,0.10262536257505417,-0.007941247895359993
1788679275990010000,11.489010009765625,-0.3323107063770294,0.2987131178379059,0.14294247329235077
1788679276006183000,11.505182861328125,-0.20525072515010834,0.2791654169559479,0.08857546001672745
1788679276022375000,11.521375,-0.06902777403593063,0.03176499158143997,-0.02076941914856434
1788679276038607600,11.537607666015624,-0.0024434609804302454,-0.2974913716316223,-0.12461651116609573
1788679276054713000,11.553713134765625,0.02932153269648552,-0.455705463886261,-0.17409659922122955
1788679276070889500,11.569889404296875,0.016493361443281174,-0.403781920671463,-0.17043140530586243
1788679276087029000,11.586029052734375,-0.013439035043120384,-0.23884831368923187,-0.12461651116609573
1788679276103218700,11.60221875,-0.029932396486401558,-0.060475658625364304,-0.07024950534105301
1788679276119443500,11.618443359375,-0.029932396486401558,0.05192354694008827,-0.054367005825042725
1788679276135555000,11.63455517578125,0.00366519158706069,0.07269296050071716,-0.0659734457731247
1788679276151726600,11.6507265625,0.02932153269648552,-0.004886921960860491,-0.0757472887635231
1788679276167901000,11.66690087890625,0.04581489413976669,-0.04764748737215996,-0.05009094998240471
1788679276184090600,11.683090576171875,0.06414084881544113,-0.056810468435287476,0.006108652334660292
1788679276200330000,11.699330078125,0.060475658625364304,-0.10873401165008545,0.02626720629632473
1788679276216440800,11.71544091796875,0.05925392732024193,-0.12889257073402405,-0.0006108652451075613
1788679276232605000,11.73160498046875,0.059864792972803116,-0.13072516024112701,-0.02382374368607998
1788679276248748800,11.747748779296876,0.0861319974064827,-0.11911872029304504,-0.0024434609804302454
1788679276264920600,11.763920654296875,0.1270599663257599,-0.05314527451992035,0.0659734457731247
1788679276281169000,11.7801689453125,0.18448130786418915,0.04581489413976669,0.14782938361167908
1788679276297244200,11.796244140625,0.24434609711170197,0.09346238523721695,0.17898350954055786
1788679276313350400,11.812350341796876,0.32681289315223694,0.10323622822761536,0.1716531366109848
1788679276329487400,11.8284873046875,0.37568211555480957,0.07819075137376785,0.17959438264369965
1788679276345655600,11.844655517578126,0.3982841372489929,0.05375614017248154,0.25045475363731384
1788679276361929200,11.86092919921875,0.42638394236564636,0.030543262138962746,0.3243694305419922
1788679276378017000,11.87701708984375,0.49357911944389343,0.05375614017248154,0.37568211555480957
1788679276394191400,11.89319140625,0.5571091175079346,0.12889257073402405,0.47280970215797424
1788679276410332400,11.90933251953125,0.5619960427284241,0.1466076523065567,0.5687155723571777
1788679276426522000,11.925522216796875,0.5112941861152649,-0.04153883829712868,0.5613851547241211
1788679276442744800,11.941744873046876,0.45875978469848633,-0.2791654169559479,0.34147366881370544
1788679276458838800,11.9578388671875,0.44226643443107605,-0.475253164768219,0.1319468915462494
1788679276475012400,11.974012451171875,0.33475416898727417,-0.7446447610855103,0.1014036312699318
1788679276491183600,11.99018359375,0.19058994948863983,-0.9065240025520325,0.09162978827953339
1788679276507373000,12.006373046875,0.11301007121801376,-0.7073819637298584,0.05192354694008827
1788679276523591700,12.022591796875,0.05497787147760391,-0.24190263450145721,0.036041051149368286
1788679276539740000,12.038739990234374,-0.04459316283464432,0.08491026610136032,-0.021991148591041565
1788679276555911700,12.05491162109375,-0.20525072515010834,0.28955012559890747,-0.14477506279945374
1788679276572050700,12.07105078125,-0.3903428912162781,0.21074850857257843,-0.26022860407829285
1788679276588240000,12.087239990234375,-0.4948008358478546,0.021380282938480377,-0.30604347586631775
1788679276604435200,12.103435302734376,-0.5149593949317932,-0.10751228034496307,-0.24862214922904968
1788679276620555000,12.119554931640625,-0.543059229850769,-0.1215621829032898,-0.08552113175392151
1788679276636632600,12.135632568359375,-0.5552765130996704,-0.05375614017248154,0.11911872029304504
1788679276652797000,12.151796875,-0.5534439086914062,0.025045474991202354,0.23945917189121246
1788679276668963600,12.167963623046875,-0.5241223573684692,0.04214970022439957,0.19425514340400696
1788679276685185300,12.184185302734376,-0.4196644127368927,-0.06536258012056351,0.04948008432984352
1788679276701295400,12.20029541015625,-0.24923302233219147,-0.12217304855585098,0.07819075137376785
1788679276717466000,12.216466064453124,-0.1007927656173706,-0.11667526513338089,0.34636059403419495
1788679276733603000,12.23260302734375,-0.036041051149368286,-0.14538592100143433,0.6133087277412415
1788679276749791200,12.248791259765625,-0.051312681287527084,-0.31031954288482666,0.5247332453727722
1788679276766012400,12.265012451171875,-0.031154127791523933,-0.4196644127368927,0.1258382350206375
1788679276782131200,12.281131103515625,-0.0403171069920063,-0.3194825351238251,-0.08735372871160507
1788679276798305800,12.297305908203125,-0.18448130786418915,-0.09040805697441101,-0.09896016865968704
1788679276814439000,12.31343896484375,-0.31093040108680725,0.21624629199504852,-0.13255776464939117
1788679276830605800,12.329605712890626,-0.32070425152778625,0.4105014503002167,-0.2767219543457031
1788679276846816000,12.34581591796875,-0.23151792585849762,0.4245513379573822,-0.4343251883983612
1788679276862913500,12.36191357421875,-0.1716531366109848,-0.012828170321881771,-0.6530149579048157
1788679276879086800,12.3780869140625,-0.07819075137376785,-0.47280970215797424,-0.7489207983016968
1788679276895260400,12.394260498046876,0.02076941914856434,-0.5607742667198181,-0.5668829679489136
1788679276911451100,12.410451171875,0.12217304855585098,-0.22418753802776337,-0.1319468915462494
1788679276927682000,12.42668212890625,0.2168571650981903,0.14416420459747314,0.20830504596233368
1788679276943823400,12.4428232421875,0.2981022298336029,0.1869247704744339,0.1973094791173935
1788679276959996000,12.458995849609375,0.38240164518356323,-0.13866640627384186,-0.042760565876960754
1788679276976126000,12.4751259765625,0.5198463201522827,-0.2767219543457031,-0.00733038317412138
1788679276992319000,12.491319091796875,0.6737843751907349,-0.08429940044879913,0.4996877610683441
1788679277008541200,12.507541259765626,0.7586946487426758,0.09346238523721695,0.9926560521125793
1788679277024658200,12.523658203125,0.8136724829673767,0.005497787147760391,1.0005972385406494
1788679277040813800,12.539813720703124,0.9297369122505188,-0.2816088795661926,0.5772676467895508
1788679277056940000,12.55593994140625,0.9969320893287659,-0.6603453159332275,0.21135938167572021
1788679277073036500,12.57203662109375,0.8356636762619019,-0.6811147332191467,0.15271630883216858
1788679277089217000,12.588217041015625,0.5174028873443604,-0.1062905490398407,0.1319468915462494
1788679277105192000,12.60419189453125,0.13988813757896423,0.0910189226269722,-0.20463985204696655
1788679277121266400,12.620266357421874,-0.23396138846874237,-0.646906316280365,-0.8912523984909058
1788679277137401900,12.63640185546875,-0.49296826124191284,-1.2657127380371094,-1.4899003505706787
1788679277153594400,12.652594482421875,-0.5210680365562439,-1.0134254693984985,-1.236391305923462
1788679277169833000,12.6688330078125,-0.3903428912162781,-0.08429940044879913,-0.36224308609962463
1788679277185990100,12.684990234375,-0.2174680233001709,0.6963863968849182,0.36651915311813354
1788679277202161400,12.701161376953126,-0.05375614017248154,0.9169087409973145,0.5998696684837341
1788679277218325000,12.717324951171875,-0.05253441259264946,0.636521577835083,0.5106833577156067
1788679277234520800,12.733520751953124,-0.22052235901355743,0.02871066704392433,0.32681289315223694
1788679277250773200,12.749773193359376,-0.44654250144958496,-0.4789183437824249,0.24373523890972137
1788679277266890500,12.765890380859375,-0.5320636034011841,-0.5571091175079346,0.33536502718925476
1788679277283063300,12.782063232421875,-0.5448917746543884,-0.3078760802745819,0.5491678714752197
1788679277299197200,12.798197265625,-0.513737678527832,0.07696902006864548,0.6902777552604675
1788679277315385600,12.814385498046875,-0.44776421785354614,0.1918116807937622,0.588263213634491
1788679277331629000,12.830629150390624,-0.29016098380088806,0.07391469180583954,0.3072652220726013
1788679277347757600,12.846757568359376,-0.12522737681865692,-0.251676470041275,0.022602014243602753
1788679277363930000,12.86293017578125,0.09407325088977814,-0.5503895878791809,0.02626720629632473
1788679277380105700,12.879105712890626,0.04337143152952194,-0.23579397797584534,0.21380282938480377
1788679277396293600,12.895293701171875,-0.08857546001672745,0.30604347586631775,0.4648684561252594
1788679277412513800,12.911513671875,-0.1771509200334549,0.45814892649650574,0.3634648323059082
1788679277428665900,12.927665771484374,-0.15027284622192383,0.3701843321323395,-0.0555887371301651
1788679277444840400,12.94384033203125,-0.08674286305904388,0.01466076634824276,-0.5253441333770752
1788679277461016600,12.9600166015625,0.01038470957428217,-0.192422553896904,-0.6927211880683899
1788679277477175600,12.976175537109375,0.10201449692249298,-0.09162978827953339,-0.3988949954509735
1788679277493398500,12.9923984375,0.1563815027475357,0.14538592100143433,0.08307767659425735
1788679277509469200,13.00846923828125,0.17470745742321014,0.22846360504627228,0.34574973583221436
1788679277525530600,13.024530517578125,0.23273965716362,0.11789698898792267,0.34208452701568604
1788679277541689900,13.04068994140625,0.313373863697052,-0.10934487730264664,0.14966198801994324
1788679277557878800,13.056878662109375,0.342695415019989,-0.31520646810531616,0.03237585723400116
1788679277574103000,13.07310302734375,0.2822197377681732,-0.3549126982688904,0.08185594528913498
1788679277590229000,13.08922900390625,0.22663100063800812,-0.24617868661880493,0.294437050819397
1788679277606401500,13.105401611328125,0.20341812074184418,-0.08735372871160507,0.5424483418464661
1788679277622538200,13.121538330078126,0.18814650177955627,-0.04642575979232788,0.5687155723571777
1788679277638726100,13.13772607421875,0.27000242471694946,0.03237585723400116,0.3830125033855438
1788679277654948000,13.153947998046876,0.3836233615875244,0.19608774781227112,0.19425514340400696
1788679277671027500,13.17002734375,0.4239404797554016,0.039095375686883926,0.08979719132184982
1788679277687196400,13.186196533203125,0.4495968222618103,-0.3677408695220947,0.056810468435287476
1788679277703366000,13.202365966796876,0.45326200127601624,-0.5668829679489136,0.05925392732024193
1788679277719552500,13.218552490234375,0.4300491213798523,-0.44776421785354614,0.045204028487205505
1788679277735770600,13.2347705078125,0.42577308416366577,-0.3646865487098694,-0.10873401165008545
1788679277751851800,13.250851806640625,0.3597996234893799,-0.598647952079773,-0.41233405470848083
1788679277768022300,13.267022216796875,0.21319197118282318,-0.9028588533401489,-0.7733554244041443
1788679277784192800,13.28319287109375,0.05803219974040985,-0.5412266254425049,-0.7379252314567566
1788679277800379600,13.299379638671875,-0.1062905490398407,0.0708603709936142,-0.5064072608947754
1788679277816508200,13.315508056640626,-0.10018189996480942,0.5589417219161987,-0.40256020426750183
1788679277832634600,13.331634521484375,0.05314527451992035,0.7195992469787598,-0.3891211748123169
1788679277848807400,13.347807373046875,0.14416420459747314,0.4801400899887085,-0.43676865100860596
1788679277864934100,13.36393408203125,0.18387043476104736,0.1661553531885147,-0.42271876335144043
1788679277881125400,13.38012548828125,0.182648703455925,-0.07819075137376785,-0.23884831368923187
1788679277897344000,13.396343994140626,0.09834930300712585,-0.1319468915462494,0.06230825558304787
1788679277913447700,13.41244775390625,-0.015271631069481373,-0.06475171446800232,0.2968805134296417
1788679277929609000,13.42860888671875,-0.06902777403593063,0.039095375686883926,0.3885102868080139
1788679277945749800,13.444749755859375,-0.0403171069920063,0.08368854224681854,0.36713001132011414
1788679277961940500,13.4609404296875,0.036651913076639175,0.08491026610136032,0.3494149148464203
1788679277978164000,13.4771640625,0.07635815441608429,0.10812314599752426,0.44165557622909546
1788679277994281700,13.49328173828125,0.04703662544488907,0.0708603709936142,0.5455026626586914
1788679278010453800,13.509453857421875,-0.025656340643763542,-0.05742133408784866,0.5589417219161987
1788679278026592000,13.525592041015624,-0.11667526513338089,-0.21380282938480377,0.39706242084503174
1788679278042779100,13.541779052734375,-0.17348572611808777,-0.19058994948863983,0.2076941877603531
1788679278059012400,13.558012451171875,-0.24556782841682434,-0.019547687843441963,0.05192354694008827
1788679278075133700,13.5741337890625,-0.313373863697052,0.24190263450145721,-0.06658431142568588
1788679278091305200,13.59030517578125,-0.3885102868080139,0.34574973583221436,-0.2370157092809677
1788679278107445500,13.606445556640624,-0.44837507605552673,0.31459560990333557,-0.4251621961593628
1788679278123633000,13.6226328125,-0.5271766781806946,0.11789698898792267,-0.6713408827781677
1788679278139868700,13.63886865234375,-0.5442809462547302,-0.28527405858039856,-0.8509352803230286
1788679278155979000,13.65497900390625,-0.4856378734111786,-0.4153883755207062,-0.7183775305747986
1788679278172148500,13.6711484375,-0.37140607833862305,-0.10262536257505417,-0.2272418737411499
1788679278188319200,13.6873193359375,-0.28527405858039856,0.23273965716362,0.242513507604599
1788679278204504000,13.703504150390625,-0.16432274878025055,0.3078760802745819,0.38667771220207214
1788679278220756000,13.719755859375,0.019547687843441963,0.18814650177955627,0.3170390725135803
1788679278236872200,13.7358720703125,0.09896016865968704,-0.015271631069481373,0.20341812074184418
1788679278253040600,13.75204052734375,0.07757988572120667,-0.23640485107898712,0.08307767659425735
1788679278269170700,13.768170654296876,-0.00366519158706069,-0.40133845806121826,-0.02076941914856434
1788679278285359900,13.78435986328125,-0.10445795953273773,-0.5021312236785889,-0.11178833991289139
1788679278301576400,13.800576416015625,-0.18936823308467865,-0.4856378734111786,-0.16004669666290283
1788679278317670700,13.816670654296875,-0.182648703455925,-0.34208452701568604,-0.1466076523065567
1788679278333842000,13.832842041015626,-0.10262536257505417,-0.13866640627384186,-0.0806342139840126
1788679278349978600,13.848978515625,-0.048258353024721146,0.04948008432984352,-0.02871066704392433
1788679278366166000,13.865166015625,-0.03848451003432274,0.11728613078594208,-0.004886921960860491
1788679278382384400,13.88138427734375,-0.02687807008624077,0.08674286305904388,0.00733038317412138
1788679278398489600,13.897489501953125,0.02687807008624077,-0.02382374368607998,0.010995574295520782
1788679278414658800,13.913658935546875,0.08857546001672745,-0.06963863968849182,0.04398229718208313
1788679278430793500,13.92979345703125,0.0861319974064827,-0.1014036312699318,0.056810468435287476
1788679278446979300,13.945979248046875,0.04948008432984352,-0.09407325088977814,0.029932396486401558
1788679278463198200,13.9621982421875,-0.02076941914856434,-0.1270599663257599,-0.06291911751031876
1788679278479315200,13.978315185546874,-0.07024950534105301,-0.12400564551353455,-0.13927727937698364
1788679278495488000,13.994488037109376,-0.09224065393209457,-0.039095375686883926,-0.16432274878025055
1788679278511625700,14.010625732421875,-0.0806342139840126,0.03848451003432274,-0.12461651116609573
1788679278527815400,14.0268154296875,-0.014049900695681572,0.059864792972803116,-0.02932153269648552
1788679278544035800,14.043035888671875,0.08857546001672745,0.04703662544488907,0.11789698898792267
1788679278560153600,14.059153564453124,0.16920967400074005,0.022602014243602753,0.23945917189121246
1788679278576325600,14.07532568359375,0.24068090319633484,0.02382374368607998,0.27611109614372253
1788679278592464600,14.091464599609376,0.30543261766433716,0.06963863968849182,0.28527405858039856
1788679278608655600,14.107655517578126,0.33108896017074585,0.10690141469240189,0.2822197377681732
1788679278624879400,14.12387939453125,0.3219259977340698,0.18631389737129211,0.25534167885780334
1788679278640954600,14.13995458984375,0.30543261766433716,0.29138273000717163,0.14844025671482086
1788679278657129500,14.15612939453125,0.28099802136421204,0.21380282938480377,-0.030543262138962746
1788679278673269200,14.172269287109375,0.2070833146572113,-0.07147123664617538,-0.2431243658065796
1788679278689458700,14.188458740234376,0.11850785464048386,-0.4080579876899719,-0.4190535545349121
1788679278705709300,14.204709228515625,0.04337143152952194,-0.4740314185619354,-0.40683624148368835
1788679278721830700,14.22083056640625,0.01160643994808197,-0.2541199326515198,-0.21624629199504852
1788679278737996000,14.23699609375,0.0354301854968071,0.14538592100143433,0.051312681287527084
1788679278754168800,14.2531689453125,0.10873401165008545,0.3225368559360504,0.152105450630188
1788679278770381800,14.2693818359375,0.192422553896904,0.22296582162380219,0.09529497474431992
1788679278786602800,14.285602783203124,0.22602014243602753,0.04337143152952194,-0.00366519158706069
1788679278802730000,14.30172998046875,0.18997909128665924,-0.13072516024112701,-0.09896016865968704
1788679278818904000,14.317904052734375,0.14477506279945374,-0.23273965716362,-0.1472185254096985
1788679278835042000,14.3340419921875,0.1111774742603302,-0.21563543379306793,-0.1618792861700058
1788679278851215400,14.35021533203125,0.07391469180583954,-0.10934487730264664,-0.17898350954055786
1788679278867435300,14.366435302734375,0.039095375686883926,0.007941247895359993,-0.1875356286764145
1788679278883532500,14.382532470703126,0.0012217304902151227,0.16493362188339233,-0.1319468915462494
1788679278899701000,14.398700927734374,-0.02382374368607998,0.18020524084568024,-0.05619960278272629
1788679278915836200,14.414836181640625,-0.0012217304902151227,0.07452555745840073,0.0012217304902151227
1788679278932023000,14.43102294921875,0.03848451003432274,-0.004886921960860491,0.04153883829712868
1788679278948252700,14.447252685546875,0.06780604273080826,-0.07757988572120667,0.08552113175392151
1788679278964360000,14.46335986328125,0.10262536257505417,-0.08552113175392151,0.13866640627384186
1788679278980534000,14.479533935546876,0.12095131725072861,-0.04459316283464432,0.1563815027475357
1788679278996674000,14.495674072265626,0.10751228034496307,-0.05803219974040985,0.11484266817569733
1788679279012863000,14.511863037109375,0.07513642311096191,-0.03237585723400116,0.0861319974064827
1788679279029089300,14.52808935546875,0.027488935738801956,-0.009773843921720982,0.13988813757896423
1788679279045210600,14.544210693359375,0.02687807008624077,0.1667662113904953,0.031154127791523933
1788679279061385000,14.560385009765625,0.05314527451992035,-0.6817256212234497,-0.2119702398777008
1788679279077558300,14.576558349609375,0.05803219974040985,-0.2687807083129883,-0.16859880089759827
1788679279093747500,14.59274755859375,-0.033597588539123535,-0.07880161702632904,0.1618792861700058
1788679279109985800,14.60898583984375,-0.1973094791173935,0.10506882518529892,0.3677408695220947
1788679279126099200,14.62509912109375,-0.28649580478668213,0.07513642311096191,0.2528982162475586
1788679279142271000,14.64127099609375,-0.1966986060142517,-0.38728857040405273,-0.1814269721508026
1788679279158402300,14.65740234375,0.01466076634824276,-0.7373143434524536,-0.5002986192703247
1788679279174593300,14.67359326171875,0.08185594528913498,-0.6780604124069214,-0.42088615894317627
1788679279190843600,14.68984375,-0.012217304669320583,-0.30054569244384766,-0.033597588539123535
1788679279206962400,14.70596240234375,-0.11911872029304504,-0.025045474991202354,0.24068090319633484
1788679279223034000,14.7220341796875,-0.1472185254096985,-0.09834930300712585,0.1814269721508026
1788679279239208000,14.7382080078125,-0.14905111491680145,-0.24434609711170197,-0.08796459436416626
1788679279255399700,14.754399658203125,-0.20525072515010834,-0.3982841372489929,-0.36102136969566345
1788679279271622100,14.7706220703125,-0.2767219543457031,-0.2669481039047241,-0.41599923372268677
1788679279287750100,14.786750244140626,-0.2724458873271942,0.09529497474431992,-0.15393804013729095
1788679279303922700,14.802922607421875,-0.22113321721553802,0.28649580478668213,0.1411098688840866
1788679279320096800,14.8190966796875,-0.07513642311096191,0.23579397797584534,0.2993239760398865
1788679279336286200,14.8352861328125,0.08368854224681854,0.07024950534105301,0.32131510972976685
1788679279352507100,14.851507080078125,0.13439035415649414,-0.12034045159816742,0.26022860407829285
1788679279368609500,14.867609619140625,0.10567969083786011,-0.2064724564552307,0.16432274878025055
1788679279384781000,14.883781005859374,-0.005497787147760391,-0.19120082259178162,0.08552113175392151
1788679279400920000,14.899920166015624,-0.14294247329235077,-0.10995574295520782,0.054367005825042725
1788679279417106400,14.9161064453125,-0.2278527319431305,-0.02626720629632473,0.048258353024721146
1788679279433325800,14.932325927734375,-0.21319197118282318,0.04337143152952194,0.06536258012056351
1788679279449433600,14.94843359375,-0.15393804013729095,0.060475658625364304,0.08552113175392151
1788679279465602600,14.9646025390625,-0.12034045159816742,0.05192354694008827,0.10018189996480942
1788679279481738500,14.980738525390626,-0.10262536257505417,0.03787364438176155,0.11301007121801376
1788679279497925000,14.996925048828125,-0.08735372871160507,-0.014049900695681572,0.10262536257505417
1788679279514143500,15.0131435546875,-0.0555887371301651,-0.05619960278272629,0.07452555745840073
1788679279530263800,15.029263916015625,-0.0024434609804302454,-0.12767083942890167,0.02076941914856434
1788679279546434300,15.045434326171875,0.05192354694008827,-0.18997909128665924,-0.02321287989616394
1788679279562568200,15.061568115234374,0.08002334833145142,-0.1966986060142517,-0.01160643994808197
1788679279578757600,15.077757568359376,0.04948008432984352,-0.10506882518529892,0.033597588539123535
1788679279594978600,15.093978515625,-0.01771509274840355,-0.03176499158143997,0.027488935738801956
1788679279611063600,15.1100634765625,-0.09407325088977814,0.051312681287527084,-0.06780604273080826
1788679279627236400,15.126236328125,-0.1007927656173706,0.11178833991289139,-0.1771509200334549
1788679279643373600,15.14237353515625,-0.024434609338641167,0.16004669666290283,-0.17470745742321014
1788679279659559000,15.158558837890626,0.09162978827953339,0.10384709388017654,-0.06414084881544113
1788679279675777800,15.17477783203125,0.20463985204696655,-0.03420845419168472,0.07147123664617538
1788679279691865900,15.190865966796874,0.26145032048225403,-0.15882496535778046,0.1563815027475357
1788679279708038400,15.207038330078126,0.26572638750076294,-0.2028072625398636,0.16310101747512817
1788679279724175000,15.223175048828125,0.26511552929878235,-0.033597588539123535,0.15027284622192383
1788679279740367400,15.239367431640625,0.24617868661880493,0.18020524084568024,0.10751228034496307
1788679279756594000,15.255593994140625,0.2632829248905182,0.13866640627384186,-0.016493361443281174
1788679279772692700,15.271692626953126,0.3127630054950714,-0.06841690838336945,-0.10751228034496307
1788679279788866000,15.287865966796875,0.3170390725135803,-0.28527405858039856,-0.0507018156349659
1788679279805038600,15.30403857421875,0.2528982162475586,-0.24862214922904968,0.13439035415649414
1788679279821225000,15.320224853515626,0.26939156651496887,-0.059864792972803116,0.3646865487098694
1788679279837446700,15.33644677734375,0.27550023794174194,0.09468411654233932,0.4202753007411957
1788679279853587700,15.352587646484375,0.27000242471694946,0.13377949595451355,0.2926044464111328
1788679279869757200,15.368757080078124,0.23579397797584534,0.05375614017248154,0.06841690838336945
1788679279885888000,15.384887939453124,0.16493362188339233,-0.03787364438176155,-0.12400564551353455
1788679279902076000,15.401075927734375,0.07819075137376785,-0.12034045159816742,-0.21563543379306793
1788679279918301400,15.417301513671875,0.00733038317412138,-0.15821409225463867,-0.23640485107898712
1788679279934412000,15.433412109375,-0.007941247895359993,-0.15882496535778046,-0.22602014243602753
1788679279950582000,15.44958203125,0.014049900695681572,-0.12522737681865692,-0.21074850857257843
1788679279966718500,15.465718505859375,0.04764748737215996,-0.051312681287527084,-0.16004669666290283
1788679279982905900,15.48190576171875,0.08674286305904388,0.05803219974040985,-0.07635815441608429
1788679279999151600,15.498151611328124,0.11789698898792267,0.0806342139840126,0.01771509274840355
1788679280015274500,15.5142744140625,0.14905111491680145,0.03726277872920036,0.09773843735456467
1788679280031444500,15.530444580078125,0.18020524084568024,-0.036651913076639175,0.16554448008537292
1788679280047583000,15.5465830078125,0.2028072625398636,-0.08735372871160507,0.20463985204696655
1788679280063770000,15.56277001953125,0.19608774781227112,-0.15332718193531036,0.20097467303276062
1788679280080017000,15.579016845703125,0.16554448008537292,-0.22663100063800812,0.15271630883216858
1788679280096095500,15.595095458984375,0.13561208546161652,-0.28038713335990906,0.10751228034496307
1788679280112288800,15.611288818359375,0.08796459436416626,-0.2528982162475586,0.08552113175392151
1788679280128424700,15.6274248046875,0.04459316283464432,-0.15943582355976105,0.09285151958465576
1788679280144613400,15.64361328125,-0.0024434609804302454,-0.06291911751031876,0.08429940044879913
1788679280160864800,15.65986474609375,-0.04153883829712868,-0.028099801391363144,0.039706241339445114
1788679280176948200,15.6759482421875,-0.039095375686883926,-0.05803219974040985,0.03176499158143997
1788679280193122600,15.69212255859375,-0.01038470957428217,-0.1417207419872284,0.06230825558304787
1788679280209260300,15.70826025390625,0.02871066704392433,-0.24434609711170197,0.10018189996480942
1788679280225449200,15.72444921875,0.06108652427792549,-0.3341432809829712,0.11545353382825851
1788679280241668600,15.740668701171876,0.01466076634824276,-0.423329621553421,0.056810468435287476
1788679280257759500,15.756759521484375,-0.09651670604944229,-0.4300491213798523,-0.03420845419168472
1788679280273935400,15.772935302734375,-0.21380282938480377,-0.3830125033855438,-0.09896016865968704
1788679280290070800,15.78907080078125,-0.2816088795661926,-0.1973094791173935,-0.05864306539297104
1788679280306248400,15.80524853515625,-0.3194825351238251,-0.01466076634824276,0.0006108652451075613
1788679280322465800,15.8214658203125,-0.2932153046131134,0.03420845419168472,-0.0555887371301651
1788679280338569000,15.83756884765625,-0.25106561183929443,-0.05009094998240471,-0.15454891324043274
1788679280354743300,15.853743408203124,-0.2681698501110077,-0.1716531366109848,-0.251676470041275
1788679280370908200,15.869908203125,-0.2981022298336029,-0.0403171069920063,-0.1771509200334549
1788679280387097900,15.886097900390626,-0.3017674386501312,0.2174680233001709,0.029932396486401558
1788679280403323000,15.902322998046875,-0.27611109614372253,0.27977627515792847,0.20097467303276062
1788679280419439000,15.918439208984376,-0.1563815027475357,0.14049901068210602,0.26450464129447937
1788679280435611000,15.93461083984375,-0.019547687843441963,-0.022602014243602753,0.20341812074184418
1788679280451747000,15.9507470703125,0.04092797264456749,-0.13561208546161652,0.09773843735456467
1788679280467938600,15.9669384765625,0.04337143152952194,-0.1765400618314743,0.0006108652451075613
1788679280484160300,15.98316015625,-0.02626720629632473,-0.11301007121801376,-0.04703662544488907
1788679280500285200,15.99928515625,-0.0959058403968811,-0.00427605677396059,-0.03848451003432274
1788679280516460300,16.015460205078124,-0.09712757170200348,0.06658431142568588,-0.005497787147760391
1788679280532582100,16.03158203125,-0.04886921867728233,0.07513642311096191,0.018936822190880775
1788679280548746500,16.04774658203125,0.00733038317412138,0.0006108652451075613,0.05314527451992035
1788679280564949000,16.063948974609374,0.019547687843441963,-0.08796459436416626,0.09346238523721695
1788679280581003300,16.080003173828125,0.016493361443281174,-0.13377949595451355,0.15454891324043274
1788679280597175800,16.09617578125,0.027488935738801956,-0.13988813757896423,0.2125810980796814
1788679280613317000,16.112317138671877,0.05864306539297104,-0.11972958594560623,0.2028072625398636
1788679280629487400,16.1284873046875,0.11545353382825851,-0.04092797264456749,0.12889257073402405
1788679280645707000,16.14470703125,0.1612684279680252,-0.01160643994808197,0.05742133408784866
1788679280661801000,16.160801025390626,0.15760323405265808,-0.02382374368607998,0.025045474991202354
1788679280677974000,16.17697412109375,0.12095131725072861,-0.03237585723400116,0.03298672288656235
1788679280694113800,16.19311376953125,0.08674286305904388,-0.030543262138962746,0.05253441259264946
1788679280710304800,16.2093046875,0.0959058403968811,0.02076941914856434,0.06414084881544113
1788679280726524000,16.22552392578125,0.15882496535778046,0.1563815027475357,0.08002334833145142
1788679280742622000,16.2416220703125,0.23151792585849762,0.2889392673969269,0.1362229436635971
1788679280758792000,16.2577919921875,0.3017674386501312,0.3530801236629486,0.22479841113090515
1788679280774929000,16.273928955078127,0.3549126982688904,0.32070425152778625,0.29138273000717163
1788679280791115000,16.290114990234375,0.3640756905078888,0.1472185254096985,0.2638937830924988
1788679280807346200,16.30634619140625,0.35063666105270386,-0.001832595793530345,0.2217440903186798
1788679280823453400,16.322453369140625,0.32009339332580566,-0.05375614017248154,0.21502456068992615
1788679280839624400,16.33862451171875,0.2877175211906433,0.029932396486401558,0.23884831368923187
1788679280855764200,16.35476416015625,0.27611109614372253,0.2669481039047241,0.22968533635139465
1788679280871955200,16.370955078125,0.24617868661880493,0.3604104816913605,0.07208210229873657
1788679280888182500,16.3871826171875,0.21441370248794556,0.33536502718925476,-0.14049901068210602
1788679280904303600,16.4033037109375,0.16982053220272064,0.19853121042251587,-0.2822197377681732
1788679280920474600,16.419474609375,0.11667526513338089,-0.0757472887635231,-0.32681289315223694
1788679280936648200,16.435648193359373,0.10445795953273773,-0.23335053026676178,-0.24678955972194672
1788679280952837000,16.451837158203126,0.13561208546161652,-0.2076941877603531,-0.0507018156349659
1788679280969075000,16.468074951171875,0.17898350954055786,-0.1459967941045761,0.1270599663257599
1788679280985148700,16.484148681640626,0.2070833146572113,-0.08796459436416626,0.17287486791610718
1788679281001322500,16.500322509765624,0.22907446324825287,-0.08002334833145142,0.09529497474431992
1788679281017457400,16.51645751953125,0.22846360504627228,-0.07208210229873657,0.00366519158706069
1788679281033646600,16.532646484375,0.19120082259178162,-0.10201449692249298,-0.05864306539297104
1788679281049885000,16.548885009765623,0.15760323405265808,-0.192422553896904,-0.10201449692249298
1788679281065959200,16.564959228515626,0.12889257073402405,-0.19792033731937408,-0.11239920556545258
1788679281082133000,16.581133056640624,0.07696902006864548,-0.1062905490398407,-0.10873401165008545
1788679281098272500,16.5972724609375,0.0507018156349659,0.04764748737215996,-0.054367005825042725
1788679281114459600,16.613459716796875,0.04214970022439957,0.15577064454555511,0.02321287989616394
1788679281130717400,16.629717529296876,0.03726277872920036,0.21319197118282318,0.09040805697441101
1788679281146806500,16.645806640625,0.042760565876960754,0.14477506279945374,0.13377949595451355
1788679281162980600,16.661980712890625,0.07024950534105301,-0.009773843921720982,0.13744467496871948
1788679281179118300,16.678118408203126,0.08796459436416626,-0.08246681094169617,0.10690141469240189
1788679281195308800,16.694308837890624,0.07147123664617538,-0.13377949595451355,0.06719517707824707
1788679281211529200,16.710529296875,0.04398229718208313,-0.12278391420841217,0.09896016865968704
1788679281227626800,16.726626708984377,0.015271631069481373,0,0.18570303916931152
1788679281243797800,16.7427978515625,-0.010995574295520782,0.03481931984424591,0.20891591906547546
1788679281259936000,16.75893603515625,-0.06963863968849182,-0.11850785464048386,0.1459967941045761
1788679281276123000,16.775122802734376,-0.04398229718208313,-0.6304129362106323,-0.13866640627384186
1788679281292340200,16.79134033203125,-0.08429940044879913,-0.32131510972976685,-0.2217440903186798
1788679281308486400,16.807486328125,-0.15454891324043274,-0.06475171446800232,-0.0403171069920063
1788679281324655000,16.823655029296877,-0.2687807083129883,0.18509216606616974,0.23579397797584534
1788679281340785700,16.83978564453125,-0.30970868468284607,0.15027284622192383,0.26511552929878235
1788679281356970000,16.855969970703125,-0.26083946228027344,-0.152105450630188,0.03726277872920036
1788679281373188900,16.87218896484375,-0.09896016865968704,-0.6969972252845764,-0.2541199326515198
1788679281389305900,16.888305908203126,0.022602014243602753,-0.7660250067710876,-0.4153883755207062
1788679281405472000,16.904471923828126,0.028099801391363144,-0.5528330206871033,-0.34636059403419495
1788679281421647000,16.920647216796876,-0.018325956538319588,-0.24678955972194672,-0.02076941914856434
1788679281437834000,16.936833984375,-0.05314527451992035,-0.1612684279680252,0.1814269721508026
1788679281454052600,16.953052490234374,-0.05009094998240471,-0.28038713335990906,0.08429940044879913
1788679281470189800,16.96918994140625,-0.06291911751031876,-0.40194934606552124,-0.19120082259178162
1788679281486360600,16.985360595703124,-0.1661553531885147,-0.4245513379573822,-0.38117989897727966
1788679281502534700,17.00153466796875,-0.2968805134296417,-0.2687807083129883,-0.3952298164367676
1788679281518720300,17.01772021484375,-0.39156460762023926,0.07635815441608429,-0.24068090319633484
1788679281534939600,17.033939697265627,-0.4056145250797272,0.2926044464111328,-0.04398229718208313
1788679281551013600,17.050013671875,-0.31642818450927734,0.2638937830924988,0.06719517707824707
1788679281567185000,17.066184814453123,-0.16859880089759827,0.07941248267889023,0.1270599663257599
1788679281583315500,17.0823154296875,-0.07635815441608429,-0.10506882518529892,0.1417207419872284
1788679281599503400,17.09850341796875,-0.04337143152952194,-0.24190263450145721,0.0959058403968811
1788679281615720400,17.114720458984376,-0.05619960278272629,-0.23396138846874237,0.02687807008624077
1788679281631806000,17.130805908203126,-0.09285151958465576,-0.09285151958465576,-0.022602014243602753
1788679281647977000,17.14697705078125,-0.10812314599752426,0.00427605677396059,-0.013439035043120384
1788679281664114200,17.1631142578125,-0.06414084881544113,0,0.018325956538319588
1788679281680302300,17.17930224609375,0.00733038317412138,-0.04459316283464432,0.04764748737215996
1788679281696529700,17.19552978515625,0.05253441259264946,-0.0757472887635231,0.09407325088977814
1788679281712665600,17.21166552734375,0.04703662544488907,-0.18325957655906677,0.10873401165008545
1788679281728837400,17.22783740234375,0.016493361443281174,-0.17287486791610718,0.0959058403968811
1788679281745011700,17.24401171875,-0.0024434609804302454,-0.10873401165008545,0.04398229718208313
1788679281761174000,17.260174072265624,0.022602014243602753,-0.09407325088977814,-0.022602014243602753
1788679281777405200,17.2764052734375,0.03848451003432274,-0.15027284622192383,-0.08735372871160507
1788679281793513000,17.292512939453125,0.003054326167330146,-0.23151792585849762,-0.14477506279945374
1788679281809685200,17.308685302734375,-0.04153883829712868,-0.252287358045578,-0.18509216606616974
1788679281825824300,17.32482421875,-0.09529497474431992,-0.2278527319431305,-0.18875735998153687
1788679281842015000,17.341014892578126,-0.10262536257505417,-0.14538592100143433,-0.15027284622192383
1788679281858247400,17.357247314453126,-0.051312681287527084,-0.025045474991202354,-0.0959058403968811
1788679281874368800,17.37336865234375,0.0354301854968071,0.11972958594560623,-0.08552113175392151
1788679281890539300,17.389539306640625,0.1319468915462494,0.24923302233219147,-0.12034045159816742
1788679281906673200,17.405673095703126,0.20952677726745605,0.2528982162475586,-0.14477506279945374
1788679281922856400,17.4218564453125,0.26022860407829285,0.16004669666290283,-0.12339477986097336
1788679281939086800,17.4380869140625,0.3280346393585205,0.048258353024721146,-0.05375614017248154
1788679281955159300,17.4541591796875,0.4031710624694824,-0.054367005825042725,0.007941247895359993
1788679281971329500,17.47032958984375,0.44776421785354614,-0.016493361443281174,0.036041051149368286
1788679281987465000,17.48646484375,0.43188172578811646,0.1966986060142517,0.033597588539123535
1788679282003649500,17.5026494140625,0.3854559659957886,0.23457226157188416,-0.08796459436416626
1788679282019892500,17.518892578125,0.3500257730484009,0.10690141469240189,-0.2889392673969269
1788679282035973400,17.534973388671876,0.3072652220726013,-0.02321287989616394,-0.40622538328170776
1788679282052141000,17.55114111328125,0.26939156651496887,-0.11728613078594208,-0.37751471996307373
1788679282068312800,17.567312744140626,0.242513507604599,-0.08552113175392151,-0.16920967400074005
1788679282084499500,17.58349951171875,0.22846360504627228,0.025045474991202354,0.1111774742603302
1788679282100746500,17.59974658203125,0.2669481039047241,0.009162978269159794,0.21319197118282318
1788679282116872000,17.615871826171876,0.33536502718925476,-0.09529497474431992,0.12461651116609573
1788679282133042400,17.63204248046875,0.33719760179519653,-0.17776179313659668,0.00733038317412138
1788679282149170200,17.648170166015625,0.2541199326515198,-0.19303341209888458,-0.036651913076639175
1788679282165356300,17.664356201171874,0.15882496535778046,-0.19975294172763824,-0.039095375686883926
1788679282181574100,17.68057421875,0.07330382615327835,-0.17409659922122955,-0.0403171069920063
1788679282197670100,17.696670166015625,0.04398229718208313,-0.16310101747512817,-0.06169738993048668
1788679282213840000,17.71283984375,0.05375614017248154,-0.1417207419872284,-0.0757472887635231
1788679282229975600,17.7289755859375,0.05864306539297104,-0.16065755486488342,-0.08674286305904388
1788679282246161000,17.745160888671876,0.07269296050071716,-0.16493362188339233,-0.0507018156349659
1788679282262378000,17.7613779296875,0.04581489413976669,-0.1667662113904953,0.06108652427792549
1788679282278487600,17.777487548828127,-0.009773843921720982,-0.13011430203914642,0.15821409225463867
1788679282294655000,17.793655029296875,-0.00427605677396059,-0.0555887371301651,0.15393804013729095
1788679282310792200,17.809792236328125,0.1417207419872284,-0.2119702398777008,0.18020524084568024
1788679282326981600,17.825981689453126,0.1264491081237793,-0.15027284622192383,0.14477506279945374
1788679282343204000,17.8422041015625,0.12095131725072861,-0.16432274878025055,0.13988813757896423
1788679282359325000,17.858324951171873,0.1319468915462494,-0.20463985204696655,0.1514945775270462
1788679282375495700,17.87449560546875,0.09407325088977814,-0.2974913716316223,0.12950342893600464
1788679282391635500,17.890635498046876,0.08796459436416626,-0.3543018400669098,0.13011430203914642
1788679282407823000,17.906822998046874,0.08552113175392151,-0.2840523421764374,0.10812314599752426
1788679282424045000,17.923045166015626,0.09957103431224823,-0.10873401165008545,0.07696902006864548
1788679282440125000,17.939125,0.13255776464939117,0.03237585723400116,0.05925392732024193
1788679282456296200,17.955296142578124,0.17104226350784302,0.0806342139840126,0.07880161702632904
1788679282472434200,17.97143408203125,0.16737708449363708,-0.07696902006864548,0.06902777403593063
1788679282488620800,17.987620849609375,0.14294247329235077,-0.304210901260376,-0.0012217304902151227
1788679282504838700,18.003838623046875,0.10506882518529892,-0.4703662395477295,-0.07208210229873657
1788679282520928800,18.0199287109375,0.051312681287527084,-0.5143485069274902,-0.10201449692249298
1788679282537100800,18.036100830078126,0.029932396486401558,-0.46364670991897583,-0.08735372871160507
1788679282553236500,18.052236572265624,0.00733038317412138,-0.304210901260376,-0.09896016865968704
1788679282569422600,18.068422607421876,-0.056810468435287476,-0.22052235901355743,-0.19425514340400696
1788679282585641200,18.08464111328125,-0.20952677726745605,-0.2919935882091522,-0.36224308609962463
1788679282601734400,18.100734375,-0.4190535545349121,-0.3683517575263977,-0.5155702829360962
1788679282617901300,18.1169013671875,-0.5809328556060791,-0.13988813757896423,-0.45204028487205505
1788679282634069500,18.133069580078125,-0.6200281977653503,0.1661553531885147,-0.18387043476104736
1788679282650257000,18.1492568359375,-0.5180137157440186,0.30115658044815063,0.06414084881544113
1788679282666477300,18.165477294921875,-0.31154128909111023,0.2632829248905182,0.23273965716362
1788679282682608600,18.181608642578126,-0.16004669666290283,0.12889257073402405,0.25595253705978394
1788679282698775300,18.197775390625,-0.1569923609495163,0,0.1869247704744339
1788679282714898200,18.213898193359373,-0.2070833146572113,-0.07880161702632904,0.08307767659425735
1788679282731081500,18.23008154296875,-0.22968533635139465,-0.10018189996480942,0.010995574295520782
1788679282747302400,18.246302490234374,-0.21135938167572021,-0.02382374368607998,0.00855211354792118
1788679282763402200,18.26240234375,-0.152105450630188,0.08552113175392151,0.04948008432984352
1788679282779566000,18.278566162109374,-0.0757472887635231,0.13500121235847473,0.10201449692249298
1788679282795701800,18.29470166015625,-0.019547687843441963,0.10995574295520782,0.13255776464939117
1788679282811906600,18.310906494140625,-0.021991148591041565,0.025656340643763542,0.14416420459747314
1788679282828135000,18.327135009765627,-0.06230825558304787,-0.06536258012056351,0.15027284622192383
1788679282844252400,18.34325244140625,-0.07513642311096191,-0.15454891324043274,0.12522737681865692
1788679282860422400,18.35942236328125,-0.02076941914856434,-0.16310101747512817,0.09040805697441101
1788679282876557300,18.375557373046874,0.036041051149368286,-0.11545353382825851,0.08185594528913498
1788679282892743700,18.39174365234375,0.05497787147760391,-0.06780604273080826,0.06963863968849182
1788679282908980000,18.40797998046875,0.0659734457731247,-0.060475658625364304,0.04092797264456749
1788679282925051400,18.424051513671873,0.0555887371301651,-0.09651670604944229,-0.03237585723400116
1788679282941219600,18.440219482421874,0.030543262138962746,-0.13988813757896423,-0.10751228034496307
1788679282957354000,18.45635400390625,0.03298672288656235,-0.1062905490398407,-0.10751228034496307
1788679282973538800,18.472538818359375,0.07941248267889023,-0.036041051149368286,0.0012217304902151227
1788679282989781000,18.488781005859376,0.17104226350784302,0.08002334833145142,0.1563815027475357
1788679283005891000,18.50489111328125,0.25106561183929443,0.1661553531885147,0.23640485107898712
1788679283022058200,18.521058349609376,0.29504790902137756,0.15577064454555511,0.2217440903186798
1788679283038101800,18.537101806640624,0.384845107793808,0.0507018156349659,0.21807889640331268
1788679283054288000,18.553287841796877,0.5180137157440186,-0.09529497474431992,0.34025195240974426
1788679283070503700,18.569503662109376,0.5821545720100403,-0.16371189057826996,0.5210680365562439
1788679283086630000,18.5856298828125,0.5448917746543884,0.06719517707824707,0.5503895878791809
1788679283102798300,18.60179833984375,0.4709770977497101,0.3854559659957886,0.3781255781650543
1788679283118967600,18.617967529296877,0.40194934606552124,0.35063666105270386,0.0708603709936142
1788679283135153000,18.63415283203125,0.41722095012664795,0.06352998316287994,-0.2070833146572113
1788679283151373000,18.650373046875,0.34758231043815613,-0.19303341209888458,-0.34758231043815613
1788679283167469300,18.66646923828125,0.24984388053417206,-0.3732386529445648,-0.3017674386501312
1788679283183640000,18.68264013671875,0.1771509200334549,-0.28527405858039856,-0.11972958594560623
1788679283199774200,18.698774169921876,0.2064724564552307,-0.02871066704392433,0.04153883829712868
1788679283215962000,18.714962158203125,0.2669481039047241,0.09407325088977814,0.05619960278272629
1788679283232181000,18.731180908203125,0.2675589919090271,0.02382374368607998,-0.07819075137376785
1788679283248288300,18.747288330078124,0.19120082259178162,-0.08307767659425735,-0.2480112910270691
1788679283264460800,18.763460693359374,0.09957103431224823,-0.1258382350206375,-0.33047810196876526
1788679283280596700,18.7795966796875,0.01038470957428217,-0.11423180252313614,-0.32070425152778625
1788679283296783600,18.79578369140625,-0.0659734457731247,-0.11850785464048386,-0.2773328125476837
1788679283313006000,18.812006103515625,-0.10690141469240189,-0.07147123664617538,-0.26939156651496887
1788679283329122300,18.828122314453125,-0.10018189996480942,0.02321287989616394,-0.23151792585849762
1788679283345293300,18.844293212890626,-0.07757988572120667,0.024434609338641167,-0.13500121235847473
1788679283361428700,18.8604287109375,-0.04214970022439957,-0.025656340643763542,-0.03726277872920036
1788679283377615000,18.876614990234376,0.018325956538319588,-0.04459316283464432,0.05375614017248154
1788679283393832000,18.89283203125,0.045204028487205505,-0.07452555745840073,0.11850785464048386
1788679283409905200,18.9089052734375,0.04398229718208313,-0.17531833052635193,0.14294247329235077
1788679283426073300,18.9250732421875,0.033597588539123535,-0.25961771607398987,0.1368338167667389
1788679283442213600,18.941213623046874,0.00855211354792118,-0.2822197377681732,0.1472185254096985
1788679283458397700,18.957397705078126,-0.014049900695681572,-0.3066543638706207,0.17043140530586243
1788679283474610400,18.9736103515625,-0.036651913076639175,-0.2626720666885376,0.152105450630188
1788679283490686200,18.989686279296876,-0.045204028487205505,-0.19792033731937408,0.11789698898792267
1788679283506852900,19.005852783203125,-0.05314527451992035,-0.15882496535778046,0.09896016865968704
1788679283522987000,19.021987060546873,-0.05864306539297104,-0.08735372871160507,0.11301007121801376
1788679283539171300,19.03817138671875,-0.048258353024721146,-0.05253441259264946,0.17592918872833252
1788679283555384800,19.054384765625,-0.036651913076639175,-0.10445795953273773,0.22846360504627228
1788679283571480300,19.070480224609376,-0.04398229718208313,-0.3090978264808655,0.19425514340400696
1788679283587647200,19.086647216796877,-0.08246681094169617,-0.49785518646240234,0.13072516024112701
1788679283603779800,19.10277978515625,-0.1319468915462494,-0.5729916095733643,0.1007927656173706
1788679283619964700,19.118964599609374,-0.152105450630188,-0.6108652353286743,0.06780604273080826
1788679283636185900,19.135185791015626,-0.1514945775270462,-0.5571091175079346,-0.021991148591041565
1788679283652286700,19.15128662109375,-0.11911872029304504,-0.36590829491615295,-0.07696902006864548
1788679283668458200,19.167458251953125,-0.1111774742603302,-0.12095131725072861,-0.021991148591041565
1788679283684595000,19.183594970703126,-0.1716531366109848,-0.06414084881544113,0.003054326167330146
1788679283700779300,19.199779296875,-0.2474004179239273,-0.1007927656173706,-0.12034045159816742
1788679283717012000,19.216011962890626,-0.3640756905078888,-0.23151792585849762,-0.3500257730484009
1788679283733120500,19.23212060546875,-0.5198463201522827,-0.2791654169559479,-0.4642575979232788
1788679283749287700,19.24828759765625,-0.6108652353286743,-0.10934487730264664,-0.34758231043815613
1788679283765453600,19.26445361328125,-0.6059783101081848,0.10384709388017654,-0.04642575979232788
1788679283781636600,19.28063671875,-0.47830748558044434,0.24129177629947662,0.1820378452539444
1788679283797865500,19.296865478515624,-0.28038713335990906,0.2541199326515198,0.22357667982578278
1788679283814015700,19.313015625,-0.11545353382825851,0.1569923609495163,0.1563815027475357
1788679283830186200,19.329186279296874,-0.09712757170200348,0.08368854224681854,0.06230825558304787
1788679283846315800,19.345315673828125,-0.1459967941045761,0,-0.03420845419168472
1788679283862503000,19.3615029296875,-0.18020524084568024,-0.0708603709936142,-0.08185594528913498
1788679283878742500,19.377742431640623,-0.22296582162380219,-0.10323622822761536,-0.08307767659425735
1788679283894814200,19.393814208984374,-0.22968533635139465,-0.10506882518529892,-0.04948008432984352
1788679283910978600,19.409978515625,-0.16371189057826996,-0.04581489413976669,0.0012217304902151227
1788679283927113000,19.426113037109374,-0.07819075137376785,0.025656340643763542,0.0659734457731247
1788679283943298300,19.44229833984375,-0.029932396486401558,0.05803219974040985,0.13744467496871948
1788679283959544000,19.4585439453125,-0.00733038317412138,0.04948008432984352,0.15393804013729095
1788679283975632600,19.474632568359375,0.001832595793530345,-0.015882495790719986,0.08918632566928864
1788679283991801900,19.4908017578125,0.014049900695681572,-0.11056660860776901,0.02015855349600315
1788679284007937000,19.50693701171875,0.03726277872920036,-0.25961771607398987,-0.04214970022439957
1788679284024126000,19.5231259765625,0.06658431142568588,-0.384845107793808,-0.06475171446800232
1788679284040345300,19.539345458984375,0.10262536257505417,-0.42271876335144043,-0.048258353024721146
1788679284056441600,19.555441650390627,0.11972958594560623,-0.313373863697052,0.0024434609804302454
1788679284072610800,19.57161083984375,0.09407325088977814,-0.11056660860776901,0.04092797264456749
1788679284088747300,19.587747314453125,0.08552113175392151,0.07269296050071716,0.051312681287527084
1788679284104933600,19.60393359375,0.12767083942890167,0.14233160018920898,0.0708603709936142
1788679284121151500,19.6201513671875,0.21013765037059784,0.1472185254096985,0.12034045159816742
1788679284137241600,19.63624169921875,0.3090978264808655,0.10262536257505417,0.18631389737129211
1788679284153429200,19.65242919921875,0.3121521472930908,-0.01466076634824276,0.19608774781227112
1788679284169567200,19.668567138671875,0.2278527319431305,-0.12767083942890167,0.16798794269561768
1788679284185751300,19.684751220703124,0.1569923609495163,-0.1466076523065567,0.16004669666290283
1788679284201966000,19.700966064453127,0.15760323405265808,-0.09040805697441101,0.16432274878025055
1788679284218071800,19.71707177734375,0.19792033731937408,0.048258353024721146,0.18387043476104736
1788679284234237400,19.733237548828125,0.22052235901355743,0.2742784917354584,0.19853121042251587
1788679284250369300,19.749369384765625,0.1918116807937622,0.3396410644054413,0.08979719132184982
1788679284266551300,19.76555126953125,0.18997909128665924,0.1814269721508026,-0.1215621829032898
1788679284282765600,19.781765625,0.18631389737129211,0.012217304669320583,-0.242513507604599
1788679284298884000,19.797884033203125,0.11239920556545258,-0.18448130786418915,-0.2382374405860901
1788679284315052300,19.81405224609375,0.04764748737215996,-0.1722639948129654,-0.15454891324043274
1788679284331221800,19.8302216796875,0.06352998316287994,-0.05742133408784866,-0.05864306539297104
1788679284347406300,19.84640625,0.12034045159816742,0.021380282938480377,-0.01466076634824276
1788679284363622700,19.86262255859375,0.15821409225463867,0.0006108652451075613,-0.039706241339445114
