time,seconds_elapsed,z,y,x
1788679264655723000,0.154722900390625,0.46700000762939453,13.5910005569458,31.658000946044922
1788679264671839000,0.1708388671875,-18.020000457763672,-8.219000816345215,-30.44500160217285
1788679264687971800,0.186971923828125,-19.619001388549805,-8.539000511169434,-30.548002243041992
1788679264704228000,0.20322802734375,-19.003000259399414,-6.610000133514404,-30.430002212524414
1788679264720304600,0.2193046875,-19.51300048828125,-7.999000549316406,-30.238000869750977
1788679264736536300,0.235536376953125,-18.358001708984375,-8.121000289916992,-31.157001495361328
1788679264752659500,0.251659423828125,-18.551000595092773,-7.135000228881836,-29.6200008392334
1788679264768792600,0.26779248046875,-19.66400146484375,-7.594000339508057,-31.965002059936523
1788679264785047600,0.284047607421875,-18.038000106811523,-7.581000328063965,-30.847002029418945
1788679264801124400,0.300124267578125,-19.55500030517578,-7.484000205993652,-31.761001586914062
1788679264817364700,0.31636474609375,-20.703001022338867,-7.034000396728516,-30.329002380371094
1788679264833496300,0.332496337890625,-20.056001663208008,-7.031000137329102,-30.025001525878906
1788679264849633800,0.3486337890625,-18.1560001373291,-6.939000129699707,-30.94300079345703
1788679264865887500,0.364887451171875,-18.150001525878906,-5.207000255584717,-29.60300064086914
1788679264881965300,0.38096533203125,-20.417001724243164,-5.5420002937316895,-30.928001403808594
1788679264898213600,0.397213623046875,-18.368000030517578,-6.182000160217285,-30.427001953125
1788679264914302500,0.413302490234375,-16.450000762939453,-7.052000522613525,-31.150001525878906
1788679264930435800,0.429435791015625,-19.240001678466797,-6.407000541687012,-31.34400177001953
1788679264946689000,0.44568896484375,-18.476001739501953,-6.939000129699707,-30.94300079345703
1788679264962763000,0.461762939453125,-17.71500015258789,-7.4720001220703125,-30.643001556396484
1788679264978982400,0.477982421875,-20.496000289916992,-7.254000186920166,-30.739002227783203
1788679264995079700,0.49407958984375,-19.6510009765625,-6.7210001945495605,-30.83700180053711
1788679265011213300,0.51021337890625,-17.810001373291016,-6.816000461578369,-29.720001220703125
1788679265027466000,0.526466064453125,-19.005001068115234,-6.502000331878662,-30.429000854492188
1788679265043543000,0.54254296875,-19.446001052856445,-5.646000385284424,-30.522001266479492
1788679265059776300,0.5587763671875,-19.216001510620117,-7.14900016784668,-30.740001678466797
1788679265075887900,0.574887939453125,-16.261001586914062,-5.446000099182129,-31.238000869750977
1788679265092024600,0.591024658203125,-18.88300132751465,-7.574000358581543,-30.43800163269043
1788679265108278000,0.607278076171875,-20.488000869750977,-6.817000389099121,-30.124000549316406
1788679265124353000,0.62335302734375,-19.422000885009766,-6.38800048828125,-29.918001174926758
1788679265140574200,0.63957421875,-16.8700008392334,-7.26300048828125,-30.947002410888672
1788679265156693000,0.65569287109375,-17.306001663208008,-6.943000316619873,-31.148000717163086
1788679265172824600,0.671824462890625,-16.45400047302246,-7.4860005378723145,-31.56100082397461
1788679265189076700,0.68807666015625,-19.41400146484375,-7.464000225067139,-30.233001708984375
1788679265205152500,0.704152587890625,-19.630001068115234,-6.925000190734863,-30.024002075195312
1788679265221375700,0.720375732421875,-17.09000015258789,-6.834000110626221,-30.94300079345703
1788679265237456000,0.736455810546875,-18.272001266479492,-6.2960004806518555,-30.937002182006836
1788679265253590800,0.7525908203125,-17.740001678466797,-6.298000335693359,-31.040000915527344
1788679265269843000,0.768843017578125,-19.43800163269043,-8.343000411987305,-31.871002197265625
1788679265285918500,0.78491845703125,-17.308000564575195,-7.26900053024292,-31.45600128173828
1788679265302163000,0.801162841796875,-18.822999954223633,-5.549000263214111,-31.235000610351562
1788679265318249500,0.81724951171875,-20.381000518798828,-7.682000160217285,-30.641000747680664
1788679265334381800,0.8333818359375,-18.325000762939453,-8.532999992370605,-29.93800163269043
1788679265350628400,0.84962841796875,-20.90300178527832,-7.026000499725342,-29.718002319335938
1788679265366702600,0.86570263671875,-21.13300132751465,-7.359000205993652,-30.637001037597656
1788679265382922000,0.881921875,-21.756000518798828,-7.78000020980835,-30.131000518798828
1788679265399014400,0.898014404296875,-19.185001373291016,-7.454000473022461,-29.520000457763672
1788679265415146200,0.914146240234375,-20.49700164794922,-8.336000442504883,-31.46200180053711
1788679265431396600,0.930396728515625,-20.46000099182129,-7.232000350952148,-29.10900115966797
1788679265447470800,0.946470947265625,-20.779001235961914,-8.312000274658203,-29.729001998901367
1788679265463694300,0.9626943359375,-20.658000946044922,-7.871000289916992,-28.809001922607422
1788679265479797000,0.978796875,-20.665000915527344,-7.875000476837158,-29.114002227783203
1788679265495932700,0.9949326171875,-19.948001861572266,-7.13800048828125,-30.0260009765625
1788679265512186600,1.0111865234375,-18.34400177001953,-6.1670002937316895,-29.306001663208008
1788679265528258600,1.027258544921875,-19.825000762939453,-6.805000305175781,-29.106000900268555
1788679265544484000,1.043484130859375,-20.242000579833984,-7.554000377655029,-29.112001419067383
1788679265560592100,1.059592041015625,-19.494001388549805,-7.447000503540039,-29.01000213623047
1788679265576724000,1.075723876953125,-20.916000366210938,-6.277000427246094,-29.81300163269043
1788679265592971800,1.0919716796875,-20.89900016784668,-6.699000358581543,-29.3070011138916
1788679265609043700,1.108043701171875,-19.84000015258789,-7.570000171661377,-30.233001708984375
1788679265625264400,1.124264404296875,-17.90300178527832,-7.996000289916992,-29.832000732421875
1788679265641384700,1.140384765625,-19.408000946044922,-6.919000148773193,-29.617000579833984
1788679265657515000,1.156514892578125,-20.444000244140625,-7.871000289916992,-28.809001922607422
1788679265673766100,1.17276611328125,-18.981000900268555,-6.9200005531311035,-29.617000579833984
1788679265689839000,1.188839111328125,-19.391000747680664,-7.341000556945801,-29.11100196838379
1788679265706083600,1.20508349609375,-21.136001586914062,-7.145000457763672,-30.63500213623047
1788679265722166000,1.221166015625,-18.772001266479492,-6.275000095367432,-29.408000946044922
1788679265738300400,1.237300537109375,-20.49700164794922,-7.147000312805176,-30.738000869750977
1788679265754551800,1.2535517578125,-20.665000915527344,-7.335000514984131,-28.804000854492188
1788679265770630700,1.269630615234375,-21.336000442504883,-6.812000274658203,-29.817001342773438
1788679265786879500,1.28587939453125,-20.376001358032227,-6.598000526428223,-29.715002059936523
1788679265802966300,1.30196630859375,-21.12200164794922,-6.488000392913818,-29.61100196838379
1788679265819099100,1.31809912109375,-18.553001403808594,-7.137000560760498,-29.722002029418945
1788679265835351000,1.33435107421875,-18.43400001525879,-7.994000434875488,-29.73000144958496
1788679265851425500,1.350425537109375,-19.608001708984375,-6.9110002517700195,-29.005001068115234
1788679265867682800,1.366682861328125,-21.12200164794922,-7.028000354766846,-29.921001434326172
1788679265883783400,1.382783447265625,-20.19500160217285,-6.186000347137451,-30.934001922607422
1788679265899919400,1.39891943359375,-19.593000411987305,-7.334000110626221,-28.602001190185547
1788679265916174800,1.4151748046875,-19.6460018157959,-7.15000057220459,-30.841001510620117
1788679265932249900,1.431249755859375,-18.328001022338867,-7.130000114440918,-29.213001251220703
1788679265948472000,1.44747216796875,-17.902000427246094,-7.02400016784668,-29.21200180053711
1788679265964578000,1.463578125,-21.319000244140625,-7.234000205993652,-29.312002182006836
1788679265980709000,1.479709228515625,-18.784000396728516,-6.390000343322754,-30.0210018157959
1788679265996959000,1.495958984375,-17.922000885009766,-8.440000534057617,-30.957000732421875
1788679266013029000,1.512029052734375,-19.200000762939453,-7.140000343322754,-30.027002334594727
1788679266029249000,1.5282490234375,-19.18800163269043,-7.88800048828125,-29.931001663208008
1788679266045365000,1.544364990234375,-19.52800178527832,-7.467000484466553,-30.538002014160156
1788679266061499600,1.560499755859375,-19.74700164794922,-7.038000106811523,-30.53400230407715
1788679266077752600,1.576752685546875,-21.979000091552734,-6.272000312805176,-29.608001708984375
1788679266093828600,1.59282861328125,-19.828001022338867,-6.9150004386901855,-29.31100082397461
1788679266110049500,1.609049560546875,-19.205001831054688,-6.6020002365112305,-29.920001983642578
1788679266126173700,1.625173583984375,-18.347000122070312,-6.277000427246094,-29.511001586914062
1788679266142305300,1.64130517578125,-20.68600082397461,-7.78000020980835,-30.030000686645508
1788679266158553900,1.657553955078125,-20.317001342773438,-7.060000419616699,-32.16400146484375
1788679266174627600,1.673627685546875,-21.777000427246094,-6.604000091552734,-30.32400131225586
1788679266190847500,1.689847412109375,-17.369001388549805,-7.781000137329102,-29.729001998901367
1788679266206973200,1.70597314453125,-17.700000762939453,-7.031000137329102,-29.722002029418945
1788679266223101200,1.72210107421875,-20.501001358032227,-7.0410003662109375,-30.839000701904297
1788679266239348000,1.738347900390625,-17.409000396728516,-7.049000263214111,-31.047000885009766
1788679266255429600,1.7544296875,-18.374000549316406,-6.293000221252441,-30.733001708984375
1788679266271650800,1.77065087890625,-20.91900062561035,-7.575000286102295,-30.74100112915039
1788679266287785200,1.78678515625,-18.99100112915039,-6.170000076293945,-29.61100196838379
1788679266303922000,1.802921875,-19.621000289916992,-7.783000469207764,-30.134000778198242
1788679266320178000,1.819177978515625,-20.26300048828125,-7.3510003089904785,-29.92500114440918
1788679266336255000,1.8352548828125,-18.398000717163086,-6.52400016784668,-31.9580020904541
1788679266352479700,1.851479736328125,-19.907001495361328,-5.990000247955322,-32.25699996948242
1788679266368576800,1.86757666015625,-17.71900177001953,-8.123000144958496,-31.26000213623047
1788679266384710700,1.883710693359375,-19.336000442504883,-6.724000453948975,-31.04100227355957
1788679266400963800,1.8999638671875,-16.784000396728516,-6.951000213623047,-31.658000946044922
1788679266417040000,1.916039794921875,-18.48000144958496,-6.509000301361084,-30.83700180053711
1788679266433267700,1.932267822265625,-17.303001403808594,-8.022000312805176,-31.667001724243164
1788679266449371100,1.94837109375,-18.69900131225586,-6.62000036239624,-31.143001556396484
1788679266465506800,1.9645068359375,-18.354000091552734,-7.254000186920166,-30.43600082397461
1788679266481765600,1.980765625,-17.523000717163086,-6.729000091552734,-31.1460018157959
1788679266497841400,1.99684130859375,-15.1510009765625,-8.664000511169434,-31.369001388549805
1788679266514075600,2.01307568359375,-17.404001235961914,-6.289000511169434,-30.327001571655273
1788679266530183000,2.029182861328125,-16.354000091552734,-6.950000286102295,-31.5570011138916
1788679266546313000,2.04531298828125,-19.435001373291016,-8.233000755310059,-31.66600227355957
1788679266562562000,2.06156201171875,-19.0310001373291,-6.735000133514404,-31.755001068115234
1788679266578634500,2.077634521484375,-19.035001754760742,-5.764000415802002,-31.339000701904297
1788679266594856000,2.09385595703125,-19.23200035095215,-5.5370001792907715,-30.420001983642578
1788679266610974500,2.109974365234375,-16.589000701904297,-6.098000526428223,-31.95600128173828
1788679266627108900,2.12610888671875,-19.56100082397461,-5.867000102996826,-31.03400230407715
1788679266643382000,2.142382080078125,-19.654001235961914,-6.723000526428223,-30.939001083374023
1788679266659458000,2.1584580078125,-19.6820011138916,-6.523000240325928,-32.05800247192383
1788679266675701500,2.174701416015625,-18.290000915527344,-5.767000198364258,-31.442001342773438
1788679266691835000,2.1908349609375,-18.26500129699707,-6.616000175476074,-30.838001251220703
1788679266707971300,2.206971435546875,-18.817001342773438,-5.76200008392334,-31.13500213623047
1788679266724225300,2.223225341796875,-19.985000610351562,-6.080000400543213,-31.035001754760742
1788679266740304000,2.239303955078125,-19.0260009765625,-5.759000301361084,-30.931001663208008
1788679266756549400,2.25554931640625,-17.542001724243164,-4.038000106811523,-30.3070011138916
1788679266772635400,2.271635498046875,-17.895000457763672,-3.3010001182556152,-31.319002151489258
1788679266788768800,2.287768798828125,-18.4010009765625,-5.6610002517700195,-31.543001174926758
1788679266805018400,2.304018310546875,-19.397001266479492,-3.7360000610351562,-31.9320011138916
1788679266821091300,2.32009130859375,-18.301000595092773,-4.801000118255615,-31.33100128173828
1788679266837346300,2.33634619140625,-19.57900047302246,-4.581000328063965,-31.022001266479492
1788679266853440500,2.3524404296875,-19.86400032043457,-5.964000225067139,-30.321001052856445
1788679266869574100,2.36857421875,-19.88800048828125,-3.9250001907348633,-30.099000930786133
1788679266885830100,2.384830078125,-17.858001708984375,-4.7920002937316895,-30.619001388549805
1788679266901904600,2.400904541015625,-18.192001342773438,-3.17900013923645,-30.19700050354004
1788679266918128400,2.41712841796875,-19.668001174926758,-4.678000450134277,-30.310001373291016
1788679266934237200,2.4332373046875,-19.13300132751465,-4.462000370025635,-30.10500144958496
1788679266950373000,2.449373046875,-18.65300178527832,-2.3340001106262207,-31.207000732421875
1788679266966627300,2.46562744140625,-20.352001190185547,-3.082000255584717,-31.21200180053711
1788679266982702600,2.48170263671875,-18.30000114440918,-3.6110000610351562,-30.506000518798828
1788679266998926000,2.497926025390625,-18.049001693725586,-5.1020002365112305,-29.806001663208008
1788679267015038000,2.514037841796875,-19.658000946044922,-3.9150002002716064,-29.386001586914062
1788679267031171300,2.53017138671875,-19.57900047302246,-4.0410003662109375,-30.71200180053711
1788679267047426600,2.546426513671875,-20.023000717163086,-3.8340001106262207,-31.321001052856445
1788679267063500000,2.5625,-19.040000915527344,-3.6060001850128174,-30.19900131225586
1788679267079722500,2.578722412109375,-21.282001495361328,-3.2780001163482666,-29.990001678466797
1788679267095848200,2.59484814453125,-19.339000701904297,-3.052000045776367,-28.8700008392334
1788679267111983600,2.610983642578125,-19.285001754760742,-2.328000068664551,-30.799001693725586
1788679267128240000,2.627240234375,-20.304000854492188,-4.674000263214111,-30.10500144958496
1788679267144320800,2.64332080078125,-19.0310001373291,-3.6000001430511475,-29.792001724243164
1788679267160547300,2.65954736328125,-21.200000762939453,-3.18500018119812,-31.00800132751465
1788679267176681500,2.675681396484375,-19.795000076293945,-4.0420002937316895,-30.81300163269043
1788679267192822800,2.69182275390625,-20.740001678466797,-4.031000137329102,-30.099000930786133
1788679267209079800,2.708079833984375,-18.645000457763672,-3.0860002040863037,-31.316001892089844
1788679267225156600,2.724156494140625,-18.96900177001953,-2.6550002098083496,-31.21000099182129
1788679267241382400,2.74038232421875,-18.770000457763672,-2.448000192642212,-31.71700096130371
1788679267257473000,2.75647314453125,-19.18800163269043,-3.306000232696533,-31.82600212097168
1788679267273612000,2.772612060546875,-17.47800064086914,-2.552000045776367,-31.31300163269043
1788679267289870000,2.7888701171875,-18.981000900268555,-2.446000099182129,-31.615001678466797
1788679267305944600,2.804944580078125,-18.761001586914062,-3.0910000801086426,-31.72300148010254
1788679267322172000,2.821171875,-19.395000457763672,-2.437000036239624,-31.00400161743164
1788679267338269200,2.837269287109375,-18.33300018310547,-2.875000238418579,-31.518001556396484
1788679267354408000,2.853407958984375,-18.08100128173828,-4.14900016784668,-30.613000869750977
1788679267370666000,2.869666015625,-18.43600082397461,-2.765000104904175,-31.31300163269043
1788679267386746000,2.88574609375,-18.46000099182129,-1.6980000734329224,-31.711002349853516
1788679267402980400,2.90198046875,-19.19700050354004,-3.0960001945495605,-32.130001068115234
1788679267419088600,2.918088623046875,-18.535001754760742,-3.192000150680542,-31.215002059936523
1788679267435223600,2.9342236328125,-18.755001068115234,-4.708000183105469,-32.45100021362305
1788679267451477200,2.950477294921875,-16.520000457763672,-3.8520002365112305,-32.242000579833984
1788679267467553500,2.966553466796875,-17.689001083374023,-3.739000082015991,-31.934001922607422
1788679267483780400,2.9827802734375,-17.381000518798828,-3.639000177383423,-32.44300079345703
1788679267499894800,2.998894775390625,-14.097001075744629,-3.443000078201294,-33.4640007019043
1788679267516031500,3.015031494140625,-15.67500114440918,-3.319000244140625,-32.34000015258789
1788679267532289500,3.03128955078125,-16.95400047302246,-4.179000377655029,-32.75400161743164
1788679267548370000,3.047369873046875,-15.012001037597656,-5.7910003662109375,-32.87200164794922
1788679267564598500,3.0635986328125,-15.101000785827637,-6.1050004959106445,-32.263999938964844
1788679267580719600,3.0797197265625,-15.86600112915039,-4.277000427246094,-31.941001892089844
1788679267596859100,3.095859130859375,-16.619001388549805,-5.684000492095947,-33.073001861572266
1788679267613118700,3.11211865234375,-14.995000839233398,-6.538000106811523,-32.573001861572266
1788679267629196000,3.128196044921875,-15.665000915527344,-5.366000175476074,-33.17300033569336
1788679267645434600,3.1444345703125,-17.268001556396484,-5.7960004806518555,-33.48100280761719
1788679267661565200,3.160565185546875,-15.980000495910645,-5.254000186920166,-32.86600112915039
1788679267677698800,3.17669873046875,-15.054000854492188,-3.872000217437744,-33.56800079345703
1788679267693951500,3.192951416015625,-15.130001068115234,-4.610000133514404,-32.65800094604492
1788679267710026200,3.209026123046875,-16.751001358032227,-4.078000068664551,-33.16100311279297
1788679267726274000,3.225274169921875,-14.178000450134277,-4.508000373840332,-32.9640007019043
1788679267742360300,3.2413603515625,-13.441000938415527,-5.705000400543213,-34.198001861572266
1788679267758494000,3.257493896484375,-14.405000686645508,-5.813000202178955,-34.4010009765625
1788679267774751700,3.273751708984375,-13.367000579833984,-4.644000053405762,-35.00300216674805
1788679267790830000,3.289830078125,-13.676000595092773,-4.63700008392334,-34.49400329589844
1788679267807084800,3.306084716796875,-13.141000747680664,-3.2320001125335693,-33.56500244140625
1788679267823182600,3.3221826171875,-12.744000434875488,-3.575000286102295,-35.09700012207031
1788679267839318300,3.338318359375,-14.020000457763672,-3.4610002040863037,-34.788002014160156
1788679267855570200,3.354570068359375,-12.963000297546387,-3.7940001487731934,-35.50600051879883
1788679267871644400,3.37064453125,-12.874000549316406,-3.372000217437744,-36.012001037597656
1788679267887866000,3.3868662109375,-12.93600082397461,-2.805000066757202,-33.663002014160156
1788679267903966000,3.402966064453125,-11.668000221252441,-2.815000057220459,-34.2760009765625
1788679267920102400,3.419102294921875,-12.571001052856445,-1.1140000820159912,-35.38100051879883
1788679267936358100,3.435358154296875,-12.528000831604004,-2.385000228881836,-34.272003173828125
1788679267952435700,3.451435791015625,-11.887001037597656,-1.9530000686645508,-33.9630012512207
1788679267968666600,3.46766650390625,-13.28800106048584,-1.311000108718872,-34.159000396728516
1788679267984788700,3.483788818359375,-12.10300064086914,-3.251000165939331,-34.8910026550293
1788679268000948000,3.499947998046875,-12.817000389099121,-2.365000009536743,-32.845001220703125
1788679268017201700,3.51620166015625,-13.180000305175781,-2.067000150680542,-34.573001861572266
1788679268033276700,3.532276611328125,-12.984000205993652,-1.6450001001358032,-35.079002380371094
1788679268049536300,3.548536376953125,-12.512001037597656,-2.0510001182556152,-33.35200119018555
1788679268065662500,3.564662353515625,-13.098000526428223,0.18700000643730164,-34.24800109863281
1788679268081831400,3.58083154296875,-12.541000366210938,-1.096000075340271,-34.055999755859375
1788679268098087000,3.5970869140625,-11.89900016784668,-1.096000075340271,-33.95500183105469
1788679268114161700,3.61316162109375,-13.628000259399414,-0.89000004529953,-34.7660026550293
1788679268130420500,3.62942041015625,-12.79800033569336,0.39000001549720764,-35.0620002746582
1788679268146506200,3.64550634765625,-12.892000198364258,0.07400000095367432,-34.65700149536133
1788679268162687700,3.661687744140625,-12.234000205993652,-0.6720000505447388,-34.35900115966797
1788679268178939100,3.677939208984375,-12.98900032043457,0.40400001406669617,-34.04300308227539
1788679268195013600,3.694013671875,-15.965001106262207,1.065000057220459,-33.013999938964844
1788679268211272000,3.71027197265625,-15.995000839233398,0.39900001883506775,-34.75200271606445
1788679268227364000,3.726364013671875,-14.054000854492188,0.19100001454353333,-34.04300308227539
1788679268243496400,3.742496337890625,-11.572000503540039,-0.22800001502037048,-33.13300323486328
1788679268259753700,3.758753662109375,-14.690000534057617,0.30400002002716064,-33.736000061035156
1788679268275837700,3.774837646484375,-12.308000564575195,-0.2200000137090683,-32.62300109863281
1788679268292103200,3.791103271484375,-13.600000381469727,0.2070000171661377,-32.82100296020508
1788679268308211700,3.807211669921875,-13.1850004196167,0.09100000560283661,-33.43400192260742
1788679268324386300,3.82338623046875,-15.67300033569336,0.940000057220459,-34.34000015258789
1788679268340643300,3.839643310546875,-13.206000328063965,1.8070000410079956,-33.31700134277344
1788679268356725000,3.85572509765625,-13.371000289916992,-0.2160000056028366,-32.41800308227539
1788679268372960000,3.8719599609375,-13.861001014709473,1.4760000705718994,-34.134002685546875
1788679268389055000,3.888054931640625,-13.283000946044922,0.6370000243186951,-32.71600341796875
1788679268405198000,3.904197998046875,-12.338000297546387,-0.3460000157356262,-34.05000305175781
1788679268421456100,3.9204560546875,-13.855000495910645,1.371000051498413,-33.930999755859375
1788679268437537000,3.936537109375,-14.274001121520996,1.4850000143051147,-33.522003173828125
1788679268453774800,3.95277490234375,-13.822000503540039,0.3100000023841858,-33.12600326538086
1788679268469898000,3.96889794921875,-12.980000495910645,1.058000087738037,-33.22200012207031
1788679268486032400,3.985032470703125,-13.392000198364258,0.42000001668930054,-32.92100143432617
1788679268502288600,4.00128857421875,-12.759000778198242,1.1700000762939453,-32.814002990722656
1788679268518370600,4.01737060546875,-15.121000289916992,1.2740000486373901,-33.319000244140625
1788679268534609400,4.033609375,-14.570000648498535,0.5270000100135803,-33.020999908447266
1788679268550739000,4.049739013671875,-14.86600112915039,1.0830000638961792,-31.589000701904297
1788679268566875600,4.065875732421875,-15.902000427246094,0.23900000751018524,-30.679000854492188
1788679268583133000,4.0821328125,-14.028000831604004,1.3960000276565552,-32.09700012207031
1788679268599210000,4.0982099609375,-14.016000747680664,1.0789999961853027,-31.79400062561035
1788679268615457000,4.11445703125,-13.38900089263916,1.3940000534057617,-32.20000076293945
1788679268631539500,4.13053955078125,-14.238000869750977,1.1820000410079956,-32.099002838134766
1788679268647673300,4.14667333984375,-15.090001106262207,1.8330000638961792,-31.582000732421875
1788679268663926000,4.162926025390625,-15.629000663757324,0.5350000262260437,-32.612003326416016
1788679268679999700,4.178999755859375,-16.35500144958496,0.6570000052452087,-31.591001510620117
1788679268696247600,4.19524755859375,-16.147001266479492,-0.10300000756978989,-32.31100082397461
1788679268712332000,4.21133203125,-15.070000648498535,-0.4230000078678131,-32.112003326416016
1788679268728464400,4.22746435546875,-14.42500114440918,1.415000081062317,-30.772001266479492
1788679268744718600,4.243718505859375,-15.717000961303711,0.006000000052154064,-32.10700225830078
1788679268760795600,4.259795654296875,-17.422000885009766,0.44300001859664917,-31.694002151489258
1788679268777022000,4.27602197265625,-15.391000747680664,0.11600000411272049,-31.801000595092773
1788679268793122600,4.29212255859375,-16.321001052856445,0.029000001028180122,-30.476001739501953
1788679268809259000,4.308259033203125,-15.308000564575195,0.31800001859664917,-32.71600341796875
1788679268825513000,4.324512939453125,-13.13800048828125,-0.6360000371932983,-31.810001373291016
1788679268841588000,4.340587890625,-15.1850004196167,-0.320000022649765,-32.41600036621094
1788679268857813500,4.3568134765625,-14.429000854492188,-0.64000004529953,-32.21600341796875
1788679268873922600,4.372922607421875,-14.595000267028809,-1.908000111579895,-30.90300178527832
1788679268890061300,4.389061279296875,-14.212000846862793,-0.5300000309944153,-32.012001037597656
1788679268906318300,4.405318359375,-14.197000503540039,-2.251000165939331,-32.435001373291016
1788679268922395400,4.4213955078125,-13.861001014709473,-1.593000054359436,-31.309001922607422
1788679268938658600,4.437658447265625,-14.10200023651123,-1.6090000867843628,-32.531002044677734
1788679268954779100,4.453779052734375,-13.374000549316406,-0.8650000691413879,-32.93300247192383
1788679268970949600,4.46994970703125,-16.652999877929688,-1.2740000486373901,-31.812002182006836
1788679268987204600,4.48620458984375,-14.847001075744629,-1.2820000648498535,-32.22100067138672
1788679269003281000,4.502281005859375,-13.431000709533691,-0.8350000381469727,-30.691001892089844
1788679269019507200,4.518507080078125,-15.157000541687012,-1.3830000162124634,-31.81500244140625
1788679269035630000,4.534630126953125,-14.827000617980957,-1.0540000200271606,-31.20100212097168
1788679269051768800,4.550768798828125,-14.274001121520996,-1.1510000228881836,-30.387001037597656
1788679269068024000,4.567024169921875,-16.808000564575195,-2.8590002059936523,-30.196001052856445
1788679269084102100,4.58310205078125,-18.849000930786133,-2.9710001945495605,-30.805002212524414
1788679269100327200,4.5993271484375,-17.23200035095215,-2.640000104904175,-29.88800048828125
1788679269116457200,4.615457275390625,-16.354000091552734,-4.3560004234313965,-29.904001235961914
1788679269132594200,4.63159423828125,-17.400001525878906,-4.125,-28.780000686645508
1788679269148851200,4.647851318359375,-16.259000778198242,-3.823000192642212,-30.10300064086914
1788679269164930300,4.663930419921875,-18.700000762939453,-3.703000068664551,-29.386001586914062
1788679269181155600,4.680155517578125,-16.23400115966797,-4.457000255584717,-29.395000457763672
1788679269197246000,4.696245849609375,-17.624000549316406,-4.996000289916992,-29.806001663208008
1788679269213383200,4.712383056640625,-19.34000015258789,-4.565999984741211,-29.902002334594727
1788679269229641000,4.728640869140625,-18.782001495361328,-4.2270002365112305,-28.575000762939453
1788679269245717500,4.744717529296875,-19.545000076293945,-4.236000061035156,-29.28700065612793
1788679269261939000,4.76093896484375,-18.878000259399414,-4.653000354766846,-28.375001907348633
1788679269278037200,4.777037353515625,-17.394001007080078,-2.7170002460479736,-27.647001266479492
1788679269294172200,4.793172119140625,-18.159000396728516,-2.2940001487731934,-28.152000427246094
1788679269310440400,4.8094404296875,-19.873001098632812,-1.8620001077651978,-28.1460018157959
1788679269326518500,4.8255185546875,-20.85300064086914,-1.1160000562667847,-28.545001983642578
1788679269342761200,4.84176123046875,-20.942001342773438,-3.0510001182556152,-28.970001220703125
1788679269358884600,4.857884521484375,-18.916000366210938,-1.5420000553131104,-28.144001007080078
1788679269375019300,4.874019287109375,-18.143001556396484,-1.9600000381469727,-27.23200035095215
1788679269391273200,4.890273193359375,-20.690000534057617,-2.703000068664551,-27.031002044677734
1788679269407351300,4.906351318359375,-20.99100112915039,-2.1510000228881836,-25.804000854492188
1788679269423588400,4.92258837890625,-21.455001831054688,-1.308000087738037,-26.916000366210938
1788679269439704800,4.938704833984375,-20.058000564575195,-2.2770001888275146,-27.130001068115234
1788679269455841000,4.954841064453125,-22.42300033569336,-2.2829999923706055,-27.840002059936523
1788679269472095000,4.971094970703125,-20.69900131225586,-2.06000018119812,-27.0260009765625
1788679269488169200,4.987169189453125,-21.316001892089844,-0.8560000658035278,-25.181001663208008
1788679269504397800,5.003397705078125,-19.931001663208008,-1.0760000944137573,-25.490001678466797
1788679269520521500,5.019521484375,-21.753000259399414,-2.2660000324249268,-26.51700210571289
1788679269536656600,5.03565673828125,-21.650001525878906,-1.5120000839233398,-26.205001831054688
1788679269552912400,5.051912353515625,-21.630001068115234,-1.933000087738037,-25.597002029418945
1788679269568987600,5.067987548828125,-22.378000259399414,-2.580000162124634,-26.01000213623047
1788679269585233200,5.084233154296875,-21.748001098632812,-1.8310000896453857,-26.00400161743164
1788679269601321500,5.100321533203125,-21.172000885009766,-3.2110002040863037,-24.998001098632812
1788679269617460500,5.11646044921875,-23.431001663208008,-2.677000045776367,-25.398000717163086
1788679269633718500,5.132718505859375,-21.003000259399414,-1.2930001020431519,-25.796001434326172
1788679269649794300,5.148794189453125,-20.97800064086914,-2.7910001277923584,-25.606000900268555
1788679269666047500,5.165047607421875,-23.131000518798828,-1.8260000944137573,-25.79800033569336
1788679269682144000,5.18114404296875,-21.944000244140625,-1.9280000925064087,-25.291000366210938
1788679269698277000,5.197277099609375,-21.39900016784668,-3.2190001010894775,-25.60900115966797
1788679269714536400,5.213536376953125,-21.160001754760742,-3.4200000762939453,-24.59200096130371
1788679269730618600,5.22961865234375,-20.850000381469727,-5.264000415802002,-26.23900032043457
1788679269746837000,5.2458369140625,-21.45400047302246,-4.809000015258789,-24.299001693725586
1788679269762939400,5.261939453125,-20.5310001373291,-4.076000213623047,-25.516000747680664
1788679269779076900,5.278076904296875,-20.426000595092773,-4.078000068664551,-25.61800193786621
1788679269795332900,5.294332763671875,-19.75800132751465,-4.927000045776367,-24.913002014160156
1788679269811409200,5.3104091796875,-21.687000274658203,-4.388000011444092,-24.906002044677734
1788679269827638500,5.326638427734375,-21.599000930786133,-2.3460001945495605,-24.48000144958496
1788679269843759000,5.342759033203125,-20.415000915527344,-2.883000135421753,-24.385000228881836
1788679269859896600,5.358896484375,-23.08300018310547,-3.634000062942505,-24.796001434326172
1788679269876152600,5.375152587890625,-19.875,-3.636000156402588,-24.59600067138672
1788679269892230100,5.391230224609375,-23.61400032043457,-4.172000408172607,-25.003000259399414
1788679269908456400,5.40745654296875,-20.84800148010254,-2.129000186920166,-24.174001693725586
1788679269924611000,5.423611083984375,-21.71500015258789,-3.000000238418579,-25.301000595092773
1788679269940746800,5.439746826171875,-20.937000274658203,-3.4150002002716064,-24.185001373291016
1788679269957003500,5.45600341796875,-20.72800064086914,-3.9580001831054688,-24.69900131225586
1788679269973083100,5.472083251953125,-20.917001724243164,-3.078000068664551,-23.062000274658203
1788679269989313300,5.488313232421875,-21.975000381469727,-3.6110000610351562,-22.963001251220703
1788679270005447000,5.504447021484375,-24.549001693725586,-3.074000120162964,-23.159000396728516
1788679270021587500,5.52058740234375,-22.321001052856445,-2.870000123977661,-23.66900062561035
1788679270037832400,5.53683251953125,-24.339000701904297,-2.320000171661377,-22.847002029418945
1788679270053896200,5.552896240234375,-22.744001388549805,-2.867000102996826,-23.465002059936523
1788679270070122200,5.569122314453125,-23.477001190185547,-3.6130001544952393,-23.267000198364258
1788679270086209300,5.585209228515625,-25.08700180053711,-3.616000175476074,-23.672000885009766
1788679270102380300,5.60138037109375,-21.56100082397461,-2.9710001945495605,-23.16200065612793
1788679270118636800,5.61763671875,-24.661001205444336,-3.076000213623047,-23.362001419067383
1788679270134714600,5.633714599609375,-23.06100082397461,-3.620000123977661,-23.777000427246094
1788679270150939000,5.64993896484375,-24.237001419067383,-3.8360002040863037,-23.981000900268555
1788679270167036000,5.666035888671875,-23.262001037597656,-3.180000066757202,-22.95800018310547
1788679270183171000,5.682171142578125,-22.29800033569336,-3.7200002670288086,-23.167001724243164
1788679270199426300,5.69842626953125,-22.012001037597656,-3.5260002613067627,-24.59200096130371
1788679270215503600,5.714503662109375,-21.23000144958496,-3.614000082015991,-23.066001892089844
1788679270231765500,5.730765625,-20.639001846313477,-3.1050002574920654,-24.998001098632812
1788679270247871700,5.746871826171875,-21.0260009765625,-5.241000175476074,-24.507001876831055
1788679270264008000,5.763008056640625,-20.692001342773438,-5.2330002784729,-23.8960018157959
1788679270280264200,5.77926416015625,-19.101001739501953,-4.918000221252441,-24.201000213623047
1788679270296344600,5.795344482421875,-22.1820011138916,-5.87600040435791,-24.10300064086914
1788679270312571600,5.811571533203125,-22.275001525878906,-5.760000228881836,-23.389001846313477
1788679270328683500,5.82768359375,-20.782001495361328,-5.76300048828125,-23.49300193786621
1788679270344849400,5.843849365234375,-20.909000396728516,-6.100000381469727,-24.61600112915039
1788679270361104000,5.860103759765625,-21.88800048828125,-6.325000286102295,-25.534000396728516
1788679270377178000,5.87617822265625,-20.262001037597656,-6.0970001220703125,-24.312000274658203
1788679270393407700,5.89240771484375,-21.762001037597656,-5.341000080108643,-24.099000930786133
1788679270409530600,5.908530517578125,-20.58700180053711,-6.099000453948975,-24.51500129699707
1788679270425669400,5.92466943359375,-21.82400131225586,-5.962000370025635,-22.475000381469727
1788679270441926100,5.940926025390625,-22.48900032043457,-5.004000186920166,-22.975000381469727
1788679270458002700,5.957002685546875,-22.89000129699707,-5.959000110626221,-22.371000289916992
1788679270474240500,5.973240478515625,-21.3960018157959,-6.503000259399414,-22.786001205444336
1788679270490369800,5.989369873046875,-21.55500030517578,-5.886000156402588,-24.715002059936523
1788679270506507500,6.005507568359375,-22.92300033569336,-5.547000408172607,-23.590002059936523
1788679270522763300,6.02176318359375,-20.60500144958496,-5.246000289916992,-24.81300163269043
1788679270538840300,6.03784033203125,-21.119001388549805,-4.368000030517578,-23.378000259399414
1788679270555089700,6.054089599609375,-24.86100196838379,-4.689000129699707,-23.784000396728516
1788679270571177200,6.07017724609375,-22.296001434326172,-5.232000350952148,-23.996000289916992
1788679270587315700,6.086315673828125,-21.44300079345703,-6.099000453948975,-24.61600112915039
1788679270603573000,6.102572998046875,-22.725000381469727,-6.205000400543213,-24.71700096130371
1788679270619648500,6.1186484375,-21.804000854492188,-4.2860002517700195,-25.312000274658203
1788679270635902200,6.134902099609375,-22.96900177001953,-5.14300012588501,-25.420001983642578
1788679270651999200,6.150999267578125,-22.224000930786133,-5.145000457763672,-25.523000717163086
1788679270668137000,6.167136962890625,-22.34400177001953,-4.7210001945495605,-25.825000762939453
1788679270684416800,6.183416748046875,-21.89900016784668,-4.49500036239624,-24.906002044677734
1788679270700493300,6.199493408203125,-24.256000518798828,-4.604000091552734,-25.312000274658203
1788679270716766500,6.215766357421875,-22.863000869750977,-4.927000045776367,-25.317001342773438
1788679270732888600,6.231888671875,-20.496000289916992,-4.920000076293945,-24.505001068115234
1788679270749023500,6.2480234375,-22.963001251220703,-4.27400016784668,-24.59800148010254
1788679270765282600,6.264282470703125,-21.902000427246094,-4.28000020980835,-24.905000686645508
1788679270781360600,6.280360595703125,-22.235000610351562,-4.719000339508057,-25.72300148010254
1788679270797588500,6.29658837890625,-22.314001083374023,-5.243000030517578,-24.81100082397461
1788679270813709000,6.312708984375,-22.1560001373291,-3.9800002574920654,-26.531002044677734
1788679270829884700,6.328884765625,-22.45800018310547,-3.320000171661377,-25.303001403808594
1788679270846143500,6.3451435546875,-23.405000686645508,-4.175000190734863,-25.207000732421875
1788679270862224400,6.361224365234375,-21.39000129699707,-5.159000396728516,-26.441001892089844
1788679270878489300,6.3774892578125,-20.02400016784668,-4.094000339508057,-26.73900032043457
1788679270894613500,6.393613525390625,-21.27400016784668,-4.181000232696533,-25.41400146484375
1788679270910749700,6.409749755859375,-20.876001358032227,-3.5510001182556152,-26.32600212097168
1788679270927004400,6.42600439453125,-20.37900161743164,-3.0340001583099365,-27.6460018157959
1788679270943080700,6.442080810546875,-21.748001098632812,-2.4790000915527344,-26.417001724243164
1788679270959307800,6.458307861328125,-22.599000930786133,-3.3410000801086426,-26.83100128173828
1788679270975438300,6.474438232421875,-20.1560001373291,-3.8930001258850098,-27.756000518798828
1788679270991575000,6.490574951171875,-21.339000701904297,-2.9240000247955322,-27.542001724243164
1788679271007831300,6.506831298828125,-20.593000411987305,-2.493000030517578,-27.33500099182129
1788679271023904800,6.52290478515625,-21.86100196838379,-3.0230002403259277,-27.033000946044922
1788679271040125400,6.53912548828125,-21.01500129699707,-2.9210002422332764,-27.339000701904297
1788679271056208400,6.55520849609375,-22.202001571655273,-1.846000075340271,-27.226001739501953
1788679271072343800,6.57134375,-21.21200180053711,-2.263000011444092,-26.21200180053711
1788679271088599600,6.587599609375,-20.238000869750977,-0.5920000076293945,-29.356000900268555
1788679271104678400,6.603678466796875,-20.512001037597656,-1.9690001010894775,-28.1460018157959
1788679271120905000,6.619905029296875,-18.68400001525879,-2.7200000286102295,-28.053001403808594
1788679271136998000,6.635997802734375,-20.52800178527832,-0.7900000214576721,-28.13500213623047
1788679271153129500,6.65212939453125,-19.876001358032227,-1.6480001211166382,-28.144001007080078
1788679271169386800,6.66838671875,-20.312000274658203,-1.6530001163482666,-28.551000595092773
1788679271185465900,6.6844658203125,-19.235000610351562,-1.8650001287460327,-28.248001098632812
1788679271201690000,6.700690185546875,-20.631000518798828,-0.8950000405311584,-28.034000396728516
1788679271217794000,6.7167939453125,-19.240001678466797,-1.652000069618225,-28.34800148010254
1788679271233928700,6.7329287109375,-20.540000915527344,-1.121000051498413,-28.851001739501953
1788679271250186200,6.749186279296875,-20.32000160217285,-1.874000072479248,-29.062002182006836
1788679271266265600,6.765265625,-21.740001678466797,-0.9180000424385071,-29.867000579833984
1788679271282494200,6.781494140625,-19.350000381469727,-2.194000005722046,-28.862001419067383
1788679271298613500,6.797613525390625,-17.676000595092773,-1.2450000047683716,-29.773000717163086
1788679271314749400,6.81374951171875,-20.30000114440918,0.45000001788139343,-31.48600196838379
1788679271331003400,6.83000341796875,-18.40300178527832,-1.880000114440918,-29.268001556396484
1788679271347076600,6.84607666015625,-18.00200080871582,-1.4640001058578491,-30.1820011138916
1788679271363300400,6.86230029296875,-19.687000274658203,-1.9880000352859497,-29.47100067138672
1788679271379419100,6.878419189453125,-19.68400001525879,-0.581000030040741,-28.440000534057617
1788679271395588000,6.894588134765625,-18.009000778198242,-1.7920000553131104,-30.694002151489258
1788679271411841300,6.91084130859375,-16.097000122070312,-1.2610000371932983,-30.79400062561035
1788679271427918800,6.9269189453125,-19.27800178527832,-0.7020000219345093,-29.46000099182129
1788679271444189400,6.943189453125,-19.404001235961914,-1.2540000677108765,-30.687002182006836
1788679271460275200,6.959275146484375,-18.970001220703125,-1.1420000791549683,-30.280000686645508
1788679271476441300,6.97544140625,-18.8700008392334,-1.471000075340271,-30.792001724243164
1788679271492696000,6.991696044921875,-17.756999969482422,-2.742000102996826,-29.582000732421875
1788679271508771300,7.007771240234375,-17.1820011138916,-1.2700001001358032,-31.60700225830078
1788679271525016300,7.024016357421875,-18.96500015258789,-1.1400001049041748,-30.07600212097168
1788679271541105700,7.040105712890625,-17.237001419067383,-2.751000165939331,-30.194002151489258
1788679271557240600,7.056240478515625,-18.216001510620117,-1.4640001058578491,-30.181001663208008
1788679271573494800,7.072494873046875,-18.744001388549805,-2.864000082015991,-30.804000854492188
1788679271589569800,7.08856982421875,-19.501001358032227,-1.4640001058578491,-30.384000778198242
1788679271605825300,7.1048251953125,-18.756999969482422,-1.5760000944137573,-30.589000701904297
1788679271621925000,7.120925048828125,-18.59400177001953,-3.811000108718872,-29.489002227783203
1788679271638059000,7.13705908203125,-18.30500030517578,-2.8580000400543213,-30.296001434326172
1788679271654312200,7.153312255859375,-19.913000106811523,-3.4000000953674316,-30.90900230407715
1788679271670390500,7.169390625,-20.542001724243164,-3.2830002307891846,-30.296001434326172
1788679271686619400,7.185619384765625,-17.556001663208008,-3.182000160217285,-30.4010009765625
1788679271702736600,7.201736572265625,-19.273000717163086,-2.8610000610351562,-30.60000228881836
1788679271718871000,7.21787109375,-18.727001190185547,-2.9620001316070557,-30.09200096130371
1788679271735131000,7.234130859375,-18.093000411987305,-3.940000295639038,-31.018001556396484
1788679271751206700,7.25020654296875,-19.16400146484375,-3.832000255584717,-31.11800193786621
1788679271767430100,7.26643017578125,-18.6560001373291,-1.471000075340271,-30.792001724243164
1788679271783545300,7.28254541015625,-19.70600128173828,-3.4040000438690186,-31.215002059936523
1788679271799679500,7.298679443359375,-19.666000366210938,-4.028000354766846,-29.795001983642578
1788679271815932400,7.314932373046875,-20.025001525878906,-1.565000057220459,-29.976001739501953
1788679271832006700,7.331006591796875,-20.225000381469727,-2.205000162124634,-29.77800178527832
1788679271848229400,7.3472294921875,-20.020000457763672,-2.2110002040863037,-30.18600082397461
1788679271864355800,7.36335595703125,-21.321001052856445,-1.4640001058578491,-30.58500099182129
1788679271880488000,7.379488037109375,-20.790000915527344,-1.8990000486373901,-30.99700164794922
1788679271896742000,7.395741943359375,-19.91400146484375,-1.8870000839233398,-29.979001998901367
1788679271912813800,7.411813720703125,-20.784000396728516,-1.8950001001358032,-30.691001892089844
1788679271929040400,7.428040283203125,-19.892000198364258,-2.305999994277954,-29.270000457763672
1788679271945123300,7.444123291015625,-21.21200180053711,-1.4630000591278076,-30.483001708984375
1788679271961257200,7.46025732421875,-22.492000579833984,-1.8930001258850098,-30.689001083374023
1788679271977510100,7.47651025390625,-22.892000198364258,-2.5240001678466797,-29.87900161743164
1788679271993586000,7.4925859375,-22.38300132751465,-0.05400000140070915,-29.45100212097168
1788679272009846500,7.508846435546875,-22.994001388549805,-1.5480000972747803,-29.056001663208008
1788679272025936100,7.52493603515625,-22.571001052856445,-0.14600001275539398,-28.33100128173828
1788679272042127400,7.54112744140625,-21.851001739501953,1.2400000095367432,-28.727001190185547
1788679272058381800,7.5573818359375,-21.937000274658203,-1.124000072479248,-29.257001876831055
1788679272074459600,7.573459716796875,-20.336000442504883,0.2770000100135803,-28.4320011138916
1788679272090727200,7.58972705078125,-21.631000518798828,-0.2680000066757202,-29.352001190185547
1788679272106829600,7.60582958984375,-23.972002029418945,0.49500003457069397,-28.527000427246094
1788679272122999800,7.621999755859375,-22.921001434326172,-0.9200000166893005,-30.171001434326172
1788679272139256600,7.638256591796875,-21.459001541137695,2.623000144958496,-29.428001403808594
1788679272155332900,7.654332763671875,-21.541000366210938,0.15200001001358032,-29.85700225830078
1788679272171591400,7.67059130859375,-19.33300018310547,1.9650001525878906,-30.25200080871582
1788679272187699200,7.68669921875,-22.93000030517578,1.883000135421753,-28.82200050354004
1788679272203867600,7.70286767578125,-21.536001205444336,1.7760001420974731,-28.621002197265625
1788679272220121900,7.719121826171875,-22.50800132751465,2.2039999961853027,-28.819002151489258
1788679272236200700,7.73520068359375,-21.751001358032227,0.3710000216960907,-29.55000114440918
1788679272252463600,7.751463623046875,-23.882001876831055,0.7010000348091125,-29.136001586914062
1788679272268580000,7.767580078125,-22.200000762939453,1.65500009059906,-29.74100112915039
1788679272284750600,7.78375048828125,-22.624000549316406,1.874000072479248,-29.433000564575195
1788679272301005300,7.80000537109375,-21.125001907348633,0.4690000116825104,-30.161001205444336
1788679272317083600,7.816083740234375,-21.534000396728516,1.4530000686645508,-28.72500228881836
1788679272333323800,7.83232373046875,-22.11100196838379,1.752000093460083,-30.454002380371094
1788679272349455600,7.84845556640625,-22.10500144958496,1.3240001201629639,-30.4580020904541
1788679272365589800,7.86458984375,-22.540000915527344,1.5360000133514404,-30.65900230407715
1788679272381846000,7.880845947265625,-22.428001403808594,0.999000072479248,-30.766000747680664
1788679272397925600,7.896925537109375,-22.341001510620117,3.25600004196167,-30.23600196838379
1788679272414173200,7.913173095703125,-21.167001724243164,1.309000015258789,-31.47800064086914
1788679272430261800,7.92926171875,-22.631000518798828,1.437000036239624,-30.048002243041992
1788679272446403800,7.94540380859375,-21.190000534057617,1.8350000381469727,-32.18600082397461
1788679272462662400,7.961662353515625,-21.49700164794922,3.0320000648498535,-30.851001739501953
1788679272478742300,7.9777421875,-20.095001220703125,2.1740000247955322,-30.75800132751465
1788679272494994000,7.993993896484375,-20.827001571655273,0.7790000438690186,-30.97300148010254
1788679272511006200,8.010006103515625,-21.692001342773438,0.5580000281333923,-31.58500099182129
1788679272527106800,8.02610693359375,-22.373001098632812,1.6160000562667847,-32.69600296020508
1788679272543350500,8.0423505859375,-23.642000198364258,2.5970001220703125,-31.56500244140625
1788679272559428400,8.058428466796874,-21.957000732421875,2.7970001697540283,-32.48200225830078
1788679272575687700,8.074687744140626,-21.42500114440918,2.9030001163482666,-32.48200225830078
1788679272591783200,8.090783203125,-22.56800079345703,2.9240000247955322,-31.054000854492188
1788679272607956000,8.1069560546875,-20.85900115966797,2.705000162124634,-31.160001754760742
1788679272624214500,8.123214599609375,-19.586000442504883,2.1579999923706055,-31.87900161743164
1788679272640294100,8.139294189453125,-21.529001235961914,3.013000249862671,-32.277000427246094
1788679272656557300,8.155557373046875,-21.48200035095215,2.933000087738037,-30.240001678466797
1788679272672677400,8.171677490234375,-22.75800132751465,2.074000120162964,-30.552001953125
1788679272688808400,8.187808349609375,-24.28900146484375,1.190000057220459,-32.69700241088867
1788679272705067500,8.204067626953124,-21.803001403808594,0.9880000352859497,-31.48000144958496
1788679272721148000,8.22014794921875,-21.0570011138916,1.4180001020431519,-31.273000717163086
1788679272737377300,8.236377197265625,-21.924001693725586,2.06000018119812,-31.470001220703125
1788679272753503700,8.252503662109374,-21.038000106811523,1.2140001058578491,-30.562002182006836
1788679272769643500,8.2686435546875,-22.154001235961914,1.402000069618225,-32.59600067138672
1788679272785901300,8.2849013671875,-21.70400047302246,0.8750000596046448,-31.888002395629883
1788679272801982700,8.300982666015624,-19.796001434326172,1.9440001249313354,-31.88100242614746
1788679272818184000,8.317183837890624,-21.49100112915039,1.63100004196167,-31.474000930786133
1788679272834274000,8.333274169921875,-22.742000579833984,0.8950000405311584,-30.562002182006836
1788679272850414600,8.34941455078125,-22.328001022338867,0.6700000166893005,-31.27800178527832
1788679272866674200,8.365674072265625,-23.17300033569336,0.6770000457763672,-30.869001388549805
1788679272882752800,8.381752685546875,-22.766000747680664,-0.30800002813339233,-32.40700149536133
1788679272898978000,8.39797802734375,-23.4010009765625,0.5610000491142273,-31.5830020904541
1788679272915069700,8.414069580078126,-23.439001083374023,1.8340001106262207,-32.4890022277832
1788679272931203600,8.43020361328125,-22.99700164794922,1.0860000848770142,-32.29199981689453
1788679272947461600,8.446461669921876,-22.788002014160156,2.380000114440918,-31.670001983642578
1788679272963538000,8.462537841796875,-25.310001373291016,1.7600001096725464,-30.246002197265625
1788679272979767300,8.478767333984376,-24.376001358032227,2.3910000324249268,-31.056001663208008
1788679272995865000,8.494864990234374,-23.94900131225586,1.4170000553131104,-31.677001953125
1788679273012003800,8.51100390625,-24.76500129699707,1.0090000629425049,-30.253002166748047
1788679273028263700,8.527263671875,-22.99100112915039,1.846000075340271,-31.572002410888672
1788679273044344300,8.54334423828125,-24.4580020904541,1.758000135421753,-30.349000930786133
1788679273060575500,8.559575439453125,-24.685001373291016,2.2900002002716064,-30.649002075195312
1788679273076679400,8.575679443359375,-24.810001373291016,2.2790000438690186,-31.464000701904297
1788679273092852200,8.591852294921875,-27.250001907348633,1.968000054359436,-30.955001831054688
1788679273109112000,8.608112060546874,-24.91200065612793,3.255000114440918,-30.641000747680664
1788679273125192000,8.62419189453125,-26.393001556396484,2.077000141143799,-30.751001358032227
1788679273141463300,8.64046337890625,-24.73600196838379,3.6640002727508545,-32.0629997253418
1788679273157578000,8.656577880859375,-24.8960018157959,2.4000000953674316,-30.444002151489258
1788679273173752600,8.672752685546875,-25.791000366210938,3.0250000953674316,-31.864002227783203
1788679273190014000,8.689013916015625,-24.73600196838379,1.8270001411437988,-33.20000076293945
1788679273206094600,8.705094482421876,-23.96000099182129,2.7080001831054688,-31.360000610351562
1788679273222359800,8.72135986328125,-25.351001739501953,3.248000144958496,-31.149002075195312
1788679273238481000,8.73748095703125,-25.23000144958496,2.392000198364258,-31.055002212524414
1788679273254613500,8.753613525390625,-25.88500213623047,2.2760000228881836,-31.769001007080078
1788679273270875100,8.769875244140625,-26.416000366210938,3.576000213623047,-30.840002059936523
1788679273286956800,8.785956787109376,-24.909000396728516,1.527000069618225,-31.573001861572266
1788679273303192000,8.802192138671876,-24.2450008392334,2.8370001316070557,-29.72800064086914
1788679273319239400,8.818239501953125,-26.65300178527832,3.130000114440918,-32.16800308227539
1788679273335310600,8.834310546875,-24.91900062561035,2.9260001182556152,-31.15300178527832
1788679273351523600,8.850523681640626,-23.656002044677734,3.7770001888275146,-31.453001022338867
1788679273367533600,8.866533447265626,-24.160001754760742,2.068000078201294,-31.161001205444336
1788679273383774500,8.8827744140625,-25.351001739501953,3.4640002250671387,-31.046001434326172
1788679273399830300,8.898830322265624,-25.963001251220703,1.537000060081482,-30.96000099182129
1788679273415924200,8.91492431640625,-27.670001983642578,1.433000087738037,-30.959001541137695
1788679273432185000,8.93118505859375,-27.670001983642578,3.05400013923645,-29.926000595092773
1788679273448267300,8.947267333984374,-25.97100067138672,2.2890000343322754,-30.852001190185547
1788679273464498200,8.963498291015625,-26.534000396728516,3.3530001640319824,-31.453001022338867
1788679273480598000,8.979597900390624,-26.597002029418945,2.19100022315979,-30.240001678466797
1788679273496738000,8.995738037109374,-26.663002014160156,3.6640002727508545,-32.2650032043457
1788679273512998000,9.011997802734374,-26.82600212097168,2.830000162124634,-30.540000915527344
1788679273529079800,9.028079833984375,-28.431001663208008,2.074000120162964,-31.156002044677734
1788679273545309000,9.044308837890625,-27.77800178527832,1,-31.268001556396484
1788679273561418500,9.06041845703125,-27.362001419067383,2.830000162124634,-30.641000747680664
1788679273577552100,9.07655224609375,-29.25400161743164,2.0950000286102295,-29.729001998901367
1788679273593811200,9.092811279296875,-27.525001525878906,0.8070000410079956,-29.64000129699707
1788679273609890300,9.108890380859375,-29.12200164794922,1.7850000858306885,-28.815000534057617
1788679273626121700,9.125121826171876,-27.555002212524414,1.6540000438690186,-30.448001861572266
1788679273642237400,9.141237548828125,-27.463001251220703,1.2130000591278076,-31.36800193786621
1788679273658374100,9.1573740234375,-28.13300132751465,2.384000062942505,-31.96900177001953
1788679273674631000,9.173630859375,-28.931001663208008,-0.1730000078678131,-31.073001861572266
1788679273690708500,9.18970849609375,-25.725000381469727,0.9040000438690186,-30.253002166748047
1788679273706939400,9.205939453125,-25.621000289916992,0.7930000424385071,-30.4580020904541
1788679273723032000,9.222031982421875,-26.345001220703125,-0.055000003427267075,-29.955001831054688
1788679273739163100,9.2381630859375,-27.134000778198242,0.7850000262260437,-31.2710018157959
1788679273755340500,9.254340576171876,-26.487001419067383,0.13900001347064972,-31.37900161743164
1788679273771423000,9.270423095703125,-27.027000427246094,0.893000066280365,-31.168001174926758
1788679273787679500,9.286679443359375,-26.788002014160156,0.04400000348687172,-30.565000534057617
1788679273803810800,9.302810791015625,-28.681001663208008,-1.5560001134872437,-30.2710018157959
1788679273819943700,9.318943603515624,-27.946001052856445,-0.5920000076293945,-30.26300048828125
1788679273836170200,9.335170166015626,-26.671001434326172,-1.787000060081482,-31.29400062561035
1788679273852157000,9.351156982421875,-27.19300079345703,-2.8590002059936523,-31.405000686645508
1788679273868366000,9.367365966796875,-25.82200050354004,-1.7910001277923584,-31.499000549316406
1788679273884455700,9.38345556640625,-27.5260009765625,-2.2180001735687256,-31.602001190185547
1788679273900593400,9.399593505859375,-29.647001266479492,-0.6930000185966492,-29.95600128173828
1788679273916841500,9.415841552734374,-27.79400062561035,-2.078000068664551,-29.156002044677734
1788679273932923400,9.43192333984375,-28.772001266479492,-2.195000171661377,-29.97100067138672
1788679273949149400,9.4481494140625,-28.418001174926758,-3.4720001220703125,-29.269001007080078
1788679273965250000,9.46425,-28.34400177001953,-2.7350001335144043,-30.282001495361328
1788679273981387800,9.4803876953125,-28.033000946044922,-1.877000093460083,-30.173002243041992
1788679273997642800,9.496642822265626,-27.417001724243164,-1.8930001258850098,-31.29400062561035
1788679274013723100,9.51272314453125,-27.821001052856445,-3.2830002307891846,-31.102001190185547
1788679274029953500,9.52895361328125,-28.24300193786621,-1.9820001125335693,-30.071001052856445
1788679274046061300,9.545061279296876,-27.81100082397461,-2.5200002193450928,-30.179000854492188
1788679274062199300,9.56119921875,-28.01700210571289,-3.056000232696533,-30.183000564575195
1788679274078458000,9.5774580078125,-25.018001556396484,-3.9190001487731934,-30.296001434326172
1788679274094530600,9.593530517578126,-28.676000595092773,-3.1740002632141113,-31.10000228881836
1788679274110768000,9.60976806640625,-27.505001068115234,-2.0980000495910645,-30.5830020904541
1788679274126861000,9.625861083984375,-25.780000686645508,-2.5220000743865967,-30.079002380371094
1788679274143000000,9.642,-28.233001708984375,-2.517000198364258,-29.974000930786133
1788679274159260000,9.658260009765625,-26.308000564575195,-3.059000253677368,-30.185001373291016
1788679274175324200,9.67432421875,-27.841001510620117,-2.322000026702881,-31.399002075195312
1788679274191552500,9.690552490234374,-28.427001953125,-1.9640001058578491,-28.74700164794922
1788679274207675100,9.706675048828124,-28.0260009765625,-2.197000026702881,-30.07400131225586
1788679274223791900,9.7227919921875,-28.01300048828125,-2.8370001316070557,-29.876001358032227
1788679274240052700,9.739052734375,-27.26300048828125,-3.0530002117156982,-29.878002166748047
1788679274256130600,9.755130615234375,-27.13500213623047,-3.257000207901001,-29.065000534057617
1788679274272367600,9.77136767578125,-26.73900032043457,-2.30400013923645,-29.87200164794922
1788679274288500700,9.787500732421876,-28.305002212524414,-3.576000213623047,-29.067001342773438
1788679274304673800,9.803673828125,-27.398000717163086,-1.665000081062317,-30.273000717163086
1788679274320919800,9.819919921875,-26.726001739501953,-3.2680001258850098,-29.881000518798828
1788679274337004500,9.836004638671875,-28.654001235961914,-2.621000051498413,-29.7710018157959
1788679274353292800,9.852292724609375,-27.911001205444336,-3.1650002002716064,-30.286001205444336
1788679274369387500,9.868387451171875,-26.220001220703125,-3.070000171661377,-31.000001907348633
1788679274385519000,9.88451904296875,-26.821001052856445,-3.261000156402588,-29.371002197265625
1788679274401775900,9.90077587890625,-26.205001831054688,-2.30400013923645,-29.873001098632812
1788679274417853000,9.91685302734375,-26.843000411987305,-1.5450000762939453,-29.25400161743164
1788679274434110000,9.93310986328125,-27.060001373291016,-2.0870001316070557,-29.768001556396484
1788679274450210300,9.949210205078124,-25.338001251220703,-2.0820000171661377,-29.15900230407715
1788679274466347300,9.96534716796875,-26.849000930786133,-1.1160000562667847,-29.251001358032227
1788679274482603300,9.981603271484374,-27.479001998901367,-3.1630001068115234,-30.0830020904541
1788679274498685400,9.997685546875,-26.968000411987305,-1.5560001134872437,-30.069002151489258
1788679274514911700,10.013911865234375,-25.68600082397461,-2.5310001373291016,-30.691001892089844
1788679274531022000,10.03002197265625,-25.876001358032227,-1.6510000228881836,-29.053001403808594
1788679274547163100,10.0461630859375,-24.512001037597656,-1.8840000629425049,-30.279001235961914
1788679274563401500,10.0624013671875,-24.691001892089844,-2.7270002365112305,-29.268001556396484
1788679274579465700,10.0784658203125,-24.07400131225586,-1.3380000591278076,-29.46000099182129
1788679274595681300,10.094681396484376,-24.48600196838379,-2.625000238418579,-29.573001861572266
1788679274611798800,10.110798828125,-25.79400062561035,-1.6660001277923584,-30.174001693725586
1788679274627935700,10.126935791015624,-26.740001678466797,-2.0880000591278076,-29.769001007080078
1788679274644193300,10.143193359375,-27.18600082397461,-1.8820000886917114,-30.479001998901367
1788679274660268800,10.159268798828125,-25.059001922607422,-1.5670000314712524,-30.683000564575195
1788679274676494600,10.17549462890625,-26.966001510620117,-2.8510000705718994,-30.79400062561035
1788679274692626000,10.1916259765625,-27.39000129699707,-2.5250000953674316,-30.485000610351562
1788679274708762400,10.207762451171876,-25.48000144958496,-2.5350000858306885,-30.99700164794922
1788679274725040600,10.22404052734375,-23.959001541137695,-2.4140000343322754,-29.775001525878906
1788679274741120500,10.24012060546875,-24.937000274658203,-2.5300002098083496,-30.590002059936523
1788679274757349600,10.256349609375,-25.90300178527832,-2.9640002250671387,-31.102001190185547
1788679274773435400,10.272435302734374,-25.459001541137695,-2.8470001220703125,-30.286001205444336
1788679274789573000,10.288572998046876,-24.8960018157959,-3.370000123977661,-29.273000717163086
1788679274805830400,10.304830322265625,-25.21700096130371,-3.8020002841949463,-29.582000732421875
1788679274821907700,10.32090771484375,-24.179000854492188,-2.633000135421753,-30.184001922607422
1788679274838133800,10.3371337890625,-24.150001525878906,-4.236999988555908,-29.893001556396484
1788679274854222800,10.353222900390625,-23.437000274658203,-3.070000171661377,-30.698001861572266
1788679274870359000,10.369359130859374,-23.55000114440918,-3.2900002002716064,-31.108001708984375
1788679274886620200,10.3856201171875,-23.025001525878906,-2.432000160217285,-30.999000549316406
1788679274902697200,10.401697265625,-22.867000579833984,-3.373000144958496,-29.2760009765625
1788679274918957000,10.41795703125,-23.737001419067383,-2.8410000801086426,-29.677001953125
1788679274935060000,10.43406005859375,-24.5260009765625,-3.2980000972747803,-31.82000160217285
1788679274951191300,10.45019140625,-24.207000732421875,-2.1100001335144043,-31.09600067138672
1788679274967448600,10.466448486328124,-24.95100212097168,-1.999000072479248,-30.891000747680664
1788679274983526700,10.482526611328124,-23.615001678466797,-2.8320000171661377,-28.964000701904297
1788679274999757800,10.4987578125,-22.47300148010254,-1.7730001211166382,-29.7710018157959
1788679275015870500,10.514870361328125,-23.826000213623047,-4.343000411987305,-29.792001724243164
1788679275032007000,10.5310068359375,-22.911001205444336,-3.616000175476074,-31.417001724243164
1788679275048261600,10.54726171875,-23.110000610351562,-3.1750001907348633,-30.496002197265625
1788679275064336400,10.56333642578125,-23.889001846313477,-4.057000160217285,-32.4379997253418
1788679275080571100,10.579571044921876,-23.325000762939453,-3.2830002307891846,-30.599000930786133
1788679275096688400,10.5956884765625,-23.11400032043457,-3.069000244140625,-30.597002029418945
1788679275112825300,10.611825439453124,-22.78900146484375,-3.6070001125335693,-30.704002380371094
1788679275129081300,10.628081298828125,-23.09600067138672,-3.707000255584717,-30.19500160217285
1788679275145160700,10.64416064453125,-22.273000717163086,-2.754000186920166,-31.003002166748047
1788679275161390300,10.660390380859376,-24.089000701904297,-3.4000000953674316,-31.41400146484375
1788679275177517000,10.67651708984375,-23.325000762939453,-2.635000228881836,-30.185001373291016
1788679275193651700,10.692651611328126,-23.339000701904297,-4.048000335693359,-31.726001739501953
1788679275209909000,10.708908935546875,-24.260000228881836,-2.509000062942505,-28.961000442504883
1788679275225992700,10.72499267578125,-23.99300193786621,-4.271000385284424,-32.44000244140625
1788679275242235100,10.741235107421875,-23.931001663208008,-4.450000286102295,-29.793001174926758
1788679275258348500,10.7573486328125,-23.332000732421875,-3.6110000610351562,-31.11100196838379
1788679275274486500,10.773486572265625,-22.541000366210938,-3.9110002517700195,-29.38300132751465
1788679275290744800,10.789744873046875,-20.875001907348633,-3.507000207901001,-31.011001586914062
1788679275306824700,10.80582470703125,-23.035001754760742,-3.0860002040863037,-31.82000160217285
1788679275323076000,10.822076171875,-23.546001434326172,-4.368000030517578,-31.626001358032227
1788679275339165200,10.838165283203125,-21.371000289916992,-3.5910000801086426,-29.381000518798828
1788679275355306500,10.854306396484375,-25.475000381469727,-3.181000232696533,-31.20600128173828
1788679275371562200,10.870562255859374,-24.582000732421875,-4.3470001220703125,-30.19900131225586
1788679275387643400,10.886643310546875,-23.43600082397461,-3.6100001335144043,-31.009000778198242
1788679275403906600,10.902906494140625,-24.623001098632812,-2.5350000858306885,-30.8960018157959
1788679275420011300,10.91901123046875,-21.400001525878906,-2.9610002040863037,-30.293001174926758
1788679275436187000,10.935186767578125,-23.435001373291016,-2.8530001640319824,-30.49300193786621
1788679275452413200,10.9514130859375,-22.801000595092773,-2.5340001583099365,-30.593002319335938
1788679275468491800,10.96749169921875,-23.21900177001953,-2.203000068664551,-29.97800064086914
1788679275484754400,10.98375439453125,-22.273000717163086,-1.7820000648498535,-30.38300132751465
1788679275500865300,10.999865234375,-22.190000534057617,-0.7160000205039978,-30.781002044677734
1788679275517003000,11.0160029296875,-23.66200065612793,-1.564000129699707,-30.277002334594727
1788679275533258800,11.0322587890625,-22.42300033569336,-1.4830000400543213,-32.112003326416016
1788679275549340200,11.048340087890624,-23.047000885009766,-0.5,-30.77800178527832
1788679275565566500,11.06456640625,-21.75800132751465,-0.281000018119812,-30.268001556396484
1788679275581691600,11.080691650390625,-22.104001998901367,0.5680000185966492,-30.87200164794922
1788679275597830100,11.096830078125,-23.09400177001953,0.22800001502037048,-32.4010009765625
1788679275614088200,11.113088134765626,-22.304000854492188,-1.6920000314712524,-31.70600128173828
1788679275630168800,11.1291689453125,-22.50800132751465,-0.9290000200271606,-30.783000946044922
1788679275646396700,11.145396728515625,-21.569000244140625,-1.1600000858306885,-31.906002044677734
1788679275662529300,11.161529296875,-23.13800048828125,-2.327000141143799,-31.202001571655273
1788679275678668300,11.177668212890625,-22.643001556396484,-0.5139999985694885,-31.797000885009766
1788679275694925800,11.19392578125,-22.85700035095215,-0.9470000267028809,-32.10600280761719
1788679275711003100,11.210003173828126,-21.39000129699707,-0.9650000333786011,-33.33100128173828
1788679275727230200,11.226230224609376,-21.043001174926758,-0.08500000089406967,-31.59200096130371
1788679275743363800,11.24236376953125,-22.227001190185547,0.12600000202655792,-31.894001007080078
1788679275759500800,11.258500732421876,-22.441001892089844,0.34200000762939453,-31.790000915527344
1788679275775757300,11.27475732421875,-20.937000274658203,-0.8420000672340393,-32.108001708984375
1788679275791838700,11.290838623046875,-21.253000259399414,-0.6240000128746033,-31.80000114440918
1788679275808069600,11.307069580078124,-22.543001174926758,-0.5180000066757202,-32.10300064086914
1788679275824165600,11.32316552734375,-21.378000259399414,-0.9590000510215759,-32.82200241088867
1788679275840301000,11.339301025390625,-21.171001434326172,0.009000000543892384,-32.50800323486328
1788679275856558300,11.355558349609375,-21.080001831054688,0.3230000138282776,-33.013999938964844
1788679275872634600,11.371634521484374,-21.19700050354004,1.0740000009536743,-33.00800323486328
1788679275888897300,11.387897216796874,-19.871000289916992,-0.8460000157356262,-32.211002349853516
1788679275904996400,11.403996337890625,-21.6200008392334,0.42900002002716064,-33.21600341796875
1788679275921138700,11.420138671875,-22.96900177001953,-1.2730000019073486,-32.51700210571289
1788679275937396000,11.43639599609375,-22.959001541137695,-0.8350000381469727,-31.80000114440918
1788679275953475600,11.4524755859375,-20.73200035095215,-0.41600000858306885,-32.20600128173828
1788679275969746700,11.46874658203125,-20.823001861572266,-0.5139999985694885,-31.59600067138672
1788679275985862400,11.4848623046875,-21.36600112915039,-1.8160001039505005,-32.829002380371094
1788679276002034400,11.501034423828125,-20.00200080871582,-1.0760000944137573,-33.43600082397461
1788679276018295800,11.5172958984375,-20.20800018310547,-0.8550000190734863,-32.92399978637695
1788679276034377000,11.533376953125,-21.39900016784668,-0.10700000822544098,-33.22100067138672
1788679276050611000,11.54961083984375,-22.123001098632812,-0.6320000290870667,-32.512001037597656
1788679276066737400,11.5657373046875,-22.136001586914062,-0.2070000171661377,-32.814002990722656
1788679276082880300,11.58188037109375,-23.123001098632812,0.21000000834465027,-33.72600173950195
1788679276099139300,11.598139404296875,-20.106000900268555,0.006000000052154064,-32.611000061035156
1788679276115220000,11.614219970703125,-21.944000244140625,0.3190000057220459,-33.42100143432617
1788679276131454700,11.630454833984375,-20.856000900268555,-0.42600002884864807,-33.020999908447266
1788679276147578000,11.646578125,-19.8960018157959,0.11100000888109207,-32.71200180053711
1788679276163751700,11.662751708984375,-21.510000228881836,-0.6490000486373901,-33.73500061035156
1788679276180012000,11.679011962890625,-22.584001541137695,-0.8670000433921814,-34.143001556396484
1788679276196094000,11.695093994140626,-21.944000244140625,-0.6530000567436218,-34.04100036621094
1788679276212376000,11.7113759765625,-20.648000717163086,0.11000000685453415,-32.915000915527344
1788679276228455200,11.727455078125,-21.731000900268555,0.7500000596046448,-33.2130012512207
1788679276244598500,11.7435986328125,-22.2760009765625,0.20400001108646393,-34.03300094604492
1788679276260842200,11.75984228515625,-19.142000198364258,0.11400000751018524,-32.40700149536133
1788679276276920800,11.7759208984375,-22.343000411987305,-1.5000001192092896,-33.33400344848633
1788679276293179000,11.792178955078125,-21.726001739501953,-0.0020000000949949026,-33.42399978637695
1788679276309225500,11.8082255859375,-19.66900062561035,-0.527999997138977,-32.513999938964844
1788679276325338400,11.82433837890625,-21.446001052856445,1.2690000534057617,-34.432003021240234
1788679276341584400,11.84058447265625,-21.84200096130371,-0.11600000411272049,-33.93400192260742
1788679276357676500,11.856676513671875,-22.48900032043457,0.20500001311302185,-34.03200149536133
1788679276373941200,11.872941162109376,-21.30500030517578,1.290000081062317,-32.90400314331055
1788679276390042600,11.889042724609375,-22.394001007080078,2.3590002059936523,-33.198001861572266
1788679276406183200,11.90518310546875,-22.12900161743164,-0.203000009059906,-32.50800323486328
1788679276422442500,11.9214423828125,-22.700000762939453,1.503000020980835,-33.104000091552734
1788679276438525400,11.937525390625,-23.630001068115234,1.2000000476837158,-31.88300132751465
1788679276454750700,11.953750732421875,-21.71900177001953,0.9740000367164612,-32.49800109863281
1788679276470863000,11.969863037109375,-22.694000244140625,0.859000027179718,-33.211002349853516
1788679276487035600,11.98603564453125,-20.46900177001953,3.439000129699707,-32.37600326538086
1788679276503294500,12.00229443359375,-21.297000885009766,1.187000036239624,-32.599002838134766
1788679276519373000,12.018373046875,-22.179000854492188,1.7110000848770142,-33.51000213623047
1788679276535637200,12.03463720703125,-22.681001663208008,0.7590000629425049,-32.7030029296875
1788679276551763000,12.050762939453126,-22.395000457763672,0.9530000686645508,-34.12800216674805
1788679276567900700,12.066900634765625,-23.249000549316406,2.576000213623047,-33.09400177001953
1788679276584161500,12.08316162109375,-20.775001525878906,2.367000102996826,-32.38500213623047
1788679276600215800,12.0992158203125,-21.838001251220703,1.0750000476837158,-33.00699996948242
1788679276616446200,12.1154462890625,-21.10300064086914,1.9310001134872437,-33
1788679276632511000,12.131510986328125,-21.439001083374023,1.9220000505447388,-33.7130012512207
1788679276648647000,12.14764697265625,-21.134000778198242,2.2360000610351562,-34.220001220703125
1788679276664907300,12.1639072265625,-22.273000717163086,0.9630000591278076,-33.415000915527344
1788679276680966700,12.179966552734374,-22.185001373291016,0.5190000534057617,-34.53900146484375
1788679276697229600,12.1962294921875,-22.262001037597656,0.32100000977516174,-33.31800079345703
1788679276713318700,12.212318603515625,-24.297000885009766,-0.21900001168251038,-33.932003021240234
1788679276729455600,12.22845556640625,-22.363000869750977,0.1080000028014183,-33.21800231933594
1788679276745711900,12.2447119140625,-22.23900032043457,-1.8260000944137573,-33.643001556396484
1788679276761793000,12.26079296875,-22.60500144958496,-0.6640000343322754,-34.957000732421875
1788679276778059000,12.27705908203125,-21.177001953125,-2.0470001697540283,-34.05400085449219
1788679276794156000,12.293156005859375,-20.55000114440918,-0.7590000629425049,-33.84000015258789
1788679276810290200,12.309290283203126,-21.21000099182129,0.20100000500679016,-34.13600158691406
1788679276826550000,12.325550048828125,-21.07200050354004,-0.4270000159740448,-33.12300109863281
1788679276842596600,12.3415966796875,-23.433000564575195,-0.8630000352859497,-33.939002990722656
1788679276858829600,12.35782958984375,-22.36100196838379,-1.186000108718872,-33.94300079345703
1788679276874936300,12.373936279296874,-22.030000686645508,-0.64000004529953,-33.124000549316406
1788679276891111700,12.390111572265624,-24.19500160217285,1.290000081062317,-33.20600128173828
1788679276907373000,12.406373046875,-21.369001388549805,-1.602000117301941,-32.82699966430664
1788679276923453400,12.422453369140625,-22.376001358032227,0.5330000519752502,-33.52000045776367
1788679276939728400,12.438728271484376,-22.064001083374023,0.3110000193119049,-34.03200149536133
1788679276955847000,12.454846923828125,-22.553001403808594,0.015000000596046448,-32.20000076293945
1788679276971976200,12.47097607421875,-21.100000381469727,0.7440000176429749,-33.62200164794922
1788679276988238600,12.487238525390625,-21.09400177001953,0.9640000462532043,-33.21200180053711
1788679277004321800,12.50332177734375,-21.106000900268555,1.3880000114440918,-33.513999938964844
1788679277020556800,12.519556884765626,-21.283000946044922,-0.10100000351667404,-32.814002990722656
1788679277036683500,12.53568359375,-22.926000595092773,0.5240000486373901,-34.233001708984375
1788679277052801000,12.551801025390626,-22.161001205444336,1.3980001211166382,-32.902000427246094
1788679277068990700,12.56799072265625,-21.022001266479492,3.5360002517700195,-33.19000244140625
1788679277085004000,12.584004150390625,-22.788002014160156,1.2990000247955322,-32.39200210571289
1788679277101111800,12.60011181640625,-22.192001342773438,2.3519999980926514,-33.70800018310547
1788679277117158700,12.61615869140625,-21.442001342773438,3.325000047683716,-32.987003326416016
1788679277133252600,12.632252685546876,-23.615001678466797,3.198000192642212,-34.717002868652344
1788679277149514500,12.648514404296876,-21.371000289916992,3.0870001316070557,-34.72100067138672
1788679277165598500,12.664598388671875,-22.213001251220703,3.5280001163482666,-33.9010009765625
1788679277181879800,12.6808798828125,-21.134000778198242,1.912000060081482,-34.426002502441406
1788679277198012700,12.6970126953125,-22.404001235961914,0.9480000734329224,-34.53499984741211
1788679277214176300,12.71317626953125,-20.053001403808594,1.2700001001358032,-34.230003356933594
1788679277230441200,12.729441162109374,-21.551000595092773,2.4590001106262207,-33.60600280761719
1788679277246524400,12.7455244140625,-23.2450008392334,2.4700000286102295,-32.99300003051758
1788679277262817300,12.7618173828125,-20.269001007080078,1.4840000867843628,-34.22800064086914
1788679277278915000,12.7779150390625,-21.974000930786133,0.4090000092983246,-34.74400329589844
1788679277295049200,12.79404931640625,-21.54800033569336,0.9480000734329224,-34.43400192260742
1788679277311306800,12.810306640625,-21.62900161743164,-0.4400000274181366,-34.1410026550293
1788679277327378000,12.8263779296875,-21.839000701904297,-1.194000005722046,-34.4530029296875
1788679277343675100,12.842675048828125,-22.571001052856445,-2.5890002250671387,-34.66800308227539
1788679277359782000,12.858781982421876,-21.792001724243164,-3.2200002670288086,-33.656002044677734
1788679277375957200,12.874957275390624,-21.642000198364258,-1.7450001239776611,-35.579002380371094
1788679277392215000,12.891215087890625,-21.632001876831055,-0.550000011920929,-34.34600067138672
1788679277408295700,12.907295654296876,-21.067001342773438,-1.6130000352859497,-33.643001556396484
1788679277424580400,12.923580322265625,-21.362001419067383,-3.759000062942505,-33.8650016784668
1788679277440690700,12.939690673828125,-21.940000534057617,-1.7310000658035278,-34.55900192260742
1788679277456867000,12.9558671875,-22.25800132751465,-1.621000051498413,-34.354000091552734
1788679277473102000,12.97210205078125,-22.96900177001953,-2.246000051498413,-33.13600158691406
1788679277489178400,12.988178466796874,-21.530000686645508,-1.3100000619888306,-35.066001892089844
1788679277505408000,13.004407958984375,-24.244001388549805,-1.7000000476837158,-32.51900100708008
1788679277521401300,13.0204013671875,-23.488000869750977,-2.6690001487731934,-32.73200225830078
1788679277537540600,13.03654052734375,-22.97100067138672,-1.9230000972747803,-33.03200149536133
1788679277553802000,13.052802001953125,-21.067001342773438,-1.937000036239624,-33.849002838134766
1788679277569883600,13.068883544921874,-21.49700164794922,-1.7220001220703125,-33.84700012207031
1788679277586114300,13.0851142578125,-21.284000396728516,-0.534000039100647,-33.124000549316406
1788679277602253600,13.101253662109375,-21.60700035095215,-1.184000015258789,-33.63800048828125
1788679277618390800,13.117390869140625,-23.637001037597656,-1.7220001220703125,-34.04800033569336
1788679277634647000,13.13364697265625,-23.07400131225586,-2.6780002117156982,-33.34400177001953
1788679277650731000,13.14973095703125,-23.088001251220703,-3.6590001583099365,-34.57500076293945
1788679277666956300,13.165956298828124,-22.334001541137695,-1.8190001249313354,-33.134002685546875
1788679277683048200,13.182048095703125,-23.312000274658203,-0.9620000720024109,-33.3280029296875
1788679277699219200,13.19821923828125,-21.889001846313477,-2.133000135421753,-32.5260009765625
1788679277715474400,13.214474365234375,-21.928001403808594,-1.2920000553131104,-33.74100112915039
1788679277731550700,13.23055078125,-21.591001510620117,-1.8220001459121704,-33.3380012512207
1788679277747779000,13.246779052734375,-21.74100112915039,-0.6600000262260437,-34.55000305175781
1788679277763873800,13.262873779296875,-20.676000595092773,0.30900001525878906,-34.034000396728516
1788679277780045600,13.279045654296874,-20.44900131225586,0.5330000519752502,-33.319000244140625
1788679277796301300,13.29530126953125,-21.5310001373291,-0.12200000882148743,-34.342002868652344
1788679277812381000,13.311380859375,-19.42500114440918,0.7210000157356262,-35.152000427246094
1788679277828552400,13.327552490234375,-19.806001663208008,0.31700000166893005,-33.32200241088867
1788679277844657200,13.3436572265625,-23.23600196838379,0.6390000581741333,-33.72200012207031
1788679277860785700,13.35978564453125,-18.873001098632812,1.3790000677108765,-33.92500305175781
1788679277877046500,13.376046630859374,-21.5570011138916,1.2670000791549683,-34.63500213623047
1788679277893123600,13.39212353515625,-20.53700065612793,1.6250001192092896,-31.781002044677734
1788679277909354800,13.408354736328125,-22.698001861572266,0.5320000052452087,-33.62200164794922
1788679277925471200,13.42447119140625,-21.767000198364258,1.8100000619888306,-34.121002197265625
1788679277941602000,13.44060205078125,-19.510000228881836,0.9500000476837158,-34.02900314331055
1788679277957861000,13.456861083984375,-21.209001541137695,1.283000111579895,-33.413002014160156
1788679277973941800,13.472941650390625,-20.5570011138916,-0.8720000386238098,-34.24800109863281
1788679277990176500,13.489176513671875,-23.440000534057617,0.42900002002716064,-33.41800308227539
1788679278006305800,13.505305908203125,-20.785001754760742,0.956000030040741,-33.72200012207031
1788679278022443800,13.52144384765625,-21.112001419067383,1.277000069618225,-33.82100296020508
1788679278038700000,13.537699951171875,-19.783000946044922,-1.8290001153945923,-33.645999908447266
1788679278054781200,13.55378125,-21.951000213623047,0.2070000171661377,-33.829002380371094
1788679278071022300,13.570022216796875,-22.06300163269043,-0.22800001502037048,-34.342002868652344
1788679278087157000,13.586156982421874,-21.099000930786133,-0.984000027179718,-34.656002044677734
1788679278103297300,13.60229736328125,-21.398000717163086,-0.5380000472068787,-33.42900085449219
1788679278119555000,13.61855517578125,-22.900001525878906,-1.621000051498413,-34.45500183105469
1788679278135633700,13.634633544921876,-25.13800048828125,-0.31800001859664917,-33.422000885009766
1788679278151913200,13.650913330078126,-21.303001403808594,1.6150001287460327,-32.595001220703125
1788679278168000500,13.66700048828125,-23.416000366210938,-1.2850000858306885,-33.43300247192383
1788679278184171300,13.683171142578125,-21.740001678466797,-0.44300001859664917,-34.345001220703125
1788679278200426500,13.699426513671876,-22.601001739501953,0.4180000126361847,-34.13199996948242
1788679278216505300,13.71550537109375,-22.849000930786133,-1.374000072479248,-32.00800323486328
1788679278232798500,13.731798583984375,-22.979001998901367,-2.3600001335144043,-33.647003173828125
1788679278248893200,13.74789306640625,-22.36100196838379,-1.5110000371932983,-34.14900207519531
1788679278265022200,13.764022216796874,-24.106000900268555,-0.2330000102519989,-34.95100021362305
1788679278281280500,13.780280517578126,-21.812000274658203,-1.6110000610351562,-33.540000915527344
1788679278297358600,13.796358642578125,-21.87900161743164,-3.207000255584717,-32.7390022277832
1788679278313585200,13.812585205078125,-23.027000427246094,-0.6610000133514404,-34.75200271606445
1788679278329694200,13.828694091796875,-21.52400016784668,-1.9540001153945923,-35.17300033569336
1788679278345831200,13.8448310546875,-21.59200096130371,-2.255000114440918,-33.64800262451172
1788679278362088700,13.861088623046875,-21.84200096130371,-1.3040000200271606,-34.65800094604492
1788679278378167600,13.87716748046875,-23.748001098632812,-1.6160000562667847,-34.14900207519531
1788679278394393600,13.8933935546875,-21.38300132751465,-2.258000135421753,-33.85200119018555
1788679278410510000,13.909510009765626,-21.911001205444336,-2.3620002269744873,-33.64800262451172
1788679278426646500,13.925646484375,-23.57900047302246,-1.2110000848770142,-35.87700271606445
1788679278442901800,13.94190185546875,-23.351001739501953,-1.0940001010894775,-35.163002014160156
1788679278458979800,13.957979736328125,-22.599000930786133,0.4190000295639038,-34.03000259399414
1788679278475208400,13.97420849609375,-20.767000198364258,-1.6260000467300415,-34.560001373291016
1788679278491339000,13.990339111328124,-21.959001541137695,-0.878000020980835,-34.85700225830078
1788679278507477200,14.006477294921876,-21.955001831054688,-2.1720001697540283,-35.480003356933594
1788679278523735800,14.02273583984375,-22.18600082397461,0.0860000029206276,-34.849002838134766
1788679278539817500,14.0388173828125,-21.61800193786621,-2.055000066757202,-34.665000915527344
1788679278556042500,14.05504248046875,-23.250001907348633,-0.017000000923871994,-34.746002197265625
1788679278572177000,14.071177001953124,-22.733001708984375,1.0509999990463257,-34.8390007019043
1788679278588315400,14.0873154296875,-24.519001007080078,-1.0880000591278076,-34.85600280761719
1788679278604576000,14.103575927734376,-25.064001083374023,0.09300000220537186,-34.6410026550293
1788679278620659200,14.1196591796875,-22.812000274658203,-0.4440000355243683,-34.547000885009766
1788679278636887600,14.135887451171875,-22.060001373291016,-0.11800000816583633,-34.13800048828125
1788679278652981000,14.15198095703125,-23.44500160217285,-0.006000000052154064,-33.930999755859375
1788679278669120800,14.168120849609375,-23.791000366210938,-0.1290000081062317,-35.15400314331055
1788679278685380600,14.184380615234375,-23.371000289916992,0.7300000190734863,-34.94300079345703
1788679278701489200,14.2004892578125,-22.9320011138916,0.5200000405311584,-34.538002014160156
1788679278717754600,14.216754638671874,-25.8330020904541,2.4590001106262207,-34.11000061035156
1788679278733847300,14.232847412109376,-22.948001861572266,0.1860000044107437,-35.45800018310547
1788679278750020400,14.249020263671875,-24.10300064086914,1.3890000581741333,-33.816001892089844
1788679278766302500,14.265302490234374,-25.562000274658203,-0.2070000171661377,-33.217002868652344
1788679278782383000,14.281383056640625,-23.059001922607422,1.8050000667572021,-34.62900161743164
1788679278798651100,14.297651123046874,-23.575000762939453,1.4920001029968262,-34.02000045776367
1788679278814754000,14.313754150390626,-22.944000244140625,1.7020000219345093,-34.32400131225586
1788679278830892800,14.329892822265625,-25.054000854492188,0.3160000145435333,-34.02799987792969
1788679278847136000,14.346135986328125,-23.09400177001953,2.9730000495910645,-35.43300247192383
1788679278863215900,14.3622158203125,-25.84200096130371,1.4810000658035278,-35.137001037597656
1788679278879444700,14.37844482421875,-23.479001998901367,1.9180001020431519,-34.220001220703125
1788679278895553300,14.39455322265625,-23.60700035095215,2.122000217437744,-35.03300094604492
1788679278911688700,14.410688720703124,-25.101001739501953,2.448000192642212,-34.82400131225586
1788679278927945200,14.4269453125,-24.022001266479492,2.7780001163482666,-34.10900115966797
1788679278944024600,14.443024658203125,-24.34600067138672,2.3440001010894775,-34.52000045776367
1788679278960263400,14.459263427734374,-25.426000595092773,3.0950000286102295,-34.6140022277832
1788679278976385300,14.47538525390625,-25.977001190185547,2.869000196456909,-35.53200149536133
1788679278992525600,14.491525634765624,-25.76300048828125,3.3010001182556152,-35.22300338745117
1788679279008784400,14.507784423828125,-24.804000854492188,1.78600013256073,-36.25600051879883
1788679279024863700,14.52386376953125,-23.933000564575195,2.5510001182556152,-35.02799987792969
1788679279041099000,14.54009912109375,-25.966001510620117,1.5790001153945923,-35.849002838134766
1788679279057235200,14.556235107421875,-25.3070011138916,2.236999988555908,-34.62200164794922
1788679279073410000,14.57241015625,-24.59800148010254,2.5370001792907715,-36.14800262451172
1788679279089668600,14.588668701171875,-25.009000778198242,2.9800002574920654,-35.125
1788679279105749800,14.604749755859375,-25.89200210571289,2.639000177383423,-36.65500259399414
1788679279122034400,14.621034423828124,-24.475000381469727,1.3580000400543213,-36.159000396728516
1788679279138123000,14.637123046875,-25.665000915527344,2.9710001945495605,-35.83700180053711
1788679279154252800,14.653252685546875,-26.088001251220703,3.515000104904175,-35.323001861572266
1788679279170513400,14.669513427734374,-27.137001037597656,0.8260000348091125,-36.15999984741211
1788679279186594600,14.685594482421875,-23.546001434326172,2.8500001430511475,-36.656002044677734
1788679279202887700,14.7018876953125,-23.542001724243164,2.8530001640319824,-36.452003479003906
1788679279218894300,14.717894287109376,-25.277000427246094,2.948000192642212,-37.570003509521484
1788679279235059200,14.73405908203125,-25.05500030517578,2.196000099182129,-37.67900085449219
1788679279251318800,14.75031884765625,-24.520000457763672,3.2760002613067627,-36.957000732421875
1788679279267403500,14.766403564453125,-24.1820011138916,2.314000129699707,-36.762001037597656
1788679279283665200,14.7826650390625,-24.475000381469727,0.7090000510215759,-36.57200241088867
1788679279299774500,14.7987744140625,-23.981000900268555,2.4140000343322754,-37.270999908447266
1788679279315948300,14.8149482421875,-24.157001495361328,1.6800000667572021,-36.05400085449219
1788679279332207900,14.831207763671875,-23.75800132751465,2.203000068664551,-36.967002868652344
1788679279348288500,14.84728857421875,-23.939001083374023,0.38600000739097595,-36.677001953125
1788679279364509700,14.863509765625,-25.448001861572266,1.027999997138977,-36.87300109863281
1788679279380632800,14.8796328125,-26.644001007080078,1.7740000486373901,-37.375
1788679279396773000,14.895773193359375,-26.964000701904297,1.4500000476837158,-37.58100128173828
1788679279413028900,14.91202880859375,-25.341001510620117,0.7040000557899475,-37.08000183105469
1788679279429107200,14.928107177734375,-27.476001739501953,1.1400001049041748,-36.768001556396484
1788679279445333000,14.9443330078125,-25.950000762939453,-1.221000075340271,-36.893001556396484
1788679279461455000,14.960455078125,-27.365001678466797,-1.7750000953674316,-38.42400360107422
1788679279477590300,14.97659033203125,-25.85300064086914,-0.6860000491142273,-36.9900016784668
1788679279493845800,14.992845703125,-27.13800048828125,-0.2540000081062317,-36.88300323486328
1788679279509924600,15.008924560546875,-29.180002212524414,-0.4750000238418579,-37.595001220703125
1788679279526153200,15.0251533203125,-27.5570011138916,-1.0049999952316284,-36.99100112915039
1788679279542286600,15.04128662109375,-26.637001037597656,-0.16700001060962677,-38.30900192260742
1788679279558424000,15.057424072265626,-27.035001754760742,-1.121000051498413,-37.604000091552734
1788679279574679000,15.073678955078124,-26.394001007080078,0.49800002574920654,-36.57100296020508
1788679279590760400,15.089760498046875,-26.64000129699707,0.046000003814697266,-38.307003021240234
1788679279606990800,15.105990966796876,-26.304000854492188,-0.5920000076293945,-38.00699996948242
1788679279623087900,15.122087890625,-26.148000717163086,-1.8590000867843628,-36.59300231933594
1788679279639225900,15.138225830078126,-27.974000930786133,-1.4300000667572021,-36.790000915527344
1788679279655480800,15.154480712890624,-26.60900115966797,-1.5550000667572021,-37.91400146484375
1788679279671558100,15.17055810546875,-27.994001388549805,-1.9830000400543213,-38.01700210571289
1788679279687789800,15.186789794921875,-28.643001556396484,-1.3390001058578491,-38.01100158691406
1788679279703890000,15.202889892578124,-29.310001373291016,-1.2450000047683716,-39.130001068115234
1788679279720028000,15.21902783203125,-29.69900131225586,-1.221000075340271,-37.397003173828125
1788679279736288300,15.235288330078125,-27.786001205444336,-0.25699999928474426,-37.1870002746582
1788679279752369000,15.251368896484376,-26.830001831054688,-0.3700000047683716,-37.49500274658203
1788679279768604200,15.267604248046876,-29.711002349853516,-0.14800000190734863,-37.28600311279297
1788679279784715800,15.2837158203125,-28.029001235961914,-0.05900000408291817,-38.40800094604492
1788679279800890000,15.29989013671875,-28.57400131225586,0.367000013589859,-38.60700225830078
1788679279817146000,15.31614599609375,-29.001001358032227,-0.6040000319480896,-39.22600173950195
1788679279833227300,15.332227294921875,-27.472002029418945,-0.9100000262260437,-37.90700149536133
1788679279849488100,15.348488037109375,-27.691001892089844,-0.049000002443790436,-37.59300231933594
1788679279865609200,15.364609130859375,-27.3960018157959,0.7990000247955322,-38.19700241088867
1788679279881738800,15.38073876953125,-27.737001419067383,0.46300002932548523,-39.320003509521484
1788679279897996800,15.396996826171875,-28.658000946044922,0.38100001215934753,-37.5880012512207
1788679279914076700,15.41307666015625,-28.0210018157959,-0.48600003123283386,-38.310001373291016
1788679279930311200,15.429311279296876,-29.51000213623047,-0.2639999985694885,-37.89800262451172
1788679279946433000,15.44543310546875,-28.66900062561035,-0.27400001883506775,-38.51100158691406
1788679279962569500,15.461569580078125,-27.1820011138916,0.5830000042915344,-38.301002502441406
1788679279978827500,15.47782763671875,-27.913002014160156,0.05400000140070915,-37.89800262451172
1788679279994913500,15.49391357421875,-27.94300079345703,0.7920000553131104,-38.80800247192383
1788679280011161300,15.510161376953125,-27.09800148010254,0.24500000476837158,-39.527000427246094
1788679280027297300,15.52629736328125,-29.608001708984375,-0.9070000648498535,-37.90400314331055
1788679280043435000,15.54243505859375,-27.415000915527344,1.2200000286102295,-38.80500030517578
1788679280059690800,15.558690673828124,-29.128002166748047,0.35500001907348633,-39.52300262451172
1788679280075772000,15.57477197265625,-28.750001907348633,0.28200000524520874,-36.97800064086914
1788679280092026600,15.591026611328125,-27.60900115966797,-0.7120000123977661,-39.12700271606445
1788679280108118300,15.6071181640625,-28.238000869750977,-0.7040000557899475,-38.617000579833984
1788679280124276200,15.623276123046875,-29.520000457763672,0.48500001430511475,-37.89200210571289
1788679280140535800,15.639535888671874,-28.796001434326172,0.03700000047683716,-39.22100067138672
1788679280156614700,15.65561474609375,-27.840002059936523,-0.9390000700950623,-40.04600143432617
1788679280172875000,15.671875,-27.39000129699707,-1.5740001201629639,-39.441001892089844
1788679280188973000,15.68797314453125,-27.380001068115234,-0.4870000183582306,-38.31100082397461
1788679280205111800,15.70411181640625,-29.548002243041992,-0.17900000512599945,-39.52800369262695
1788679280221370000,15.7203701171875,-29.179000854492188,-1.5550000667572021,-38.21600341796875
1788679280237450200,15.7364501953125,-30.1460018157959,-0.909000039100647,-38.10700225830078
1788679280253684500,15.7526845703125,-26.838001251220703,-1.2400000095367432,-38.42000198364258
1788679280269786400,15.768786376953125,-26.66200065612793,-0.398000031709671,-39.53300094604492
1788679280285920500,15.78492041015625,-28.876001358032227,-2.1060001850128174,-39.342002868652344
1788679280302184400,15.801184326171875,-26.049001693725586,-0.8480000495910645,-41.066001892089844
1788679280318245600,15.81724560546875,-25.98200035095215,-3.510000228881836,-39.7650032043457
1788679280334474500,15.833474609375,-29.09800148010254,-2.6510000228881836,-40.05900192260742
1788679280350594600,15.849594482421875,-28.439001083374023,-2.6410000324249268,-39.24500274658203
1788679280366759000,15.865759033203124,-29.501001358032227,-2.8530001640319824,-39.14400100708008
1788679280383019300,15.882019287109374,-28.457000732421875,-1.6800000667572021,-39.44000244140625
1788679280399103700,15.898103759765625,-28.02800178527832,-2.327000141143799,-39.75200271606445
1788679280415333400,15.91433349609375,-29.181001663208008,-2.205000162124634,-38.73100280761719
1788679280431462100,15.930462158203126,-28.406002044677734,-4.026000022888184,-38.64600372314453
1788679280447598000,15.94659814453125,-27.766000747680664,-4.460000038146973,-38.95600128173828
1788679280463859700,15.962859619140625,-28.001001358032227,-3.7170002460479736,-39.45900344848633
1788679280479941600,15.978941650390626,-30.454002380371094,-3.9270002841949463,-39.45800018310547
1788679280496172000,15.995172119140625,-28.3330020904541,-4.587000370025635,-40.48500061035156
1788679280512311000,16.01131103515625,-28.93600082397461,-4.671000003814697,-38.855003356933594
1788679280528453600,16.02745361328125,-27.35900115966797,-4.689000129699707,-39.97800064086914
1788679280544693000,16.04369287109375,-27.031002044677734,-4.253000259399414,-39.36300277709961
1788679280560728800,16.059728759765626,-30.54100227355957,-5.860000133514404,-39.78000259399414
1788679280576933000,16.07593310546875,-28.522001266479492,-6.193000316619873,-40.397003173828125
1788679280593029000,16.092029052734375,-30.204002380371094,-4.445000171661377,-38.13800048828125
1788679280609168100,16.108168212890625,-27.939001083374023,-5.408000469207764,-37.742000579833984
1788679280625409500,16.124409423828126,-28.191001892089844,-5.431000232696533,-39.474002838134766
1788679280641488000,16.14048779296875,-29.667001724243164,-5.309000015258789,-38.55400085449219
1788679280657720000,16.156719970703126,-28.391000747680664,-5.423000335693359,-38.862003326416016
1788679280673825000,16.172824951171876,-29.261001586914062,-5.431000232696533,-39.57400131225586
1788679280689964800,16.18896484375,-29.270000457763672,-4.463000297546387,-39.362003326416016
1788679280706226700,16.205226806640624,-30.106000900268555,-6.288000106811523,-39.68300247192383
1788679280722305000,16.221304931640624,-28.07600212097168,-6.183000087738037,-39.582000732421875
1788679280738533400,16.237533447265626,-28.040000915527344,-6.377000331878662,-38.05600357055664
1788679280754644200,16.253644287109374,-28.917001724243164,-7.146000385284424,-39.59000015258789
1788679280770781400,16.269781494140624,-28.155000686645508,-6.273000240325928,-38.361000061035156
1788679280787037000,16.286036865234376,-30.78700065612793,-6.7870001792907715,-37.038002014160156
1788679280803115500,16.302115478515624,-30.421001434326172,-4.015000343322754,-38.03200149536133
1788679280819356000,16.31835595703125,-30.08100128173828,-4.9760003089904785,-37.736000061035156
1788679280835476200,16.334476318359375,-28.992000579833984,-6.37000036239624,-37.647003173828125
1788679280851614500,16.350614501953125,-32.229000091552734,-5.737000465393066,-38.75800323486328
1788679280867875000,16.366875,-29.851001739501953,-4.9670000076293945,-37.02300262451172
1788679280883958800,16.382958740234375,-30.160001754760742,-6.4720001220703125,-37.44300079345703
1788679280900195300,16.3991953125,-27.74100112915039,-4.770000457763672,-38.0420036315918
1788679280916327200,16.4153271484375,-32.83500289916992,-5.391000270843506,-37.02300262451172
1788679280932499000,16.4314990234375,-29.345001220703125,-4.660000324249268,-38.03900146484375
1788679280948758300,16.44775830078125,-32.41200256347656,-5.934000492095947,-37.53700256347656
1788679280964838700,16.463838623046875,-31.57600212097168,-5.298000335693359,-37.94000244140625
1788679280981085000,16.4800849609375,-30.926000595092773,-4.321000099182129,-36.91400146484375
1788679280997173000,16.496173095703124,-31.671001434326172,-4.9670000076293945,-37.224002838134766
1788679281013308200,16.51230810546875,-31.44500160217285,-4.419000148773193,-36.303001403808594
1788679281029568000,16.528568115234375,-32.986000061035156,-3.688000202178955,-37.92400360107422
1788679281045649000,16.54464892578125,-31.033000946044922,-4.321000099182129,-36.91400146484375
1788679281061895700,16.560895751953126,-30.91200065612793,-3.015000104904175,-35.47600173950195
1788679281077984500,16.576984619140624,-30.32000160217285,-3.8020002841949463,-38.13199996948242
1788679281094123000,16.593123046875,-29.549001693725586,-3.3570001125335693,-36.80500030517578
1788679281110381300,16.60938134765625,-28.59400177001953,-2.930000066757202,-36.803001403808594
1788679281126461400,16.62546142578125,-30.970001220703125,-3.9150002002716064,-38.64200210571289
1788679281142726100,16.64172607421875,-29.5260009765625,-4.315999984741211,-36.406002044677734
1788679281158830300,16.657830322265625,-29.652002334594727,-3.4630000591278076,-36.704002380371094
1788679281174969900,16.673969970703126,-31.12700080871582,-4.854000091552734,-36.7140007019043
1788679281191229700,16.690229736328124,-31.235000610351562,-4.638000011444092,-36.611000061035156
1788679281207309000,16.70630908203125,-30.053001403808594,-5.175000190734863,-36.617000579833984
1788679281223540500,16.72254052734375,-31.454002380371094,-5.073000431060791,-37.12300109863281
1788679281239648000,16.73864794921875,-30.26500129699707,-5.2820000648498535,-36.61800003051758
1788679281255787300,16.754787353515624,-31.972002029418945,-5.062000274658203,-36.40999984741211
1788679281272043500,16.77104345703125,-30.60700225830078,-4.214000225067139,-36.913002014160156
1788679281288122000,16.7871220703125,-27.72100067138672,-5.621000289916992,-37.64200210571289
1788679281304384000,16.803384033203123,-32.64400100708008,-4.75600004196167,-37.62900161743164
1788679281320507400,16.81950732421875,-29.92500114440918,-5.055000305175781,-35.59700012207031
1788679281336638000,16.835637939453125,-31.110000610351562,-5.815000057220459,-36.51900100708008
1788679281352893200,16.85189306640625,-31.095001220703125,-6.6710004806518555,-36.42500305175781
1788679281368987600,16.867987548828125,-29.288002014160156,-5.923000335693359,-36.319000244140625
1788679281385197800,16.88419775390625,-29.413002014160156,-5.609000205993652,-36.927001953125
1788679281401324000,16.900323974609375,-28.774002075195312,-5.179000377655029,-36.720001220703125
1788679281417499100,16.9164990234375,-28.702001571655273,-5.63200044631958,-38.55800247192383
1788679281433756000,16.932755859375,-29.099000930786133,-4.965000152587891,-36.820003509521484
1788679281449833700,16.948833740234374,-29.01300048828125,-4.978000164031982,-37.737003326416016
1788679281466119000,16.965118896484373,-30.511001586914062,-5.734000205993652,-38.35300064086914
1788679281482212000,16.981212158203125,-30.891000747680664,-7.00100040435791,-37.03900146484375
1788679281498385700,16.9973857421875,-27.2760009765625,-6.368000507354736,-37.34400177001953
1788679281514642200,17.01364208984375,-26.442001342773438,-6.38200044631958,-38.262001037597656
1788679281530720300,17.02972021484375,-28.57000160217285,-6.482000350952148,-37.95500183105469
1788679281546944800,17.04594482421875,-29.84800148010254,-5.181000232696533,-37.025001525878906
1788679281563036000,17.062035888671875,-29.832000732421875,-6.0360002517700195,-36.8280029296875
1788679281579167500,17.07816748046875,-28.96000099182129,-6.3510003089904785,-36.22100067138672
1788679281595425000,17.094425048828125,-28.97800064086914,-7.658000469207764,-37.86300277709961
1788679281611503000,17.110503173828125,-28.64200210571289,-8.29800033569336,-37.56300354003906
1788679281627728000,17.126727783203126,-27.906002044677734,-6.0360002517700195,-36.62700271606445
1788679281643829200,17.142829345703124,-28.000001907348633,-6.24500036239624,-36.22100067138672
1788679281659966000,17.158966064453125,-27.05000114440918,-7.117000102996826,-37.249000549316406
1788679281676223500,17.175223388671874,-28.242000579833984,-6.694000244140625,-37.75300216674805
1788679281692304600,17.1913046875,-28.634000778198242,-7.428000450134277,-36.638999938964844
1788679281708573000,17.207572998046874,-28.422000885009766,-6.997000217437744,-36.43100357055664
1788679281724689400,17.223689453125,-29.404001235961914,-6.7920002937316895,-37.24300003051758
1788679281740863200,17.23986328125,-27.540000915527344,-8.495000839233398,-36.1400032043457
1788679281757094700,17.2560947265625,-28.73400115966797,-8.397000312805176,-36.9530029296875
1788679281773176800,17.2721767578125,-28.22500228881836,-6.900000095367432,-37.14400100708008
1788679281789416200,17.288416259765626,-27.536001205444336,-8.601000785827637,-36.03900146484375
1788679281805536300,17.304536376953124,-27.45400047302246,-6.99500036239624,-36.12700271606445
1788679281821675300,17.32067529296875,-28.150001525878906,-7.783000469207764,-39.08700180053711
1788679281837936000,17.33693603515625,-28.102001190185547,-8.079000473022461,-37.15400314331055
1788679281854015200,17.35301513671875,-27.253002166748047,-8.192000389099121,-37.46200180053711
1788679281870257000,17.3692568359375,-27.907001495361328,-7.550000190734863,-37.659000396728516
1788679281886391800,17.385391845703126,-27.569002151489258,-7.216000556945801,-36.63800048828125
1788679281902525700,17.401525634765626,-27.569002151489258,-7.86400032043457,-37.051002502441406
1788679281918779400,17.417779296875,-28.306001663208008,-7.640000343322754,-36.4370002746582
1788679281934853600,17.433853515625,-26.709001541137695,-7.646000385284424,-36.643001556396484
1788679281951094800,17.4500947265625,-28.189001083374023,-6.878000259399414,-35.513999938964844
1788679281967181800,17.466181884765625,-27.798002243041992,-7.549000263214111,-37.557003021240234
1788679281983317800,17.48231787109375,-27.694002151489258,-6.254000186920166,-36.83300018310547
1788679281999573000,17.498572998046875,-28.178001403808594,-7.195000171661377,-35.211002349853516
1788679282015648000,17.51464794921875,-27.256000518798828,-5.383000373840332,-35.807003021240234
1788679282031900400,17.530900390625,-28.07900047302246,-5.795000076293945,-34.689002990722656
1788679282047994400,17.546994384765625,-28.312002182006836,-5.9150004386901855,-35.60700225830078
1788679282064164900,17.563164794921875,-27.690000534057617,-6.035000324249268,-36.5260009765625
1788679282080421400,17.57942138671875,-29.327001571655273,-4.433000087738037,-37.121002197265625
1788679282096495900,17.595495849609375,-28.999000549316406,-3.3480000495910645,-36.09300231933594
1788679282112789800,17.611789794921876,-29.851001739501953,-4.318000316619873,-36.61000061035156
1788679282128894700,17.627894775390626,-28.23200225830078,-4.743000030517578,-36.10600280761719
1788679282145022700,17.644022705078125,-28.59800148010254,-3.5810000896453857,-37.42000198364258
1788679282161278000,17.66027783203125,-27.519001007080078,-3.4670002460479736,-36.80900192260742
1788679282177354200,17.676354248046874,-26.9580020904541,-4.749000072479248,-36.413002014160156
1788679282193582000,17.69258203125,-27.518001556396484,-2.819000244140625,-36.395999908447266
1788679282209692000,17.70869189453125,-26.54400062561035,-3.4610002040863037,-36.19900131225586
1788679282225828400,17.724828369140624,-26.43000030517578,-2.808000087738037,-35.480003356933594
1788679282242082600,17.74108251953125,-27.51000213623047,-3.8950002193450928,-36.711002349853516
1788679282258160000,17.75716015625,-27.1820011138916,-3.6740002632141113,-36.20000076293945
1788679282274385700,17.7733857421875,-27.317001342773438,-3.5830001831054688,-37.42100143432617
1788679282290508000,17.789508056640624,-26.19300079345703,-4.523000240325928,-35.49500274658203
1788679282306643200,17.805643310546873,-27.303001403808594,-3.4660000801086426,-36.707000732421875
1788679282322903000,17.821903076171875,-26.652000427246094,-3.569000244140625,-36.301002502441406
1788679282338985500,17.8379853515625,-25.84600067138672,-2.8430001735687256,-38.02800369262695
1788679282355212800,17.854212890625,-26.67300033569336,-3.690000057220459,-37.32100296020508
1788679282371347000,17.870346923828127,-24.53900146484375,-4.235000133514404,-37.736000061035156
1788679282387485400,17.8864853515625,-26.862001419067383,-4.75600004196167,-36.92300033569336
1788679282403744800,17.902744873046874,-23.685001373291016,-3.696000099182129,-37.427001953125
1788679282419826000,17.918825927734375,-27.305002212524414,-4.116000175476074,-37.22200012207031
1788679282436056300,17.935056396484374,-25.39200210571289,-3.1520001888275146,-37.012001037597656
1788679282452147500,17.9511474609375,-26.490001678466797,-3.6010000705718994,-38.64500045776367
1788679282468286000,17.967285888671874,-27.125001907348633,-4.029000282287598,-38.64800262451172
1788679282484542200,17.983542236328127,-26.48200035095215,-2.8400001525878906,-37.823001861572266
1788679282500619800,17.999619873046875,-25.60900115966797,-3.9100000858306885,-37.630001068115234
1788679282516848600,18.0158486328125,-27.22800064086914,-3.1610002517700195,-37.927001953125
1788679282532952000,18.0319521484375,-24.886001586914062,-4.25100040435791,-38.95800018310547
1788679282549089300,18.04808935546875,-26.464000701904297,-4.017000198364258,-37.73200225830078
1788679282565344800,18.0643447265625,-21.671001434326172,-3.81600022315979,-38.143001556396484
1788679282581422300,18.08042236328125,-22.613000869750977,-4.343000411987305,-37.63800048828125
1788679282597653800,18.09665380859375,-22.34400177001953,-3.4030001163482666,-39.361000061035156
1788679282613754000,18.112754150390625,-22.222000122070312,-3.7170002460479736,-38.855003356933594
1788679282629921500,18.128921630859374,-23.450000762939453,-4.440000057220459,-36.92400360107422
1788679282646179000,18.145178955078126,-23.04400062561035,-4.561000347137451,-37.945003509521484
1788679282662255600,18.161255615234374,-25.931001663208008,-4.451000213623047,-38.0420036315918
1788679282678520600,18.1775205078125,-23.507001876831055,-3.934000253677368,-39.16100311279297
1788679282694628600,18.193628662109376,-22.73000144958496,-4.7820000648498535,-38.354000091552734
1788679282710751700,18.209751708984374,-23.36100196838379,-4.451000213623047,-37.7390022277832
1788679282727004200,18.226004150390626,-23.281002044677734,-3.7100002765655518,-38.44600296020508
1788679282743080700,18.242080810546874,-22.363000869750977,-5.835000514984131,-36.93800354003906
1788679282759309600,18.2583095703125,-22.408000946044922,-5.214000225067139,-38.5620002746582
1788679282775419600,18.274419677734375,-23.437000274658203,-6.377000331878662,-37.553001403808594
1788679282791554600,18.290554443359376,-22.09600067138672,-5.111000061035156,-38.867000579833984
1788679282807829500,18.30682958984375,-23.04800033569336,-5.428000450134277,-38.665000915527344
1788679282823905000,18.322905029296876,-23.327001571655273,-5.619000434875488,-36.935001373291016
1788679282840143400,18.339143310546874,-24.102001190185547,-5.743000507354736,-38.259002685546875
1788679282856275000,18.35527490234375,-23.23900032043457,-4.766000270843506,-37.233001708984375
1788679282872409600,18.37140966796875,-24.94500160217285,-6.27400016784668,-38.05900192260742
1788679282888666400,18.387666259765624,-23.22100067138672,-6.700000286102295,-37.65800094604492
1788679282904742000,18.403741943359375,-23.030000686645508,-5.4170002937316895,-37.85000228881836
1788679282920987000,18.41998681640625,-22.498001098632812,-6.392000198364258,-38.573001861572266
1788679282937072000,18.436072021484375,-21.56800079345703,-5.656000137329102,-39.48400115966797
1788679282953206300,18.452206298828123,-24.94700050354004,-6.060000419616699,-38.057003021240234
1788679282969461800,18.468461669921876,-23.041000366210938,-5.424000263214111,-38.36000061035156
1788679282985535500,18.484535400390627,-22.529001235961914,-5.330000400543213,-39.2760009765625
1788679283001791200,18.500791259765624,-22.6460018157959,-4.795000076293945,-39.37300109863281
1788679283017910500,18.51691064453125,-24.3070011138916,-5.197000026702881,-37.54100036621094
1788679283034044700,18.533044677734374,-23.674001693725586,-5.202000141143799,-37.84800338745117
1788679283050210600,18.54921044921875,-22.003000259399414,-5.119000434875488,-39.479000091552734
1788679283066285800,18.565285888671873,-22.38300132751465,-5.8470001220703125,-37.855003356933594
1788679283082543900,18.5815439453125,-22.652000427246094,-5.664000034332275,-40.19600296020508
1788679283098650600,18.597650634765625,-24.16400146484375,-4.267000198364258,-40.08000183105469
1788679283114819600,18.613819580078125,-21.895000457763672,-4.038000106811523,-38.75600051879883
1788679283131075300,18.630075439453126,-23.902000427246094,-4.778000354766846,-38.25100326538086
1788679283147153400,18.6461533203125,-23.81300163269043,-4.141000270843506,-38.65300369262695
1788679283163375600,18.662375732421875,-22.961000442504883,-5.008000373840332,-39.27300262451172
1788679283179491000,18.678490966796875,-23.643001556396484,-2.330000162124634,-39.452003479003906
1788679283195625000,18.694625,-21.168001174926758,-2.8630001544952393,-38.95100021362305
1788679283211884000,18.710884033203126,-23.21000099182129,-2.760000228881836,-39.45600128173828
1788679283227961600,18.726961669921874,-23.108001708984375,-2.2230000495910645,-39.35000228881836
1788679283244184600,18.7431845703125,-22.11400032043457,-3.2850000858306885,-38.54600143432617
1788679283260312600,18.7593125,-22.0570011138916,-1.3700001239776611,-39.54800033569336
1788679283276448800,18.77544873046875,-23.312000274658203,-0.8110000491142273,-38.01300048828125
1788679283292705500,18.79170556640625,-24.213001251220703,-0.8390000462532043,-40.1510009765625
1788679283308788000,18.8077880859375,-21.619001388549805,-1.6880000829696655,-39.24500274658203
1788679283325015300,18.824015380859375,-22.69900131225586,-1.9100000858306885,-39.95900344848633
1788679283341145600,18.8401455078125,-24.959001541137695,-0.29600000381469727,-39.73800277709961
1788679283357280300,18.8562802734375,-22.381000518798828,-0.07500000298023224,-38.92400360107422
1788679283373537300,18.872537353515625,-21.84200096130371,-0.937000036239624,-39.23800277709961
1788679283389614000,18.888614013671877,-22.49100112915039,-1.6970000267028809,-40.05900192260742
1788679283405838800,18.9048388671875,-23.007001876831055,-2.009999990463257,-39.45000076293945
1788679283421926100,18.920926025390624,-22.3960018157959,-1.8130000829696655,-40.672000885009766
1788679283438065400,18.9370654296875,-24.191001892089844,-2.446000099182129,-40.16600036621094
1788679283454320600,18.953320556640627,-22.2760009765625,-2.453000068664551,-40.474002838134766
1788679283470394600,18.96939453125,-22.408000946044922,-1.9280000925064087,-41.284000396728516
1788679283486615800,18.98561572265625,-21.21200180053711,-2.0250000953674316,-40.36900329589844
1788679283502704600,19.00170458984375,-21.737001419067383,-2.3430001735687256,-40.16800308227539
1788679283518839600,19.017839599609374,-21.09200096130371,-3.0980000495910645,-40.48100280761719
1788679283535094300,19.03409423828125,-19.63300132751465,-1.5010000467300415,-41.08000183105469
1788679283551167000,19.0501669921875,-19.1460018157959,-3.7350001335144043,-39.7760009765625
1788679283567391700,19.066391845703127,-23.016000747680664,-3.636000156402588,-40.8910026550293
1788679283583499500,19.08249951171875,-21.756000518798828,-2.7870001792907715,-41.2920036315918
1788679283599632600,19.098632568359374,-20.66200065612793,-3.63700008392334,-40.69000244140625
1788679283615887000,19.11488720703125,-22.2450008392334,-5.3520002365112305,-40.90700149536133
1788679283631963400,19.13096337890625,-19.291000366210938,-3.434000253677368,-41.301002502441406
1788679283648195300,19.1471953125,-19.420000076293945,-4.311000347137451,-42.83700180053711
1788679283664309500,19.1633095703125,-19.417001724243164,-4.310000419616699,-42.73500061035156
1788679283680447700,19.17944775390625,-19.744001388549805,-4.205000400543213,-42.9370002746582
1788679283696701700,19.19570166015625,-20.674001693725586,-5.266000270843506,-42.23200225830078
1788679283712781300,19.21178125,-20.15300178527832,-6.139000415802002,-43.36100387573242
1788679283729023500,19.2280234375,-18.433000564575195,-5.811000347137451,-42.647003173828125
1788679283745140700,19.244140625,-19.62200164794922,-3.6560001373291016,-41.91400146484375
1788679283761307100,19.26030712890625,-18.655000686645508,-6.896000385284424,-43.67500305175781
1788679283777558000,19.27655810546875,-20.582000732421875,-6.3550004959106445,-43.566001892089844
1788679283793636400,19.29263623046875,-20.091001510620117,-6.533000469207764,-40.81800079345703
1788679283809910500,19.30891064453125,-20.121000289916992,-8.281000137329102,-43.27800369262695
1788679283826038300,19.325038330078126,-19.233001708984375,-8.586000442504883,-41.95800018310547
1788679283842167800,19.341167724609374,-18.235000610351562,-8.781000137329102,-40.43300247192383
1788679283858424600,19.357424560546875,-19.6460018157959,-8.144000053405762,-41.03700256347656
1788679283874502400,19.37350244140625,-19.486000061035156,-7.205000400543213,-42.862003326416016
1788679283890750000,19.38975,-19.31100082397461,-9.217000007629395,-41.04600143432617
1788679283906832400,19.405832275390626,-20.08300018310547,-9.231000900268555,-42.16600036621094
1788679283922966000,19.421966064453127,-20.53700065612793,-8.27400016784668,-42.768001556396484
1788679283939221500,19.438221435546875,-17.295000076293945,-8.471000671386719,-41.14400100708008
1788679283955298000,19.454298095703123,-20.613000869750977,-8.687000274658203,-41.6510009765625
1788679283971557000,19.47055712890625,-21.018001556396484,-10.618000030517578,-41.87200164794922
1788679283987654100,19.486654052734377,-19.439001083374023,-8.797000885009766,-41.75600051879883
1788679284003787800,19.502787841796874,-18.873001098632812,-10.832000732421875,-41.57100296020508
1788679284020047400,19.51904736328125,-19.852001190185547,-9.544000625610352,-41.55800247192383
1788679284036127000,19.535126953125,-17.92300033569336,-9.003000259399414,-40.944000244140625
1788679284052354300,19.551354248046874,-18.577001571655273,-8.902000427246094,-41.452003479003906
1788679284068463400,19.56746337890625,-19.760000228881836,-8.797000885009766,-41.755001068115234
1788679284084599300,19.583599365234374,-19.21200180053711,-9.97800064086914,-41.868003845214844
1788679284100856300,19.599856201171875,-20.929000854492188,-9.981000900268555,-42.27400207519531
1788679284116932600,19.6159326171875,-20.788000106811523,-10.176000595092773,-40.849002838134766
1788679284133161000,19.632160888671876,-19.760000228881836,-8.905000686645508,-41.858001708984375
1788679284149259800,19.648259765625,-19.33500099182129,-10.745000839233398,-43.09700393676758
1788679284165418800,19.664418701171876,-19.292001724243164,-10.394000053405762,-40.95500183105469
1788679284181673500,19.680673583984376,-18.55500030517578,-9.645000457763672,-40.94900131225586
1788679284197748500,19.69674853515625,-20.264001846313477,-9.318000793457031,-40.74100112915039
1788679284213972500,19.712972412109377,-18.975000381469727,-11.47700023651123,-41.78000259399414
1788679284230090800,19.7290908203125,-19.201000213623047,-10.620000839233398,-41.772003173828125
1788679284246222300,19.745222412109374,-17.141000747680664,-10.712000846862793,-40.45100021362305
1788679284262474000,19.761473876953126,-18.209001541137695,-9.846000671386719,-39.93300247192383
1788679284278549000,19.777549072265625,-19.376001358032227,-10.272000312805176,-39.83300018310547
1788679284294771500,19.793771484375,-21.115001678466797,-9.856000900268555,-40.948001861572266
1788679284310905300,19.8099052734375,-18.338001251220703,-11.26400089263916,-41.77900314331055
1788679284327074800,19.82607470703125,-19.178001403808594,-10.606000900268555,-40.75300216674805
1788679284343328800,19.842328857421876,-19.803001403808594,-10.271000862121582,-39.83300018310547
1788679284359405300,19.8584052734375,-18.81300163269043,-11.01200008392334,-39.0260009765625
1788679284375631400,19.87463134765625,-18.338001251220703,-10.076000213623047,-41.05500030517578
1788679284391720400,19.890720458984376,-18.722000122070312,-9.725000381469727,-38.91200256347656
1788679284407857200,19.906857177734373,-18.30500030517578,-9.190999984741211,-39.01000213623047
1788679284424116000,19.923115966796875,-19.1510009765625,-8.968000411987305,-38.49800109863281
1788679284440198000,19.939197998046875,-19.487001419067383,-9.950000762939453,-39.83000183105469
1788679284456427800,19.955427734375,-20.45400047302246,-9.520000457763672,-39.82500076293945
1788679284472530000,19.971530029296876,-20.016000747680664,-9.947000503540039,-39.62600326538086
1788679284488668000,19.98766796875,-18.96500015258789,-8.769000053405762,-39.617000579833984
1788679284504923100,20.003923095703126,-17.468000411987305,-8.879000663757324,-39.62000274658203
1788679284521002000,20.020001953125,-19.775001525878906,-8.848999977111816,-37.68100357055664
1788679284537230000,20.03622998046875,-18.72100067138672,-10.156000137329102,-39.12000274658203
1788679284553334800,20.052334716796874,-19.167001724243164,-8.76200008392334,-39.10700225830078
1788679284569462500,20.068462646484374,-19.68800163269043,-9.402000427246094,-38.90800094604492
1788679284585722600,20.08472265625,-18.505001068115234,-9.291000366210938,-38.50100326538086
1788679284601801500,20.100801513671875,-20.666000366210938,-8.76300048828125,-39.30900192260742
1788679284618036500,20.117036376953124,-17.84400177001953,-9.820000648498535,-37.895999908447266
1788679284634152700,20.133152587890624,-17.203001022338867,-10.793000221252441,-38.5160026550293
1788679284650285300,20.149285400390625,-20.23400115966797,-9.949000358581543,-39.829002380371094
1788679284666541300,20.165541259765625,-18.488000869750977,-9.928000450134277,-38.10000228881836
1788679284682617900,20.181617919921877,-19.9060001373291,-10.053000450134277,-39.525001525878906
1788679284698851800,20.197851806640625,-18.045000076293945,-9.920000076293945,-37.387001037597656
1788679284714976800,20.213976806640623,-18.47300148010254,-10.676000595092773,-37.90300369262695
1788679284731147000,20.23014697265625,-18.052000045776367,-10.572000503540039,-38.10600280761719
1788679284747403000,20.246403076171877,-18.371000289916992,-11.43600082397461,-38.62200164794922
1788679284763478800,20.262478759765624,-19.310001373291016,-11.205000877380371,-37.499000549316406
1788679284779753000,20.2787529296875,-16.225000381469727,-11.86500072479248,-38.42500305175781
1788679284795860000,20.29485986328125,-17.056001663208008,-13.039000511169434,-38.12900161743164
1788679284812030700,20.31103076171875,-16.292001724243164,-11.625000953674316,-36.48800277709961
1788679284828287000,20.327286865234374,-16.41900062561035,-12.177000999450684,-37.71500015258789
1788679284844362500,20.343362548828125,-16.121000289916992,-13.164000511169434,-39.354000091552734
1788679284860641000,20.35964111328125,-16.98400115966797,-10.250000953674316,-37.9010009765625
1788679284876726500,20.3757265625,-16.46500015258789,-11.124000549316406,-39.13100051879883
