time,seconds_elapsed,z,y,x
1788168376169527000,0.127527099609375,0.049607276916503906,-0.03487884998321533,-0.1981135457754135
1788168376186545000,0.144544921875,0.2505359649658203,-0.05708038806915283,-0.12815362215042114
1788168376202867700,0.16086767578125,0.4609546661376953,-0.06885635852813721,0.02641359530389309
1788168376219037000,0.177036865234375,0.6025562286376953,-0.12068486213684082,-0.05620117485523224
1788168376235205600,0.19320556640625,0.7949895858764648,-0.16422009468078613,-0.11709628254175186
1788168376251346400,0.209346435546875,0.9377593994140625,-0.22164881229400635,-0.07147453725337982
1788168376267464400,0.22546435546875,0.8371944427490234,-0.24266040325164795,-0.04774833470582962
1788168376283565300,0.2415654296875,0.49068737030029297,-0.22102093696594238,-0.03709869086742401
1788168376299740000,0.257739990234375,0.1944103240966797,-0.16558194160461426,0.038426391780376434
1788168376315916300,0.273916259765625,0.09865665435791016,-0.1799304485321045,0.1388351023197174
1788168376332092200,0.290092041015625,0.16262245178222656,-0.2536963224411011,0.15405109524726868
1788168376348216600,0.306216552734375,0.19248199462890625,-0.2941460609436035,0.14641503989696503
1788168376364316200,0.322316162109375,0.1739940643310547,-0.30903226137161255,0.24829870462417603
1788168376380445700,0.33844580078125,0.30353450775146484,-0.2890726923942566,0.26984888315200806
1788168376396582000,0.354581787109375,0.41876888275146484,-0.2930646538734436,0.3455134630203247
1788168376412741600,0.37074169921875,0.37888336181640625,-0.25277960300445557,0.3606094419956207
1788168376428851200,0.386851318359375,0.18667316436767578,-0.18838930130004883,0.2651732563972473
1788168376444952600,0.40295263671875,0.17688560485839844,-0.10342288017272949,0.17288166284561157
1788168376461091000,0.419091064453125,0.23449134826660156,-0.06907987594604492,0.1359083205461502
1788168376477244400,0.435244384765625,0.3236398696899414,-0.11263513565063477,0.1763203740119934
1788168376493408300,0.451408203125,0.33162498474121094,-0.09793031215667725,0.3422863483428955
1788168376509521200,0.467521240234375,0.3015909194946289,-0.12530004978179932,0.4365614950656891
1788168376525621800,0.483621826171875,0.4222393035888672,-0.14599609375,0.5169852375984192
1788168376541769200,0.499769287109375,0.32502174377441406,-0.2102140188217163,0.43104082345962524
1788168376557920300,0.515920166015625,0.06020069122314453,-0.2269495725631714,0.26221758127212524
1788168376574097200,0.53209716796875,-0.03758049011230469,-0.25565052032470703,0.19297897815704346
1788168376590206000,0.5482060546875,-0.09741973876953125,-0.2299354076385498,0.28453898429870605
1788168376606304800,0.5643046875,-0.05707073211669922,-0.19840097427368164,0.35627487301826477
1788168376622462500,0.58046240234375,-0.06471633911132812,-0.11429798603057861,0.18404316902160645
1788168376638574600,0.59657470703125,-0.1416015625,-0.02002847194671631,-0.0019028186798095703
1788168376654712800,0.612712890625,-0.3378744125366211,0.0948629379272461,-0.178868368268013
1788168376670828800,0.628828857421875,-0.4620952606201172,0.2771185636520386,-0.19909435510635376
1788168376686925300,0.64492529296875,-0.6434202194213867,0.33706700801849365,0.00039526820182800293
1788168376703095600,0.661095458984375,-0.7622947692871094,0.4368875026702881,0.11610829830169678
1788168376719272000,0.67727197265625,-0.6204967498779297,0.5449850559234619,0.11830928921699524
1788168376735417300,0.693417236328125,-0.4266786575317383,0.5451868772506714,0.046761274337768555
1788168376751540000,0.7095400390625,-0.2167072296142578,0.5752859115600586,-0.07958051562309265
1788168376767640000,0.72564013671875,-0.03304004669189453,0.5986467599868774,-0.23850037157535553
1788168376783767000,0.74176708984375,0.08162975311279297,0.6360374689102173,-0.17958001792430878
1788168376799897600,0.757897705078125,0.2019786834716797,0.6425153017044067,0.04578384757041931
1788168376816050700,0.77405078125,0.184051513671875,0.6204531192779541,0.2305351197719574
1788168376832184800,0.790184814453125,0.09632396697998047,0.6305456161499023,0.3033181130886078
1788168376848282000,0.8062822265625,0.2159719467163086,0.7160844802856445,0.16149663925170898
1788168376864417800,0.822417724609375,0.7483558654785156,0.8359770774841309,-0.20593595504760742
1788168376880608000,0.83860791015625,1.0354080200195312,0.8173269033432007,-0.43017640709877014
1788168376896768800,0.854768798828125,0.6917858123779297,0.842505931854248,-0.5168739557266235
1788168376912909300,0.870909423828125,0.33713531494140625,1.1720958948135376,-0.36700639128685
1788168376929011000,0.887010986328125,-0.08370399475097656,1.3255809545516968,-0.06078740954399109
1788168376945153500,0.903153564453125,-0.4626293182373047,1.3461591005325317,-0.022647589445114136
1788168376961303300,0.91930322265625,-0.4967155456542969,1.256058931350708,-0.20811736583709717
1788168376977466400,0.93546630859375,-0.3435068130493164,1.0425090789794922,-0.40695247054100037
1788168376993620000,0.951619873046875,-0.16950321197509766,0.7678683996200562,-0.34182462096214294
1788168377009722000,0.96772216796875,-0.02887725830078125,0.6040561199188232,-0.30872663855552673
1788168377025873200,0.983873046875,-0.012076377868652344,0.47972261905670166,-0.45299556851387024
1788168377041987800,0.99998779296875,0.21900081634521484,0.32563042640686035,-0.4931061267852783
1788168377058164500,1.01616455078125,0.5335454940795898,0.3240978717803955,-0.6563531160354614
1788168377074326000,1.032325927734375,0.4482135772705078,0.15219509601593018,-0.6443463563919067
1788168377090463200,1.048463134765625,0.2699708938598633,-0.016859769821166992,-0.21720124781131744
1788168377106622700,1.064622802734375,0.05163288116455078,0.11127567291259766,-0.14693006873130798
1788168377122762800,1.0807626953125,-0.23081684112548828,0.20068025588989258,0.038847923278808594
1788168377138904600,1.096904541015625,-0.4229869842529297,0.21141350269317627,0.2379322648048401
1788168377155025200,1.113025146484375,-0.4105691909790039,0.24858403205871582,0.1492137908935547
1788168377171133000,1.1291328125,-0.39880943298339844,0.3724113702774048,-0.11861562728881836
1788168377187304700,1.1453046875,-0.27449512481689453,0.46788740158081055,-0.25233691930770874
1788168377203435800,1.161435791015625,-0.2388753890991211,0.4537045955657959,-0.1820419281721115
1788168377219578400,1.177578369140625,-0.08823013305664062,0.5874117612838745,-0.11998295038938522
1788168377235702000,1.193701904296875,0.05093860626220703,0.7018496990203857,-0.03937460482120514
1788168377251851800,1.209851806640625,0.16301345825195312,0.6891041994094849,0.1935102641582489
1788168377267980000,1.22597998046875,0.20510196685791016,0.6965478658676147,0.2664142847061157
1788168377284107500,1.242107421875,0.10497856140136719,0.7437537908554077,0.1402408480644226
1788168377300287500,1.25828759765625,0.26119518280029297,0.714489221572876,0.17389126121997833
1788168377316413400,1.274413330078125,0.32622337341308594,0.6540956497192383,0.2929821312427521
1788168377332568600,1.290568603515625,0.28137874603271484,0.5829163789749146,0.3331871032714844
1788168377348707800,1.306707763671875,0.1888446807861328,0.57318115234375,0.3140295743942261
1788168377364899300,1.3228994140625,0.20180988311767578,0.48466193675994873,0.40614020824432373
1788168377381059800,1.339059814453125,0.21722984313964844,0.3253880739212036,0.43655896186828613
1788168377397174800,1.3551748046875,0.1485881805419922,0.17341017723083496,0.24822497367858887
1788168377413323800,1.37132373046875,0.21698760986328125,-0.0719527006149292,-0.11882913112640381
1788168377429471200,1.38747119140625,0.5262680053710938,-0.2867628335952759,-0.3954295814037323
1788168377445676000,1.403676025390625,0.9132413864135742,-0.38805222511291504,-0.773319661617279
1788168377461851000,1.419850830078125,1.079829216003418,-0.4197843074798584,-0.9153786897659302
1788168377477965000,1.435965087890625,0.8944911956787109,-0.5003530979156494,-0.5164809823036194
1788168377494068200,1.452068115234375,0.7577428817749023,-0.7804958820343018,0.29956239461898804
1788168377510221600,1.4682216796875,1.1702604293823242,-1.1638569831848145,1.00089693069458
1788168377526335200,1.484335205078125,1.7378387451171875,-1.598913550376892,1.0621263980865479
1788168377542520600,1.5005205078125,1.9910392761230469,-1.7657207250595093,0.486056387424469
1788168377558639400,1.516639404296875,2.132246971130371,-1.7914761304855347,-0.046598903834819794
1788168377574796500,1.532796630859375,2.1537351608276367,-1.6806106567382812,-0.39704954624176025
1788168377590959000,1.548958984375,1.9036083221435547,-1.4231328964233398,-0.40661299228668213
1788168377607138600,1.565138671875,1.303755760192871,-1.1106092929840088,-0.25359106063842773
1788168377623258600,1.581258544921875,0.3041219711303711,-0.9342177510261536,-0.10277299582958221
1788168377639377400,1.59737744140625,-0.6791782379150391,-0.8701074719429016,0.00881824642419815
1788168377655487500,1.613487548828125,-1.207585334777832,-0.7445975542068481,-0.11253109574317932
1788168377671659500,1.629659423828125,-1.1223878860473633,-0.745893120765686,-0.217534601688385
1788168377687790600,1.64579052734375,-0.755244255065918,-0.8716957569122314,-0.20696741342544556
1788168377703938000,1.66193798828125,-0.35033512115478516,-0.9219292998313904,-0.22106540203094482
1788168377720068600,1.678068603515625,-0.10767650604248047,-1.0175331830978394,-0.22459253668785095
1788168377736222700,1.69422265625,-0.040869712829589844,-1.1190311908721924,-0.23201800882816315
1788168377752351700,1.710351806640625,-0.02752399444580078,-1.1868449449539185,-0.30607151985168457
1788168377768540700,1.726540771484375,0.07263565063476562,-1.224541187286377,-0.9658337235450745
1788168377784699400,1.742699462890625,0.5592250823974609,-0.9104410409927368,-0.9808084964752197
1788168377800836600,1.758836669921875,0.37835693359375,-0.8342556953430176,-0.8208913803100586
1788168377816990000,1.774989990234375,-0.1559619903564453,-0.7148655652999878,-0.7084013819694519
1788168377833130200,1.791130126953125,-0.5021686553955078,-0.5868092775344849,-0.6883372068405151
1788168377849278700,1.80727880859375,-0.7819538116455078,-0.35128891468048096,-0.5180202126502991
1788168377865441300,1.823441162109375,-0.9775876998901367,-0.18152284622192383,-0.29639995098114014
1788168377881578800,1.839578857421875,-0.8072872161865234,-0.11724686622619629,-0.1536242514848709
1788168377897680400,1.855680419921875,-0.4253244400024414,-0.0817033052444458,-0.08625351637601852
1788168377913818000,1.871818115234375,-0.2842435836791992,-0.20602381229400635,-0.15279603004455566
1788168377929967600,1.887967529296875,-0.06621837615966797,-0.24967634677886963,-0.2998957633972168
1788168377946134300,1.90413427734375,0.5688114166259766,-0.1655968427658081,-0.4804418385028839
1788168377962280200,1.9202802734375,0.6747169494628906,-0.22455763816833496,-0.9454663991928101
1788168377978386700,1.93638671875,0.5335359573364258,-0.05223047733306885,-0.9508739709854126
1788168377994536700,1.95253662109375,0.1140584945678711,-0.24929022789001465,-0.45552539825439453
1788168378010692400,1.9686923828125,1.0604381561279297,-0.7324211597442627,0.7782654762268066
1788168378026870000,1.9848701171875,0.580047607421875,0.7398630380630493,-0.619147002696991
1788168378043020500,2.0010205078125,0.18705081939697266,1.0864241123199463,-0.26223719120025635
1788168378059159000,2.017158935546875,0.1828927993774414,0.2128359079360962,1.1388733386993408
1788168378075368000,2.033367919921875,0.27646732330322266,-0.22217464447021484,0.9678244590759277
1788168378091483600,2.049483642578125,0.33539676666259766,-0.0903778076171875,-0.14557912945747375
1788168378107618300,2.065618408203125,0.9032926559448242,-0.24191009998321533,-0.16050855815410614
1788168378123734000,2.081734130859375,1.6859521865844727,-0.3744288682937622,0.10983560979366302
1788168378139837700,2.097837646484375,2.0219688415527344,-0.8050006031990051,0.3694150447845459
1788168378156011500,2.114011474609375,1.6935253143310547,-0.16080117225646973,0.4694032371044159
1788168378172140800,2.130140869140625,0.8621206283569336,0.05072200298309326,0.43466824293136597
1788168378188289300,2.146289306640625,0.12200927734375,-0.04616224765777588,0.6495583057403564
1788168378204416800,2.162416748046875,-0.19003868103027344,-0.6248320937156677,1.0160858631134033
1788168378220521700,2.178521728515625,1.1846904754638672,-1.3305461406707764,1.1967717409133911
1788168378236730600,2.194730712890625,2.6787052154541016,-1.8660991191864014,1.6895496845245361
1788168378252914000,2.210913818359375,3.5607070922851562,-2.134235382080078,1.6336150169372559
1788168378269151500,2.2271513671875,2.946735382080078,-1.996894121170044,0.8788472414016724
1788168378285324000,2.243323974609375,1.8976364135742188,-1.2977327108383179,0.6808841228485107
1788168378301479000,2.25947900390625,0.4676027297973633,-0.7333565354347229,0.5861518979072571
1788168378317655000,2.275655029296875,-1.0685138702392578,-0.5191748738288879,0.5451482534408569
1788168378333854200,2.291854248046875,-1.947927474975586,-0.6512017250061035,0.7300743460655212
1788168378350005800,2.308005859375,-1.418313980102539,-0.7324060797691345,1.069155216217041
1788168378366164200,2.324164306640625,-0.25643253326416016,-1.0306384563446045,0.9475998282432556
1788168378382313200,2.340313232421875,0.6702489852905273,-1.1214377880096436,0.3152173161506653
1788168378398505700,2.356505615234375,0.39920616149902344,-0.9452712535858154,-0.5430548191070557
1788168378414663000,2.372662841796875,-0.5439701080322266,-0.693757951259613,-0.8525016903877258
1788168378430838500,2.388838623046875,-1.2699222564697266,-0.29149293899536133,-0.2720450162887573
1788168378446952000,2.404951904296875,-1.9233975410461426,-0.03752326965332031,0.31345072388648987
1788168378463103700,2.421103759765625,-2.388577938079834,-0.0034935474395751953,0.6299258470535278
1788168378479293700,2.437293701171875,-2.330742835998535,-0.027591943740844727,0.6988892555236816
1788168378495458600,2.45345849609375,-1.66229248046875,-0.25704824924468994,0.5281814336776733
1788168378511591400,2.46959130859375,-0.6890249252319336,-0.4672280550003052,0.07027681171894073
1788168378527705000,2.485705078125,0.1607198715209961,-0.6843205094337463,-0.2623041868209839
1788168378543807000,2.501806884765625,0.6980047225952148,-0.6844218373298645,-0.5110198855400085
1788168378559972000,2.51797216796875,0.9511384963989258,-0.5112786293029785,-0.4252264201641083
1788168378576096300,2.53409619140625,0.5903406143188477,-0.3246490955352783,-0.36381855607032776
1788168378592234800,2.55023486328125,0.1564464569091797,-0.13722074031829834,-0.44392821192741394
1788168378608355600,2.56635546875,-0.22619152069091797,-0.014693856239318848,-0.47583940625190735
1788168378624459000,2.582458984375,-0.3291769027709961,-0.0050275325775146484,-0.3630535900592804
1788168378640630300,2.59863037109375,0.07341957092285156,-0.3195304870605469,-0.392719030380249
1788168378656783000,2.614783203125,0.6570682525634766,-0.6392743587493896,-0.3977780044078827
1788168378672935000,2.630934814453125,1.5177621841430664,-1.1522862911224365,-0.44267570972442627
1788168378689063200,2.647063232421875,2.294116973876953,-1.6525675058364868,-0.6602734327316284
1788168378705166800,2.663166748046875,2.811594009399414,-1.7083067893981934,-0.6300428509712219
1788168378721331200,2.679331298828125,2.381972312927246,-1.2537603378295898,-0.7310442328453064
1788168378737471000,2.695470947265625,1.2695722579956055,-0.826197624206543,-0.45710277557373047
1788168378753630200,2.711630126953125,-0.18383502960205078,-0.756942629814148,0.020743966102600098
1788168378769806600,2.727806640625,-1.1799631118774414,-0.6943130493164062,0.21794337034225464
1788168378785912000,2.743912109375,-1.191502571105957,-1.0046772956848145,-0.04124945402145386
1788168378802050800,2.76005078125,0.2832040786743164,-1.5249441862106323,-0.5670437812805176
1788168378818196700,2.77619677734375,1.6845855712890625,-1.7028167247772217,-0.8239607810974121
1788168378834345200,2.79234521484375,2.176504135131836,-1.725017786026001,-0.8548017740249634
1788168378850520000,2.80852001953125,1.4271774291992188,-1.4947589635849,-0.7178084850311279
1788168378866626000,2.8246259765625,-0.01869487762451172,-1.1660667657852173,-0.35186782479286194
1788168378882820400,2.8408203125,-1.1132698059082031,-1.032848834991455,-0.08455350995063782
1788168378898976800,2.856976806640625,-1.715613842010498,-1.0460317134857178,0.012927085161209106
1788168378915149600,2.873149658203125,-1.6359481811523438,-1.1125712394714355,0.030825406312942505
1788168378931306000,2.889305908203125,-1.0832338333129883,-1.346558928489685,-0.2766523063182831
1788168378947411000,2.905410888671875,-0.5379877090454102,-1.3156611919403076,-0.6559110879898071
1788168378963572000,2.921572021484375,0.0014944076538085938,-1.1268230676651,-1.1160521507263184
1788168378979733500,2.9377333984375,0.4243154525756836,-1.0006585121154785,-1.3317105770111084
1788168378995908400,2.953908447265625,0.45283985137939453,-0.8280711770057678,-0.9417187571525574
1788168379012067300,2.9700673828125,-0.14759445190429688,-0.6603654026985168,-0.5423606634140015
1788168379028172000,2.986172119140625,-0.7657146453857422,-0.44559597969055176,-0.3105742335319519
1788168379044330000,3.002330078125,-0.4178133010864258,-0.4040799140930176,-0.21125078201293945
1788168379060498400,3.01849853515625,0.09647846221923828,-0.463436484336853,-0.2795553207397461
1788168379076632600,3.034632568359375,0.5333919525146484,-0.5444905757904053,-0.39181381464004517
1788168379092750600,3.05075048828125,0.6618890762329102,-0.579395055770874,-0.26082199811935425
1788168379108853200,3.066853271484375,0.7502460479736328,-0.4749411940574646,-0.1666806936264038
1788168379125020700,3.083020751953125,0.6774072647094727,-0.3679232597351074,-0.24951905012130737
1788168379141141800,3.099141845703125,0.5199069976806641,-0.2609022259712219,-0.4423421621322632
1788168379157284000,3.1152841796875,0.19663047790527344,-0.22001636028289795,-0.6097806096076965
1788168379173407200,3.1314072265625,-0.24257755279541016,-0.09889376163482666,-0.4370442032814026
1788168379189556000,3.147555908203125,-0.5329084396362305,0.06245005130767822,-0.15013372898101807
1788168379205681200,3.16368115234375,-0.5697164535522461,0.16050958633422852,-0.06496429443359375
1788168379221810000,3.179809814453125,-0.4708108901977539,0.28190529346466064,-0.026283442974090576
1788168379237998600,3.19599853515625,-0.08329296112060547,0.3179640769958496,0.3171957731246948
1788168379254130400,3.21213037109375,0.3752479553222656,0.2832075357437134,0.5069038271903992
1788168379270229500,3.2282294921875,0.4367704391479492,0.2872117757797241,0.3230827748775482
1788168379286364400,3.244364501953125,0.5088138580322266,0.2545335292816162,-0.023573338985443115
1788168379302511000,3.260510986328125,0.4591703414916992,0.2830784320831299,-0.14438027143478394
1788168379318677800,3.276677734375,0.3016777038574219,0.2950376272201538,-0.14042657613754272
1788168379334815700,3.292815673828125,0.37299346923828125,0.2820456027984619,-0.16708499193191528
1788168379350915300,3.308915283203125,0.6901092529296875,0.26075565814971924,-0.07950460910797119
1788168379367064800,3.32506494140625,1.1341333389282227,0.3505892753601074,-0.05681806802749634
1788168379383222500,3.341222412109375,1.2876672744750977,0.4253197908401489,-0.1736534833908081
1788168379399399700,3.357399658203125,0.9355583190917969,0.3945409059524536,-0.17053765058517456
1788168379415511800,3.37351171875,0.2363719940185547,0.19668734073638916,0.034492433071136475
1788168379431661000,3.3896611328125,-0.023164749145507812,0.10063493251800537,0.46435001492500305
1788168379447820800,3.40582080078125,0.3613290786743164,-0.20394814014434814,0.6603566408157349
1788168379463935200,3.421935302734375,1.144719123840332,-0.7128674387931824,0.6554427146911621
1788168379480072400,3.438072509765625,1.929886817932129,-1.121529459953308,0.6702221632003784
1788168379496233500,3.4542333984375,2.7479543685913086,-1.3906986713409424,0.6152629256248474
1788168379512335400,3.47033544921875,2.976987838745117,-1.4297397136688232,0.4054524898529053
1788168379528540200,3.4865400390625,2.098388671875,-1.2781368494033813,0.22732025384902954
1788168379544658400,3.502658447265625,0.7331829071044922,-0.9522878527641296,0.30838513374328613
1788168379560834800,3.518834716796875,-0.5792407989501953,-0.637639582157135,0.650967538356781
1788168379576998400,3.534998291015625,-1.8502984046936035,-0.22027671337127686,0.9464279413223267
1788168379593098500,3.551098388671875,-2.529665470123291,0.029859185218811035,1.3735580444335938
1788168379609262600,3.5672626953125,-2.3108410835266113,-0.026832222938537598,1.5806165933609009
1788168379625400600,3.583400634765625,-1.218134880065918,-0.3497188687324524,1.3221163749694824
1788168379641551400,3.59955126953125,0.2419147491455078,-0.5364094376564026,0.7262518405914307
1788168379657726200,3.615726318359375,0.7683315277099609,-0.4830397963523865,0.38939422369003296
1788168379673879000,3.631879150390625,0.23770999908447266,-0.39027154445648193,0.4680819511413574
1788168379690014200,3.64801416015625,-0.7693595886230469,-0.12513434886932373,0.7499368190765381
1788168379706159900,3.664159912109375,-1.3736858367919922,0.19163358211517334,1.1608458757400513
1788168379722327800,3.680327880859375,-1.872776985168457,0.3643444776535034,1.447488784790039
1788168379738518800,3.696518798828125,-2.011723518371582,0.49022138118743896,1.3677608966827393
1788168379754627000,3.712626953125,-1.654653549194336,0.5783718824386597,0.867306113243103
1788168379770780200,3.7287802734375,-1.0981979370117188,0.4553629159927368,0.6973398923873901
1788168379786935300,3.744935302734375,-0.5257120132446289,0.3919888734817505,0.8067976832389832
1788168379803109000,3.761109130859375,-0.244781494140625,0.44323277473449707,0.8087196350097656
1788168379819260400,3.777260498046875,-0.31502628326416016,0.5097717642784119,0.7932509183883667
1788168379835364900,3.79336474609375,-0.4084501266479492,0.6682723164558411,0.7938677072525024
1788168379851518700,3.809518798828125,-0.3219451904296875,0.7050318121910095,0.6963406801223755
1788168379867680500,3.825680419921875,-0.1153249740600586,0.8040090799331665,0.7994415163993835
1788168379883859500,3.841859375,0.08719730377197266,0.8689630031585693,0.8217360973358154
1788168379900018000,3.858017822265625,0.4580574035644531,0.7954633831977844,0.5195643901824951
1788168379916120800,3.874120849609375,0.998072624206543,0.6039427518844604,0.3088022768497467
1788168379932282400,3.890282470703125,1.3823738098144531,0.4360395669937134,0.31696218252182007
1788168379948420600,3.906420654296875,1.598928451538086,0.23052358627319336,0.2880154252052307
1788168379964558000,3.92255810546875,1.7533540725708008,-0.04754447937011719,0.36911195516586304
1788168379980722000,3.938721923828125,2.0110816955566406,-0.4437493085861206,0.6282261610031128
1788168379996831200,3.954831298828125,2.2288455963134766,-0.8810995221138,0.33355554938316345
1788168380013035800,3.971035888671875,2.1938962936401367,-0.9526522159576416,-0.7636696100234985
1788168380029165800,3.987165771484375,1.751408576965332,-0.46314698457717896,-1.3409545421600342
1788168380045314300,4.003314208984375,1.058542251586914,-0.10341107845306396,-0.6549866199493408
1788168380061443300,4.019443359375,0.8142290115356445,0.03875839710235596,0.5771662592887878
1788168380077599700,4.035599853515625,0.6992425918579102,-0.08355498313903809,1.0773420333862305
1788168380093774600,4.051774658203125,0.9014997482299805,-0.6853334307670593,0.5691321492195129
1788168380109908500,4.067908447265625,1.700240135192871,-1.2737561464309692,-0.5688328742980957
1788168380126062800,4.084062744140625,2.2444210052490234,-1.2656846046447754,-1.2959836721420288
1788168380142232600,4.100232666015625,1.9192523956298828,-0.9711752533912659,-1.2705049514770508
1788168380158335700,4.116335693359375,1.0733623504638672,-0.6211764216423035,-0.5824733972549438
1788168380174468900,4.13246875,-0.16617393493652344,-0.3889671564102173,0.16199129819869995
1788168380190612700,4.14861279296875,-1.1318092346191406,-0.288679838180542,0.4617230296134949
1788168380206792400,4.16479248046875,-1.3495550155639648,-0.47799307107925415,0.7226173877716064
1788168380222954000,4.1809541015625,-0.7933940887451172,-0.7012578845024109,0.8234777450561523
1788168380239060700,4.197060791015625,-0.11320781707763672,-0.8821166753768921,0.579282820224762
1788168380255213000,4.213213134765625,0.42539119720458984,-0.9773832559585571,-0.019676536321640015
1788168380271367200,4.2293671875,0.44655323028564453,-1.0039474964141846,-0.5178667902946472
1788168380287539500,4.24553955078125,-0.2325601577758789,-0.7605631947517395,-0.9244511127471924
1788168380303656400,4.261656494140625,-1.1018171310424805,-0.4418480396270752,-0.9113297462463379
1788168380319761400,4.277761474609375,-1.691514015197754,-0.2144932746887207,-0.46820610761642456
1788168380335910000,4.293909912109375,-1.9297447204589844,-0.03387904167175293,-0.05242195725440979
1788168380352024000,4.310024169921875,-1.6692886352539062,0.18325281143188477,0.23095804452896118
1788168380368211700,4.326211669921875,-1.2056007385253906,0.23027479648590088,0.04149290919303894
1788168380384330800,4.342330810546875,-0.6002359390258789,0.17422211170196533,-0.3702453672885895
1788168380400433400,4.358433349609375,-0.12263774871826172,0.14748525619506836,-0.42248648405075073
1788168380416593700,4.37459375,0.20192718505859375,0.13288664817810059,-0.3287283182144165
1788168380432713500,4.39071337890625,0.5106954574584961,0.11716270446777344,0.10221812129020691
1788168380448853000,4.40685302734375,0.8610725402832031,0.06970131397247314,0.44987916946411133
1788168380464970000,4.422969970703125,0.9492988586425781,0.01089620590209961,0.242008775472641
1788168380481123000,4.439123046875,0.7522716522216797,-0.02539074420928955,0.08131152391433716
1788168380497292300,4.455292236328125,0.25841331481933594,0.10581231117248535,-0.06267145276069641
1788168380513477600,4.4714775390625,-0.22432708740234375,0.20093238353729248,-0.034325242042541504
1788168380529626600,4.487626708984375,-0.5801677703857422,0.2392803430557251,0.027668297290802002
1788168380545750000,4.50375,-0.7081966400146484,0.14430570602416992,0.11790725588798523
1788168380561857500,4.519857421875,-0.5556774139404297,-0.25927412509918213,0.7026691436767578
1788168380577986600,4.535986572265625,0.06798553466796875,-0.6104564666748047,1.3961409330368042
1788168380594168800,4.5521689453125,1.1341667175292969,-0.9578295350074768,1.2838307619094849
1788168380610322700,4.56832275390625,2.380472183227539,-1.3539625406265259,0.241221621632576
1788168380626488800,4.58448876953125,2.8125200271606445,-1.0995891094207764,-0.6261736154556274
1788168380642592800,4.6005927734375,2.0907058715820312,-0.5616716146469116,-0.7219327092170715
1788168380658727400,4.6167275390625,0.6181964874267578,-0.20223820209503174,-0.20333769917488098
1788168380674923500,4.632923583984375,-0.6092910766601562,0.09588205814361572,0.5237925052642822
1788168380691071000,4.649071044921875,-1.0826787948608398,-0.07587480545043945,1.1255128383636475
1788168380707260400,4.665260498046875,0.1405172348022461,-0.7389892935752869,1.3991338014602661
1788168380723416000,4.681416015625,2.676121711730957,-1.3915690183639526,1.2950490713119507
1788168380739595000,4.697594970703125,4.215976715087891,-1.4470142126083374,0.28936833143234253
1788168380755749400,4.713749267578125,2.9171524047851562,-1.029828429222107,-0.6160735487937927
1788168380771905300,4.7299052734375,0.8611106872558594,-0.5466037392616272,-0.5557633638381958
1788168380788091400,4.74609130859375,-0.880950927734375,-0.22857439517974854,0.47057533264160156
1788168380804197600,4.76219775390625,-2.1045517921447754,0.07326972484588623,1.5136805772781372
1788168380820393000,4.77839306640625,-2.3626627922058105,-0.12850868701934814,1.9807488918304443
1788168380836605700,4.794605712890625,-1.5302095413208008,-0.574641227722168,1.7639650106430054
1788168380852779000,4.810779052734375,0.2847251892089844,-0.8265570998191833,0.9336991906166077
1788168380868978000,4.82697802734375,1.4081401824951172,-0.9624438881874084,-0.04785224795341492
1788168380885087500,4.84308740234375,1.1341543197631836,-0.7726249098777771,-0.8672918081283569
1788168380901291000,4.859291015625,-0.013983726501464844,-0.4580414295196533,-1.2117046117782593
1788168380917413400,4.875413330078125,-1.3348121643066406,-0.23518502712249756,-0.9851760864257812
1788168380933582600,4.89158251953125,-2.2106857299804688,0.0278623104095459,-0.5080037117004395
1788168380949780700,4.90778076171875,-2.3805136680603027,0.26578497886657715,-0.03711286932229996
1788168380965935900,4.923935791015625,-2.5333852767944336,0.5151125192642212,0.02546115405857563
1788168380982143200,4.940143310546875,-2.117295742034912,0.614753007888794,-0.09312489628791809
1788168380998267000,4.956266845703125,-1.1653032302856445,0.5036884546279907,-0.0843408852815628
1788168381014410000,4.972409912109375,-0.3248777389526367,0.2558634281158447,-0.0008825883269309998
1788168381030543600,4.988543701171875,0.28425121307373047,0.1521158218383789,-0.007472887635231018
1788168381046702000,5.0047021484375,0.4018688201904297,0.16204524040222168,-0.11202548444271088
1788168381062830000,5.020830078125,0.09503364562988281,0.2565429210662842,-0.45350968837738037
1788168381078965500,5.036965576171875,0.33228206634521484,0.24927103519439697,-0.39825236797332764
1788168381095116500,5.053116455078125,0.9290962219238281,0.40562355518341064,-0.10657298564910889
1788168381111254000,5.06925390625,1.1878623962402344,0.6743214130401611,-0.0741119533777237
1788168381127363000,5.085363037109375,0.8362960815429688,0.7977977991104126,-0.17708270251750946
1788168381143498800,5.101498779296875,0.4550914764404297,0.9423422813415527,-0.37265825271606445
1788168381159640600,5.117640625,0.3491630554199219,0.8423166275024414,-0.0007685720920562744
1788168381175835100,5.133835205078125,0.49802112579345703,0.663917064666748,0.16456058621406555
1788168381191955700,5.149955810546875,0.8933200836181641,0.2450617551803589,-0.0900472104549408
1788168381208064300,5.166064208984375,1.6266107559204102,-0.28989267349243164,-0.1285194456577301
1788168381224203800,5.182203857421875,2.2383337020874023,-0.5763227343559265,0.33392104506492615
1788168381240361200,5.198361328125,2.3224449157714844,-0.4923238754272461,0.898256778717041
1788168381256522200,5.214522216796875,1.9118232727050781,-0.25416886806488037,1.193864345550537
1788168381272641300,5.230641357421875,1.3424644470214844,-0.33302944898605347,1.4569921493530273
1788168381288797400,5.24679736328125,0.6112756729125977,-0.7795593738555908,1.3150880336761475
1788168381304956700,5.262956787109375,0.8191499710083008,-1.4444725513458252,0.832108736038208
1788168381321119500,5.279119384765625,1.6535120010375977,-1.9596507549285889,-0.12030684947967529
1788168381337303000,5.295302978515625,2.235074043273926,-1.99305260181427,-1.2506591081619263
1788168381353458400,5.31145849609375,2.145552635192871,-1.862380862236023,-1.7279245853424072
1788168381369643300,5.327643310546875,1.4363222122192383,-1.3919265270233154,-1.4333597421646118
1788168381385817900,5.34381787109375,0.5048284530639648,-0.8391199111938477,-0.5390058755874634
1788168381401993700,5.35999365234375,-0.5787906646728516,-0.7370135188102722,0.405089795589447
1788168381418173000,5.3761728515625,-1.662266731262207,-0.562742292881012,0.7277454137802124
1788168381434342100,5.392342041015625,-2.5200605392456055,-0.3397998809814453,0.36037755012512207
1788168381450450200,5.4084501953125,-2.6054368019104004,-0.42085951566696167,0.35117751359939575
1788168381466661000,5.4246611328125,-1.458648681640625,-0.7590764760971069,1.0673478841781616
1788168381482795500,5.44079541015625,-0.37169456481933594,-0.6615585088729858,0.5785531997680664
1788168381498978800,5.456978759765625,0.2514486312866211,-0.528136670589447,0.4577353894710541
1788168381515165400,5.47316552734375,0.5838165283203125,-0.42824602127075195,0.3603975176811218
1788168381531276800,5.48927685546875,0.032637596130371094,-0.18378883600234985,-0.23508352041244507
1788168381547407400,5.505407470703125,-0.29976367950439453,-0.05997323989868164,-0.41244709491729736
1788168381563594000,5.521593994140625,-0.7664413452148438,0.3867751359939575,-0.7762693166732788
1788168381579745800,5.537745849609375,-0.4338235855102539,0.5196162462234497,-0.21801650524139404
1788168381595879700,5.553879638671875,-0.03864574432373047,0.4901399612426758,0.18886956572532654
1788168381612029200,5.570029296875,-0.08555984497070312,0.5517401695251465,0.3236726224422455
1788168381628170200,5.586170166015625,-0.7576923370361328,0.5572524070739746,-0.15713363885879517
1788168381644364500,5.602364501953125,-1.2001266479492188,0.36112260818481445,-0.5741628408432007
1788168381660534000,5.618533935546875,-1.2346057891845703,0.2447366714477539,-0.674680769443512
1788168381676672000,5.634672119140625,-0.5564231872558594,0.1880359649658203,-0.29885730147361755
1788168381692781600,5.650781494140625,0.6683101654052734,0.18892014026641846,0.47039633989334106
1788168381708917200,5.666917236328125,1.1278533935546875,0.09161102771759033,0.4461926817893982
1788168381725075700,5.68307568359375,1.0190763473510742,0.1289987564086914,0.12814077734947205
1788168381741217800,5.6992177734375,0.8082208633422852,0.1785062551498413,-0.010997563600540161
1788168381757368800,5.715368896484375,0.5087976455688477,0.11632251739501953,0.06986191123723984
1788168381773525500,5.731525390625,0.17116641998291016,-0.13806414604187012,0.09592084586620331
1788168381789682400,5.747682373046875,0.24753570556640625,-0.4577913284301758,0.5728153586387634
1788168381805889000,5.763888916015625,0.4726696014404297,-0.951596736907959,0.7338714003562927
1788168381822073300,5.7800732421875,1.1241865158081055,-0.7973513603210449,0.26789745688438416
1788168381838234000,5.796234130859375,0.8345832824707031,-0.655768632888794,-0.05641213059425354
1788168381854392000,5.81239208984375,0.6898984909057617,-0.6344724893569946,0.39940154552459717
1788168381870554000,5.82855419921875,0.8744869232177734,-0.7243050336837769,0.738787055015564
1788168381886673000,5.8446728515625,1.4801158905029297,-0.8538929224014282,0.844710648059845
1788168381902812400,5.8608125,2.333584785461426,-1.3416321277618408,0.7227513194084167
1788168381919014400,5.877014404296875,3.1415367126464844,-1.5267072916030884,0.30281323194503784
1788168381935122000,5.893121826171875,2.2925596237182617,-1.4265040159225464,-0.23140659928321838
1788168381951296800,5.909296875,0.9215688705444336,-1.2087152004241943,-0.6075344681739807
1788168381967484200,5.925484130859375,-0.035564422607421875,-0.7623580098152161,-0.36903509497642517
1788168381983668500,5.94166845703125,-0.6895313262939453,-0.4700605869293213,0.08279113471508026
1788168381999839500,5.957839599609375,-0.570713996887207,-0.10135364532470703,0.4558250904083252
1788168382015947500,5.973947509765625,-0.21002197265625,0.07033240795135498,0.7092807292938232
1788168382032084500,5.99008447265625,0.3458414077758789,-0.1587071418762207,0.6628949046134949
1788168382048210700,6.006210693359375,1.1110315322875977,-0.3398118019104004,0.6502461433410645
1788168382064354000,6.02235400390625,0.9883813858032227,-0.345719575881958,0.5461288094520569
1788168382080494300,6.038494384765625,0.2905998229980469,-0.27526307106018066,0.48741036653518677
1788168382096654300,6.054654296875,-0.8900871276855469,-0.1594768762588501,0.450447142124176
1788168382112844500,6.070844482421875,-1.9066009521484375,-0.09687018394470215,0.3544810116291046
1788168382128998100,6.086998046875,-2.322470188140869,-0.04605722427368164,0.26223820447921753
1788168382145154600,6.103154541015625,-2.387979507446289,0.0528489351272583,0.3014179468154907
1788168382161308000,6.119307861328125,-1.9933524131774902,0.0769953727722168,0.5638689994812012
1788168382177463800,6.1354638671875,-1.849010944366455,-0.03027522563934326,0.7978243231773376
1788168382193614600,6.151614501953125,-1.124582290649414,-0.022284507751464844,0.6882426142692566
1788168382209776000,6.167776123046875,-0.05568122863769531,0.06394875049591064,0.5166733860969543
1788168382225958000,6.1839580078125,-0.025499343872070312,-0.12668061256408691,0.05600326135754585
1788168382242077000,6.200076904296875,-0.06991100311279297,-0.12755537033081055,-0.20928020775318146
1788168382258185700,6.216185791015625,0.20737552642822266,0.03984177112579346,-0.09942472726106644
1788168382274347500,6.232347412109375,0.02860546112060547,0.2586327791213989,-0.1401004046201706
1788168382290515200,6.24851513671875,0.7262096405029297,0.8033393621444702,-0.018954433500766754
1788168382306702300,6.264702392578125,-0.22356700897216797,0.13016223907470703,0.31682145595550537
1788168382322823400,6.280823486328125,0.5074024200439453,0.6489057540893555,-0.2618100643157959
1788168382338981000,6.296981201171875,1.0879230499267578,0.14699745178222656,0.07720689475536346
1788168382355155000,6.313155029296875,0.9008026123046875,0.03904294967651367,-0.3794958293437958
1788168382371329500,6.32932958984375,1.1792564392089844,-0.1992281675338745,-0.4596686065196991
1788168382387476500,6.3454765625,2.754171371459961,-0.7169381380081177,0.0035953521728515625
1788168382403633700,6.361633544921875,2.7648658752441406,-1.0352697372436523,-0.050277650356292725
1788168382419788000,6.3777880859375,1.4711799621582031,-1.028823733329773,-0.0836961567401886
1788168382435964200,6.393964111328125,0.24051666259765625,-0.9206622838973999,-0.37399157881736755
1788168382452095500,6.410095458984375,0.5604581832885742,-0.9220019578933716,-0.7054224014282227
1788168382468241400,6.426241455078125,1.2756786346435547,-1.235328197479248,-0.5394946336746216
1788168382484364800,6.44236474609375,1.4707469940185547,-1.5777525901794434,-0.26964372396469116
1788168382500467500,6.458467529296875,1.3544340133666992,-1.4646964073181152,-0.675470769405365
1788168382516598000,6.474597900390625,1.0399856567382812,-0.9504267573356628,-1.1070047616958618
1788168382532733000,6.49073291015625,0.33984851837158203,-0.711561918258667,-0.9797898530960083
1788168382548893000,6.506892822265625,-0.009918212890625,-0.21845674514770508,-0.5112023949623108
1788168382565025500,6.523025634765625,0.1804981231689453,0.15388143062591553,0.6314648985862732
1788168382581130800,6.539130859375,-0.602869987487793,0.4708951711654663,1.7156476974487305
1788168382597318700,6.555318603515625,-0.21824359893798828,0.6999672651290894,2.061136484146118
1788168382613517300,6.571517333984375,0.20654678344726562,1.0767344236373901,1.271709680557251
1788168382629678000,6.587677978515625,1.6341667175292969,-0.5440123081207275,2.2259938716888428
1788168382645822200,6.603822265625,1.5344505310058594,-0.2576296329498291,0.4767596125602722
1788168382661928000,6.619927978515625,0.588714599609375,-0.04638671875,-0.29345470666885376
1788168382678121000,6.636120849609375,-0.7851629257202148,-0.15109384059906006,-0.13128408789634705
1788168382694278000,6.65227783203125,-2.1176366806030273,-0.2355794906616211,0.763664186000824
1788168382710438000,6.66843798828125,-2.592116355895996,0.503725528717041,0.10899239778518677
1788168382726625000,6.684625,-2.7099452018737793,0.43142056465148926,-0.5803341269493103
1788168382742731500,6.7007314453125,-2.38303804397583,0.2998267412185669,-0.7553955316543579
1788168382758920200,6.716920166015625,-1.9568333625793457,-0.34863758087158203,-1.8946926593780518
1788168382775086800,6.7330869140625,-1.311598777770996,0.6225717067718506,-2.3983523845672607
1788168382791268400,6.749268310546875,0.6191377639770508,1.1059376001358032,0.3652968406677246
1788168382807467000,6.765467041015625,1.1589784622192383,0.3201712369918823,1.9180314540863037
1788168382823625200,6.781625244140625,0.9724931716918945,0.02773916721343994,0.412567138671875
1788168382839837000,6.7978369140625,0.24349689483642578,-0.5623835325241089,-0.7073159217834473
1788168382855962600,6.813962646484375,0.06271553039550781,-0.5275874137878418,-1.260880708694458
1788168382872101000,6.83010107421875,-0.8086366653442383,-0.14127767086029053,-0.8861295580863953
1788168382888244000,6.846243896484375,-0.41730499267578125,-0.024343252182006836,-0.2603539228439331
1788168382904348400,6.862348388671875,0.1962289810180664,0.017116308212280273,0.04086533188819885
1788168382920526300,6.8785263671875,1.457061767578125,0.06095016002655029,1.0561013221740723
1788168382936662000,6.894662109375,1.0590028762817383,0.03566169738769531,0.8244379162788391
1788168382952817000,6.91081689453125,2.205092430114746,-0.35751914978027344,-0.8298252820968628
1788168382968996000,6.92699609375,2.0833826065063477,-0.9124380946159363,-1.3580589294433594
1788168382985095400,6.943095458984375,1.4141826629638672,-0.59430992603302,-0.9005643725395203
1788168383001232400,6.959232421875,0.16442584991455078,-0.42582714557647705,0.8052846193313599
1788168383017371600,6.97537158203125,0.049429893493652344,0.30836915969848633,0.9825307130813599
1788168383033536800,6.991536865234375,0.29341697692871094,0.30263566970825195,1.0366826057434082
1788168383049726000,7.007725830078125,1.2846307754516602,-0.6604712009429932,0.9686607122421265
1788168383065885400,7.023885498046875,2.602842330932617,-1.3067855834960938,0.5523077845573425
1788168383082063600,7.040063720703125,3.196610450744629,-1.5049240589141846,-0.06248047947883606
1788168383098218000,7.056218017578125,2.1523170471191406,-1.3100284337997437,-0.20297953486442566
1788168383114370300,7.072370361328125,0.5551233291625977,-0.982035219669342,-0.07920768857002258
1788168383130523000,7.08852294921875,-0.5677194595336914,-0.711268424987793,-0.09472906589508057
1788168383146626000,7.1046259765625,-1.3037433624267578,-0.45032310485839844,-0.14914757013320923
1788168383162823200,7.1208232421875,-1.6753106117248535,-0.23301827907562256,-0.14501482248306274
1788168383178985500,7.1369853515625,-0.7499122619628906,-0.3601793050765991,-0.16670545935630798
1788168383195152000,7.15315185546875,-0.0234527587890625,-0.5925397872924805,-0.024797260761260986
1788168383211269600,7.16926953125,0.15351390838623047,-0.4192328453063965,0.058174848556518555
1788168383227372300,7.185372314453125,-0.6081666946411133,-0.19681572914123535,0.18747437000274658
1788168383243530200,7.2015302734375,-1.2836723327636719,0.04898548126220703,-0.159451425075531
1788168383259697700,7.21769775390625,-1.4674959182739258,0.1690812110900879,-0.5674790143966675
1788168383275833300,7.233833251953125,-0.8538627624511719,0.2554490566253662,-1.1110485792160034
1788168383291951000,7.249951171875,-0.7376222610473633,0.25227439403533936,-0.998692512512207
1788168383308086800,7.266086669921875,-1.1719236373901367,0.357313871383667,-0.5036171674728394
1788168383324251400,7.28225146484375,-1.4732255935668945,0.49846041202545166,-0.09177422523498535
1788168383340425000,7.298425048828125,-1.4833240509033203,0.38479042053222656,0.053102314472198486
1788168383356571400,7.3145712890625,-1.0868148803710938,0.29510343074798584,0.03559297323226929
1788168383372691000,7.33069091796875,-0.4057016372680664,0.1748793125152588,0.00005739927291870117
1788168383388797200,7.346797119140625,0.30843257904052734,0.1255474090576172,-0.19825369119644165
1788168383404973600,7.3629736328125,0.6403656005859375,0.05464446544647217,-0.440652072429657
1788168383421110000,7.379110107421875,0.7923412322998047,0.15934646129608154,-0.647655725479126
1788168383437268200,7.395268310546875,0.7156772613525391,0.24492418766021729,-0.5762723684310913
1788168383453406000,7.411406005859375,0.623652458190918,0.3862797021865845,-0.5295085906982422
1788168383469510000,7.427510009765625,0.508570671081543,0.4609259366989136,-0.36293983459472656
1788168383485649000,7.44364892578125,0.7820672988891602,0.28017163276672363,0.000494837760925293
1788168383501773000,7.45977294921875,0.9484367370605469,-0.08566570281982422,0.5890950560569763
1788168383517938700,7.475938720703125,1.3864250183105469,-0.7544457316398621,1.1340467929840088
1788168383534078500,7.492078369140625,2.2017459869384766,-1.2521315813064575,1.2172759771347046
1788168383550186800,7.508186767578125,2.916073799133301,-1.261444091796875,0.40301424264907837
1788168383566377000,7.524376953125,2.6625423431396484,-0.861404538154602,-0.28862324357032776
1788168383582574800,7.540574951171875,1.5843753814697266,-0.7857025861740112,-0.46112969517707825
1788168383598743300,7.556743408203125,0.6263227462768555,-0.5052565336227417,-0.18528051674365997
1788168383614889200,7.57288916015625,0.5111579895019531,-0.6237670183181763,0.10766762495040894
1788168383631046000,7.5890458984375,1.2470951080322266,-0.983198881149292,-0.200193852186203
1788168383647191600,7.605191650390625,1.8549718856811523,-0.8628998398780823,-1.0274286270141602
1788168383663347200,7.62134716796875,1.1382617950439453,-0.7470765709877014,-1.6046936511993408
1788168383679458000,7.6374580078125,0.19509506225585938,-0.48775315284729004,-1.4248294830322266
1788168383695615200,7.653615234375,-0.45947265625,-0.13154160976409912,-0.5852196216583252
1788168383711725300,7.669725341796875,-1.018808364868164,-0.23287677764892578,0.1864144504070282
1788168383727877400,7.68587744140625,-1.1159772872924805,-0.36195528507232666,0.5612574815750122
1788168383744043300,7.702043212890625,-0.9528656005859375,-0.6693550944328308,0.612653374671936
1788168383760220400,7.718220458984375,-0.4391450881958008,-0.8388343453407288,0.4170190989971161
1788168383776381400,7.73438134765625,0.3922767639160156,-0.8598543405532837,0.049773335456848145
1788168383792490500,7.750490478515625,1.0064115524291992,-0.8422901034355164,-0.4019956588745117
1788168383808654800,7.76665478515625,0.6545858383178711,-0.6907290816307068,-0.7459529638290405
1788168383824774400,7.7827744140625,-0.4002094268798828,-0.31923359632492065,-0.5128015279769897
1788168383840916500,7.79891650390625,-1.3429241180419922,0.01106274127960205,0.026233255863189697
1788168383857037000,7.815037109375,-1.9460663795471191,0.22653043270111084,0.3260543942451477
1788168383873192700,7.831192626953125,-1.761183738708496,0.41397905349731445,0.34804898500442505
1788168383889411300,7.847411376953125,-1.229832649230957,0.397050142288208,0.2367875576019287
1788168383905537300,7.863537353515625,-1.0354833602905273,0.5433311462402344,-0.004662424325942993
1788168383921683700,7.87968359375,-0.789036750793457,0.5276947021484375,-0.07426393032073975
1788168383937812000,7.89581201171875,-0.5876264572143555,0.45443594455718994,0.385209321975708
1788168383953918500,7.91191845703125,-0.10820960998535156,0.32313334941864014,0.8348840475082397
1788168383970054000,7.928053955078125,0.37625885009765625,0.21193945407867432,0.7273796796798706
1788168383986195200,7.9441953125,0.7100133895874023,0.14281582832336426,0.2404484748840332
1788168384002353200,7.960353271484375,0.6088085174560547,0.1593482494354248,-0.2974081039428711
1788168384018486500,7.976486572265625,0.31027698516845703,0.2794240713119507,-0.5079725980758667
1788168384034615800,7.99261572265625,-0.07310771942138672,0.3907930850982666,-0.3980695605278015
1788168384050760200,8.00876025390625,-0.2789344787597656,0.4073899984359741,-0.0265340656042099
1788168384066905300,8.0249052734375,-0.1058816909790039,0.18965530395507812,0.2781607508659363
1788168384083075800,8.041075927734376,0.7150640487670898,-0.1606959104537964,0.18653473258018494
1788168384099191800,8.05719189453125,1.5619163513183594,-0.49194085597991943,-0.17154964804649353
1788168384115295000,8.073294921875,2.199873924255371,-0.5104484558105469,-0.3915923237800598
1788168384131489000,8.089489013671875,1.8992500305175781,-0.14406657218933105,-0.3306218981742859
1788168384147605800,8.105605712890625,1.0958452224731445,0.0885157585144043,0.09216171503067017
1788168384163786500,8.121786376953125,0.512507438659668,0.09243440628051758,0.7396016120910645
1788168384179908600,8.13790869140625,1.029158592224121,-0.3397703170776367,1.3538274765014648
1788168384196062500,8.1540625,2.506620407104492,-1.2116338014602661,1.17095947265625
1788168384212264400,8.170264404296875,3.7272815704345703,-1.4423309564590454,0.3767309784889221
1788168384228386800,8.18638671875,3.7922515869140625,-1.5478843450546265,-0.06219083070755005
1788168384244557800,8.202557861328126,2.058659553527832,-1.3894176483154297,-0.3329034149646759
1788168384260710000,8.2187099609375,-0.0071868896484375,-0.9687949419021606,-0.013413488864898682
1788168384276846000,8.23484619140625,-1.4869203567504883,-0.5929747819900513,0.25056880712509155
1788168384293055700,8.2510556640625,-2.468621253967285,-0.4458444118499756,0.3799245357513428
1788168384309182700,8.2671826171875,-2.323543071746826,-0.34323036670684814,0.46409088373184204
1788168384325361000,8.28336083984375,-1.2932567596435547,-0.5059530735015869,0.6388781666755676
1788168384341478100,8.29947802734375,-0.39820003509521484,-0.5316986441612244,0.33305734395980835
1788168384357579300,8.315579345703124,0.07145500183105469,-0.5663561224937439,0.024678528308868408
1788168384373706800,8.331706787109376,-0.0022058486938476562,-0.44460999965667725,-0.5156621336936951
1788168384389836000,8.3478359375,-0.4417572021484375,-0.3618254065513611,-0.7619737982749939
1788168384405988000,8.363988037109374,-1.077681541442871,-0.09133255481719971,-0.78420090675354
1788168384422120700,8.38012060546875,-1.4317121505737305,0.1785449981689453,-0.647301435470581
1788168384438272000,8.39627197265625,-1.7294106483459473,0.46710872650146484,-0.3442019820213318
1788168384454404000,8.412404052734376,-2.0220651626586914,0.5906312465667725,0.006015658378601074
1788168384470597400,8.428597412109376,-1.6051006317138672,0.707466721534729,0.2683115601539612
1788168384486755800,8.444755859375,-0.9290571212768555,0.586229681968689,0.19971054792404175
1788168384502892000,8.46089208984375,-0.2403087615966797,0.4567751884460449,-0.11084499955177307
1788168384519043000,8.47704296875,0.4604482650756836,0.3072308301925659,-0.38367587327957153
1788168384535186200,8.493186279296875,0.7444963455200195,0.29769742488861084,-0.6500097513198853
1788168384551334000,8.509333984375,0.7483453750610352,0.36364758014678955,-0.3609560430049896
1788168384567502800,8.5255029296875,0.7215175628662109,0.4666478633880615,-0.2245797961950302
1788168384583652000,8.541652099609376,0.502833366394043,0.5896416902542114,-0.22752748429775238
1788168384599759000,8.557759033203125,0.1079864501953125,0.6041221618652344,-0.2898877263069153
1788168384615917300,8.573917236328125,0.20387649536132812,0.4900803565979004,-0.23885494470596313
1788168384632070000,8.59006982421875,0.8947124481201172,0.3002355098724365,0.0012167692184448242
1788168384648244700,8.60624462890625,1.4781475067138672,-0.06000792980194092,0.24362367391586304
1788168384664400000,8.62239990234375,1.8839330673217773,-0.45664775371551514,0.3087996244430542
1788168384680558000,8.63855810546875,1.8485746383666992,-0.4989098310470581,0.05015397071838379
1788168384696716000,8.654716064453124,1.6177711486816406,-0.6219635009765625,-0.1561972200870514
1788168384712925700,8.67092578125,2.114251136779785,-0.766058623790741,-0.42752522230148315
1788168384729089500,8.687089599609376,2.7814769744873047,-0.8431679010391235,-0.3273664712905884
1788168384745282600,8.703282470703124,3.3775882720947266,-1.358087182044983,-0.2086825966835022
1788168384761383000,8.7193828125,3.7572021484375,-1.4366015195846558,-0.4641551971435547
1788168384777576200,8.735576171875,3.0866832733154297,-1.3025009632110596,-0.8274675607681274
1788168384793741000,8.751740966796875,1.2141828536987305,-1.030958652496338,-1.0305261611938477
1788168384809911800,8.767911865234375,0.04729175567626953,-0.7124965786933899,-0.9258855581283569
1788168384826120400,8.784120361328124,-0.7686233520507812,-0.360620379447937,-0.4219335913658142
1788168384842271200,8.800271240234375,-1.342010498046875,-0.17341983318328857,-0.10564815998077393
1788168384858484000,8.81648388671875,-1.7664251327514648,-0.15609121322631836,0.063315749168396
1788168384874660600,8.83266064453125,-1.7198519706726074,-0.2926117181777954,0.3089495301246643
1788168384890807800,8.848807861328124,-1.1882715225219727,-0.5158261060714722,0.4929772615432739
1788168384906937600,8.8649375,-0.6491689682006836,-0.749474287033081,0.18871250748634338
1788168384923043300,8.881043212890624,-0.6241722106933594,-0.7979503273963928,-0.13417643308639526
1788168384939174000,8.897173828125,-1.1023664474487305,-0.7787742018699646,-0.20609936118125916
1788168384955310300,8.913310302734375,-1.5692377090454102,-0.6452333927154541,-0.1965821236371994
1788168384971470300,8.92947021484375,-1.7552762031555176,-0.4853857755661011,-0.22185319662094116
1788168384987591400,8.94559130859375,-1.639512062072754,-0.34636032581329346,-0.07873916625976562
1788168385003701000,8.961700927734375,-1.327254295349121,-0.1883862018585205,-0.06825563311576843
1788168385019846400,8.977846435546875,-0.9688873291015625,-0.06392073631286621,-0.18271541595458984
1788168385036001000,8.9940009765625,-0.8176231384277344,0.07477116584777832,-0.07811874151229858
1788168385052175400,9.01017529296875,-0.804595947265625,0.167333722114563,-0.0372542142868042
1788168385068290300,9.026290283203124,-0.6843090057373047,0.2158111333847046,0.024270355701446533
1788168385084444700,9.042444580078126,-0.12767601013183594,0.1168438196182251,-0.18112096190452576
1788168385100599000,9.05859912109375,0.6376466751098633,0.08838236331939697,-0.3237285017967224
1788168385116760600,9.074760498046874,1.2251825332641602,0.07022833824157715,-0.47004690766334534
1788168385132938500,9.0909384765625,0.9113731384277344,0.2928886413574219,-0.448248952627182
1788168385149057800,9.107057861328125,0.5917949676513672,0.47388267517089844,-0.385852575302124
1788168385165164300,9.123164306640625,0.5908088684082031,0.3680480718612671,-0.15791872143745422
1788168385181329700,9.13932958984375,0.6324796676635742,0.12805569171905518,0.4004734754562378
1788168385197474800,9.155474853515624,1.3427562713623047,-0.19006192684173584,0.6451291441917419
1788168385213663500,9.17166357421875,1.8957786560058594,-0.4446636438369751,0.2800289988517761
1788168385229780000,9.187780029296874,2.150623321533203,-0.5992909669876099,-0.41368669271469116
1788168385245916000,9.203916015625,1.9335193634033203,-0.28219354152679443,-0.8704410791397095
1788168385262090000,9.220090087890625,1.0809030532836914,-0.2548041343688965,-0.6791986227035522
1788168385278265000,9.23626513671875,-0.03058338165283203,-0.35463380813598633,-0.0645747184753418
1788168385294441500,9.25244140625,0.8998508453369141,-0.7543635368347168,0.5315751433372498
1788168385310563800,9.268563720703124,2.5100488662719727,-1.1768766641616821,0.11138755083084106
1788168385326670000,9.284670166015625,2.737961769104004,-1.1636844873428345,-0.5531113147735596
1788168385342883000,9.300883056640625,1.8302345275878906,-1.0689458847045898,-0.608589768409729
1788168385359020800,9.317020751953125,0.9326333999633789,-0.9760286808013916,-0.090892493724823
1788168385375176200,9.33317626953125,0.0771636962890625,-0.7982789874076843,0.3795287311077118
1788168385391353600,9.349353515625,-0.6261157989501953,-0.7484158277511597,0.4053306579589844
1788168385407460000,9.365460205078126,-0.46572399139404297,-0.8602167367935181,0.11659058928489685
1788168385423604200,9.381604248046875,0.0016937255859375,-0.8571984171867371,0.1770123839378357
1788168385439751400,9.39775146484375,0.29483604431152344,-0.7436014413833618,0.24172884225845337
1788168385455921700,9.413921630859376,-0.28723812103271484,-0.5875287055969238,0.1289311647415161
1788168385472064500,9.430064453125,-0.8823881149291992,-0.42818760871887207,-0.19451922178268433
1788168385488219600,9.4462197265625,-1.5101537704467773,-0.2943986654281616,-0.27830129861831665
1788168385504364000,9.462364013671875,-1.8580055236816406,-0.20359432697296143,-0.4120798110961914
1788168385520514000,9.47851416015625,-1.7934584617614746,-0.14263391494750977,-0.7025699615478516
1788168385536689400,9.494689453125,-1.831815242767334,0.004868745803833008,-0.6333079934120178
1788168385552841000,9.510841064453125,-1.8822755813598633,0.15146565437316895,-0.2437424510717392
1788168385568943400,9.526943359375,-1.5959768295288086,0.23370933532714844,0.2554306983947754
1788168385585097000,9.543096923828125,-0.9778251647949219,0.2671351432800293,0.741807222366333
1788168385601304000,9.559303955078125,-0.6809940338134766,0.22364366054534912,0.4370909631252289
1788168385617484000,9.575484130859374,-0.33886241912841797,0.12396275997161865,-0.33457401394844055
1788168385633643300,9.591643310546875,0.07522392272949219,0.08224225044250488,-0.6532806158065796
1788168385649743000,9.6077431640625,0.062206268310546875,0.22344398498535156,-0.4343447983264923
1788168385665897500,9.6238974609375,-0.19586944580078125,0.4642099142074585,-0.09777874499559402
1788168385682016800,9.640016845703125,-0.5497255325317383,0.6417776346206665,0.10312581062316895
1788168385698156800,9.65615673828125,-0.36313533782958984,0.7769362926483154,0.1526957005262375
1788168385714270700,9.672270751953125,0.014250755310058594,0.7370762825012207,-0.17494097352027893
1788168385730371300,9.688371337890626,0.41359424591064453,0.44001591205596924,-0.6033631563186646
1788168385746543600,9.704543701171875,0.6741704940795898,0.06319022178649902,-0.5765478610992432
1788168385762665700,9.720665771484375,1.016763687133789,-0.2503241300582886,0.2274477779865265
1788168385778806300,9.73680615234375,1.4551734924316406,-0.5928288698196411,0.7479144930839539
1788168385794924800,9.7529248046875,1.5264291763305664,-0.8934832811355591,0.24757814407348633
1788168385811025700,9.769025634765624,1.6420297622680664,-1.009783148765564,-0.6884058117866516
1788168385827198700,9.78519873046875,1.4865741729736328,-1.059684157371521,-0.5754177570343018
1788168385843329500,9.80132958984375,1.8142271041870117,-0.9903799891471863,-0.049254409968853
1788168385859478300,9.817478271484376,2.0341644287109375,-1.037126064300537,0.43425825238227844
1788168385875642400,9.833642333984375,2.415037155151367,-1.2701797485351562,0.3749311566352844
1788168385891745000,9.8497451171875,1.971665382385254,-0.9882083535194397,-0.41152235865592957
1788168385907870200,9.8658701171875,0.7714500427246094,-0.7011780738830566,-0.9533831477165222
1788168385924009000,9.882009033203126,0.12243175506591797,-0.4068886637687683,-0.8744103908538818
1788168385940167000,9.8981669921875,0.2961444854736328,-0.22801893949508667,-0.2786376476287842
1788168385956280300,9.9142802734375,0.6365022659301758,-0.13206791877746582,0.2582213282585144
1788168385972385300,9.93038525390625,0.4689903259277344,-0.06526100635528564,0.5436740517616272
1788168385988526800,9.94652685546875,0.8320960998535156,-0.2768484354019165,0.8009899854660034
1788168386004678700,9.9626787109375,1.3408479690551758,-0.443993479013443,0.4450739324092865
1788168386020840200,9.978840087890624,0.9505758285522461,-0.6528177857398987,-0.22813363373279572
1788168386036953000,9.994953125,0.6093845367431641,-0.7494385242462158,-0.4365140199661255
1788168386053051600,10.0110517578125,-0.05436134338378906,-0.7325559258460999,-0.5008143186569214
1788168386069194800,10.02719482421875,-0.8337993621826172,-0.5599486231803894,-0.5706130266189575
1788168386085352400,10.0433525390625,-1.3993587493896484,-0.26060032844543457,-0.2802595794200897
1788168386101530600,10.059530517578125,-1.8993239402770996,-0.015440046787261963,-0.15513576567173004
1788168386117647400,10.0756474609375,-2.3866524696350098,0.07466918230056763,0.27641576528549194
1788168386133749200,10.091749267578125,-2.2497048377990723,0.2068551778793335,0.4223676919937134
1788168386149912300,10.107912353515625,-1.4192800521850586,0.3209120035171509,0.3417595624923706
1788168386166078700,10.12407861328125,-0.8426628112792969,0.3236309289932251,0.003115573897957802
1788168386182264300,10.140264404296875,-0.6704587936401367,0.33647555112838745,-0.04287310689687729
1788168386198380800,10.156380859375,-0.7616367340087891,0.2398076057434082,0.20489944517612457
1788168386214565400,10.1725654296875,-0.37479305267333984,0.17335569858551025,0.6056556105613708
1788168386230738200,10.18873828125,0.5141143798828125,0.20513826608657837,0.1430845409631729
1788168386246867200,10.2048671875,0.8842763900756836,0.23373085260391235,-0.3658055067062378
1788168386263018500,10.2210185546875,0.7076549530029297,0.348766565322876,-0.5649194717407227
1788168386279149600,10.237149658203125,0.4868783950805664,0.45725202560424805,-0.45056650042533875
1788168386295306000,10.253305908203124,0.486724853515625,0.4540518522262573,-0.135515496134758
1788168386311446300,10.2694462890625,0.40881919860839844,0.33528900146484375,0.3488444983959198
1788168386327581000,10.285580810546875,0.8794965744018555,0.04628109931945801,0.4028175473213196
1788168386343761700,10.30176171875,1.8911752700805664,-0.2494625449180603,-0.0948827713727951
1788168386359890200,10.31789013671875,2.6225147247314453,-0.5422776937484741,-0.5697914361953735
1788168386375993000,10.3339931640625,2.567729949951172,-0.4717547297477722,-0.6569731831550598
1788168386392160800,10.350160888671875,1.609328269958496,-0.4194602966308594,-0.18169941008090973
1788168386408304000,10.36630419921875,0.7989234924316406,-0.43264245986938477,0.5123749375343323
1788168386424468200,10.38246826171875,1.0534887313842773,-0.6260989904403687,0.8698612451553345
1788168386440612400,10.3986123046875,2.478208541870117,-1.2101473808288574,0.5387080907821655
1788168386456717600,10.414717529296874,3.838380813598633,-1.4755202531814575,-0.09079907834529877
1788168386472896300,10.430896240234375,3.2822227478027344,-1.268786072731018,-0.23696628212928772
1788168386489095000,10.447094970703125,1.0843229293823242,-1.0110119581222534,-0.3803541660308838
1788168386505246700,10.463246826171876,-0.6647863388061523,-0.6972715258598328,-0.10407544672489166
1788168386521433600,10.47943359375,-1.7316226959228516,-0.5207046866416931,0.2780095934867859
1788168386537586200,10.495586181640626,-2.2782158851623535,-0.3933558464050293,0.40681734681129456
1788168386553776400,10.5117763671875,-2.2734084129333496,-0.45708996057510376,0.4532769024372101
1788168386569939000,10.52793896484375,-1.49676513671875,-0.6094257831573486,0.6173388957977295
1788168386586117600,10.54411767578125,-0.7438945770263672,-0.670989990234375,0.23241834342479706
1788168386602272800,10.560272705078125,-0.22325992584228516,-0.6210638284683228,-0.17665337026119232
1788168386618375400,10.57637548828125,-0.24383831024169922,-0.4293667674064636,-0.5826209187507629
1788168386634540000,10.5925400390625,-0.8220701217651367,-0.22961437702178955,-1.0087770223617554
1788168386650659600,10.60865966796875,-1.5226421356201172,-0.06487095355987549,-1.2192096710205078
1788168386666801400,10.624801513671875,-2.148038387298584,0.12760913372039795,-0.9804270267486572
1788168386682954200,10.640954345703125,-2.524771213531494,0.4247668981552124,-0.3869567811489105
1788168386699058700,10.65705859375,-2.498544692993164,0.5449709892272949,0.1661311388015747
1788168386715264000,10.673263916015625,-1.837691307067871,0.5154318809509277,0.27856892347335815
1788168386731442700,10.689442626953126,-0.5680255889892578,0.39555084705352783,0.04922652244567871
1788168386747573500,10.705573486328126,0.45038604736328125,0.14113849401474,-0.2802378833293915
1788168386763743700,10.72174365234375,0.7613792419433594,-0.062338829040527344,-0.24313229322433472
1788168386779851300,10.737851318359375,0.8275327682495117,-0.03821676969528198,-0.31705576181411743
1788168386795982600,10.753982666015625,0.5092201232910156,-0.00830078125,-0.4287363886833191
1788168386812172800,10.7701728515625,0.7081718444824219,0.19471192359924316,-0.4221281409263611
1788168386828331300,10.786331298828125,0.9819164276123047,0.25813013315200806,-0.4569244980812073
1788168386844472600,10.80247265625,0.7183475494384766,0.42549020051956177,-0.38922494649887085
1788168386860575000,10.818574951171875,0.3483448028564453,0.5010025501251221,-0.2894192934036255
1788168386876713500,10.83471337890625,0.09151172637939453,0.3839477300643921,-0.0655025988817215
1788168386892861700,10.85086181640625,0.5248117446899414,-0.030475616455078125,0.08345043659210205
1788168386909032700,10.86703271484375,1.8294143676757812,-0.6274755001068115,-0.4362066388130188
1788168386925150000,10.88314990234375,2.697408676147461,-1.0152521133422852,-0.846808910369873
1788168386941255700,10.899255615234376,2.8985843658447266,-0.9508011341094971,-0.8823142051696777
1788168386957440000,10.91543994140625,2.2036943435668945,-0.48616325855255127,-0.7424477338790894
1788168386973599700,10.931599853515625,1.5229454040527344,-0.2922084331512451,-0.6314391493797302
1788168386989767400,10.947767333984375,1.0543127059936523,-0.13820254802703857,-0.2555883824825287
1788168387005906400,10.963906494140625,0.5904207229614258,-0.3547332286834717,-0.2911847233772278
1788168387022009000,10.980009033203125,0.4426746368408203,-0.4360350966453552,-0.5475078225135803
1788168387038158000,10.996157958984375,0.7592878341674805,-0.43362462520599365,-0.7243239283561707
1788168387054272300,11.012272216796875,0.783416748046875,-0.4454222321510315,-0.4973456561565399
1788168387070454000,11.0284541015625,0.46594715118408203,-0.40175676345825195,-0.18337762355804443
1788168387086566700,11.044566650390625,-0.08392810821533203,-0.4443751573562622,0.06347192823886871
1788168387102679300,11.06067919921875,0.08438777923583984,-0.532828688621521,0.3105611205101013
1788168387118841900,11.076841796875,0.5711631774902344,-0.676252543926239,0.2566376030445099
1788168387134961400,11.09296142578125,0.40401172637939453,-0.8804498314857483,0.14245298504829407
1788168387151100400,11.109100341796875,-0.3822917938232422,-1.0403927564620972,0.06484103202819824
1788168387167217200,11.125217041015626,-0.7968902587890625,-1.0253229141235352,-0.14317283034324646
1788168387183372000,11.1413720703125,-1.0213117599487305,-0.9993423223495483,-0.4650380611419678
1788168387199547000,11.157546875,-1.129969596862793,-0.8344684839248657,-0.7818430662155151
1788168387215677400,11.173677490234375,-0.9349555969238281,-0.5975871086120605,-0.9656691551208496
1788168387231831600,11.18983154296875,-1.1539068222045898,-0.38585734367370605,-0.9028469324111938
1788168387247956000,11.2059560546875,-1.4629402160644531,-0.07401764392852783,-0.5503572225570679
1788168387264059400,11.222059326171875,-1.2690906524658203,0.1569911241531372,-0.3674987554550171
1788168387280193800,11.23819384765625,-1.0585451126098633,0.2415546178817749,-0.2697427272796631
1788168387296332500,11.25433251953125,-0.7715034484863281,0.20623481273651123,-0.12815040349960327
1788168387312494300,11.270494384765625,-0.7602100372314453,0.16209876537322998,0.03154738247394562
1788168387328629200,11.286629150390626,-0.6642494201660156,0.03720593452453613,0.05466452240943909
1788168387344733200,11.302733154296876,-0.1756153106689453,-0.006778359413146973,0.1052633672952652
1788168387360869000,11.318869140625,0.5749721527099609,-0.11240196228027344,0.02734583616256714
1788168387377016000,11.33501611328125,1.2512264251708984,-0.016570210456848145,-0.13711422681808472
1788168387393183000,11.351182861328125,1.1944255828857422,0.08253777027130127,-0.35948601365089417
1788168387409327900,11.367327880859374,0.9193868637084961,0.1801927089691162,-0.5001758337020874
1788168387425429200,11.38342919921875,0.7196846008300781,0.0812753438949585,-0.3647104501724243
1788168387441588000,11.399587890625,0.37412261962890625,-0.12464344501495361,-0.0837329849600792
1788168387457797400,11.41579736328125,0.4054689407348633,-0.2919687032699585,0.40857672691345215
1788168387473971200,11.43197119140625,1.2204914093017578,-0.5145977735519409,0.5155330300331116
1788168387490125600,11.44812548828125,1.8312616348266602,-0.42592400312423706,-0.34156522154808044
1788168387506232000,11.464232177734376,1.5195636749267578,-0.16300863027572632,-0.5715501308441162
1788168387522381300,11.48038134765625,0.00402069091796875,-0.06443476676940918,-0.25446489453315735
1788168387538541800,11.496541748046875,-0.6936655044555664,-0.19347739219665527,0.4601525366306305
1788168387554720300,11.51272021484375,0.8125925064086914,-0.6376277208328247,0.860551655292511
1788168387570916400,11.528916259765625,3.0893983840942383,-1.3440003395080566,0.35226771235466003
1788168387587018500,11.5450185546875,5.116106986999512,-1.315354824066162,-1.0344167947769165
1788168387603216600,11.561216552734376,3.3431482315063477,-1.2069225311279297,-2.1025354862213135
1788168387619332900,11.577332763671874,0.6109561920166016,-0.8445537686347961,-1.8312591314315796
1788168387635502300,11.59350244140625,-1.4962387084960938,-0.5093920230865479,-0.7142977118492126
1788168387651650800,11.60965087890625,-2.444033145904541,-0.30706262588500977,0.0048348307609558105
1788168387667751000,11.6257509765625,-2.1885175704956055,-0.2276909351348877,0.1837184727191925
1788168387683965200,11.641965087890625,-1.514296531677246,-0.2200603485107422,0.10534749925136566
1788168387700086000,11.6580859375,-0.6140298843383789,-0.2947530746459961,0.3261573612689972
1788168387716236800,11.67423681640625,-0.09186553955078125,-0.2903205156326294,0.5324262976646423
1788168387732365800,11.69036572265625,0.00045490264892578125,-0.24782055616378784,0.5035837888717651
1788168387748468500,11.706468505859375,-0.10945510864257812,-0.15525007247924805,-0.00865326076745987
1788168387764596500,11.722596435546874,-0.46924304962158203,-0.10339540243148804,-0.5751275420188904
1788168387780775700,11.738775634765625,-1.3762474060058594,0.00007176399230957031,-0.7350031733512878
1788168387796929800,11.7549296875,-1.6842994689941406,0.17499840259552002,-0.42130953073501587
1788168387813064200,11.771064208984376,-1.8966073989868164,0.28602105379104614,0.1339271515607834
1788168387829167600,11.787167724609375,-2.0136008262634277,0.38192325830459595,0.6358999609947205
1788168387845301500,11.803301513671874,-1.7533588409423828,0.3610858917236328,0.5268669128417969
1788168387861449000,11.819448974609376,-0.66815185546875,0.12613636255264282,0.103582464158535
1788168387877611300,11.835611328125,0.3115100860595703,-0.030185401439666748,-0.14946714043617249
1788168387893728000,11.85172802734375,0.5400753021240234,-0.052418649196624756,-0.04201608896255493
1788168387909833500,11.86783349609375,0.4868907928466797,0.169314444065094,0.26121586561203003
1788168387925982500,11.883982421875,0.2257671356201172,0.34436047077178955,0.3988140821456909
1788168387942141000,11.900140869140625,0.4434328079223633,0.46491336822509766,0.10063494741916656
1788168387958314800,11.916314697265625,0.998504638671875,0.5572893619537354,0.04589015617966652
1788168387974439200,11.932439208984375,2.0295629501342773,0.4929312467575073,0.06479911506175995
1788168387990540300,11.948540283203124,3.276089668273926,0.36233824491500854,-0.37658360600471497
1788168388006734600,11.964734619140625,3.1764698028564453,0.12294512987136841,-0.7329840064048767
1788168388022854400,11.9808544921875,1.9921245574951172,-0.05469900369644165,-0.43504688143730164
1788168388039019800,11.997019775390624,0.7655620574951172,-0.12694746255874634,0.29645588994026184
1788168388055136000,12.013135986328125,0.21071147918701172,0.03057163953781128,0.4862971901893616
1788168388071239700,12.02923974609375,0.38578033447265625,0.0010932087898254395,0.31941914558410645
1788168388087403500,12.045403564453125,1.2342033386230469,-0.11493295431137085,0.1992185413837433
1788168388103523300,12.0615234375,1.6995553970336914,-0.28407058119773865,0.07077336311340332
1788168388119661300,12.077661376953126,1.4043235778808594,-0.7328646183013916,-0.20082274079322815
1788168388135779300,12.093779296875,0.9614534378051758,-0.9430725574493408,-0.9496570229530334
1788168388151886000,12.109885986328125,0.4596071243286133,-0.9578402042388916,-1.2185841798782349
1788168388168012300,12.12601220703125,-0.2285165786743164,-0.8790758848190308,-1.1429120302200317
1788168388184144100,12.14214404296875,-0.9167318344116211,-0.6109359860420227,-1.2341433763504028
1788168388200292600,12.158292724609375,-1.440251350402832,-0.39787986874580383,-0.8427271246910095
1788168388216418600,12.17441845703125,-1.3402938842773438,-0.20146745443344116,-0.6284106969833374
1788168388232522200,12.190522216796875,-1.1836175918579102,-0.22182300686836243,-0.6716423034667969
1788168388248651300,12.2066513671875,-0.6057624816894531,-0.334964781999588,-0.679485559463501
1788168388264789200,12.222789306640625,0.1440134048461914,-0.5605839490890503,-0.03970910608768463
1788168388280944400,12.2389443359375,1.3525524139404297,-0.6702105402946472,-0.35781073570251465
1788168388297125600,12.255125732421876,0.8357172012329102,-0.9171139001846313,-0.7654024362564087
1788168388313231400,12.2712314453125,0.8989181518554688,-0.7881510257720947,-0.8662559986114502
1788168388329366300,12.2873662109375,0.5751981735229492,-0.7657277584075928,-0.884164571762085
1788168388345512200,12.30351220703125,0.0727853775024414,-0.642283022403717,-1.0606034994125366
1788168388361686300,12.319686279296874,-0.5988979339599609,-0.42439520359039307,-0.9392030239105225
1788168388377834800,12.335834716796874,-1.0924797058105469,-0.23506048321723938,-0.42318490147590637
1788168388393989000,12.351989013671876,-1.415334701538086,0.018065333366394043,0.23287945985794067
1788168388410137900,12.368137939453124,-1.7619104385375977,0.10791385173797607,0.3152746558189392
1788168388426288600,12.38428857421875,-1.5992813110351562,0.11753284931182861,-0.01876933127641678
1788168388442472200,12.40047216796875,-1.3853225708007812,0.01319420337677002,-0.17535679042339325
1788168388458630100,12.416630126953125,-0.7343978881835938,-0.059557974338531494,0.03626254200935364
1788168388474733000,12.432733154296875,-0.03609180450439453,-0.14440488815307617,0.21698302030563354
1788168388490893600,12.4488935546875,0.46379852294921875,-0.13901829719543457,0.11764329671859741
1788168388507006700,12.4650068359375,0.4734172821044922,0.04137223958969116,-0.3479544520378113
1788168388523139000,12.48113916015625,-0.004979133605957031,0.16595858335494995,-0.6402590274810791
1788168388539303400,12.497303466796875,-0.2632732391357422,0.23109060525894165,-0.2937566936016083
1788168388555408100,12.513408203125,0.035427093505859375,0.056982338428497314,0.4085023105144501
1788168388571569200,12.529569091796875,0.7831611633300781,-0.18549662828445435,0.32458847761154175
1788168388587680800,12.5456806640625,1.654876708984375,-0.36634203791618347,0.10141820460557938
1788168388603823900,12.561823974609375,1.9907732009887695,-0.4009703993797302,-0.2787322700023651
1788168388619979300,12.577979248046875,1.7696456909179688,-0.08982539176940918,-0.22907400131225586
1788168388636131800,12.5941318359375,1.0440168380737305,0.006899237632751465,0.03947901725769043
1788168388652304000,12.610303955078125,0.2891578674316406,-0.11576315760612488,0.3649963140487671
1788168388668426500,12.626426513671875,0.6964206695556641,-0.4069775938987732,0.64790278673172
1788168388684569600,12.642569580078124,2.1056575775146484,-0.9759907722473145,0.4877450466156006
1788168388700727600,12.6587275390625,3.536275863647461,-1.1750611066818237,-0.14076822996139526
1788168388716830500,12.67483056640625,3.7517833709716797,-1.0119725465774536,-0.8403214812278748
1788168388732994800,12.690994873046876,2.2187557220458984,-0.8085603713989258,-0.9370663166046143
1788168388749181000,12.707180908203124,0.3425722122192383,-0.4876798689365387,-0.43830782175064087
1788168388765320400,12.723320556640624,-0.7118988037109375,-0.3480454683303833,0.12921231985092163
1788168388781494800,12.739494873046874,-1.077570915222168,-0.2715870440006256,0.05514463782310486
1788168388797598700,12.7555986328125,-0.9439020156860352,-0.34514495730400085,-0.2815317213535309
1788168388813736200,12.771736083984376,-0.5905513763427734,-0.3637481927871704,-0.2882195711135864
1788168388829889500,12.7878896484375,-0.46694278717041016,-0.2563965916633606,-0.24212151765823364
1788168388846056400,12.804056396484375,-0.7164878845214844,-0.14413191378116608,0.16268767416477203
1788168388862169900,12.820169921875,-0.83660888671875,0.10037249326705933,0.45390206575393677
1788168388878271500,12.836271484375,-1.0088863372802734,0.12926948070526123,-0.22719882428646088
1788168388894417000,12.8524169921875,-1.472853660583496,0.09606873989105225,-0.7425152063369751
1788168388910574800,12.868574951171874,-1.7712697982788086,0.11044561862945557,-0.6957332491874695
1788168388926751700,12.884751708984375,-2.2562060356140137,0.17975971102714539,-0.4936411380767822
1788168388942899700,12.900899658203125,-2.310359001159668,0.3252964913845062,-0.1581420749425888
1788168388959001000,12.9170009765625,-1.7138957977294922,0.4307057559490204,0.23205308616161346
1788168388975159800,12.933159912109375,-1.0558013916015625,0.3491465151309967,0.1808098405599594
1788168388991273000,12.94927294921875,-0.2999849319458008,0.08389416337013245,-0.14593398571014404
1788168389007409700,12.96540966796875,0.5921354293823242,-0.061792850494384766,-0.3641831874847412
1788168389023570200,12.981570068359375,1.1875782012939453,-0.2521328628063202,-0.4892014265060425
1788168389039671600,12.997671630859376,1.6279058456420898,-0.2346869558095932,-0.4615035057067871
1788168389055831800,13.013831787109375,1.5946550369262695,-0.3174356520175934,-0.48214754462242126
1788168389071952000,13.029951904296874,1.4040307998657227,-0.20808926224708557,-0.5460242033004761
1788168389088088600,13.046088623046876,1.1829681396484375,0.0016568303108215332,-0.3527829349040985
1788168389104210400,13.06221044921875,0.4552783966064453,0.24255016446113586,-0.07597146928310394
1788168389120314000,13.078314208984375,-0.19795608520507812,0.43364882469177246,0.48579761385917664
1788168389136488400,13.094488525390625,-0.12360095977783203,0.4609649181365967,0.8437609672546387
1788168389152617500,13.110617431640625,0.6492462158203125,0.3049265146255493,1.0467332601547241
1788168389168766700,13.1267666015625,1.8550310134887695,-0.15524840354919434,0.8885982036590576
1788168389184897800,13.142897705078125,2.134446144104004,-0.3734355568885803,0.7092878222465515
1788168389201000400,13.15900048828125,1.4112138748168945,-0.1812688112258911,0.5640487670898438
1788168389217129500,13.17512939453125,0.6850757598876953,-0.27744153141975403,0.8404879570007324
1788168389233262600,13.1912626953125,1.3148860931396484,-0.5040031671524048,0.7544108033180237
1788168389249416400,13.20741650390625,2.5589828491210938,-0.745538592338562,0.24152737855911255
1788168389265585200,13.223585205078125,2.6120052337646484,-0.9466493129730225,-0.26595258712768555
1788168389281687300,13.239687255859375,1.4146356582641602,-0.7310213446617126,-0.378439337015152
1788168389297821700,13.25582177734375,0.5964212417602539,-0.49907562136650085,-0.193010151386261
1788168389313965300,13.27196533203125,-0.1143941879272461,-0.40919044613838196,-0.24066676199436188
1788168389330118400,13.288118408203125,-0.14679718017578125,-0.29179710149765015,-0.17124223709106445
1788168389346256100,13.304256103515625,-0.012009620666503906,-0.2930697798728943,0.10175945609807968
1788168389362403800,13.32040380859375,0.013059616088867188,-0.36745578050613403,0.08071085065603256
1788168389378551000,13.336551025390625,0.14025211334228516,-0.5460118055343628,0.21831835806369781
1788168389394703400,13.352703369140626,0.31944751739501953,-0.7501145601272583,0.22187195718288422
1788168389410876700,13.368876708984375,0.1395406723022461,-0.7553327083587646,-0.0007179751992225647
1788168389427030000,13.385030029296875,-0.32946109771728516,-0.7580695152282715,-0.23428016901016235
1788168389443133200,13.40113330078125,-0.773320198059082,-0.6163767576217651,-0.399915874004364
1788168389459292200,13.417292236328125,-1.4144878387451172,-0.4385322034358978,-0.4442940950393677
1788168389475404000,13.433404052734375,-2.0423312187194824,-0.3125491142272949,-0.24528741836547852
1788168389491573200,13.4495732421875,-2.4809303283691406,-0.13865149021148682,-0.22450047731399536
1788168389507769000,13.46576904296875,-2.2640256881713867,0.0910291075706482,-0.2761470675468445
1788168389523874600,13.48187451171875,-1.7698707580566406,0.13625895977020264,-0.33926698565483093
1788168389540040000,13.4980400390625,-1.692378044128418,0.132468581199646,-0.3049575388431549
1788168389556160300,13.51416015625,-1.2587385177612305,0.10018301010131836,0.13182120025157928
1788168389572305000,13.530304931640625,-0.6559047698974609,-0.022599875926971436,0.43024134635925293
1788168389588423200,13.546423095703124,0.008594512939453125,-0.0726814866065979,0.22115740180015564
1788168389604528600,13.562528564453125,0.4290046691894531,-0.1903405785560608,-0.16641326248645782
1788168389620702200,13.5787021484375,0.9121837615966797,-0.07671123743057251,-0.15868866443634033
1788168389636829200,13.5948291015625,0.7308731079101562,0.10398715734481812,-0.36425045132637024
1788168389652983600,13.610983642578125,0.13889312744140625,0.36987602710723877,-0.2858451306819916
1788168389669120300,13.627120361328124,-0.31174659729003906,0.43891239166259766,0.03657780587673187
1788168389685223700,13.6432236328125,0.3469667434692383,0.37211382389068604,0.5823035836219788
1788168389701361000,13.65936083984375,1.0932750701904297,0.3440564274787903,0.5541114807128906
1788168389717501700,13.675501708984376,1.1377811431884766,0.23759526014328003,0.11434662342071533
1788168389733664000,13.6916640625,1.5195636749267578,0.2464497685432434,-0.23891133069992065
1788168389757731800,13.71573193359375,1.9660921096801758,0.5042093396186829,-0.35506147146224976
1788168389773814800,13.731814697265625,0.6236534118652344,0.550096869468689,0.5052240490913391
1788168389789915600,13.74791552734375,-0.09180259704589844,0.17152422666549683,1.061344027519226
1788168389806146300,13.764146240234375,1.5822858810424805,-0.20910349488258362,1.1775089502334595
1788168389822433300,13.780433349609375,3.751969337463379,-1.0299729108810425,0.562811017036438
1788168389838498600,13.79649853515625,5.006684303283691,-1.1325504779815674,-0.8657126426696777
1788168389854551800,13.8125517578125,4.113986968994141,-0.8497488498687744,-1.6055598258972168
1788168389870695200,13.828695068359375,2.2721519470214844,-0.700603723526001,-1.1275744438171387
1788168389886907100,13.8449072265625,0.4690828323364258,-0.6821686029434204,-0.22933807969093323
1788168389903244300,13.861244384765625,-0.7280597686767578,-0.7784446477890015,0.4684024751186371
1788168389919408600,13.87740869140625,-0.575078010559082,-0.8494714498519897,0.4832308888435364
1788168389935361300,13.893361328125,-0.10684776306152344,-0.8994011878967285,0.1088021993637085
1788168389951404300,13.909404296875,-0.2280721664428711,-0.6525600552558899,-0.10211628675460815
1788168389967663400,13.925663330078125,-1.2625093460083008,-0.42713671922683716,-0.003566235303878784
1788168389983974000,13.941973876953124,-2.216952323913574,-0.2837643325328827,0.2239122986793518
1788168389999913700,13.957913818359375,-2.4006810188293457,-0.21130919456481934,0.008570373058319092
1788168390016163300,13.974163330078126,-2.5443854331970215,-0.23432210087776184,-0.27202510833740234
1788168390032431900,13.990431884765625,-2.32960844039917,-0.32534515857696533,-0.46375179290771484
1788168390048593700,14.00659375,-1.4255495071411133,-0.3834148049354553,-0.7854067087173462
1788168390064649500,14.0226494140625,-1.2696294784545898,-0.3040209412574768,-0.6808233857154846
1788168390080885500,14.038885498046875,-1.3805465698242188,-0.15197902917861938,0.11682896316051483
1788168390096847000,14.05484716796875,-1.1109161376953125,-0.012724816799163818,0.347545325756073
1788168390112890000,14.07089013671875,-0.5055217742919922,0.012104153633117676,0.25035160779953003
1788168390129095400,14.087095458984376,0.32772254943847656,-0.020217597484588623,0.1309911012649536
1788168390145405700,14.10340576171875,1.0143108367919922,-0.07665997743606567,0.13828086853027344
1788168390161521700,14.119521728515625,1.316157341003418,-0.04078853130340576,0.2492053508758545
1788168390177464600,14.135464599609374,1.420461654663086,0.11081498861312866,0.09586025774478912
1788168390193547000,14.151547119140625,0.98468017578125,0.33483630418777466,-0.01054316759109497
1788168390209952800,14.167952880859374,0.5997610092163086,0.5391489267349243,0.23284058272838593
1788168390226101200,14.184101318359374,0.4043083190917969,0.803324282169342,0.6620052456855774
1788168390242218500,14.200218505859375,0.7053537368774414,0.8517681956291199,0.8549383282661438
1788168390258376400,14.21637646484375,1.2071542739868164,0.6824354529380798,0.7313166856765747
1788168390274253600,14.232253662109375,2.0502920150756836,0.45078182220458984,0.4567301273345947
1788168390290542800,14.24854296875,2.3064308166503906,0.10829704999923706,0.688158392906189
1788168390306861000,14.264861083984375,2.342334747314453,-0.055990636348724365,0.7410520911216736
1788168390322895600,14.2808955078125,1.7650527954101562,0.06751227378845215,0.9447031021118164
1788168390339241500,14.297241455078124,1.981597900390625,-0.11968010663986206,1.3370311260223389
1788168390355431200,14.31343115234375,3.1951990127563477,-0.6654724478721619,1.16475248336792
1788168390371561000,14.32956103515625,5.3425397872924805,-1.1954156160354614,0.17498672008514404
1788168390387765000,14.345764892578124,5.758561134338379,-1.4699475765228271,-0.35424473881721497
1788168390403696000,14.361696044921874,3.6621322631835938,-1.461127758026123,-0.49579986929893494
1788168390420047600,14.378047607421875,1.0378522872924805,-1.3512234687805176,-0.5999108552932739
1788168390436237300,14.3942373046875,-0.9876585006713867,-1.0359408855438232,-0.8504205942153931
1788168390452249900,14.410249755859375,-2.003903865814209,-0.7231518030166626,-0.9177868962287903
1788168390468555800,14.4265556640625,-2.7705349922180176,-0.46843421459198,-0.9147059917449951
1788168390484743200,14.4427431640625,-3.2560462951660156,-0.3832966089248657,-0.9100652933120728
1788168390500767200,14.458767333984374,-3.1263771057128906,-0.5436736345291138,-0.24336649477481842
1788168390516883700,14.4748837890625,-2.3997769355773926,-0.7461686730384827,0.4401165843009949
1788168390533301200,14.49130126953125,-1.834144115447998,-1.0672082901000977,0.5840238928794861
1788168390549428500,14.507428466796876,-1.0339736938476562,-1.1921179294586182,0.20243535935878754
1788168390565391600,14.5233916015625,-0.2393350601196289,-1.225415587425232,-0.35549312829971313
1788168390581429800,14.5394296875,-0.1426553726196289,-1.046303629875183,-0.7422018647193909
1788168390597594000,14.555593994140626,-0.6348752975463867,-0.9080573320388794,-0.6943662762641907
1788168390613813000,14.57181298828125,-1.1944637298583984,-0.6535861492156982,-0.28834980726242065
1788168390630068000,14.58806787109375,-1.853342056274414,-0.46250486373901367,-0.01253606379032135
1788168390646224100,14.60422412109375,-2.5382347106933594,-0.29563039541244507,-0.7409379482269287
1788168390662177800,14.620177734375,-1.9701757431030273,-0.07090890407562256,-0.8897892236709595
1788168390678343200,14.63634326171875,-1.014817237854004,0.03941237926483154,-0.4665645658969879
1788168390694628900,14.65262890625,-0.707794189453125,0.19877707958221436,-0.16244006156921387
1788168390710759200,14.66875927734375,-0.7502079010009766,0.2496936321258545,0.3136732876300812
1788168390726872600,14.68487255859375,-0.17368030548095703,0.23163247108459473,0.08986812084913254
1788168390743025200,14.701025146484374,0.29637718200683594,0.10572993755340576,-0.21465227007865906
1788168390759012600,14.7170126953125,0.8665294647216797,0.027158617973327637,-0.3176148533821106
1788168390775208400,14.73320849609375,1.2910919189453125,0.0003553628921508789,-0.34892600774765015
1788168390791496200,14.74949609375,1.2595672607421875,-0.014904379844665527,-0.5228562355041504
1788168390807518700,14.765518798828126,1.097580909729004,0.04979240894317627,-0.3920232057571411
1788168390823752200,14.781752197265625,0.7927560806274414,0.006149768829345703,-0.09719758480787277
1788168390839715000,14.797715087890625,0.7390174865722656,-0.10412061214447021,-0.10165107250213623
1788168390856057600,14.8140576171875,0.8663120269775391,-0.3758552670478821,-0.33723878860473633
1788168390872276700,14.83027685546875,1.138458251953125,-0.5195048451423645,-0.33277788758277893
1788168390888272400,14.8462724609375,1.3312225341796875,-0.5019574761390686,-0.04607672989368439
1788168390904574700,14.86257470703125,1.3472652435302734,-0.28498274087905884,0.1105065643787384
1788168390920401200,14.878401123046874,0.8135709762573242,0.0863105058670044,0.014456651173532009
1788168390936850400,14.894850341796875,-0.5986356735229492,0.24558448791503906,0.1668092906475067
1788168390952998400,14.910998291015625,-1.4912872314453125,0.16659224033355713,0.2901356518268585
1788168390969062400,14.9270625,-1.0286693572998047,0.1485607624053955,0.5192743539810181
1788168390985191000,14.94319091796875,0.6100282669067383,-0.5063756704330444,0.5638699531555176
1788168391001556000,14.959555908203125,2.870791435241699,-1.050219178199768,0.04451218992471695
1788168391017703700,14.97570361328125,4.7519989013671875,-1.0981500148773193,-0.8887717127799988
1788168391033853700,14.991853759765625,3.8823556900024414,-0.7607011795043945,-1.0936964750289917
1788168391049989400,15.0079892578125,0.706477165222168,-0.43680351972579956,-0.5001102089881897
1788168391066133200,15.02413330078125,-0.6895112991333008,-0.1108541488647461,0.3517734706401825
1788168391082060000,15.04006005859375,-0.6426210403442383,0.028875529766082764,0.8660216927528381
1788168391098310400,15.056310302734374,-0.6230764389038086,-0.04765075445175171,0.7196065783500671
1788168391114584300,15.072584228515625,-0.814788818359375,-0.1567135453224182,0.44452762603759766
1788168391130612200,15.0886123046875,-0.5858564376831055,-0.30819159746170044,0.4366440176963806
1788168391146898400,15.1048984375,-0.6081876754760742,-0.39896807074546814,0.4655545949935913
1788168391162759200,15.12075927734375,-0.793121337890625,-0.3455178141593933,0.4009515643119812
1788168391179003400,15.13700341796875,-1.121037483215332,-0.23656165599822998,0.06116606295108795
1788168391195263200,15.15326318359375,-1.7402725219726562,-0.16738125681877136,-0.24259336292743683
1788168391211325700,15.16932568359375,-1.976090431213379,-0.024402737617492676,-0.39131689071655273
1788168391227644000,15.185643798828124,-2.058563709259033,0.12045836448669434,-0.36800992488861084
1788168391243534800,15.201534912109375,-2.076420307159424,0.3150445818901062,-0.12032292038202286
1788168391259788800,15.217788818359375,-2.2788004875183105,0.5541703104972839,0.4314931333065033
1788168391276162800,15.234162841796875,-1.8476858139038086,0.7095476984977722,0.5510637760162354
1788168391292278500,15.250278564453126,-1.4534807205200195,0.698982834815979,0.25545862317085266
1788168391308443000,15.26644287109375,-0.8302450180053711,0.619813084602356,-0.1069502979516983
1788168391324601900,15.282601806640624,-0.33432769775390625,0.5783136487007141,-0.08656269311904907
1788168391340605400,15.29860546875,0.10175418853759766,0.6078380942344666,-0.024134457111358643
1788168391356874200,15.314874267578125,0.5219955444335938,0.6353927850723267,0.09519778937101364
1788168391372835000,15.3308349609375,1.0513553619384766,0.6319904923439026,0.09199658781290054
1788168391389159200,15.3471591796875,1.0866374969482422,0.4045042395591736,-0.3033634424209595
1788168391405014500,15.3630146484375,0.93780517578125,0.12017941474914551,-1.2427701950073242
1788168391421409300,15.3794091796875,0.7859725952148438,0.04263955354690552,-1.1686421632766724
1788168391437582000,15.39558203125,0.5530529022216797,-0.02851969003677368,-0.5173814296722412
1788168391453695200,15.4116953125,0.9514980316162109,-0.24055609107017517,0.3646206259727478
1788168391469741800,15.427741943359376,2.739964485168457,-0.6681438684463501,0.24652592837810516
1788168391485832700,15.443832763671875,4.04095458984375,-0.8136096596717834,0.028250806033611298
1788168391502211300,15.46021142578125,2.667782783508301,-0.5155526399612427,0.07807761430740356
1788168391518382800,15.4763828125,0.5890026092529297,-0.2713289260864258,0.7686520218849182
1788168391534372900,15.492372802734375,0.614354133605957,-0.09808701276779175,1.4508973360061646
1788168391550478300,15.508478271484375,1.5225820541381836,-0.38580581545829773,1.2913317680358887
1788168391566670000,15.524670166015625,2.264716148376465,-0.7396913766860962,0.4438265264034271
1788168391582871600,15.54087158203125,1.9240036010742188,-0.7885218262672424,-0.45412757992744446
1788168391599140000,15.55714013671875,0.29268932342529297,-0.6429646015167236,-0.6446166634559631
1788168391615125500,15.57312548828125,-0.8975715637207031,-0.2942093014717102,-0.1886937916278839
1788168391631256000,15.589256103515625,-1.1626882553100586,-0.05422317981719971,0.4586687684059143
1788168391647412200,15.605412109375,-0.9910345077514648,0.030956506729125977,0.6257374882698059
1788168391663718700,15.62171875,-0.8153858184814453,-0.05841761827468872,0.5475539565086365
1788168391679819800,15.63781982421875,-0.33659934997558594,-0.18003129959106445,0.5451773405075073
1788168391695961600,15.653961669921875,-0.00689697265625,-0.4927452802658081,0.3640815019607544
1788168391712122600,15.67012255859375,0.4637870788574219,-0.7014499306678772,0.12955430150032043
1788168391728025900,15.68602587890625,0.9682655334472656,-0.7608998417854309,-0.2568799555301666
1788168391744278500,15.702278564453126,0.9209880828857422,-0.5994156002998352,-0.6140017509460449
1788168391760548000,15.718548095703126,0.6145143508911133,-0.4561208486557007,-0.8628572225570679
1788168391776552200,15.73455224609375,-0.28171443939208984,-0.2226141393184662,-1.0538504123687744
1788168391792602000,15.75060205078125,-1.26995849609375,-0.10331964492797852,-0.8326773643493652
1788168391808611300,15.766611328125,-1.862581729888916,0.03932631015777588,-0.34289613366127014
1788168391824953300,15.782953369140625,-1.9195671081542969,0.14810317754745483,-0.02893255650997162
1788168391849290800,15.807290771484375,-1.1437034606933594,0.17396456003189087,0.008527189493179321
1788168391865441500,15.823441650390626,-0.5151767730712891,0.1223609447479248,0.07888762652873993
1788168391881604600,15.8396044921875,-0.22402381896972656,0.06840628385543823,0.3912033140659332
1788168391897778000,15.85577783203125,-0.17956066131591797,-0.02472609281539917,0.6113413572311401
1788168391913922800,15.8719228515625,0.10590553283691406,-0.08417832851409912,0.5445547103881836
1788168391930038500,15.88803857421875,0.8405666351318359,-0.15185725688934326,0.11802424490451813
1788168391946143700,15.904143798828125,1.2809419631958008,-0.10125499963760376,-0.3249663710594177
1788168391962270700,15.920270751953124,0.9924945831298828,-0.004312753677368164,-0.516077995300293
1788168391978454500,15.93645458984375,0.7455377578735352,0.04661417007446289,-0.09390219300985336
1788168391994604800,15.952604736328125,0.5727386474609375,-0.06061071157455444,0.43446019291877747
1788168392010746400,15.968746337890625,0.2100973129272461,-0.2888002395629883,0.5874990820884705
1788168392026900000,15.98489990234375,0.5543336868286133,-0.5542110204696655,0.4263346791267395
1788168392043039500,16.00103955078125,1.6843347549438477,-0.6807517409324646,0.07148487120866776
1788168392059180800,16.017180908203127,2.4494552612304688,-0.42272916436195374,-0.49023231863975525
1788168392075325200,16.0333251953125,1.4577569961547852,-0.12757718563079834,-0.6218686699867249
1788168392091458800,16.049458740234375,-0.9047126770019531,-0.060435473918914795,0.07110902667045593
1788168392107583700,16.065583740234374,-1.1405820846557617,-0.22289222478866577,0.6979624032974243
1788168392123763000,16.081762939453125,1.4532470703125,-0.8366985321044922,0.8822001814842224
1788168392139904000,16.097904052734375,3.5720396041870117,-1.043114185333252,-0.03072502464056015
1788168392156052200,16.11405224609375,3.9297914505004883,-0.911797046661377,-0.8701955080032349
1788168392172226800,16.130226806640625,2.302140235900879,-0.6345943808555603,-0.7178752422332764
1788168392188327000,16.146326904296874,0.22013473510742188,-0.3097241520881653,0.17053264379501343
1788168392204522000,16.16252197265625,-0.7512874603271484,-0.11143761873245239,0.7883697748184204
1788168392220678000,16.178677978515626,-0.9851999282836914,-0.10788273811340332,0.6841023564338684
1788168392236836000,16.194836181640625,-0.4669809341430664,-0.25011390447616577,0.3039398491382599
1788168392252992300,16.2109921875,-0.11261653900146484,-0.30721932649612427,0.14918743073940277
1788168392269096200,16.22709619140625,-0.026073455810546875,-0.26696452498435974,0.15507133305072784
1788168392285247700,16.243247802734373,-0.6160888671875,-0.09776991605758667,0.4530486762523651
1788168392301459500,16.25945947265625,-1.0258359909057617,-0.011550724506378174,0.08616717159748077
1788168392317638000,16.275637939453127,-1.9180402755737305,-0.08089065551757812,-0.16311480104923248
1788168392333795300,16.29179541015625,-2.216139793395996,0.08154714107513428,-0.4944148659706116
1788168392349899000,16.30789892578125,-2.1717677116394043,0.1260310411453247,-0.6526651382446289
1788168392366097700,16.32409765625,-2.3498940467834473,0.2698470950126648,-0.4199601411819458
1788168392382214400,16.34021435546875,-2.006138324737549,0.44462424516677856,-0.04242013767361641
1788168392398345000,16.356344970703127,-1.5355520248413086,0.5595768094062805,0.4949919283390045
1788168392414460400,16.37246044921875,-1.8401970863342285,0.562843918800354,0.6718640327453613
1788168392430592300,16.38859228515625,-2.1477527618408203,0.5167050957679749,0.4023096561431885
1788168392446761700,16.40476171875,-1.7339973449707031,0.35790473222732544,0.3407536745071411
1788168392462891000,16.42089111328125,-0.6133050918579102,0.17996907234191895,0.3460133671760559
1788168392479033600,16.43703369140625,0.5066061019897461,0.12622416019439697,0.2470378875732422
1788168392495203800,16.453203857421876,1.5476131439208984,0.05901080369949341,-0.07548381388187408
1788168392511355400,16.46935546875,1.902928352355957,0.17129969596862793,-0.3869505524635315
1788168392527529700,16.48552978515625,1.5007734298706055,0.310707688331604,-0.45499444007873535
1788168392543641600,16.5016416015625,1.3797760009765625,0.33005374670028687,-0.2408996820449829
1788168392559802000,16.517802001953125,1.328404426574707,0.1488037109375,0.007747814059257507
1788168392575943400,16.533943359375,1.6284303665161133,-0.16633838415145874,0.18624666333198547
1788168392592098300,16.550098388671874,2.4400062561035156,-0.5196921825408936,0.30989935994148254
1788168392608278000,16.566278076171876,3.114748954772949,-0.6201794743537903,0.09980343282222748
1788168392624427800,16.582427734375,2.071465492248535,-0.26059168577194214,-0.10273582488298416
1788168392640573200,16.5985732421875,0.6170377731323242,-0.114543616771698,0.08206987380981445
1788168392656691200,16.614691162109374,0.4802274703979492,-0.15965723991394043,0.7101624608039856
1788168392672793600,16.630793701171875,1.9237842559814453,-0.48824429512023926,0.6972002983093262
1788168392688982000,16.64698193359375,2.599184989929199,-0.7897404432296753,-0.15906089544296265
1788168392705182200,16.66318212890625,1.9622564315795898,-0.7791568636894226,-0.9217109680175781
1788168392721343700,16.67934375,0.6138410568237305,-0.6404264569282532,-0.6788206100463867
1788168392737455400,16.695455322265627,-0.27464962005615234,-0.47321608662605286,-0.15192735195159912
1788168392753602600,16.7116025390625,-0.46526432037353516,-0.23909705877304077,0.21808332204818726
1788168392769752600,16.727752685546875,-0.3126869201660156,-0.12946093082427979,0.39888349175453186
1788168392785960400,16.74396044921875,0.17372608184814453,-0.16865986585617065,0.5274534821510315
1788168392802136300,16.76013623046875,0.6140689849853516,-0.25578829646110535,0.5448482036590576
1788168392818250800,16.776250732421875,1.4426517486572266,-0.5020223259925842,0.587233304977417
1788168392834353000,16.792352783203125,0.01768207550048828,-0.6202820539474487,0.2038922905921936
1788168392850520800,16.808520751953125,-0.7208137512207031,-0.43371614813804626,0.12667575478553772
1788168392866694400,16.8246943359375,-1.378434181213379,-0.3041646480560303,-0.013407818041741848
1788168392882833200,16.840833251953125,-1.8965330123901367,-0.06917941570281982,-0.12374970316886902
1788168392898951000,16.856950927734374,-2.1722488403320312,0.11083453893661499,-0.1234031617641449
1788168392915099400,16.873099365234374,-2.320779800415039,0.22156685590744019,-0.20354920625686646
1788168392931303700,16.8893037109375,-2.0527381896972656,0.384941041469574,0.08064626157283783
1788168392947476200,16.905476318359376,-1.6100292205810547,0.43945008516311646,0.45213964581489563
1788168392963623200,16.921623046875,-0.9662742614746094,0.46267247200012207,0.5887036919593811
1788168392979745300,16.937745361328126,-0.5523109436035156,0.3876344561576843,0.25899168848991394
1788168392995892200,16.953892333984374,-0.18384838104248047,0.19599008560180664,-0.1732688695192337
1788168393012018000,16.970017822265625,0.0049915313720703125,0.04376220703125,-0.06704805791378021
1788168393028145400,16.9861455078125,0.4495515823364258,0.08062207698822021,0.26925593614578247
1788168393044297000,17.002296875,0.9438543319702148,0.004004955291748047,0.30072566866874695
1788168393060438000,17.01843798828125,1.050156593322754,0.025127112865447998,-0.35145303606987
1788168393076530000,17.034530029296874,1.106440544128418,0.07385081052780151,-0.7959592342376709
1788168393092666000,17.050666015625,1.0196857452392578,0.09515613317489624,-0.6837642192840576
1788168393108806400,17.066806396484374,0.799281120300293,0.02906358242034912,-0.009259343147277832
1788168393124966400,17.08296630859375,0.6001739501953125,-0.11279863119125366,0.5123773813247681
1788168393141103600,17.099103515625,0.8137035369873047,-0.3437669277191162,0.7030676007270813
1788168393157252400,17.11525244140625,1.4300041198730469,-0.39293837547302246,0.20774869620800018
1788168393173390600,17.131390625,1.706502914428711,-0.017005622386932373,-0.38208168745040894
1788168393189541400,17.147541259765624,0.5168428421020508,0.20309454202651978,-0.27693870663642883
1788168393205710000,17.1637099609375,-1.0441255569458008,0.2529013156890869,0.32552313804626465
1788168393221897200,17.179897216796874,-1.2850408554077148,-0.29377883672714233,0.9161372184753418
1788168393237996800,17.195996826171875,1.509352684020996,-1.025468111038208,0.9315208196640015
1788168393254154200,17.212154296875,4.377666473388672,-1.341528058052063,-0.34973055124282837
1788168393270337000,17.2283369140625,5.643329620361328,-1.3001344203948975,-1.5553120374679565
1788168393286501400,17.24450146484375,2.632089614868164,-0.7828626036643982,-1.879683494567871
1788168393302653000,17.26065283203125,-0.6417837142944336,-0.32384106516838074,-0.8243123292922974
1788168393318805000,17.276804931640626,-3.0915298461914062,0.1149396300315857,0.08147464692592621
1788168393334963000,17.292962890625,-3.194542407989502,0.09357523918151855,0.5691534280776978
1788168393351088000,17.309088134765624,-1.3948783874511719,-0.12300050258636475,0.5751216411590576
1788168393367261000,17.325260986328125,0.5191020965576172,-0.4943794012069702,0.024471670389175415
1788168393383413500,17.34141357421875,2.3948287963867188,-0.66494220495224,-0.35183441638946533
1788168393399517700,17.357517578125,2.7577619552612305,-0.6388869881629944,-0.3372781276702881
1788168393415679500,17.373679443359375,1.496084213256836,-0.3914940357208252,-0.2249164581298828
1788168393431809800,17.389809814453123,-0.49844837188720703,-0.09074753522872925,-0.41761910915374756
1788168393447989000,17.405989013671874,-1.5871715545654297,0.1475621461868286,-0.392633318901062
1788168393464160300,17.42216015625,-2.3664650917053223,0.24642294645309448,-0.4477028250694275
1788168393480264400,17.438264404296874,-3.0832715034484863,0.2744789719581604,-0.6371821761131287
1788168393496431900,17.454431884765626,-3.6714353561401367,0.2933284044265747,-0.5005520582199097
1788168393512568800,17.47056884765625,-3.487967014312744,0.3282981514930725,-0.04403075948357582
1788168393528701400,17.486701416015624,-2.5118508338928223,0.3170897364616394,0.4335632920265198
1788168393544872200,17.5028720703125,-1.4870262145996094,0.2651515007019043,0.4534796476364136
1788168393560976400,17.518976318359375,-0.5512762069702148,0.051055908203125,0.1223481073975563
1788168393577176300,17.53517626953125,0.40645885467529297,-0.039202749729156494,-0.1604614555835724
1788168393593330200,17.551330078125,0.9751920700073242,-0.05602872371673584,0.1074255034327507
1788168393609465300,17.56746533203125,1.3394460678100586,0.11784005165100098,0.2866334319114685
1788168393625577700,17.58357763671875,1.3478507995605469,0.35637015104293823,0.09582123160362244
1788168393641725400,17.599725341796876,1.129190444946289,0.5545835494995117,-0.029400542378425598
1788168393657851000,17.615850830078124,0.9440755844116211,0.6122966408729553,0.2784503102302551
1788168393674041900,17.632041748046873,0.7231893539428711,0.4876226782798767,0.4254179894924164
1788168393690176500,17.648176513671874,0.9375629425048828,0.2561357617378235,0.3209712505340576
1788168393706296800,17.664296875,1.993107795715332,-0.14449059963226318,0.36903971433639526
1788168393722449200,17.68044921875,2.9238367080688477,-0.26672011613845825,0.14700134098529816
1788168393738614500,17.696614501953125,2.2062196731567383,-0.07505065202713013,0.22352829575538635
1788168393754733000,17.712733154296874,1.2835359573364258,0.05721169710159302,0.27398139238357544
1788168393770863600,17.728863525390626,1.0784902572631836,0.13853520154953003,0.28562504053115845
1788168393786985000,17.74498486328125,1.0735750198364258,-0.09813582897186279,0.3070675730705261
1788168393803094300,17.76109423828125,1.5224151611328125,-0.3601244390010834,-0.03288060054183006
1788168393819225000,17.77722509765625,1.638474464416504,-0.412885457277298,-0.516547441482544
1788168393835349200,17.793349365234373,1.314988136291504,-0.35289135575294495,-0.5720242261886597
1788168393851489800,17.80948974609375,0.7147579193115234,-0.23613953590393066,-0.35961875319480896
1788168393867609600,17.825609619140625,0.38774585723876953,-0.16049671173095703,-0.25326764583587646
1788168393883713000,17.841713134765627,0.28534793853759766,-0.18262344598770142,-0.15934132039546967
1788168393899839200,17.857839111328126,0.2706737518310547,-0.19278430938720703,-0.08456910401582718
1788168393915979800,17.873979736328124,0.12832260131835938,-0.2160823941230774,0.06700940430164337
1788168393932133400,17.89013330078125,0.09768295288085938,-0.2882152795791626,0.02900730073451996
1788168393948254200,17.906254150390627,-0.14786815643310547,-0.3857974708080292,0.030791521072387695
1788168393964406300,17.92240625,-0.6823902130126953,-0.414076030254364,-0.1276388317346573
1788168393980530700,17.93853076171875,-1.2926692962646484,-0.40699702501296997,-0.40277838706970215
1788168393996678100,17.95467822265625,-1.5576486587524414,-0.2713633179664612,-0.7065302133560181
1788168394012829200,17.9708291015625,-1.9722223281860352,-0.12022340297698975,-0.7744059562683105
1788168394028947000,17.986947021484376,-1.9239602088928223,-0.07886642217636108,-0.7626181840896606
1788168394045049900,18.0030498046875,-1.942300796508789,0.031058549880981445,-0.5084357261657715
1788168394061176800,18.0191767578125,-1.9178853034973145,0.21069002151489258,-0.3775133788585663
1788168394077331500,18.03533154296875,-1.7250118255615234,0.27321213483810425,-0.2574883997440338
1788168394093494300,18.051494384765626,-0.4876737594604492,0.2858315110206604,-0.19151334464550018
1788168394109616000,18.0676162109375,0.7968912124633789,0.20349228382110596,-0.29431095719337463
1788168394125720800,18.083720947265626,1.6513309478759766,0.1126442551612854,-0.23849177360534668
1788168394141890800,18.099890869140626,1.5690984725952148,0.07378154993057251,-0.19721926748752594
1788168394158048800,18.116048828125,1.1581506729125977,0.06650674343109131,-0.18275746703147888
1788168394174228200,18.132228271484376,0.8869867324829102,0.1847432255744934,-0.09835095703601837
1788168394190342400,18.14834228515625,0.5209264755249023,0.370463490486145,-0.08540043234825134
1788168394206444500,18.164444580078126,0.30370235443115234,0.540099024772644,0.12162643671035767
1788168394222571500,18.180571533203125,0.3687763214111328,0.34586381912231445,0.48776763677597046
1788168394238737000,18.19673681640625,0.4426870346069336,-0.07748711109161377,0.5743498802185059
1788168394254917600,18.212917724609376,0.7516307830810547,-0.46032536029815674,0.32346802949905396
1788168394271037400,18.229037353515626,1.321730613708496,-0.5699814558029175,0.3614329695701599
1788168394287138000,18.245137939453127,2.039175033569336,-0.3414684534072876,0.223262757062912
1788168394303298800,18.261298828125,1.6708354949951172,-0.23702490329742432,-0.04982318729162216
1788168394319428600,18.2774287109375,0.40273571014404297,-0.194244384765625,0.02386445552110672
1788168394335609000,18.293609130859377,-0.4478168487548828,-0.44618546962738037,0.4241699278354645
1788168394351778000,18.309778076171874,0.47112369537353516,-0.9471173882484436,0.6238538026809692
1788168394367961600,18.325961669921874,2.9423675537109375,-1.1911675930023193,0.2089412659406662
1788168394384123100,18.342123046875,3.9717960357666016,-1.1060278415679932,-0.6189176440238953
1788168394400262100,18.35826220703125,2.6465682983398438,-0.8006573915481567,-1.0684951543807983
1788168394416423400,18.37442333984375,0.4496116638183594,-0.5441924333572388,-0.6980235576629639
1788168394432595000,18.390594970703123,-0.9873619079589844,-0.29455244541168213,0.12027423083782196
1788168394448700000,18.406699951171873,-1.9069819450378418,-0.17090833187103271,0.7324308156967163
1788168394464874200,18.422874267578123,-1.79534912109375,-0.11776453256607056,0.37359535694122314
1788168394481010700,18.4390107421875,-1.4272775650024414,-0.15346062183380127,0.12818726897239685
1788168394497169200,18.455169189453127,-0.4594554901123047,-0.11692953109741211,-0.017095834016799927
1788168394513287700,18.47128759765625,-0.17798519134521484,-0.07070958614349365,-0.08459721505641937
1788168394529475000,18.48747509765625,-0.8933258056640625,0.15429925918579102,0.20664602518081665
1788168394545600500,18.5036005859375,-0.9706811904907227,0.21833866834640503,0.05625532567501068
1788168394561745200,18.5197451171875,-1.5547685623168945,0.22151070833206177,-0.4201540946960449
1788168394577877500,18.53587744140625,-1.5760574340820312,0.3615293502807617,-0.6366260051727295
1788168394593995000,18.5519951171875,-1.5540266036987305,0.4364060163497925,-0.5582507848739624
1788168394610144000,18.56814404296875,-1.5270462036132812,0.5277624130249023,-0.3030795454978943
1788168394626270200,18.584270263671876,-1.507380485534668,0.651023268699646,0.12890271842479706
1788168394642386700,18.60038671875,-1.6101703643798828,0.6706982254981995,0.2302108108997345
1788168394658518500,18.6165185546875,-1.419412612915039,0.5816620588302612,0.43046295642852783
1788168394674636800,18.63263671875,-0.8659524917602539,0.4422991871833801,0.3451586961746216
1788168394690741200,18.6487412109375,0.32874107360839844,0.23471051454544067,0.1377958506345749
1788168394706865400,18.664865478515626,0.8570775985717773,0.1289345622062683,-0.21416683495044708
1788168394722987800,18.68098779296875,1.0835771560668945,0.18215686082839966,-0.2717943489551544
1788168394739125800,18.697125732421874,1.0890092849731445,0.3955998420715332,-0.17905396223068237
1788168394755241200,18.7132412109375,0.8522977828979492,0.6613715291023254,0.01855503022670746
1788168394771343400,18.72934326171875,0.6259059906005859,0.7618641257286072,0.3013060688972473
1788168394787472600,18.74547265625,0.4760322570800781,0.7250112295150757,0.5015791654586792
1788168394803652900,18.76165283203125,0.6762409210205078,0.4438995122909546,0.4612601697444916
1788168394819798000,18.777798095703126,1.489501953125,0.17918050289154053,0.4204912781715393
1788168394835916800,18.793916748046875,2.361013412475586,-0.1423904299736023,0.25457584857940674
1788168394852024000,18.810024169921874,2.567972183227539,-0.2147948145866394,-0.15064787864685059
1788168394868187600,18.826187744140626,1.7256507873535156,-0.20282089710235596,0.05852241814136505
1788168394884328000,18.842327880859376,1.1321706771850586,-0.11018168926239014,0.09958641231060028
1788168394900475100,18.85847509765625,1.355804443359375,-0.22362935543060303,-0.15428441762924194
1788168394916593200,18.87459326171875,2.0499496459960938,-0.6606864929199219,-0.6063110828399658
1788168394932697600,18.890697509765626,2.304385185241699,-0.8646267652511597,-0.9508979916572571
1788168394948860400,18.9068603515625,1.4285211563110352,-0.7986434102058411,-0.8025288581848145
1788168394965002800,18.923002685546876,0.3122100830078125,-0.6919025182723999,-0.2993057370185852
1788168394981149000,18.93914892578125,-0.3593177795410156,-0.5459778904914856,-0.22306177020072937
1788168394997309700,18.955309814453123,-0.35090065002441406,-0.4802823066711426,-0.10024774074554443
1788168395013410000,18.97141015625,-0.19054031372070312,-0.5757126808166504,0.07675591111183167
1788168395029537500,18.98753759765625,-0.16605567932128906,-0.5741719007492065,-0.032397523522377014
1788168395045691600,19.003691650390625,-0.3793363571166992,-0.5820422768592834,-0.01687704771757126
1788168395061860900,19.01986083984375,-0.3755979537963867,-0.4713217616081238,-0.0455017052590847
1788168395077982200,19.035982177734375,0.3096742630004883,-0.43806058168411255,0.004194416105747223
1788168395094090200,19.05209033203125,-0.4598207473754883,-0.43773353099823,-0.2914091944694519
1788168395110222800,19.068222900390627,-0.162628173828125,-0.45797020196914673,-0.7423657774925232
1788168395126387000,19.084386962890626,-0.4906330108642578,-0.4566611647605896,-1.069899320602417
1788168395142566000,19.10056591796875,-1.0889358520507812,-0.26572781801223755,-0.814134955406189
1788168395158688000,19.11668798828125,-1.4264841079711914,-0.1890382170677185,-0.545074999332428
1788168395174845000,19.132844970703125,-1.6605911254882812,-0.0935477614402771,-0.37471896409988403
1788168395190976300,19.148976318359374,-1.2579736709594727,-0.06947100162506104,-0.2966640591621399
1788168395207095600,19.165095458984375,-0.9293298721313477,-0.09046244621276855,-0.24818390607833862
1788168395223276300,19.1812763671875,-1.131852149963379,-0.1321035623550415,0.27756306529045105
1788168395239398700,19.197398681640625,-1.0142507553100586,-0.18458443880081177,0.6940034031867981
1788168395255503000,19.213503173828126,-0.7422294616699219,-0.17759686708450317,0.6308912038803101
1788168395271634400,19.229634521484375,-0.2510337829589844,-0.07209622859954834,0.4218108654022217
1788168395287761400,19.245761474609374,0.06952571868896484,0.014576077461242676,0.012964725494384766
1788168395303906800,19.26190673828125,0.4186439514160156,0.1794646978378296,-0.12011292576789856
1788168395320033500,19.278033447265624,0.7774467468261719,0.2881429195404053,-0.010020166635513306
1788168395336143000,19.29414306640625,0.8060617446899414,0.24802565574645996,0.1882353276014328
1788168395352272000,19.31027197265625,0.30557918548583984,0.09105205535888672,0.5647720098495483
1788168395368410400,19.326410400390625,0.35651588439941406,-0.07197988033294678,0.9732659459114075
1788168395384561000,19.342560791015625,0.9895925521850586,-0.25748491287231445,0.44189244508743286
1788168395400696300,19.3586962890625,1.8899993896484375,-0.06968331336975098,-0.4026333689689636
1788168395416799500,19.374799560546876,1.6428756713867188,0.3478811979293823,-0.7297098636627197
1788168395432928800,19.3909287109375,-0.29793548583984375,0.29385101795196533,-0.17013105750083923
1788168395449076500,19.407076416015624,-1.1088266372680664,0.09800922870635986,1.1183396577835083
1788168395465212000,19.4232119140625,-0.15732479095458984,-0.378065824508667,1.757751226425171
1788168395481377300,19.439377197265625,2.040715217590332,-1.084324598312378,0.9845017194747925
1788168395497520000,19.45552001953125,3.6955652236938477,-0.8891170024871826,-0.8114253282546997
1788168395513683000,19.471682861328127,3.2918319702148438,-0.6934142112731934,-1.5459253787994385
1788168395529843700,19.48784375,1.9388484954833984,-0.18895143270492554,-1.1835179328918457
1788168395545977300,19.503977294921874,0.5111837387084961,0.1104077696800232,-0.4039360284805298
1788168395562143000,19.52014306640625,-0.5593633651733398,0.32685554027557373,0.12640990316867828
1788168395578247200,19.5362470703125,-0.8836460113525391,0.26711422204971313,0.30867254734039307
1788168395594418700,19.552418701171874,-0.6180953979492188,0.15364640951156616,0.21881112456321716
1788168395610587000,19.5685869140625,0.18735408782958984,0.028590381145477295,0.5518015027046204
1788168395626720000,19.584719970703127,0.6912155151367188,0.011989593505859375,0.7064052820205688
1788168395642839000,19.600839111328124,0.9204378128051758,-0.1384209394454956,0.5062115788459778
1788168395658992600,19.61699267578125,-0.3117542266845703,0.023899435997009277,-0.02300421893596649
1788168395675121400,19.633121337890625,-0.9923276901245117,0.11981230974197388,-0.5310089588165283
1788168395691249700,19.649249755859376,-1.547785758972168,0.18812280893325806,-0.8965537548065186
1788168395707391700,19.665391845703127,-1.8108668327331543,0.2085086703300476,-0.7463340759277344
1788168395723513300,19.681513427734377,-2.227321147918701,0.30385899543762207,-0.3437783718109131
1788168395739617000,19.697616943359375,-2.215881824493408,0.3986549973487854,0.13202759623527527
1788168395755782700,19.71378271484375,-1.9515657424926758,0.49140340089797974,0.4408843517303467
1788168395771912700,19.72991259765625,-1.3339309692382812,0.3519495725631714,0.30560043454170227
1788168395788052000,19.746052001953124,-0.5684804916381836,0.2274308204650879,-0.05628599226474762
1788168395804173000,19.762173095703126,0.1753826141357422,0.09571206569671631,0.024145454168319702
1788168395820276000,19.77827587890625,0.41486644744873047,0.09424519538879395,-0.05780749022960663
1788168395836398000,19.794398193359374,0.43032169342041016,0.2084534764289856,-0.42018985748291016
1788168395852530700,19.81053076171875,0.38196754455566406,0.39941102266311646,-0.17088106274604797
1788168395868673800,19.826673828125,0.6331558227539062,0.5212376713752747,0.14702346920967102
1788168395884790800,19.842790771484374,0.5027933120727539,0.5337560176849365,-0.06579531729221344
1788168395900940800,19.85894091796875,0.29326343536376953,0.3482133150100708,0.03730019927024841
1788168395917067000,19.87506689453125,1.147247314453125,0.11526507139205933,0.6554713249206543
1788168395933210600,19.891210693359376,1.961644172668457,-0.21610623598098755,0.6407879590988159
1788168395949369000,19.907369140625,2.3214473724365234,-0.5226102471351624,0.42619794607162476
1788168395965516300,19.923516357421875,1.913823127746582,-0.2904852032661438,0.06964896619319916
1788168395981613600,19.939613525390627,1.2358312606811523,-0.1606174111366272,-0.0029867887496948242
1788168395997736000,19.95573583984375,1.3050851821899414,-0.30994468927383423,0.02092885971069336
1788168396013884400,19.971884521484377,2.784669876098633,-0.5917285084724426,-0.0674019455909729
1788168396030026200,19.988026123046875,3.2716665267944336,-0.8130990862846375,-0.6606994271278381
1788168396046176500,20.004176513671876,2.3802967071533203,-0.7441434860229492,-0.9817574620246887
1788168396062281000,20.020281005859374,0.3929014205932617,-0.39001208543777466,-0.6597111225128174
1788168396078442000,20.03644189453125,-1.0649805068969727,-0.09227067232131958,-0.08143532276153564
1788168396094603800,20.052603759765624,-1.5169897079467773,0.17236578464508057,0.31793761253356934
1788168396110774800,20.06877490234375,-1.342249870300293,0.31346237659454346,0.4180662930011749
1788168396126941400,20.08494140625,-0.8924455642700195,0.1453866958618164,0.39136064052581787
1788168396143048400,20.10104833984375,-0.27921104431152344,-0.01025855541229248,0.11086969822645187
1788168396159177700,20.117177734375,0.6394338607788086,-0.19963914155960083,0.11298556625843048
