time,seconds_elapsed,z,y,x
1788168376169527000,0.127527099609375,9.713947296142578,1.3445072174072266,-0.04370082914829254
1788168376186545000,0.144544921875,9.71652603149414,1.3260072469711304,-0.03465210273861885
1788168376202867700,0.16086767578125,9.71919059753418,1.3066586256027222,-0.01923098973929882
1788168376219037000,0.177036865234375,9.72124195098877,1.2914495468139648,0.0011345387902110815
1788168376235205600,0.19320556640625,9.722738265991211,1.2799180746078491,0.023722419515252113
1788168376251346400,0.209346435546875,9.723620414733887,1.2727034091949463,0.04274411499500275
1788168376267464400,0.22546435546875,9.723628997802734,1.2721670866012573,0.05493094027042389
1788168376283565300,0.2415654296875,9.722976684570312,1.276863932609558,0.06104070693254471
1788168376299740000,0.257739990234375,9.722373008728027,1.2812799215316772,0.06452427804470062
1788168376315916300,0.273916259765625,9.722358703613281,1.2812632322311401,0.0670662373304367
1788168376332092200,0.290092041015625,9.723036766052246,1.2760204076766968,0.06860966235399246
1788168376348216600,0.306216552734375,9.7243013381958,1.2661919593811035,0.07145731151103973
1788168376364316200,0.322316162109375,9.726030349731445,1.252347707748413,0.07970693707466125
1788168376380445700,0.33844580078125,9.728170394897461,1.234782338142395,0.09167559444904327
1788168376396582000,0.354581787109375,9.730252265930176,1.217226505279541,0.10459645092487335
1788168376412741600,0.37074169921875,9.731830596923828,1.2032777070999146,0.1182309091091156
1788168376428851200,0.386851318359375,9.732504844665527,1.1963481903076172,0.13226421177387238
1788168376444952600,0.40295263671875,9.732715606689453,1.1927846670150757,0.14794135093688965
1788168376461091000,0.419091064453125,9.73257064819336,1.1919604539871216,0.16336689889431
1788168376477244400,0.435244384765625,9.732007026672363,1.1948143243789673,0.17562726140022278
1788168376493408300,0.451408203125,9.731204986572266,1.199263095855713,0.18922646343708038
1788168376509521200,0.467521240234375,9.730113983154297,1.205085039138794,0.20747879147529602
1788168376525621800,0.483621826171875,9.729175567626953,1.2090216875076294,0.2276114970445633
1788168376541769200,0.499769287109375,9.728231430053711,1.2133845090866089,0.24412406980991364
1788168376557920300,0.515920166015625,9.727295875549316,1.2181490659713745,0.2573241591453552
1788168376574097200,0.53209716796875,9.726914405822754,1.2181196212768555,0.27149614691734314
1788168376590206000,0.5482060546875,9.726899147033691,1.2139523029327393,0.2900694012641907
1788168376606304800,0.5643046875,9.727251052856445,1.20635986328125,0.30931320786476135
1788168376622462500,0.58046240234375,9.727714538574219,1.198871374130249,0.32352757453918457
1788168376638574600,0.59657470703125,9.727985382080078,1.1955815553665161,0.32751426100730896
1788168376654712800,0.612712890625,9.727933883666992,1.1980060338974,0.3201262652873993
1788168376670828800,0.628828857421875,9.727655410766602,1.2024980783462524,0.31162184476852417
1788168376686925300,0.64492529296875,9.727021217346191,1.20719313621521,0.31324514746665955
1788168376703095600,0.661095458984375,9.72618579864502,1.2103232145309448,0.3268190026283264
1788168376719272000,0.67727197265625,9.725646018981934,1.2099647521972656,0.34377163648605347
1788168376735417300,0.693417236328125,9.725757598876953,1.2049745321273804,0.357858806848526
1788168376751540000,0.7095400390625,9.726476669311523,1.1964232921600342,0.366884708404541
1788168376767640000,0.72564013671875,9.72716236114502,1.1898219585418701,0.37018147110939026
1788168376783767000,0.74176708984375,9.727415084838867,1.1859500408172607,0.37590456008911133
1788168376799897600,0.757897705078125,9.726776123046875,1.186654806137085,0.3899608552455902
1788168376816050700,0.77405078125,9.725549697875977,1.1895633935928345,0.41111090779304504
1788168376832184800,0.790184814453125,9.724691390991211,1.1866534948349,0.4388844072818756
1788168376848282000,0.8062822265625,9.724753379821777,1.1777290105819702,0.46099579334259033
1788168376864417800,0.822417724609375,9.726276397705078,1.1607871055603027,0.47169235348701477
1788168376880608000,0.83860791015625,9.728922843933105,1.1387358903884888,0.47087782621383667
1788168376896768800,0.854768798828125,9.73017406463623,1.1327104568481445,0.4594131112098694
1788168376912909300,0.870909423828125,9.730483055114746,1.133520245552063,0.4508034586906433
1788168376929011000,0.887010986328125,9.729942321777344,1.1380525827407837,0.4510422945022583
1788168376945153500,0.903153564453125,9.728189468383789,1.1509932279586792,0.45599809288978577
1788168376961303300,0.91930322265625,9.726363182067871,1.1620848178863525,0.46669113636016846
1788168376977466400,0.93546630859375,9.72159481048584,1.1984636783599854,0.4739901125431061
1788168376993620000,0.951619873046875,9.715185165405273,1.2504435777664185,0.4711115062236786
1788168377009722000,0.96772216796875,9.711029052734375,1.2873631715774536,0.4571671485900879
1788168377025873200,0.983873046875,9.708593368530273,1.3135344982147217,0.4338419437408447
1788168377041987800,0.99998779296875,9.707359313964844,1.3311572074890137,0.4069148600101471
1788168377058164500,1.01616455078125,9.70645523071289,1.344660758972168,0.3834141194820404
1788168377074326000,1.032325927734375,9.705595970153809,1.3561519384384155,0.36422479152679443
1788168377090463200,1.048463134765625,9.704273223876953,1.3695837259292603,0.3488823473453522
1788168377106622700,1.064622802734375,9.70234489440918,1.3874945640563965,0.3312835991382599
1788168377122762800,1.0807626953125,9.699884414672852,1.408223271369934,0.31549394130706787
1788168377138904600,1.096904541015625,9.698123931884766,1.4214320182800293,0.31033992767333984
1788168377155025200,1.113025146484375,9.697677612304688,1.4249629974365234,0.30807873606681824
1788168377171133000,1.1291328125,9.697888374328613,1.4256341457366943,0.2981807589530945
1788168377187304700,1.1453046875,9.698073387145996,1.428320288658142,0.2786731421947479
1788168377203435800,1.161435791015625,9.698366165161133,1.4305320978164673,0.2562621831893921
1788168377219578400,1.177578369140625,9.698555946350098,1.433294415473938,0.23251043260097504
1788168377235702000,1.193701904296875,9.698250770568848,1.4385666847229004,0.2117571234703064
1788168377251851800,1.209851806640625,9.696309089660645,1.4537063837051392,0.1967446208000183
1788168377267980000,1.22597998046875,9.692527770996094,1.4797815084457397,0.1884840577840805
1788168377284107500,1.242107421875,9.68730640411377,1.513978362083435,0.18537059426307678
1788168377300287500,1.25828759765625,9.681924819946289,1.5480313301086426,0.1852390021085739
1788168377316413400,1.274413330078125,9.676751136779785,1.5796945095062256,0.18825241923332214
1788168377332568600,1.290568603515625,9.671318054199219,1.612566590309143,0.18874889612197876
1788168377348707800,1.306707763671875,9.665689468383789,1.6462438106536865,0.18635855615139008
1788168377364899300,1.3228994140625,9.659907341003418,1.6796964406967163,0.1876218467950821
1788168377381059800,1.339059814453125,9.654064178466797,1.7120774984359741,0.19551026821136475
1788168377397174800,1.3551748046875,9.64848518371582,1.7419512271881104,0.20667335391044617
1788168377413323800,1.37132373046875,9.644729614257812,1.7622591257095337,0.20980879664421082
1788168377429471200,1.38747119140625,9.64430046081543,1.766379475593567,0.19431664049625397
1788168377445676000,1.403676025390625,9.645188331604004,1.7647181749343872,0.16279824078083038
1788168377461851000,1.419850830078125,9.646194458007812,1.7629314661026,0.11571531742811203
1788168377477965000,1.435965087890625,9.647178649902344,1.7597031593322754,0.07594788074493408
1788168377494068200,1.452068115234375,9.64985179901123,1.745359182357788,0.06675046682357788
1788168377510221600,1.4682216796875,9.653925895690918,1.7217059135437012,0.08846484869718552
1788168377526335200,1.484335205078125,9.660955429077148,1.68031644821167,0.11342671513557434
1788168377542520600,1.5005205078125,9.668723106384277,1.6340396404266357,0.12685924768447876
1788168377558639400,1.516639404296875,9.675955772399902,1.5903631448745728,0.13039596378803253
1788168377574796500,1.532796630859375,9.680804252624512,1.5609005689620972,0.12650474905967712
1788168377590959000,1.548958984375,9.681933403015137,1.5548139810562134,0.1145203560590744
1788168377607138600,1.565138671875,9.678447723388672,1.5774786472320557,0.0979679673910141
1788168377623258600,1.581258544921875,9.670122146606445,1.6285362243652344,0.0836193859577179
1788168377639377400,1.59737744140625,9.659829139709473,1.6889244318008423,0.07497881352901459
1788168377655487500,1.613487548828125,9.651934623718262,1.7334028482437134,0.07661806792020798
1788168377671659500,1.629659423828125,9.648139953613281,1.7538520097732544,0.08824771642684937
1788168377687790600,1.64579052734375,9.647309303283691,1.7575503587722778,0.1040167510509491
1788168377703938000,1.66193798828125,9.6494140625,1.7455346584320068,0.1109321191906929
1788168377720068600,1.678068603515625,9.653358459472656,1.7238227128982544,0.10727664828300476
1788168377736222700,1.69422265625,9.658377647399902,1.6960337162017822,0.09794270992279053
1788168377752351700,1.710351806640625,9.664185523986816,1.663291096687317,0.08580498397350311
1788168377768540700,1.726540771484375,9.674159049987793,1.6052192449569702,0.06561388075351715
1788168377784699400,1.742699462890625,9.687957763671875,1.5209624767303467,0.023127814754843712
1788168377800836600,1.758836669921875,9.698838233947754,1.4495655298233032,-0.041021235287189484
1788168377816990000,1.774989990234375,9.701643943786621,1.4283376932144165,-0.09126199036836624
1788168377833130200,1.791130126953125,9.698297500610352,1.4487218856811523,-0.12090298533439636
1788168377849278700,1.80727880859375,9.693172454833984,1.4813520908355713,-0.1355968713760376
1788168377865441300,1.823441162109375,9.68769359588623,1.5174874067306519,-0.12737375497817993
1788168377881578800,1.839578857421875,9.68259334564209,1.5513737201690674,-0.10494951903820038
1788168377897680400,1.855680419921875,9.678914070129395,1.5756851434707642,-0.07894640415906906
1788168377913818000,1.871818115234375,9.67669677734375,1.5898723602294922,-0.0650763213634491
1788168377929967600,1.887967529296875,9.676544189453125,1.5904293060302734,-0.07359971106052399
1788168377946134300,1.90413427734375,9.67837142944336,1.5781759023666382,-0.09416655451059341
1788168377962280200,1.9202802734375,9.680205345153809,1.5653105974197388,-0.11755918711423874
1788168377978386700,1.93638671875,9.68012809753418,1.5629717111587524,-0.15045878291130066
1788168377994536700,1.95253662109375,9.678226470947266,1.5708895921707153,-0.18612061440944672
1788168378010692400,1.9686923828125,9.677556037902832,1.577574372291565,-0.1629556119441986
1788168378026870000,1.9848701171875,9.674318313598633,1.6040605306625366,-0.07038308680057526
1788168378043020500,2.0010205078125,9.66508960723877,1.6597251892089844,-0.04182641580700874
1788168378059159000,2.017158935546875,9.657276153564453,1.704919695854187,-0.025569617748260498
1788168378075368000,2.033367919921875,9.652287483215332,1.7329158782958984,-0.02690320461988449
1788168378091483600,2.049483642578125,9.650818824768066,1.7399827241897583,-0.06750482320785522
1788168378107618300,2.065618408203125,9.655137062072754,1.7119499444961548,-0.13397826254367828
1788168378123734000,2.081734130859375,9.662564277648926,1.6625094413757324,-0.20320947468280792
1788168378139837700,2.097837646484375,9.668917655944824,1.61902916431427,-0.24731077253818512
1788168378156011500,2.114011474609375,9.67175006866455,1.6021106243133545,-0.24674247205257416
1788168378172140800,2.130140869140625,9.672367095947266,1.6036713123321533,-0.20961327850818634
1788168378188289300,2.146289306640625,9.675064086914062,1.5952107906341553,-0.13719913363456726
1788168378204416800,2.162416748046875,9.683048248291016,1.551388144493103,-0.04643416404724121
1788168378220521700,2.178521728515625,9.696956634521484,1.46222722530365,0.03624214604496956
1788168378236730600,2.194730712890625,9.713683128356934,1.346557378768921,0.03906390815973282
1788168378252914000,2.210913818359375,9.727112770080566,1.2459864616394043,-0.03428830951452255
1788168378269151500,2.2271513671875,9.732956886291504,1.1924424171447754,-0.1342504918575287
1788168378285324000,2.243323974609375,9.731000900268555,1.197176218032837,-0.21162061393260956
1788168378301479000,2.25947900390625,9.722119331359863,1.2600809335708618,-0.25096365809440613
1788168378317655000,2.275655029296875,9.71158218383789,1.3427802324295044,-0.2291136384010315
1788168378333854200,2.291854248046875,9.705141067504883,1.3981926441192627,-0.1602543741464615
1788168378350005800,2.308005859375,9.704646110534668,1.4075709581375122,-0.0947151780128479
1788168378366164200,2.324164306640625,9.708741188049316,1.3801919221878052,-0.07611041516065598
1788168378382313200,2.340313232421875,9.713403701782227,1.3440985679626465,-0.11649857461452484
1788168378398505700,2.356505615234375,9.71390151977539,1.3331319093704224,-0.1823882907629013
1788168378414663000,2.372662841796875,9.70897388458252,1.3593460321426392,-0.24164848029613495
1788168378430838500,2.388838623046875,9.699906349182129,1.4167677164077759,-0.2738329768180847
1788168378446952000,2.404951904296875,9.687793731689453,1.4979863166809082,-0.27035510540008545
1788168378463103700,2.421103759765625,9.676527976989746,1.5740898847579956,-0.23967096209526062
1788168378479293700,2.437293701171875,9.668971061706543,1.624524474143982,-0.20568372309207916
1788168378495458600,2.45345849609375,9.666109085083008,1.6432909965515137,-0.1905989646911621
1788168378511591400,2.46959130859375,9.667281150817871,1.6355985403060913,-0.1971694976091385
1788168378527705000,2.485705078125,9.669872283935547,1.6180591583251953,-0.21414197981357574
1788168378543807000,2.501806884765625,9.671282768249512,1.606189489364624,-0.23836524784564972
1788168378559972000,2.51797216796875,9.669540405273438,1.6126114130020142,-0.26430365443229675
1788168378576096300,2.53409619140625,9.66402530670166,1.6414600610733032,-0.287404328584671
1788168378592234800,2.55023486328125,9.65499210357666,1.6910576820373535,-0.30306270718574524
1788168378608355600,2.56635546875,9.644981384277344,1.7457016706466675,-0.31185296177864075
1788168378624459000,2.582458984375,9.635438919067383,1.7958904504776,-0.32168808579444885
1788168378640630300,2.59863037109375,9.627885818481445,1.8326659202575684,-0.3399066925048828
1788168378656783000,2.614783203125,9.626028060913086,1.8339810371398926,-0.38273176550865173
1788168378672935000,2.630934814453125,9.627246856689453,1.8178743124008179,-0.4264194965362549
1788168378689063200,2.647063232421875,9.62661361694336,1.812978982925415,-0.46021294593811035
1788168378705166800,2.663166748046875,9.619101524353027,1.8471704721450806,-0.4808667302131653
1788168378721331200,2.679331298828125,9.603401184082031,1.9217426776885986,-0.5019696354866028
1788168378737471000,2.695470947265625,9.583344459533691,2.01611590385437,-0.5149431228637695
1788168378753630200,2.711630126953125,9.561923027038574,2.114454984664917,-0.5187379121780396
1788168378769806600,2.727806640625,9.547698020935059,2.178718090057373,-0.514824390411377
1788168378785912000,2.743912109375,9.549660682678223,2.1730477809906006,-0.5022343397140503
1788168378802050800,2.76005078125,9.56414794921875,2.1115236282348633,-0.48879924416542053
1788168378818196700,2.77619677734375,9.584921836853027,2.0164570808410645,-0.4832734167575836
1788168378834345200,2.79234521484375,9.600574493408203,1.9404959678649902,-0.4835570156574249
1788168378850520000,2.80852001953125,9.607698440551758,1.9041674137115479,-0.4864749610424042
1788168378866626000,2.8246259765625,9.609867095947266,1.8939040899276733,-0.48370859026908875
1788168378882820400,2.8408203125,9.612686157226562,1.882790446281433,-0.4709012806415558
1788168378898976800,2.856976806640625,9.618873596191406,1.8552719354629517,-0.4534601867198944
1788168378915149600,2.873149658203125,9.627793312072754,1.811678171157837,-0.44023388624191284
1788168378931306000,2.889305908203125,9.640110969543457,1.7439963817596436,-0.4440024197101593
1788168378947411000,2.905410888671875,9.652713775634766,1.6652146577835083,-0.4717579185962677
1788168378963572000,2.921572021484375,9.663897514343262,1.5889040231704712,-0.5048224329948425
1788168378979733500,2.9377333984375,9.672033309936523,1.5297770500183105,-0.530978262424469
1788168378995908400,2.953908447265625,9.677027702331543,1.493659257888794,-0.5426862835884094
1788168379012067300,2.9700673828125,9.678911209106445,1.4815765619277954,-0.542212724685669
1788168379028172000,2.986172119140625,9.679327964782715,1.479891061782837,-0.5393673777580261
1788168379044330000,3.002330078125,9.68097972869873,1.4694997072219849,-0.5381343364715576
1788168379060498400,3.01849853515625,9.68383502960205,1.4474533796310425,-0.5464442372322083
1788168379076632600,3.034632568359375,9.689848899841309,1.3920379877090454,-0.5826262831687927
1788168379092750600,3.05075048828125,9.695427894592285,1.3335685729980469,-0.6250326037406921
1788168379108853200,3.066853271484375,9.700444221496582,1.27699875831604,-0.6641073226928711
1788168379125020700,3.083020751953125,9.703851699829102,1.2346242666244507,-0.6937963962554932
1788168379141141800,3.099141845703125,9.705728530883789,1.2066118717193604,-0.7164514064788818
1788168379157284000,3.1152841796875,9.705787658691406,1.1944564580917358,-0.7357607483863831
1788168379173407200,3.1314072265625,9.704463005065918,1.1930439472198486,-0.7552682757377625
1788168379189556000,3.147555908203125,9.7027006149292,1.1969000101089478,-0.7716339230537415
1788168379205681200,3.16368115234375,9.701201438903809,1.206579566001892,-0.7754005193710327
1788168379221810000,3.179809814453125,9.700458526611328,1.2168649435043335,-0.7685915231704712
1788168379237998600,3.19599853515625,9.700800895690918,1.2239018678665161,-0.7529404759407043
1788168379254130400,3.21213037109375,9.701947212219238,1.2275336980819702,-0.73195880651474
1788168379270229500,3.2282294921875,9.70267391204834,1.235500454902649,-0.7085492610931396
1788168379286364400,3.244364501953125,9.7024564743042,1.2490251064300537,-0.6875045895576477
1788168379302511000,3.260510986328125,9.701821327209473,1.2635759115219116,-0.669648289680481
1788168379318677800,3.276677734375,9.70129680633545,1.2779529094696045,-0.6496599912643433
1788168379334815700,3.292815673828125,9.701807022094727,1.2861565351486206,-0.6253957748413086
1788168379350915300,3.308915283203125,9.703120231628418,1.2858986854553223,-0.6052370667457581
1788168379367064800,3.32506494140625,9.704418182373047,1.2822562456130981,-0.5920106172561646
1788168379383222500,3.341222412109375,9.704113006591797,1.2865344285964966,-0.5877026319503784
1788168379399399700,3.357399658203125,9.701879501342773,1.3029481172561646,-0.5884242653846741
1788168379415511800,3.37351171875,9.699564933776855,1.323630690574646,-0.5803704261779785
1788168379431661000,3.3896611328125,9.700528144836426,1.326309323310852,-0.557723879814148
1788168379447820800,3.40582080078125,9.706289291381836,1.2957041263580322,-0.5286755561828613
1788168379463935200,3.421935302734375,9.71537971496582,1.2348034381866455,-0.5070021748542786
1788168379480072400,3.438072509765625,9.72508716583252,1.1598366498947144,-0.49783962965011597
1788168379496233500,3.4542333984375,9.73301887512207,1.0890291929244995,-0.502735435962677
1788168379512335400,3.47033544921875,9.736223220825195,1.0514558553695679,-0.5203741788864136
1788168379528540200,3.4865400390625,9.733756065368652,1.06505286693573,-0.5385664701461792
1788168379544658400,3.502658447265625,9.727084159851074,1.1198819875717163,-0.5478053092956543
1788168379560834800,3.518834716796875,9.71790885925293,1.1978827714920044,-0.5456226468086243
1788168379576998400,3.534998291015625,9.71046257019043,1.266542911529541,-0.5226542353630066
1788168379593098500,3.551098388671875,9.70748233795166,1.303711175918579,-0.4853091835975647
1788168379609262600,3.5672626953125,9.708924293518066,1.3029416799545288,-0.4577360451221466
1788168379625400600,3.583400634765625,9.715156555175781,1.2547271251678467,-0.46020370721817017
1788168379641551400,3.59955126953125,9.722752571105957,1.1828439235687256,-0.4892258942127228
1788168379657726200,3.615726318359375,9.727849006652832,1.1270800828933716,-0.5186811089515686
1788168379673879000,3.631879150390625,9.729351997375488,1.1085320711135864,-0.5303311944007874
1788168379690014200,3.64801416015625,9.728462219238281,1.1211222410202026,-0.5200934410095215
1788168379706159900,3.664159912109375,9.727055549621582,1.1443309783935547,-0.49525776505470276
1788168379722327800,3.680327880859375,9.72575855255127,1.1655503511428833,-0.4706544280052185
1788168379738518800,3.696518798828125,9.725841522216797,1.168960452079773,-0.4603584110736847
1788168379754627000,3.712626953125,9.727901458740234,1.1478475332260132,-0.46986863017082214
1788168379770780200,3.7287802734375,9.731689453125,1.10805082321167,-0.48665013909339905
1788168379786935300,3.744935302734375,9.7362060546875,1.0612915754318237,-0.5003398656845093
1788168379803109000,3.761109130859375,9.740185737609863,1.0196244716644287,-0.5094444155693054
1788168379819260400,3.777260498046875,9.743392944335938,0.9866042733192444,-0.5131292939186096
1788168379835364900,3.79336474609375,9.745837211608887,0.9693616032600403,-0.499380886554718
1788168379851518700,3.809518798828125,9.747917175292969,0.9589384198188782,-0.47846829891204834
1788168379867680500,3.825680419921875,9.749592781066895,0.9557291269302368,-0.44988808035850525
1788168379883859500,3.841859375,9.750577926635742,0.9626013040542603,-0.4123275876045227
1788168379900018000,3.858017822265625,9.750818252563477,0.9786400198936462,-0.36633551120758057
1788168379916120800,3.874120849609375,9.74949836730957,1.007354974746704,-0.32077327370643616
1788168379932282400,3.890282470703125,9.748270034790039,1.0268176794052124,-0.29541435837745667
1788168379948420600,3.906420654296875,9.747193336486816,1.0384032726287842,-0.2904096245765686
1788168379964558000,3.92255810546875,9.745996475219727,1.0483207702636719,-0.29489168524742126
1788168379980722000,3.938721923828125,9.7444486618042,1.0590591430664062,-0.30740317702293396
1788168379996831200,3.954831298828125,9.742162704467773,1.0750298500061035,-0.3239787518978119
1788168380013035800,3.971035888671875,9.738804817199707,1.0986984968185425,-0.3448457419872284
1788168380029165800,3.987165771484375,9.733576774597168,1.1359176635742188,-0.37089967727661133
1788168380045314300,4.003314208984375,9.727335929870605,1.1831960678100586,-0.386491060256958
1788168380061443300,4.019443359375,9.722652435302734,1.22059166431427,-0.38802433013916016
1788168380077599700,4.035599853515625,9.72032356262207,1.2375601530075073,-0.392600417137146
1788168380093774600,4.051774658203125,9.721572875976562,1.2240288257598877,-0.40393224358558655
1788168380109908500,4.067908447265625,9.72489070892334,1.1875648498535156,-0.43194344639778137
1788168380126062800,4.084062744140625,9.726587295532227,1.1555513143539429,-0.47811973094940186
1788168380142232600,4.100232666015625,9.723750114440918,1.1579229831695557,-0.5275406241416931
1788168380158335700,4.116335693359375,9.717305183410645,1.2029674053192139,-0.5451955795288086
1788168380174468900,4.13246875,9.70946216583252,1.2748217582702637,-0.5211215615272522
1788168380190612700,4.14861279296875,9.703051567077637,1.3421286344528198,-0.46890562772750854
1788168380206792400,4.16479248046875,9.700531005859375,1.3758187294006348,-0.42094799876213074
1788168380222954000,4.1809541015625,9.702219009399414,1.3716343641281128,-0.3949156105518341
1788168380239060700,4.197060791015625,9.70677375793457,1.3418034315109253,-0.3853524625301361
1788168380255213000,4.213213134765625,9.711658477783203,1.3053889274597168,-0.38733774423599243
1788168380271367200,4.2293671875,9.714438438415527,1.281674861907959,-0.39671826362609863
1788168380287539500,4.24553955078125,9.71359920501709,1.2848933935165405,-0.4067250192165375
1788168380303656400,4.261656494140625,9.708971977233887,1.320520043373108,-0.4030870199203491
1788168380319761400,4.277761474609375,9.702512741088867,1.3732868432998657,-0.38173550367355347
1788168380335910000,4.293909912109375,9.696535110473633,1.4225159883499146,-0.35219812393188477
1788168380352024000,4.310024169921875,9.692258834838867,1.4567753076553345,-0.32912030816078186
1788168380368211700,4.326211669921875,9.690651893615723,1.4696084260940552,-0.31922030448913574
1788168380384330800,4.342330810546875,9.691020011901855,1.4682002067565918,-0.31449630856513977
1788168380400433400,4.358433349609375,9.692261695861816,1.4614182710647583,-0.3077450394630432
1788168380416593700,4.37459375,9.69330883026123,1.456863284111023,-0.2961583137512207
1788168380432713500,4.39071337890625,9.693391799926758,1.4582220315933228,-0.2865716516971588
1788168380448853000,4.40685302734375,9.6925687789917,1.464982032775879,-0.27989083528518677
1788168380464970000,4.422969970703125,9.690533638000488,1.478297233581543,-0.28031599521636963
1788168380481123000,4.439123046875,9.686448097229004,1.5026131868362427,-0.29200127720832825
1788168380497292300,4.455292236328125,9.67991828918457,1.5413984060287476,-0.3060356080532074
1788168380513477600,4.4714775390625,9.671847343444824,1.589930534362793,-0.3128339946269989
1788168380529626600,4.487626708984375,9.663768768310547,1.6401679515838623,-0.3030014932155609
1788168380545750000,4.50375,9.657722473144531,1.680076003074646,-0.27592456340789795
1788168380561857500,4.519857421875,9.656038284301758,1.6957951784133911,-0.23579981923103333
1788168380577986600,4.535986572265625,9.659655570983887,1.6806646585464478,-0.1918574720621109
1788168380594168800,4.5521689453125,9.668471336364746,1.6329944133758545,-0.15616174042224884
1788168380610322700,4.56832275390625,9.679121971130371,1.5694407224655151,-0.1478477567434311
1788168380626488800,4.58448876953125,9.685213088989258,1.528151273727417,-0.1782781183719635
1788168380642592800,4.6005927734375,9.683978080749512,1.5289291143417358,-0.23095957934856415
1788168380658727400,4.6167275390625,9.676870346069336,1.5669331550598145,-0.2707142233848572
1788168380674923500,4.632923583984375,9.671344757080078,1.6016069650650024,-0.2652187645435333
1788168380691071000,4.649071044921875,9.673074722290039,1.5985870361328125,-0.2157161682844162
1788168380707260400,4.665260498046875,9.685286521911621,1.5314700603485107,-0.14217789471149445
1788168380723416000,4.681416015625,9.70190143585205,1.425087809562683,-0.11231343448162079
1788168380739595000,4.697594970703125,9.713488578796387,1.3392751216888428,-0.157687246799469
1788168380755749400,4.713749267578125,9.714655876159668,1.3195267915725708,-0.2338680475950241
1788168380771905300,4.7299052734375,9.70689582824707,1.3678148984909058,-0.2750246822834015
1788168380788091400,4.74609130859375,9.696401596069336,1.4448288679122925,-0.2503087818622589
1788168380804197600,4.76219775390625,9.689382553100586,1.50211501121521,-0.172927588224411
1788168380820393000,4.77839306640625,9.688920021057129,1.512357234954834,-0.08932963013648987
1788168380836605700,4.794605712890625,9.696831703186035,1.4628900289535522,-0.04253404960036278
1788168380852779000,4.810779052734375,9.711067199707031,1.3652524948120117,-0.04066193848848343
1788168380868978000,4.82697802734375,9.724897384643555,1.2617191076278687,-0.06946363300085068
1788168380885087500,4.84308740234375,9.73312759399414,1.1940044164657593,-0.10475410521030426
1788168380901291000,4.859291015625,9.734442710876465,1.1810903549194336,-0.12665413320064545
1788168380917413400,4.875413330078125,9.731277465820312,1.2072309255599976,-0.12333927303552628
1788168380933582600,4.89158251953125,9.72608470916748,1.2506413459777832,-0.09772932529449463
1788168380949780700,4.90778076171875,9.721136093139648,1.290446162223816,-0.06823200732469559
1788168380965935900,4.923935791015625,9.718384742736816,1.3116633892059326,-0.054191574454307556
1788168380982143200,4.940143310546875,9.718886375427246,1.307790994644165,-0.05770980939269066
1788168380998267000,4.956266845703125,9.722180366516113,1.282386064529419,-0.07128222286701202
1788168381014410000,4.972409912109375,9.726907730102539,1.2453010082244873,-0.08291447162628174
1788168381030543600,4.988543701171875,9.730694770812988,1.2149733304977417,-0.08829517662525177
1788168381046702000,5.0047021484375,9.732787132263184,1.1978613138198853,-0.09148165583610535
1788168381062830000,5.020830078125,9.73316478729248,1.1943433284759521,-0.09715671092271805
1788168381078965500,5.036965576171875,9.732941627502441,1.1944326162338257,-0.11650098860263824
1788168381095116500,5.053116455078125,9.732283592224121,1.1960973739624023,-0.1496065855026245
1788168381111254000,5.06925390625,9.732091903686523,1.1931558847427368,-0.1820676177740097
1788168381127363000,5.085363037109375,9.729315757751465,1.2109373807907104,-0.21077798306941986
1788168381143498800,5.101498779296875,9.725053787231445,1.2411696910858154,-0.23068058490753174
1788168381159640600,5.117640625,9.72084903717041,1.271763563156128,-0.24104580283164978
1788168381175835100,5.133835205078125,9.718037605285645,1.2921457290649414,-0.245963454246521
1788168381191955700,5.149955810546875,9.715387344360352,1.3111693859100342,-0.24992942810058594
1788168381208064300,5.166064208984375,9.717117309570312,1.2978515625,-0.25215861201286316
1788168381224203800,5.182203857421875,9.720704078674316,1.2706412076950073,-0.2525181770324707
1788168381240361200,5.198361328125,9.722784042358398,1.2512857913970947,-0.26858171820640564
1788168381256522200,5.214522216796875,9.721602439880371,1.2525509595870972,-0.30322128534317017
1788168381272641300,5.230641357421875,9.71874713897705,1.2667680978775024,-0.33411163091659546
1788168381288797400,5.24679736328125,9.717310905456543,1.2727649211883545,-0.3526189625263214
1788168381304956700,5.262956787109375,9.720126152038574,1.248147964477539,-0.36284518241882324
1788168381321119500,5.279119384765625,9.726128578186035,1.1959004402160645,-0.37768709659576416
1788168381337303000,5.295302978515625,9.731145858764648,1.1455051898956299,-0.4037341773509979
1788168381353458400,5.31145849609375,9.73208236694336,1.1225725412368774,-0.4436163306236267
1788168381369643300,5.327643310546875,9.727840423583984,1.1453237533569336,-0.4772132933139801
1788168381385817900,5.34381787109375,9.720807075500488,1.2030385732650757,-0.47852978110313416
1788168381401993700,5.35999365234375,9.71267032623291,1.2781031131744385,-0.44818541407585144
1788168381418173000,5.3761728515625,9.70678424835205,1.3360694646835327,-0.4045282006263733
1788168381434342100,5.392342041015625,9.705060005187988,1.3597297668457031,-0.36516594886779785
1788168381450450200,5.4084501953125,9.709033012390137,1.3354445695877075,-0.34878331422805786
1788168381466661000,5.4246611328125,9.718644142150879,1.2594646215438843,-0.36345258355140686
1788168381482795500,5.44079541015625,9.730628967285156,1.1523698568344116,-0.3965938985347748
1788168381498978800,5.456978759765625,9.739555358886719,1.054861068725586,-0.4457643926143646
1788168381515165400,5.47316552734375,9.744770050048828,0.9813066124916077,-0.49686700105667114
1788168381531276800,5.48927685546875,9.745282173156738,0.9499333500862122,-0.5454262495040894
1788168381547407400,5.505407470703125,9.7424955368042,0.9601930975914001,-0.5763581991195679
1788168381563594000,5.521593994140625,9.737515449523926,1.0066502094268799,-0.5812430381774902
1788168381579745800,5.537745849609375,9.730508804321289,1.0797104835510254,-0.5672816634178162
1788168381595879700,5.553879638671875,9.720797538757324,1.1786186695098877,-0.5360288023948669
1788168381612029200,5.570029296875,9.707856178283691,1.3013719320297241,-0.4840841293334961
1788168381628170200,5.586170166015625,9.692852973937988,1.4299349784851074,-0.41747474670410156
1788168381644364500,5.602364501953125,9.677994728088379,1.5446619987487793,-0.34760481119155884
1788168381660534000,5.618533935546875,9.666984558105469,1.625134825706482,-0.2806057333946228
1788168381676672000,5.634672119140625,9.661572456359863,1.6650761365890503,-0.22786709666252136
1788168381692781600,5.650781494140625,9.660276412963867,1.6761629581451416,-0.19985154271125793
1788168381708917200,5.666917236328125,9.658024787902832,1.6896750926971436,-0.19480149447917938
1788168381725075700,5.68307568359375,9.651880264282227,1.7241133451461792,-0.19757263362407684
1788168381741217800,5.6992177734375,9.64246940612793,1.7775565385818481,-0.1829327791929245
1788168381757368800,5.715368896484375,9.630646705627441,1.8445286750793457,-0.13689956068992615
1788168381773525500,5.731525390625,9.61872386932373,1.909773349761963,-0.057613618671894073
1788168381789682400,5.747682373046875,9.609393119812012,1.95656156539917,0.04249444976449013
1788168381805889000,5.763888916015625,9.604525566101074,1.9763150215148926,0.13282960653305054
1788168381822073300,5.7800732421875,9.604230880737305,1.9729044437408447,0.19178926944732666
1788168381838234000,5.796234130859375,9.60653018951416,1.9606086015701294,0.2024584412574768
1788168381854392000,5.81239208984375,9.612351417541504,1.9345240592956543,0.17520685493946075
1788168381870554000,5.82855419921875,9.62169361114502,1.890281319618225,0.14227913320064545
1788168381886673000,5.8446728515625,9.633768081665039,1.8283330202102661,0.1345178484916687
1788168381902812400,5.8608125,9.647000312805176,1.7558289766311646,0.15113230049610138
1788168381919014400,5.877014404296875,9.657865524291992,1.6943013668060303,0.15926767885684967
1788168381935122000,5.893121826171875,9.664083480834961,1.6611357927322388,0.12845592200756073
1788168381951296800,5.909296875,9.6655912399292,1.656430959701538,0.05447389557957649
1788168381967484200,5.925484130859375,9.665043830871582,1.6601836681365967,-0.03319079801440239
1788168381983668500,5.94166845703125,9.665393829345703,1.6551904678344727,-0.10433895140886307
1788168381999839500,5.957839599609375,9.668680191040039,1.6336426734924316,-0.13500206172466278
1788168382015947500,5.973947509765625,9.674301147460938,1.6008204221725464,-0.12509547173976898
1788168382032084500,5.99008447265625,9.681075096130371,1.5617092847824097,-0.09068071842193604
1788168382048210700,6.006210693359375,9.68681812286377,1.5273358821868896,-0.056484103202819824
1788168382064354000,6.02235400390625,9.68975830078125,1.5093015432357788,-0.0313754566013813
1788168382080494300,6.038494384765625,9.688432693481445,1.5178537368774414,-0.027723655104637146
1788168382096654300,6.054654296875,9.683989524841309,1.5457196235656738,-0.0386444590985775
1788168382112844500,6.070844482421875,9.678179740905762,1.581275224685669,-0.05281158909201622
1788168382128998100,6.086998046875,9.672669410705566,1.6142593622207642,-0.0635194480419159
1788168382145154600,6.103154541015625,9.668746948242188,1.6374574899673462,-0.06678619235754013
1788168382161308000,6.119307861328125,9.666769027709961,1.649224042892456,-0.06348086893558502
1788168382177463800,6.1354638671875,9.6660795211792,1.6535439491271973,-0.055621787905693054
1788168382193614600,6.151614501953125,9.667094230651855,1.6479474306106567,-0.044202350080013275
1788168382209776000,6.167776123046875,9.668400764465332,1.6407228708267212,-0.02107362262904644
1788168382225958000,6.1839580078125,9.666949272155762,1.64939284324646,0.0014575783861801028
1788168382242077000,6.200076904296875,9.663476943969727,1.6694213151931763,0.02492668107151985
1788168382258185700,6.216185791015625,9.659130096435547,1.693560242652893,0.05872329697012901
1788168382274347500,6.232347412109375,9.653546333312988,1.7237662076950073,0.08982216566801071
1788168382290515200,6.24851513671875,9.647866249084473,1.753667950630188,0.11711670458316803
1788168382306702300,6.264702392578125,9.642356872558594,1.7804107666015625,0.15962468087673187
1788168382322823400,6.280823486328125,9.63683032989502,1.8099393844604492,0.16125358641147614
1788168382338981000,6.296981201171875,9.6309175491333,1.8401899337768555,0.17179007828235626
1788168382355155000,6.313155029296875,9.62410831451416,1.8739242553710938,0.1879597008228302
1788168382371329500,6.32932958984375,9.618593215942383,1.8991113901138306,0.21546003222465515
1788168382387476500,6.3454765625,9.614274978637695,1.9140390157699585,0.26934364438056946
1788168382403633700,6.361633544921875,9.605974197387695,1.9450664520263672,0.3351876437664032
1788168382419788000,6.3777880859375,9.594820022583008,1.9888986349105835,0.39254817366600037
1788168382435964200,6.393964111328125,9.585287094116211,2.0243892669677734,0.44102922081947327
1788168382452095500,6.410095458984375,9.58377456665039,2.0185463428497314,0.49712684750556946
1788168382468241400,6.426241455078125,9.586814880371094,1.987107515335083,0.5610424280166626
1788168382484364800,6.44236474609375,9.59046459197998,1.948853850364685,0.6287739872932434
1788168382500467500,6.458467529296875,9.594250679016113,1.910017967224121,0.6874417662620544
1788168382516598000,6.474597900390625,9.599846839904785,1.8698002099990845,0.7191441059112549
1788168382532733000,6.49073291015625,9.608059883117676,1.82725989818573,0.7188218235969543
1788168382548893000,6.506892822265625,9.620244026184082,1.7675052881240845,0.7051327228546143
1788168382565025500,6.523025634765625,9.63572883605957,1.6872596740722656,0.6901344656944275
1788168382581130800,6.539130859375,9.650558471679688,1.600089192390442,0.6905251145362854
1788168382597318700,6.555318603515625,9.665763854980469,1.500304102897644,0.7017722725868225
1788168382613517300,6.571517333984375,9.681506156921387,1.3868991136550903,0.717871904373169
1788168382629678000,6.587677978515625,9.695196151733398,1.2790322303771973,0.733239471912384
1788168382645822200,6.603822265625,9.70393180847168,1.2200987339019775,0.7179470658302307
1788168382661928000,6.619927978515625,9.706352233886719,1.238699197769165,0.6501907706260681
1788168382678121000,6.636120849609375,9.701169967651367,1.3027048110961914,0.6005476117134094
1788168382694278000,6.65227783203125,9.690496444702148,1.3847962617874146,0.5890597701072693
1788168382710438000,6.66843798828125,9.678953170776367,1.4619140625,0.5925086736679077
1788168382726625000,6.684625,9.669889450073242,1.5198538303375244,0.5946993231773376
1788168382742731500,6.7007314453125,9.666199684143066,1.548496961593628,0.5806187987327576
1788168382758920200,6.716920166015625,9.668557167053223,1.540950059890747,0.5611222982406616
1788168382775086800,6.7330869140625,9.674545288085938,1.4915084838867188,0.5907300114631653
1788168382791268400,6.749268310546875,9.680718421936035,1.4462813138961792,0.6019606590270996
1788168382807467000,6.765467041015625,9.681966781616211,1.4443553686141968,0.5863035321235657
1788168382823625200,6.781625244140625,9.674521446228027,1.4830020666122437,0.6121511459350586
1788168382839837000,6.7978369140625,9.66131591796875,1.5464004278182983,0.6618260741233826
1788168382855962600,6.813962646484375,9.64816665649414,1.6121608018875122,0.6958491802215576
1788168382872101000,6.83010107421875,9.638452529907227,1.6687783002853394,0.6969876289367676
1788168382888244000,6.846243896484375,9.639769554138184,1.6907076835632324,0.6218783855438232
1788168382904348400,6.862348388671875,9.648728370666504,1.6827669143676758,0.49064746499061584
1788168382920526300,6.8785263671875,9.656822204589844,1.6700576543807983,0.3564777374267578
1788168382936662000,6.894662109375,9.655049324035645,1.6833751201629639,0.34153836965560913
1788168382952817000,6.91081689453125,9.650994300842285,1.703060507774353,0.3581675887107849
1788168382968996000,6.92699609375,9.643417358398438,1.7384376525878906,0.39080142974853516
1788168382985095400,6.943095458984375,9.635058403015137,1.7842282056808472,0.39059942960739136
1788168383001232400,6.959232421875,9.627859115600586,1.828829288482666,0.36069169640541077
1788168383017371600,6.97537158203125,9.62553882598877,1.8464124202728271,0.33188605308532715
1788168383033536800,6.991536865234375,9.628154754638672,1.8329923152923584,0.33040651679039
1788168383049726000,7.007725830078125,9.635323524475098,1.7857459783554077,0.3768806755542755
1788168383065885400,7.023885498046875,9.643499374389648,1.7233766317367554,0.45086270570755005
1788168383082063600,7.040063720703125,9.648282051086426,1.6773065328598022,0.5173788070678711
1788168383098218000,7.056218017578125,9.648703575134277,1.666764497756958,0.5429561734199524
1788168383114370300,7.072370361328125,9.646570205688477,1.6811420917510986,0.5365002155303955
1788168383130523000,7.08852294921875,9.64413833618164,1.6976795196533203,0.5280795693397522
1788168383146626000,7.1046259765625,9.645142555236816,1.6929137706756592,0.5250372290611267
1788168383162823200,7.1208232421875,9.650396347045898,1.6647509336471558,0.5185102820396423
1788168383178985500,7.1369853515625,9.658737182617188,1.6171351671218872,0.5138646960258484
1788168383195152000,7.15315185546875,9.66729736328125,1.5621914863586426,0.5227912068367004
1788168383211269600,7.16926953125,9.672289848327637,1.5205656290054321,0.5523465871810913
1788168383227372300,7.185372314453125,9.672614097595215,1.499261498451233,0.6026121973991394
1788168383243530200,7.2015302734375,9.670560836791992,1.4904862642288208,0.6550511717796326
1788168383259697700,7.21769775390625,9.67003059387207,1.480523705482483,0.6847949028015137
1788168383275833300,7.233833251953125,9.671707153320312,1.4683761596679688,0.6872748732566833
1788168383291951000,7.249951171875,9.672782897949219,1.4667624235153198,0.6754752397537231
1788168383308086800,7.266086669921875,9.671339988708496,1.4814330339431763,0.6640286445617676
1788168383324251400,7.28225146484375,9.668578147888184,1.498303771018982,0.6663826107978821
1788168383340425000,7.298425048828125,9.666705131530762,1.5066288709640503,0.6747350096702576
1788168383356571400,7.3145712890625,9.667634010314941,1.4981536865234375,0.6802733540534973
1788168383372691000,7.33069091796875,9.67126178741455,1.474725604057312,0.6798958778381348
1788168383388797200,7.346797119140625,9.67538833618164,1.449837327003479,0.6746998429298401
1788168383404973600,7.3629736328125,9.678644180297852,1.4321547746658325,0.6657070517539978
1788168383421110000,7.379110107421875,9.67989730834961,1.4351918697357178,0.6404731273651123
1788168383437268200,7.395268310546875,9.679946899414062,1.450170636177063,0.605002760887146
1788168383453406000,7.411406005859375,9.678597450256348,1.4740149974822998,0.5678158402442932
1788168383469510000,7.427510009765625,9.676362991333008,1.492742657661438,0.55687016248703
1788168383485649000,7.44364892578125,9.67341136932373,1.5106912851333618,0.5597483515739441
1788168383501773000,7.45977294921875,9.66984748840332,1.526975154876709,0.5768812298774719
1788168383517938700,7.475938720703125,9.667604446411133,1.5277729034423828,0.611326277256012
1788168383534078500,7.492078369140625,9.668705940246582,1.5107053518295288,0.635836124420166
1788168383550186800,7.508186767578125,9.672638893127441,1.4912874698638916,0.6217040419578552
1788168383566377000,7.524376953125,9.677173614501953,1.4838969707489014,0.5663506388664246
1788168383582574800,7.540574951171875,9.680343627929688,1.4919921159744263,0.48507171869277954
1788168383598743300,7.556743408203125,9.683110237121582,1.4964560270309448,0.4103354811668396
1788168383614889200,7.57288916015625,9.688140869140625,1.480891227722168,0.3424423038959503
1788168383631046000,7.5890458984375,9.694406509399414,1.4500682353973389,0.2935677170753479
1788168383647191600,7.605191650390625,9.699445724487305,1.4231430292129517,0.2564955949783325
1788168383663347200,7.62134716796875,9.700289726257324,1.422241449356079,0.22802776098251343
1788168383679458000,7.6374580078125,9.697746276855469,1.440645456314087,0.22054606676101685
1788168383695615200,7.653615234375,9.69390869140625,1.4627177715301514,0.24284875392913818
1788168383711725300,7.669725341796875,9.690607070922852,1.4754674434661865,0.29242590069770813
1788168383727877400,7.68587744140625,9.689613342285156,1.468076467514038,0.35572177171707153
1788168383744043300,7.702043212890625,9.691701889038086,1.4378938674926758,0.4168533384799957
1788168383760220400,7.718220458984375,9.69752311706543,1.3871065378189087,0.45207610726356506
1788168383776381400,7.73438134765625,9.706465721130371,1.3219352960586548,0.455403208732605
1788168383792490500,7.750490478515625,9.714823722839355,1.2660638093948364,0.4355144798755646
1788168383808654800,7.76665478515625,9.719490051269531,1.2390012741088867,0.4083704948425293
1788168383824774400,7.7827744140625,9.718442916870117,1.2505780458450317,0.39787986874580383
1788168383840916500,7.79891650390625,9.713053703308105,1.2865946292877197,0.4142998456954956
1788168383857037000,7.815037109375,9.705674171447754,1.3320949077606201,0.44248437881469727
1788168383873192700,7.831192626953125,9.700356483459473,1.3649128675460815,0.45879697799682617
1788168383889411300,7.847411376953125,9.698123931884766,1.3842359781265259,0.44795411825180054
1788168383905537300,7.863537353515625,9.697705268859863,1.3983664512634277,0.41167670488357544
1788168383921683700,7.87968359375,9.697861671447754,1.4092144966125488,0.36875075101852417
1788168383937812000,7.89581201171875,9.697564125061035,1.4178297519683838,0.34262800216674805
1788168383953918500,7.91191845703125,9.69698715209961,1.4222396612167358,0.34066903591156006
1788168383970054000,7.928053955078125,9.696147918701172,1.425694465637207,0.3500111401081085
1788168383986195200,7.9441953125,9.69518756866455,1.432568907737732,0.34852516651153564
1788168384002353200,7.960353271484375,9.693441390991211,1.4495552778244019,0.32613852620124817
1788168384018486500,7.976486572265625,9.690303802490234,1.4779199361801147,0.29010021686553955
1788168384034615800,7.99261572265625,9.685827255249023,1.5125973224639893,0.2592058479785919
1788168384050760200,8.00876025390625,9.680964469909668,1.5438843965530396,0.2563774287700653
1788168384066905300,8.0249052734375,9.677900314331055,1.5581119060516357,0.284476637840271
1788168384083075800,8.041075927734376,9.678165435791016,1.549332857131958,0.3210360109806061
1788168384099191800,8.05719189453125,9.681254386901855,1.5238417387008667,0.34872058033943176
1788168384115295000,8.073294921875,9.684943199157715,1.4968595504760742,0.36286190152168274
1788168384131489000,8.089489013671875,9.686291694641113,1.4848195314407349,0.3761117160320282
1788168384147605800,8.105605712890625,9.6852445602417,1.484474778175354,0.4034380316734314
1788168384163786500,8.121786376953125,9.68439769744873,1.475767731666565,0.4527108371257782
1788168384179908600,8.13790869140625,9.687288284301758,1.4363147020339966,0.5136498808860779
1788168384196062500,8.1540625,9.694231033325195,1.3696510791778564,0.5624426007270813
1788168384212264400,8.170264404296875,9.70179557800293,1.305861473083496,0.5833439230918884
1788168384228386800,8.18638671875,9.706257820129395,1.2773395776748657,0.572155773639679
1788168384244557800,8.202557861328126,9.704052925109863,1.303226351737976,0.5507757663726807
1788168384260710000,8.2187099609375,9.696520805358887,1.3614439964294434,0.5425320863723755
1788168384276846000,8.23484619140625,9.687061309814453,1.4237627983093262,0.5514887571334839
1788168384293055700,8.2510556640625,9.682351112365723,1.4490149021148682,0.5681793093681335
1788168384309182700,8.2671826171875,9.683319091796875,1.4349863529205322,0.5869637131690979
1788168384325361000,8.28336083984375,9.689722061157227,1.3870192766189575,0.5965299010276794
1788168384341478100,8.29947802734375,9.699673652648926,1.3169968128204346,0.593498706817627
1788168384357579300,8.315579345703124,9.708858489990234,1.2510977983474731,0.5858429074287415
1788168384373706800,8.331706787109376,9.715481758117676,1.2035719156265259,0.5755171775817871
1788168384389836000,8.3478359375,9.71928882598877,1.1806423664093018,0.5584666728973389
1788168384405988000,8.363988037109374,9.720749855041504,1.178300142288208,0.5375981330871582
1788168384422120700,8.38012060546875,9.720438003540039,1.1885441541671753,0.5204087495803833
1788168384438272000,8.39627197265625,9.71886157989502,1.2040441036224365,0.5141903162002563
1788168384454404000,8.412404052734376,9.717029571533203,1.2169910669326782,0.5183145403862
1788168384470597400,8.428597412109376,9.716655731201172,1.2174714803695679,0.5241692066192627
1788168384486755800,8.444755859375,9.718171119689941,1.2046332359313965,0.5257325768470764
1788168384502892000,8.46089208984375,9.72134780883789,1.1832529306411743,0.5154650807380676
1788168384519043000,8.47704296875,9.724485397338867,1.1675974130630493,0.4914149343967438
1788168384535186200,8.493186279296875,9.725347518920898,1.1747366189956665,0.4560794234275818
1788168384551334000,8.509333984375,9.723893165588379,1.202160358428955,0.413628488779068
1788168384567502800,8.5255029296875,9.721990585327148,1.2260527610778809,0.3873855173587799
1788168384583652000,8.541652099609376,9.718013763427734,1.2634704113006592,0.3663911819458008
1788168384599759000,8.557759033203125,9.713028907775879,1.3064508438110352,0.34734857082366943
1788168384615917300,8.573917236328125,9.708118438720703,1.346272349357605,0.33222880959510803
1788168384632070000,8.59006982421875,9.702024459838867,1.3924651145935059,0.3196062445640564
1788168384648244700,8.60624462890625,9.697985649108887,1.4199144840240479,0.32140791416168213
1788168384664400000,8.62239990234375,9.694426536560059,1.4430588483810425,0.32566380500793457
1788168384680558000,8.63855810546875,9.69147777557373,1.4637731313705444,0.3209472894668579
1788168384696716000,8.654716064453124,9.690043449401855,1.4766935110092163,0.30463773012161255
1788168384712925700,8.67092578125,9.691557884216309,1.4699538946151733,0.28866150975227356
1788168384729089500,8.687089599609376,9.694707870483398,1.4512951374053955,0.2770882248878479
1788168384745282600,8.703282470703124,9.697147369384766,1.434701681137085,0.2781144380569458
1788168384761383000,8.7193828125,9.695816993713379,1.4389957189559937,0.3013494908809662
1788168384777576200,8.735576171875,9.688776969909668,1.479671835899353,0.329473614692688
1788168384793741000,8.751740966796875,9.677041053771973,1.5505003929138184,0.3481787145137787
1788168384809911800,8.767911865234375,9.663590431213379,1.6294758319854736,0.3608539402484894
1788168384826120400,8.784120361328124,9.651111602783203,1.698979139328003,0.3740495443344116
1788168384842271200,8.800271240234375,9.642707824707031,1.744016170501709,0.3833755552768707
1788168384858484000,8.81648388671875,9.63856029510498,1.764994740486145,0.39158257842063904
1788168384874660600,8.83266064453125,9.637476921081543,1.7674399614334106,0.4069167971611023
1788168384890807800,8.848807861328124,9.639803886413574,1.7512341737747192,0.4216077923774719
1788168384906937600,8.8649375,9.644185066223145,1.7263085842132568,0.42420312762260437
1788168384923043300,8.881043212890624,9.647918701171875,1.707746982574463,0.41429802775382996
1788168384939174000,8.897173828125,9.649666786193848,1.702936053276062,0.39284709095954895
1788168384955310300,8.913310302734375,9.64966869354248,1.7082589864730835,0.36896464228630066
1788168384971470300,8.92947021484375,9.648959159851074,1.7160054445266724,0.3511400818824768
1788168384987591400,8.94559130859375,9.648117065429688,1.7230262756347656,0.3397071659564972
1788168385003701000,8.961700927734375,9.64710521697998,1.7302521467208862,0.3316178321838379
1788168385019846400,8.977846435546875,9.645474433898926,1.7398619651794434,0.3287617266178131
1788168385036001000,8.9940009765625,9.642650604248047,1.7543989419937134,0.334298312664032
1788168385052175400,9.01017529296875,9.639200210571289,1.7695754766464233,0.35328882932662964
1788168385068290300,9.026290283203124,9.636229515075684,1.7785588502883911,0.3875323235988617
1788168385084444700,9.042444580078126,9.635050773620605,1.7745754718780518,0.4325121343135834
1788168385100599000,9.05859912109375,9.635872840881348,1.7599413394927979,0.47216901183128357
1788168385116760600,9.074760498046874,9.637310981750488,1.749364972114563,0.4820179045200348
1788168385132938500,9.0909384765625,9.637479782104492,1.7517595291137695,0.4697967767715454
1788168385149057800,9.107057861328125,9.636234283447266,1.7599074840545654,0.4648612141609192
1788168385165164300,9.123164306640625,9.63482666015625,1.7651857137680054,0.47395333647727966
1788168385181329700,9.13932958984375,9.633856773376465,1.7633635997772217,0.4997463822364807
1788168385197474800,9.155474853515624,9.634658813476562,1.746293067932129,0.5423949360847473
1788168385213663500,9.17166357421875,9.637090682983398,1.7207731008529663,0.5794894099235535
1788168385229780000,9.187780029296874,9.640820503234863,1.6958353519439697,0.5908576250076294
1788168385245916000,9.203916015625,9.644840240478516,1.6780130863189697,0.575954258441925
1788168385262090000,9.220090087890625,9.647514343261719,1.6697773933410645,0.5547001361846924
1788168385278265000,9.23626513671875,9.65048599243164,1.654685378074646,0.5482034683227539
1788168385294441500,9.25244140625,9.658578872680664,1.6043051481246948,0.5553924441337585
1788168385310563800,9.268563720703124,9.669255256652832,1.5407953262329102,0.5494121313095093
1788168385326670000,9.284670166015625,9.67836856842041,1.49647855758667,0.5100156664848328
1788168385342883000,9.300883056640625,9.683481216430664,1.4831427335739136,0.4481782615184784
1788168385359020800,9.317020751953125,9.685650825500488,1.4859936237335205,0.3877735137939453
1788168385375176200,9.33317626953125,9.68639087677002,1.4925974607467651,0.3411259949207306
1788168385391353600,9.349353515625,9.688169479370117,1.4882241487503052,0.30814146995544434
1788168385407460000,9.365460205078126,9.692976951599121,1.4611613750457764,0.2856352925300598
1788168385423604200,9.381604248046875,9.69961166381836,1.4198358058929443,0.2683091461658478
1788168385439751400,9.39775146484375,9.705744743347168,1.3804590702056885,0.2514767050743103
1788168385455921700,9.413921630859376,9.715604782104492,1.310577630996704,0.24456429481506348
1788168385472064500,9.430064453125,9.721780776977539,1.2661582231521606,0.23282644152641296
1788168385488219600,9.4462197265625,9.72465991973877,1.2472909688949585,0.21365784108638763
1788168385504364000,9.462364013671875,9.72535228729248,1.2450720071792603,0.19420747458934784
1788168385520514000,9.47851416015625,9.725448608398438,1.2463608980178833,0.18063396215438843
1788168385536689400,9.494689453125,9.72549819946289,1.2472987174987793,0.17122706770896912
1788168385552841000,9.510841064453125,9.725680351257324,1.2467480897903442,0.16473379731178284
1788168385568943400,9.526943359375,9.726685523986816,1.238724708557129,0.1659487932920456
1788168385585097000,9.543096923828125,9.728631973266602,1.2220582962036133,0.17517200112342834
1788168385601304000,9.559303955078125,9.73107624053955,1.2009063959121704,0.18540146946907043
1788168385617484000,9.575484130859374,9.733710289001465,1.178483009338379,0.19092191755771637
1788168385633643300,9.591643310546875,9.736214637756348,1.157954216003418,0.1888055056333542
1788168385649743000,9.6077431640625,9.737260818481445,1.1508277654647827,0.1781652271747589
1788168385665897500,9.6238974609375,9.736763000488281,1.1566646099090576,0.16721059381961823
1788168385682016800,9.640016845703125,9.73627758026123,1.1610562801361084,0.1650247871875763
1788168385698156800,9.65615673828125,9.736434936523438,1.159972906112671,0.16333891451358795
1788168385714270700,9.672270751953125,9.734938621520996,1.1734967231750488,0.1557873636484146
1788168385730371300,9.688371337890626,9.7330322265625,1.1904354095458984,0.14607059955596924
1788168385746543600,9.704543701171875,9.731030464172363,1.2081308364868164,0.13362057507038116
1788168385762665700,9.720665771484375,9.730807304382324,1.2103990316390991,0.12928828597068787
1788168385778806300,9.73680615234375,9.732931137084961,1.1913793087005615,0.14512276649475098
1788168385794924800,9.7529248046875,9.735895156860352,1.1640280485153198,0.16661876440048218
1788168385811025700,9.769025634765624,9.740005493164062,1.129493236541748,0.16407562792301178
1788168385827198700,9.78519873046875,9.74462604522705,1.0932029485702515,0.13249047100543976
1788168385843329500,9.80132958984375,9.749767303466797,1.0502350330352783,0.09713844209909439
1788168385859478300,9.817478271484376,9.754884719848633,1.0036072731018066,0.07331249117851257
1788168385875642400,9.833642333984375,9.759478569030762,0.9589335918426514,0.05841934680938721
1788168385891745000,9.8497451171875,9.762316703796387,0.9307475090026855,0.03563271090388298
1788168385907870200,9.8658701171875,9.76303768157959,0.9238388538360596,0.002885053865611553
1788168385924009000,9.882009033203126,9.763227462768555,0.921642005443573,-0.018626850098371506
1788168385940167000,9.8981669921875,9.764290809631348,0.910366415977478,-0.015849165618419647
1788168385956280300,9.9142802734375,9.766304016113281,0.8886356353759766,0.005140869878232479
1788168385972385300,9.93038525390625,9.76861572265625,0.8625301718711853,0.023751718923449516
1788168385988526800,9.94652685546875,9.771822929382324,0.8251206278800964,0.03219221532344818
1788168386004678700,9.9626787109375,9.775430679321289,0.7815759181976318,0.021795397624373436
1788168386020840200,9.978840087890624,9.777841567993164,0.7509800791740417,0.015049685724079609
1788168386036953000,9.994953125,9.779056549072266,0.7350733280181885,0.01034611091017723
1788168386053051600,10.0110517578125,9.779608726501465,0.7277675271034241,0.00042615298298187554
1788168386069194800,10.02719482421875,9.778536796569824,0.7419079542160034,-0.01357219647616148
1788168386085352400,10.0433525390625,9.776670455932617,0.7657768726348877,-0.026198234409093857
1788168386101530600,10.059530517578125,9.773853302001953,0.8007382154464722,-0.03161196783185005
1788168386117647400,10.0756474609375,9.770370483398438,0.8423100709915161,-0.027418790385127068
1788168386133749200,10.091749267578125,9.767498016357422,0.875324010848999,-0.01295921579003334
1788168386149912300,10.107912353515625,9.765467643737793,0.897736668586731,0.010188070125877857
1788168386166078700,10.12407861328125,9.763458251953125,0.9189597368240356,0.028009047731757164
1788168386182264300,10.140264404296875,9.761242866516113,0.9420281052589417,0.03329630196094513
1788168386198380800,10.156380859375,9.75904655456543,0.9644758701324463,0.03452073037624359
1788168386214565400,10.1725654296875,9.757669448852539,0.9782552719116211,0.03599043935537338
1788168386230738200,10.18873828125,9.757010459899902,0.9847800135612488,0.03648059442639351
1788168386246867200,10.2048671875,9.755556106567383,0.9992830157279968,0.030617257580161095
1788168386263018500,10.2210185546875,9.752612113952637,1.0278993844985962,0.01904149539768696
1788168386279149600,10.237149658203125,9.748333930969238,1.067854404449463,0.007639189716428518
1788168386295306000,10.253305908203124,9.743699073791504,1.1093618869781494,0.0038343905471265316
1788168386311446300,10.2694462890625,9.740201950073242,1.1395392417907715,0.017468363046646118
1788168386327581000,10.285580810546875,9.738787651062012,1.1508197784423828,0.04489818587899208
1788168386343761700,10.30176171875,9.739856719970703,1.1401056051254272,0.07572916150093079
1788168386359890200,10.31789013671875,9.741143226623535,1.1264629364013672,0.10771051049232483
1788168386375993000,10.3339931640625,9.740860939025879,1.1253718137741089,0.13982564210891724
1788168386392160800,10.350160888671875,9.739188194274902,1.135326623916626,0.17212259769439697
1788168386408304000,10.36630419921875,9.737957954406738,1.1389319896697998,0.2130681723356247
1788168386424468200,10.38246826171875,9.739572525024414,1.1145161390304565,0.26259613037109375
1788168386440612400,10.3986123046875,9.74419116973877,1.0617069005966187,0.30644509196281433
1788168386456717600,10.414717529296874,9.748713493347168,1.0134392976760864,0.32543084025382996
1788168386472896300,10.430896240234375,9.749417304992676,1.0126065015792847,0.3063981235027313
1788168386489095000,10.447094970703125,9.744651794433594,1.066078543663025,0.27500930428504944
1788168386505246700,10.463246826171876,9.736416816711426,1.140198826789856,0.26927536725997925
1788168386521433600,10.47943359375,9.728256225585938,1.2054463624954224,0.2798393964767456
1788168386537586200,10.495586181640626,9.724183082580566,1.2361148595809937,0.28750112652778625
1788168386553776400,10.5117763671875,9.724164009094238,1.2375997304916382,0.28174301981925964
1788168386569939000,10.52793896484375,9.72803020477295,1.210370421409607,0.266121506690979
1788168386586117600,10.54411767578125,9.734122276306152,1.1641955375671387,0.24881620705127716
1788168386602272800,10.560272705078125,9.740211486816406,1.1142693758010864,0.23890261352062225
1788168386618375400,10.57637548828125,9.744030952453613,1.0805896520614624,0.23785588145256042
1788168386634540000,10.5925400390625,9.745260238647461,1.069979190826416,0.23544983565807343
1788168386650659600,10.60865966796875,9.744330406188965,1.0800124406814575,0.2280101627111435
1788168386666801400,10.624801513671875,9.742445945739746,1.0982221364974976,0.2214650809764862
1788168386682954200,10.640954345703125,9.74089527130127,1.1123106479644775,0.21936266124248505
1788168386699058700,10.65705859375,9.741004943847656,1.1094223260879517,0.2289121448993683
1788168386715264000,10.673263916015625,9.743345260620117,1.0838948488235474,0.25054967403411865
1788168386731442700,10.689442626953126,9.747394561767578,1.0409702062606812,0.2739907205104828
1788168386747573500,10.705573486328126,9.751307487487793,0.9985014796257019,0.29220888018608093
1788168386763743700,10.72174365234375,9.753954887390137,0.9697412848472595,0.30059313774108887
1788168386779851300,10.737851318359375,9.754838943481445,0.9623786211013794,0.29550793766975403
1788168386795982600,10.753982666015625,9.754722595214844,0.9659814834594727,0.2874784767627716
1788168386812172800,10.7701728515625,9.75448989868164,0.9688700437545776,0.28565865755081177
1788168386828331300,10.786331298828125,9.753684043884277,0.977277934551239,0.2845419645309448
1788168386844472600,10.80247265625,9.751496315002441,0.9990598559379578,0.2838800847530365
1788168386860575000,10.818574951171875,9.748003959655762,1.03368079662323,0.2798424959182739
1788168386876713500,10.83471337890625,9.743868827819824,1.074121117591858,0.2714039385318756
1788168386892861700,10.85086181640625,9.741524696350098,1.0958954095840454,0.26849719882011414
1788168386909032700,10.86703271484375,9.741762161254883,1.0943448543548584,0.26621830463409424
1788168386925150000,10.88314990234375,9.742863655090332,1.0870782136917114,0.2554410398006439
1788168386941255700,10.899255615234376,9.74280071258545,1.0920590162277222,0.23587971925735474
1788168386957440000,10.91543994140625,9.740978240966797,1.1158382892608643,0.19656971096992493
1788168386973599700,10.931599853515625,9.736985206604004,1.1541210412979126,0.1717524379491806
1788168386989767400,10.947767333984375,9.731565475463867,1.1964397430419922,0.18855072557926178
1788168387005906400,10.963906494140625,9.726194381713867,1.2334052324295044,0.22414708137512207
1788168387022009000,10.980009033203125,9.723105430603027,1.254852056503296,0.23865579068660736
1788168387038158000,10.996157958984375,9.722527503967285,1.2620184421539307,0.2239357829093933
1788168387054272300,11.012272216796875,9.72234058380127,1.26663339138031,0.20525303483009338
1788168387070454000,11.0284541015625,9.721381187438965,1.273246169090271,0.20971384644508362
1788168387086566700,11.044566650390625,9.720589637756348,1.275163173675537,0.2334090918302536
1788168387102679300,11.06067919921875,9.722262382507324,1.2582718133926392,0.25447046756744385
1788168387118841900,11.076841796875,9.726298332214355,1.2269189357757568,0.253327339887619
1788168387134961400,11.09296142578125,9.730644226074219,1.1964844465255737,0.23104247450828552
1788168387151100400,11.109100341796875,9.734044075012207,1.1744680404663086,0.19852116703987122
1788168387167217200,11.125217041015626,9.736839294433594,1.1546097993850708,0.17669165134429932
1788168387183372000,11.1413720703125,9.73859977722168,1.1406002044677734,0.17055125534534454
1788168387199547000,11.157546875,9.741912841796875,1.1121958494186401,0.16892744600772858
1788168387215677400,11.173677490234375,9.743223190307617,1.1003694534301758,0.17079415917396545
1788168387231831600,11.18983154296875,9.741908073425293,1.1113004684448242,0.1750095784664154
1788168387247956000,11.2059560546875,9.73969554901123,1.1298606395721436,0.17925594747066498
1788168387264059400,11.222059326171875,9.737381935119629,1.1478488445281982,0.19032782316207886
1788168387280193800,11.23819384765625,9.735132217407227,1.163841724395752,0.20749346911907196
1788168387296332500,11.25433251953125,9.733000755310059,1.1776137351989746,0.22870686650276184
1788168387312494300,11.270494384765625,9.731284141540527,1.1882309913635254,0.24618001282215118
1788168387328629200,11.286629150390626,9.731091499328613,1.1886253356933594,0.2517932951450348
1788168387344733200,11.302733154296876,9.733268737792969,1.1727546453475952,0.2418958693742752
1788168387360869000,11.318869140625,9.736854553222656,1.1466970443725586,0.2216511368751526
1788168387377016000,11.33501611328125,9.740553855895996,1.1202971935272217,0.19218085706233978
1788168387393183000,11.351182861328125,9.742287635803223,1.1097747087478638,0.1631614714860916
1788168387409327900,11.367327880859374,9.741992950439453,1.1150704622268677,0.14343976974487305
1788168387425429200,11.38342919921875,9.740582466125488,1.1277965307235718,0.1396554708480835
1788168387441588000,11.399587890625,9.738985061645508,1.1397849321365356,0.1531648337841034
1788168387457797400,11.41579736328125,9.738763809204102,1.1395161151885986,0.16842585802078247
1788168387473971200,11.43197119140625,9.740163803100586,1.1251192092895508,0.1835738569498062
1788168387490125600,11.44812548828125,9.7423095703125,1.1034830808639526,0.20030732452869415
1788168387506232000,11.464232177734376,9.74276065826416,1.0967472791671753,0.21481406688690186
1788168387522381300,11.48038134765625,9.74277400970459,1.0939414501190186,0.22812867164611816
1788168387538541800,11.496541748046875,9.746142387390137,1.0577841997146606,0.2533195912837982
1788168387554720300,11.51272021484375,9.753019332885742,0.977604329586029,0.30542463064193726
1788168387570916400,11.528916259765625,9.762676239013672,0.8603716492652893,0.34683915972709656
1788168387587018500,11.5450185546875,9.771039009094238,0.7646884918212891,0.3353098928928375
1788168387603216600,11.561216552734376,9.774682998657227,0.7424474358558655,0.2733653783798218
1788168387619332900,11.577332763671874,9.772696495056152,0.787092924118042,0.21277879178524017
1788168387635502300,11.59350244140625,9.768205642700195,0.8469744324684143,0.18757329881191254
1788168387651650800,11.60965087890625,9.765501976013184,0.8792768120765686,0.1795186996459961
1788168387667751000,11.6257509765625,9.766165733337402,0.8741254210472107,0.16822916269302368
1788168387683965200,11.641965087890625,9.769503593444824,0.8401585817337036,0.14604367315769196
1788168387700086000,11.6580859375,9.774245262145996,0.7879586219787598,0.116769939661026
1788168387716236800,11.67423681640625,9.77880573272705,0.7332478165626526,0.0876719281077385
1788168387732365800,11.69036572265625,9.78225326538086,0.6883536577224731,0.06384202837944031
1788168387748468500,11.706468505859375,9.784423828125,0.6580324172973633,0.04935469105839729
1788168387764596500,11.722596435546874,9.78508186340332,0.6492733955383301,0.03164375200867653
1788168387780775700,11.738775634765625,9.784684181213379,0.655939519405365,0.009560074657201767
1788168387796929800,11.7549296875,9.783884048461914,0.6677606105804443,-0.009646766819059849
1788168387813064200,11.771064208984376,9.78310775756836,0.6788422465324402,-0.01900547370314598
1788168387829167600,11.787167724609375,9.782785415649414,0.6834965348243713,-0.018195947632193565
1788168387845301500,11.803301513671874,9.7835111618042,0.6732091903686523,-0.009719356894493103
1788168387861449000,11.819448974609376,9.785271644592285,0.6471908092498779,-0.0006317950901575387
1788168387877611300,11.835611328125,9.787232398986816,0.6167648434638977,0.008209244348108768
1788168387893728000,11.85172802734375,9.788511276245117,0.5959024429321289,0.018074074760079384
1788168387909833500,11.86783349609375,9.789022445678711,0.5872532725334167,0.023694124072790146
1788168387925982500,11.883982421875,9.789178848266602,0.5845897793769836,0.024959633126854897
1788168387942141000,11.900140869140625,9.789384841918945,0.5813528299331665,0.019075142219662666
1788168387958314800,11.916314697265625,9.78976821899414,0.5751680135726929,0.004388079047203064
1788168387974439200,11.932439208984375,9.790611267089844,0.5605175495147705,-0.012126673944294453
1788168387990540300,11.948540283203124,9.791462898254395,0.5450642108917236,-0.023248080164194107
1788168388006734600,11.964734619140625,9.790526390075684,0.5617965459823608,-0.018795302137732506
1788168388022854400,11.9808544921875,9.787347793579102,0.614942193031311,0.0064847772009670734
1788168388039019800,11.997019775390624,9.78329086303711,0.6752196550369263,0.0411265604197979
1788168388055136000,12.013135986328125,9.780292510986328,0.7164192795753479,0.054792389273643494
1788168388071239700,12.02923974609375,9.779999732971191,0.7219557166099548,0.02774009481072426
1788168388087403500,12.045403564453125,9.781518936157227,0.7015123963356018,-0.012470811605453491
1788168388103523300,12.0615234375,9.783036231994629,0.6791138648986816,-0.037254538387060165
1788168388119661300,12.077661376953126,9.783781051635742,0.6682211756706238,-0.03859744220972061
1788168388135779300,12.093779296875,9.783723831176758,0.6701335906982422,-0.008023696020245552
1788168388151886000,12.109885986328125,9.782787322998047,0.6825070381164551,0.04063691198825836
1788168388168012300,12.12601220703125,9.781381607055664,0.6995107531547546,0.07509806007146835
1788168388184144100,12.14214404296875,9.78006649017334,0.7162808775901794,0.08732081204652786
1788168388200292600,12.158292724609375,9.779255867004395,0.7258855104446411,0.09813041239976883
1788168388216418600,12.17441845703125,9.779854774475098,0.7162207961082458,0.10886895656585693
1788168388232522200,12.190522216796875,9.781195640563965,0.6934807300567627,0.13294687867164612
1788168388248651300,12.2066513671875,9.782737731933594,0.6605762243270874,0.17909744381904602
1788168388264789200,12.222789306640625,9.784741401672363,0.6156505942344666,0.22406263649463654
1788168388280944400,12.2389443359375,9.787668228149414,0.5624714493751526,0.23570646345615387
1788168388297125600,12.255125732421876,9.789750099182129,0.5268589854240417,0.2314954251050949
1788168388313231400,12.2712314453125,9.791192054748535,0.5056352615356445,0.2174272984266281
1788168388329366300,12.2873662109375,9.791695594787598,0.5023655295372009,0.201817125082016
1788168388345512200,12.30351220703125,9.791325569152832,0.5177845358848572,0.1795373409986496
1788168388361686300,12.319686279296874,9.790238380432129,0.546499490737915,0.15151067078113556
1788168388377834800,12.335834716796874,9.788220405578613,0.5870081186294556,0.12869808077812195
1788168388393989000,12.351989013671876,9.7854642868042,0.6331575512886047,0.11906816810369492
1788168388410137900,12.368137939453124,9.782485961914062,0.6773843169212341,0.12047005444765091
1788168388426288600,12.38428857421875,9.780268669128418,0.7084667086601257,0.12172000110149384
1788168388442472200,12.40047216796875,9.779394149780273,0.7218257188796997,0.11310754716396332
1788168388458630100,12.416630126953125,9.779691696166992,0.7203576564788818,0.09541855752468109
1788168388474733000,12.432733154296875,9.780492782592773,0.7118306756019592,0.07510960102081299
1788168388490893600,12.4488935546875,9.780990600585938,0.7064440846443176,0.05952763557434082
1788168388507006700,12.4650068359375,9.780948638916016,0.7080128788948059,0.04628503695130348
1788168388523139000,12.48113916015625,9.78050422668457,0.7151076197624207,0.027343422174453735
1788168388539303400,12.497303466796875,9.780224800109863,0.7194074988365173,0.006452500820159912
1788168388555408100,12.513408203125,9.780799865722656,0.7115564346313477,0.005694595165550709
1788168388571569200,12.529569091796875,9.782450675964355,0.6882789731025696,0.017782362177968025
1788168388587680800,12.5456806640625,9.784619331359863,0.6560404300689697,0.035051293671131134
1788168388603823900,12.561823974609375,9.78630542755127,0.6284195780754089,0.06085992604494095
1788168388619979300,12.577979248046875,9.787165641784668,0.6093671321868896,0.1021813154220581
1788168388636131800,12.5941318359375,9.787351608276367,0.5964395999908447,0.14966291189193726
1788168388652304000,12.610303955078125,9.788037300109863,0.5706614851951599,0.19764108955860138
1788168388668426500,12.626426513671875,9.790183067321777,0.5147166848182678,0.2403459995985031
1788168388684569600,12.642569580078124,9.793524742126465,0.4301127791404724,0.26882266998291016
1788168388700727600,12.6587275390625,9.797033309936523,0.3418789207935333,0.267660915851593
1788168388716830500,12.67483056640625,9.799398422241211,0.29131782054901123,0.23937685787677765
1788168388732994800,12.690994873046876,9.80013656616211,0.2914128303527832,0.2068348228931427
1788168388749181000,12.707180908203124,9.79926586151123,0.3272683620452881,0.19409926235675812
1788168388765320400,12.723320556640624,9.797894477844238,0.3648048937320709,0.19639912247657776
1788168388781494800,12.739494873046874,9.797253608703613,0.384114533662796,0.19145813584327698
1788168388797598700,12.7555986328125,9.797659873962402,0.3810579776763916,0.17618684470653534
1788168388813736200,12.771736083984376,9.798650741577148,0.3637481927871704,0.1565384715795517
1788168388829889500,12.7878896484375,9.799541473388672,0.3473762571811676,0.1367766410112381
1788168388846056400,12.804056396484375,9.800088882446289,0.33806225657463074,0.11982811987400055
1788168388862169900,12.820169921875,9.80049991607666,0.3305838108062744,0.10634113848209381
1788168388878271500,12.836271484375,9.800395011901855,0.33759984374046326,0.09312352538108826
1788168388894417000,12.8524169921875,9.799886703491211,0.3564353883266449,0.07453294098377228
1788168388910574800,12.868574951171874,9.799028396606445,0.3827599287033081,0.05408719927072525
1788168388926751700,12.884751708984375,9.797941207885742,0.41160812973976135,0.0363486222922802
1788168388942899700,12.900899658203125,9.797027587890625,0.4336654245853424,0.024066776037216187
1788168388959001000,12.9170009765625,9.796720504760742,0.44078364968299866,0.019338084384799004
1788168388975159800,12.933159912109375,9.79703140258789,0.4337574541568756,0.020303094759583473
1788168388991273000,12.94927294921875,9.797782897949219,0.4164939820766449,0.01904129423201084
1788168389007409700,12.96540966796875,9.798700332641602,0.3945868909358978,0.012235559523105621
1788168389023570200,12.981570068359375,9.799413681030273,0.37663134932518005,0.005572667345404625
1788168389039671600,12.997671630859376,9.7996187210083,0.3711564540863037,-0.010154204443097115
1788168389055831800,13.013831787109375,9.79935073852539,0.3772906959056854,-0.027817396447062492
1788168389071952000,13.029951904296874,9.798439025878906,0.39962539076805115,-0.035766784101724625
1788168389088088600,13.046088623046876,9.79684066772461,0.4364820718765259,-0.04226034879684448
1788168389104210400,13.06221044921875,9.794299125671387,0.49007555842399597,-0.04373862221837044
1788168389120314000,13.078314208984375,9.791522026062012,0.5431854724884033,-0.03808189556002617
1788168389136488400,13.094488525390625,9.788992881774902,0.5876954793930054,-0.024944014847278595
1788168389152617500,13.110617431640625,9.787078857421875,0.6192353367805481,0.0043213702738285065
1788168389168766700,13.1267666015625,9.785577774047852,0.6412713527679443,0.04035206884145737
1788168389184897800,13.142897705078125,9.783889770507812,0.6655281782150269,0.054462481290102005
1788168389201000400,13.15900048828125,9.781679153442383,0.6984163522720337,0.03689589723944664
1788168389217129500,13.17512939453125,9.779979705810547,0.7227630615234375,-0.00012311492173466831
1788168389233262600,13.1912626953125,9.779844284057617,0.724269688129425,-0.02178509533405304
1788168389249416400,13.20741650390625,9.780733108520508,0.7120197415351868,-0.026049219071865082
1788168389265585200,13.223585205078125,9.780383110046387,0.7168059349060059,-0.02614002116024494
1788168389281687300,13.239687255859375,9.778257369995117,0.74538654088974,-0.021392332389950752
1788168389297821700,13.25582177734375,9.775260925292969,0.7839856147766113,-0.005708586890250444
1788168389313965300,13.27196533203125,9.772603988647461,0.8162047266960144,0.020400216802954674
1788168389330118400,13.288118408203125,9.771488189697266,0.8280982971191406,0.05153214558959007
1788168389346256100,13.304256103515625,9.77316951751709,0.8054289221763611,0.08259407430887222
1788168389362403800,13.32040380859375,9.774436950683594,0.7864410877227783,0.11082527786493301
1788168389378551000,13.336551025390625,9.776531219482422,0.7567015886306763,0.13123507797718048
1788168389394703400,13.352703369140626,9.779294967651367,0.718989908695221,0.13725830614566803
1788168389410876700,13.368876708984375,9.782031059265137,0.6835066676139832,0.12282226234674454
1788168389427030000,13.385030029296875,9.784163475036621,0.6575130224227905,0.09062807261943817
1788168389443133200,13.40113330078125,9.78509521484375,0.6475013494491577,0.055150847882032394
1788168389459292200,13.417292236328125,9.78461742401123,0.6564045548439026,0.027702977880835533
1788168389475404000,13.433404052734375,9.782785415649414,0.6836503744125366,0.010655651800334454
1788168389491573200,13.4495732421875,9.780851364135742,0.7108656764030457,0.0018397095846012235
1788168389507769000,13.46576904296875,9.779424667358398,0.7301820516586304,-0.008762933313846588
1788168389523874600,13.48187451171875,9.778475761413574,0.7424130439758301,-0.02465166337788105
1788168389540040000,13.4980400390625,9.777597427368164,0.7533860206604004,-0.03741331025958061
1788168389556160300,13.51416015625,9.777308464050293,0.7569411993026733,-0.04084153100848198
1788168389572305000,13.530304931640625,9.777812957763672,0.7504372000694275,-0.03998645022511482
1788168389588423200,13.546423095703124,9.778902053833008,0.7358753681182861,-0.04398646205663681
1788168389604528600,13.562528564453125,9.779870986938477,0.7218533754348755,-0.0586417019367218
1788168389620702200,13.5787021484375,9.78032112121582,0.7135688662528992,-0.08073151856660843
1788168389636829200,13.5948291015625,9.779672622680664,0.7196182012557983,-0.10261888056993484
1788168389652983600,13.610983642578125,9.7778902053833,0.7410335540771484,-0.11877494305372238
1788168389669120300,13.627120361328124,9.776025772094727,0.7653710842132568,-0.11798066645860672
1788168389685223700,13.6432236328125,9.775717735290527,0.7723145484924316,-0.09628065675497055
1788168389701361000,13.65936083984375,9.776400566101074,0.7668531537055969,-0.06569432467222214
1788168389717501700,13.675501708984376,9.777384757995605,0.755998432636261,-0.04012636840343475
1788168389733664000,13.6916640625,9.778674125671387,0.7399613261222839,-0.019662439823150635
1788168389749781500,13.707781494140624,9.779780387878418,0.725419819355011,0.006764964200556278
1788168389765933800,13.723933837890625,9.779603004455566,0.7266294956207275,0.04211447387933731
1788168389782075000,13.740074951171875,9.778637886047363,0.7332086563110352,0.10505528002977371
1788168389798228000,13.75622802734375,9.779356956481934,0.7036906480789185,0.19846276938915253
1788168389814363400,13.77236328125,9.782486915588379,0.6325792670249939,0.2705104649066925
1788168389830514200,13.78851416015625,9.787501335144043,0.5487400889396667,0.2722090780735016
1788168389846670300,13.80467041015625,9.790962219238281,0.5088251233100891,0.22033105790615082
1788168389862853400,13.820853271484374,9.791238784790039,0.523116409778595,0.16846993565559387
1788168389879007700,13.8370078125,9.78786849975586,0.5806777477264404,0.17559799551963806
1788168389895162400,13.853162353515625,9.782793045043945,0.6445631980895996,0.22778327763080597
1788168389911311600,13.8693115234375,9.779007911682129,0.6831989884376526,0.2731788158416748
1788168389927465200,13.88546533203125,9.778696060180664,0.6869468092918396,0.27494722604751587
1788168389943621000,13.90162109375,9.780299186706543,0.6754483580589294,0.2447618991136551
1788168389959739000,13.91773876953125,9.781164169311523,0.671260416507721,0.22049693763256073
1788168389975924200,13.93392431640625,9.78074836730957,0.6780781149864197,0.21806776523590088
1788168389992044500,13.95004443359375,9.779839515686035,0.6875482797622681,0.22891147434711456
1788168390008150500,13.966150634765626,9.779544830322266,0.6916562914848328,0.22915658354759216
1788168390024351200,13.982351318359376,9.779919624328613,0.6902679204940796,0.21697480976581573
1788168390040532700,13.99853271484375,9.780865669250488,0.6821814775466919,0.19920679926872253
1788168390056674000,14.014674072265626,9.781336784362793,0.6776751279830933,0.1912938356399536
1788168390072792300,14.030792236328125,9.780265808105469,0.6844432950019836,0.21984407305717468
1788168390088940500,14.0469404296875,9.778468132019043,0.6902718544006348,0.2747063934803009
1788168390105063200,14.063063232421875,9.777752876281738,0.6816835403442383,0.318206787109375
1788168390121189400,14.079189453125,9.779162406921387,0.6571230292320251,0.3264220654964447
1788168390137342700,14.0953427734375,9.782090187072754,0.6238213777542114,0.30322447419166565
1788168390153474300,14.111474365234375,9.784783363342285,0.5948935747146606,0.27295416593551636
1788168390169578200,14.127578125,9.786436080932617,0.5770129561424255,0.2512325346469879
1788168390185712000,14.143712158203124,9.786890029907227,0.5753649473190308,0.23688079416751862
1788168390201874000,14.1598740234375,9.786646842956543,0.5862828493118286,0.2195410132408142
1788168390218034200,14.1760341796875,9.785869598388672,0.6050897836685181,0.20254355669021606
1788168390234170600,14.192170654296875,9.784505844116211,0.6278635859489441,0.19907543063163757
1788168390250274300,14.2082744140625,9.782848358154297,0.6503674387931824,0.20806698501110077
1788168390266424000,14.224424072265625,9.781911849975586,0.6628324389457703,0.21268263459205627
1788168390282626300,14.240626220703126,9.781902313232422,0.6665859818458557,0.2010779082775116
1788168390298776600,14.256776611328124,9.781875610351562,0.6730011105537415,0.1799231320619583
1788168390314957800,14.272957763671876,9.781966209411621,0.6789851784706116,0.15000441670417786
1788168390331141600,14.2891416015625,9.782660484313965,0.6758225560188293,0.11491545289754868
1788168390347324700,14.30532470703125,9.784663200378418,0.6497106552124023,0.09287390112876892
1788168390363482600,14.321482666015624,9.787577629089355,0.6048714518547058,0.08859121799468994
1788168390379644700,14.337644775390626,9.789446830749512,0.5748684406280518,0.08145532011985779
1788168390395833300,14.353833251953125,9.788163185119629,0.5986942648887634,0.06176445633172989
1788168390411935700,14.369935791015624,9.782722473144531,0.6838049292564392,0.033658307045698166
1788168390428128000,14.3861279296875,9.774693489074707,0.7908957600593567,0.015559133142232895
1788168390444289000,14.4022890625,9.764117240905762,0.911979079246521,0.026590704917907715
1788168390460454100,14.4184541015625,9.754173278808594,1.0112340450286865,0.062459707260131836
1788168390476648000,14.43464794921875,9.74538516998291,1.089552879333496,0.10360391438007355
1788168390492832500,14.45083251953125,9.738685607910156,1.144354224205017,0.1372368335723877
1788168390509033200,14.467033203125,9.735847473144531,1.1649761199951172,0.16276556253433228
1788168390525205800,14.483205810546876,9.736207962036133,1.1582292318344116,0.18746691942214966
1788168390541384000,14.499384033203125,9.739296913146973,1.1282278299331665,0.20877310633659363
1788168390557506800,14.5155068359375,9.7441987991333,1.082794427871704,0.22031766176223755
1788168390573610000,14.53160986328125,9.749019622802734,1.0399291515350342,0.21339558064937592
1788168390589734000,14.54773388671875,9.751688957214355,1.0190140008926392,0.19120828807353973
1788168390605906000,14.563906005859375,9.751808166503906,1.0214495658874512,0.1710948646068573
1788168390622052000,14.580052001953124,9.75059700012207,1.0349481105804443,0.15851911902427673
1788168390638179300,14.596179443359375,9.748200416564941,1.0586637258529663,0.14904753863811493
1788168390654280400,14.612280517578125,9.746722221374512,1.0739666223526,0.13557346165180206
1788168390670410800,14.62841064453125,9.746489524841309,1.077867031097412,0.12050342559814453
1788168390686550300,14.64455029296875,9.746317863464355,1.0804909467697144,0.11050346493721008
1788168390702712300,14.66071240234375,9.745476722717285,1.088590145111084,0.10514054447412491
1788168390718826000,14.676825927734376,9.74528694152832,1.0907858610153198,0.0997173935174942
1788168390734929400,14.692929443359375,9.746423721313477,1.0817328691482544,0.08648563921451569
1788168390751078000,14.709077880859375,9.748367309570312,1.0657776594161987,0.06193612143397331
1788168390767285200,14.72528515625,9.75023078918457,1.0499944686889648,0.03002352826297283
1788168390783462400,14.74146240234375,9.751351356506348,1.0399539470672607,-0.005289959721267223
1788168390799587000,14.757587158203124,9.751104354858398,1.0417729616165161,-0.032497189939022064
1788168390815741400,14.773741455078126,9.749751091003418,1.0540064573287964,-0.04260580241680145
1788168390831901700,14.789901611328125,9.748152732849121,1.0685995817184448,-0.044721148908138275
1788168390848062000,14.80606201171875,9.7472562789917,1.076721429824829,-0.04525412246584892
1788168390864242200,14.8222421875,9.747472763061523,1.0747325420379639,-0.045967862010002136
1788168390880356900,14.83835693359375,9.74859619140625,1.0646438598632812,-0.04238291457295418
1788168390896458800,14.854458740234374,9.749605178833008,1.055721640586853,-0.0320904366672039
1788168390912621300,14.870621337890626,9.749917984008789,1.0531110763549805,-0.021081767976284027
1788168390928793600,14.886793701171875,9.749324798583984,1.0587736368179321,-0.007749664597213268
1788168390944932400,14.902932373046875,9.749795913696289,1.0543187856674194,0.016406506299972534
1788168390961115100,14.919115234375,9.75403118133545,1.013393521308899,0.0479176789522171
1788168390977268700,14.935268798828124,9.763338088989258,0.9175112843513489,0.07610168308019638
1788168390993476600,14.9514765625,9.774690628051758,0.7851267457008362,0.0968906432390213
1788168391009606400,14.9676064453125,9.784489631652832,0.6501731872558594,0.10684674978256226
1788168391025782800,14.98378271484375,9.79015064239502,0.5596938133239746,0.10033703595399857
1788168391041941800,14.999941650390625,9.790730476379395,0.5525689125061035,0.08151765912771225
1788168391058047200,15.016047119140625,9.788455963134766,0.5914307832717896,0.08191900700330734
1788168391074217500,15.032217529296876,9.78665542602539,0.6185992360115051,0.09540098905563354
1788168391090410800,15.04841064453125,9.7858247756958,0.6313757300376892,0.09688222408294678
1788168391106559500,15.0645595703125,9.7857084274292,0.6347504258155823,0.08594293147325516
1788168391122700300,15.0807001953125,9.786151885986328,0.6295053958892822,0.07312056422233582
1788168391138805500,15.096805419921875,9.787369728088379,0.6096728444099426,0.07798468321561813
1788168391154944000,15.112944091796875,9.78793716430664,0.6006437540054321,0.07683812826871872
1788168391171089200,15.129089111328126,9.788217544555664,0.5952587723731995,0.0826970785856247
1788168391187251500,15.14525146484375,9.787712097167969,0.6037544012069702,0.08091039955615997
1788168391203390000,15.161389892578125,9.786568641662598,0.6229156255722046,0.0736447349190712
1788168391219541200,15.177541259765626,9.785304069519043,0.6430428624153137,0.06865449249744415
1788168391235724000,15.19372412109375,9.784003257751465,0.662266731262207,0.07115805149078369
1788168391251880200,15.209880126953125,9.78273868560791,0.6797042489051819,0.07999169081449509
1788168391268041000,15.226041015625,9.782001495361328,0.6883415579795837,0.09502274543046951
1788168391284232000,15.24223193359375,9.782341957092285,0.681484580039978,0.10837302356958389
1788168391300335400,15.25833544921875,9.783671379089355,0.6618208289146423,0.11024444550275803
1788168391316490800,15.27449072265625,9.785593032836914,0.6342135667800903,0.10161007195711136
1788168391332653300,15.2906533203125,9.78767204284668,0.6029619574546814,0.0911029651761055
1788168391348788000,15.3067880859375,9.789392471313477,0.5757055878639221,0.08214790374040604
1788168391364941800,15.32294189453125,9.789901733398438,0.5685178637504578,0.07068818807601929
1788168391381042400,15.33904248046875,9.788897514343262,0.587324857711792,0.05406084284186363
1788168391397206800,15.355206787109376,9.786842346191406,0.6225098967552185,0.024060949683189392
1788168391413355300,15.371355224609376,9.785207748413086,0.6478450298309326,-0.019400902092456818
1788168391429490200,15.387490234375,9.7835693359375,0.6706207990646362,-0.04922373965382576
1788168391445649400,15.4036494140625,9.782082557678223,0.6905955076217651,-0.06579729169607162
1788168391461786600,15.41978662109375,9.781658172607422,0.6957006454467773,-0.0745137557387352
1788168391477994800,15.435994873046875,9.781502723693848,0.6966634392738342,-0.08521667867898941
1788168391494113300,15.45211328125,9.77944564819336,0.7229165434837341,-0.10105017572641373
1788168391510291200,15.468291259765625,9.775096893310547,0.7768251299858093,-0.12004019320011139
1788168391526450200,15.4844501953125,9.771800994873047,0.8153511881828308,-0.13224957883358002
1788168391542551600,15.500551513671875,9.772265434265137,0.8094280958175659,-0.1343049705028534
1788168391558766300,15.516766357421876,9.77456283569336,0.7822659611701965,-0.1279068887233734
1788168391574942700,15.532942626953124,9.776348114013672,0.7609689831733704,-0.11971259117126465
1788168391591077600,15.54907763671875,9.775895118713379,0.7670649290084839,-0.11772475391626358
1788168391607208700,15.565208740234375,9.773802757263184,0.7939337491989136,-0.11331198364496231
1788168391623314200,15.581314208984375,9.77230167388916,0.8153307437896729,-0.08794340491294861
1788168391639492000,15.5974921875,9.772464752197266,0.8168566226959229,-0.04551306739449501
1788168391655637500,15.613637451171876,9.773615837097168,0.8042507171630859,-0.0024004122242331505
1788168391671800800,15.62980078125,9.775590896606445,0.7793824076652527,0.027887467294931412
1788168391687915500,15.64591552734375,9.77843189239502,0.7419320344924927,0.04688413441181183
1788168391704017400,15.662017333984375,9.781786918640137,0.6956985592842102,0.05504267290234566
1788168391720171800,15.678171875,9.785022735595703,0.648868203163147,0.05194370448589325
1788168391736327200,15.6943271484375,9.787601470947266,0.6097562313079834,0.03809904679656029
1788168391752500700,15.710500732421876,9.788569450378418,0.5949881076812744,0.016676191240549088
1788168391768615200,15.726615234375,9.787591934204102,0.6109877228736877,-0.01080802921205759
1788168391784718800,15.74271875,9.785297393798828,0.6457774639129639,-0.03613686189055443
1788168391800875800,15.758875732421876,9.782002449035645,0.6928055882453918,-0.05341295525431633
1788168391816993300,15.7749931640625,9.7787504196167,0.7364122271537781,-0.0642014741897583
1788168391833173200,15.79117333984375,9.776267051696777,0.7679070830345154,-0.07286511361598969
1788168391849290800,15.807290771484375,9.774800300598145,0.7861103415489197,-0.07556483894586563
1788168391865441500,15.823441650390626,9.773554801940918,0.8018009066581726,-0.07170502096414566
1788168391881604600,15.8396044921875,9.772100448608398,0.819842517375946,-0.06559187173843384
1788168391897778000,15.85577783203125,9.770732879638672,0.8363604545593262,-0.060674943029880524
1788168391913922800,15.8719228515625,9.770176887512207,0.8431402444839478,-0.05613759160041809
1788168391930038500,15.88803857421875,9.770535469055176,0.8389931321144104,-0.055775005370378494
1788168391946143700,15.904143798828125,9.770692825317383,0.8362749218940735,-0.06768270581960678
1788168391962270700,15.920270751953124,9.769441604614258,0.8494659662246704,-0.08247242122888565
1788168391978454500,15.93645458984375,9.767401695251465,0.8727592825889587,-0.08087452501058578
1788168391994604800,15.952604736328125,9.765424728393555,0.8961871266365051,-0.06096472218632698
1788168392010746400,15.968746337890625,9.76414680480957,0.9112926721572876,-0.036832697689533234
1788168392026900000,15.98489990234375,9.764676094055176,0.9061586260795593,-0.01932038553059101
1788168392043039500,16.00103955078125,9.767131805419922,0.8794704675674438,-0.006841427180916071
1788168392059180800,16.017180908203127,9.768156051635742,0.8680506944656372,0.0018151596887037158
1788168392075325200,16.0333251953125,9.766260147094727,0.8889333009719849,0.018529856577515602
1788168392091458800,16.049458740234375,9.763258934020996,0.9199538826942444,0.05338946357369423
1788168392107583700,16.065583740234374,9.764496803283691,0.9028455018997192,0.09930676221847534
1788168392123763000,16.081762939453125,9.770770072937012,0.8271217346191406,0.1353355199098587
1788168392139904000,16.097904052734375,9.778029441833496,0.7366564273834229,0.1336756944656372
1788168392156052200,16.11405224609375,9.781801223754883,0.689136266708374,0.10883936285972595
1788168392172226800,16.130226806640625,9.78139591217041,0.6968436241149902,0.09538277983665466
1788168392188327000,16.146326904296874,9.778051376342773,0.740680456161499,0.10719474405050278
1788168392204522000,16.16252197265625,9.775033950805664,0.7770256996154785,0.12382110208272934
1788168392220678000,16.178677978515626,9.774313926696777,0.7854418158531189,0.1275320053100586
1788168392236836000,16.194836181640625,9.775636672973633,0.7696556448936462,0.12222805619239807
1788168392252992300,16.2109921875,9.778008460998535,0.7405698299407959,0.1117805689573288
1788168392269096200,16.22709619140625,9.780051231384277,0.7146802544593811,0.10110823810100555
1788168392285247700,16.243247802734373,9.781092643737793,0.7011087536811829,0.09522351622581482
1788168392301459500,16.25945947265625,9.781431198120117,0.6962924003601074,0.09579215943813324
1788168392317638000,16.275637939453127,9.780598640441895,0.7081714868545532,0.09368295222520828
1788168392333795300,16.29179541015625,9.779422760009766,0.7252988219261169,0.08500640094280243
1788168392349899000,16.30789892578125,9.778146743774414,0.7430641651153564,0.07805676013231277
1788168392366097700,16.32409765625,9.776707649230957,0.7620537877082825,0.07519508898258209
1788168392382214400,16.34021435546875,9.775322914123535,0.778812825679779,0.08312156796455383
1788168392398345000,16.356344970703127,9.77400016784668,0.7931471467018127,0.1011643037199974
1788168392414460400,16.37246044921875,9.772187232971191,0.8114278316497803,0.12779931724071503
1788168392430592300,16.38859228515625,9.770891189575195,0.8216536641120911,0.1579335480928421
1788168392446761700,16.40476171875,9.771332740783691,0.8104657530784607,0.1859707236289978
1788168392462891000,16.42089111328125,9.773520469665527,0.7777116298675537,0.2094414234161377
1788168392479033600,16.43703369140625,9.776490211486816,0.7356884479522705,0.2222256362438202
1788168392495203800,16.453203857421876,9.7793550491333,0.6975569128990173,0.21913591027259827
1788168392511355400,16.46935546875,9.780776023864746,0.681036114692688,0.20738543570041656
1788168392527529700,16.48552978515625,9.780705451965332,0.6852802038192749,0.19642066955566406
1788168392543641600,16.5016416015625,9.779598236083984,0.7018471360206604,0.19301564991474152
1788168392559802000,16.517802001953125,9.778297424316406,0.7202914953231812,0.19097092747688293
1788168392575943400,16.533943359375,9.777546882629395,0.7313699722290039,0.18724879622459412
1788168392592098300,16.550098388671874,9.777605056762695,0.7327761054039001,0.17851778864860535
1788168392608278000,16.566278076171876,9.778027534484863,0.7327069640159607,0.15398193895816803
1788168392624427800,16.582427734375,9.77743911743164,0.74900883436203,0.10513002425432205
1788168392640573200,16.5985732421875,9.776191711425781,0.7705549001693726,0.052005425095558167
1788168392656691200,16.614691162109374,9.776532173156738,0.7677844762802124,0.017674846574664116
1788168392672793600,16.630793701171875,9.779073715209961,0.7348470687866211,-0.010064407251775265
1788168392688982000,16.64698193359375,9.781231880187988,0.7035492062568665,-0.054023049771785736
1788168392705182200,16.66318212890625,9.781302452087402,0.6977540254592896,-0.09821891039609909
1788168392721343700,16.67934375,9.779388427734375,0.7218292951583862,-0.11366017162799835
1788168392737455400,16.695455322265627,9.777235984802246,0.7533376812934875,-0.09228121489286423
1788168392753602600,16.7116025390625,9.776314735412598,0.7682156562805176,-0.062460221350193024
1788168392769752600,16.727752685546875,9.776966094970703,0.7615301609039307,-0.03735902160406113
1788168392785960400,16.74396044921875,9.778970718383789,0.7360856533050537,-0.017488529905676842
1788168392802136300,16.76013623046875,9.78155517578125,0.7011098265647888,-0.0013644202845171094
1788168392818250800,16.776250732421875,9.783760070800781,0.6696164608001709,0.006528762634843588
1788168392834353000,16.792352783203125,9.7841796875,0.6633777022361755,0.011585863307118416
1788168392850520800,16.808520751953125,9.785261154174805,0.6468001008033752,0.02655315026640892
1788168392866694400,16.8246943359375,9.784476280212402,0.6585065126419067,0.02777302823960781
1788168392882833200,16.840833251953125,9.78303337097168,0.6797008514404297,0.025587428361177444
1788168392898951000,16.856950927734374,9.781022071838379,0.7079824209213257,0.02763509936630726
1788168392915099400,16.873099365234374,9.778717994689941,0.7385080456733704,0.04074347764253616
1788168392931303700,16.8893037109375,9.776432991027832,0.7666699290275574,0.06300583481788635
1788168392947476200,16.905476318359376,9.774256706237793,0.7911695837974548,0.09134414792060852
1788168392963623200,16.921623046875,9.772148132324219,0.8134369850158691,0.11758582293987274
1788168392979745300,16.937745361328126,9.769987106323242,0.8358026146888733,0.13844579458236694
1788168392995892200,16.953892333984374,9.767837524414062,0.8574587106704712,0.15650945901870728
1788168393012018000,16.970017822265625,9.765745162963867,0.8780054450035095,0.17239293456077576
1788168393028145400,16.9861455078125,9.76411247253418,0.8938180208206177,0.18324820697307587
1788168393044297000,17.002296875,9.763015747070312,0.905791699886322,0.18290308117866516
1788168393060438000,17.01843798828125,9.76205825805664,0.9181883335113525,0.17188790440559387
1788168393076530000,17.034530029296874,9.760841369628906,0.9341080784797668,0.15431323647499084
1788168393092666000,17.050666015625,9.759010314941406,0.9558984637260437,0.1354919970035553
1788168393108806400,17.066806396484374,9.756753921508789,0.9788953065872192,0.1337578296661377
1788168393124966400,17.08296630859375,9.754748344421387,0.9962590336799622,0.15081647038459778
1788168393141103600,17.099103515625,9.754302978515625,0.9973840117454529,0.17081600427627563
1788168393157252400,17.11525244140625,9.755705833435059,0.9819120168685913,0.18011198937892914
1788168393173390600,17.131390625,9.756935119628906,0.9698979258537292,0.1785745471715927
1788168393189541400,17.147541259765624,9.75667667388916,0.97245854139328,0.17877642810344696
1788168393205710000,17.1637099609375,9.756625175476074,0.9705357551574707,0.19162440299987793
1788168393221897200,17.179897216796874,9.760515213012695,0.9234538674354553,0.2235027551651001
1788168393237996800,17.195996826171875,9.769731521606445,0.8075957894325256,0.26558008790016174
1788168393254154200,17.212154296875,9.779248237609863,0.6807283759117126,0.2707219123840332
1788168393270337000,17.2283369140625,9.784906387329102,0.6129984855651855,0.2241358906030655
1788168393286501400,17.24450146484375,9.78424072265625,0.6416047215461731,0.1654350459575653
1788168393302653000,17.26065283203125,9.778057098388672,0.735643744468689,0.13717643916606903
1788168393318805000,17.276804931640626,9.771352767944336,0.8187990188598633,0.14358031749725342
1788168393334963000,17.292962890625,9.769020080566406,0.8425576090812683,0.16347229480743408
1788168393351088000,17.309088134765624,9.77219009399414,0.8005595803260803,0.1838402897119522
1788168393367261000,17.325260986328125,9.778359413146973,0.719434380531311,0.19100648164749146
1788168393383413500,17.34141357421875,9.784475326538086,0.6314233541488647,0.18902868032455444
1788168393399517700,17.357517578125,9.78785514831543,0.5790319442749023,0.18165501952171326
1788168393415679500,17.373679443359375,9.787788391113281,0.5830301642417908,0.17224402725696564
1788168393431809800,17.389809814453123,9.78555679321289,0.622260332107544,0.16143952310085297
1788168393447989000,17.405989013671874,9.782524108886719,0.6712548136711121,0.14842474460601807
1788168393464160300,17.42216015625,9.778913497924805,0.7256229519844055,0.12927401065826416
1788168393480264400,17.438264404296874,9.775065422058105,0.7789698243141174,0.10806355625391006
1788168393496431900,17.454431884765626,9.77186107635498,0.8199753761291504,0.09353775531053543
1788168393512568800,17.47056884765625,9.770352363586426,0.8376781344413757,0.0943089947104454
1788168393528701400,17.486701416015624,9.77107048034668,0.8273386359214783,0.10992050915956497
1788168393544872200,17.5028720703125,9.773358345031738,0.7978740930557251,0.12352292239665985
1788168393560976400,17.518976318359375,9.776135444641113,0.7629726529121399,0.12425466626882553
1788168393577176300,17.53517626953125,9.778474807739258,0.7335212230682373,0.11736582219600677
1788168393593330200,17.551330078125,9.779561996459961,0.7192226052284241,0.11523526161909103
1788168393609465300,17.56746533203125,9.779226303100586,0.7225247621536255,0.12277506291866302
1788168393625577700,17.58357763671875,9.77800464630127,0.7377800345420837,0.1292337328195572
1788168393641725400,17.599725341796876,9.776398658752441,0.7598332166671753,0.1227744072675705
1788168393657851000,17.615850830078124,9.774765014648438,0.78352290391922,0.10222773253917694
1788168393674041900,17.632041748046873,9.772991180419922,0.8076404929161072,0.08215276151895523
1788168393690176500,17.648176513671874,9.771700859069824,0.8236492276191711,0.07646623998880386
1788168393706296800,17.664296875,9.77199935913086,0.8196554780006409,0.08107022941112518
1788168393722449200,17.68044921875,9.772614479064941,0.8125981092453003,0.07805362343788147
1788168393738614500,17.696614501953125,9.771971702575684,0.8220415711402893,0.05659329891204834
1788168393754733000,17.712733154296874,9.770493507385254,0.8406139612197876,0.03487063944339752
1788168393770863600,17.728863525390626,9.769638061523438,0.8502700924873352,0.03998641297221184
1788168393786985000,17.74498486328125,9.76976490020752,0.8475209474563599,0.06163947656750679
1788168393803094300,17.76109423828125,9.771034240722656,0.8317821621894836,0.07358203083276749
1788168393819225000,17.77722509765625,9.77229118347168,0.8175055384635925,0.06643752753734589
1788168393835349200,17.793349365234373,9.772560119628906,0.8149722814559937,0.05727090686559677
1788168393851489800,17.80948974609375,9.771845817565918,0.8227189779281616,0.06752612441778183
1788168393867609600,17.825609619140625,9.770852088928223,0.8308731913566589,0.10243293642997742
1788168393883713000,17.841713134765627,9.770298957824707,0.8314521312713623,0.14258190989494324
1788168393899839200,17.857839111328126,9.770607948303223,0.82245934009552,0.1707603633403778
1788168393915979800,17.873979736328124,9.77170181274414,0.8074502348899841,0.17959336936473846
1788168393932133400,17.89013330078125,9.773611068725586,0.786209225654602,0.16971144080162048
1788168393948254200,17.906254150390627,9.77495288848877,0.7736581563949585,0.14877361059188843
1788168393964406300,17.92240625,9.775568008422852,0.7708120942115784,0.12045622617006302
1788168393980530700,17.93853076171875,9.775325775146484,0.7780982851982117,0.0891379788517952
1788168393996678100,17.95467822265625,9.774548530578613,0.7909050583839417,0.05530735105276108
1788168394012829200,17.9708291015625,9.772531509399414,0.8169360756874084,0.025020824745297432
1788168394028947000,17.986947021484376,9.769759178161621,0.849799394607544,0.006050495896488428
1788168394045049900,18.0030498046875,9.766551971435547,0.8859207034111023,0.0008649828378111124
1788168394061176800,18.0191767578125,9.763684272766113,0.9169789552688599,0.0016237287782132626
1788168394077331500,18.03533154296875,9.762347221374512,0.9310713410377502,-0.008267989382147789
1788168394093494300,18.051494384765626,9.762810707092285,0.9256345629692078,-0.03354161977767944
1788168394109616000,18.0676162109375,9.763932228088379,0.912205696105957,-0.06242511048913002
1788168394125720800,18.083720947265626,9.764223098754883,0.9072856307029724,-0.08472546190023422
1788168394141890800,18.099890869140626,9.76265811920166,0.9222063422203064,-0.10205595195293427
1788168394158048800,18.116048828125,9.759408950805664,0.9534231424331665,-0.12370035797357559
1788168394174228200,18.132228271484376,9.755239486694336,0.9932040572166443,-0.1386750042438507
1788168394190342400,18.14834228515625,9.750198364257812,1.0397213697433472,-0.15162552893161774
1788168394206444500,18.164444580078126,9.744762420654297,1.0879580974578857,-0.1623278707265854
1788168394222571500,18.180571533203125,9.739542961120605,1.1337528228759766,-0.16215620934963226
1788168394238737000,18.19673681640625,9.735064506530762,1.1740314960479736,-0.1433935910463333
1788168394254917600,18.212917724609376,9.73257827758789,1.1977394819259644,-0.11277827620506287
1788168394271037400,18.229037353515626,9.732298851013184,1.2020506858825684,-0.08849398791790009
1788168394287138000,18.245137939453127,9.733115196228027,1.1961984634399414,-0.07721643894910812
1788168394303298800,18.261298828125,9.732747077941895,1.1994940042495728,-0.07228109985589981
1788168394319428600,18.2774287109375,9.73192024230957,1.2069916725158691,-0.057383280247449875
1788168394335609000,18.293609130859377,9.734925270080566,1.183599591255188,-0.02673245221376419
1788168394351778000,18.309778076171874,9.74254035949707,1.119499921798706,0.003427015384659171
1788168394367961600,18.325961669921874,9.754083633422852,1.0139967203140259,0.006536891218274832
1788168394384123100,18.342123046875,9.761344909667969,0.9408279061317444,-0.03709365054965019
1788168394400262100,18.35826220703125,9.762578964233398,0.9227616786956787,-0.10466375946998596
1788168394416423400,18.37442333984375,9.75926399230957,0.9512066841125488,-0.14952388405799866
1788168394432595000,18.390594970703123,9.754928588867188,0.9936593174934387,-0.1561872512102127
1788168394448700000,18.406699951171873,9.75278091430664,1.016061544418335,-0.14585135877132416
1788168394464874200,18.422874267578123,9.75367546081543,1.0084075927734375,-0.13896358013153076
1788168394481010700,18.4390107421875,9.756705284118652,0.9770659804344177,-0.14973507821559906
1788168394497169200,18.455169189453127,9.760929107666016,0.930958092212677,-0.16725769639015198
1788168394513287700,18.47128759765625,9.764369010925293,0.8919207453727722,-0.17876498401165009
1788168394529475000,18.48747509765625,9.766237258911133,0.8704190254211426,-0.18270401656627655
1788168394545600500,18.5036005859375,9.76697826385498,0.8614463210105896,-0.18554221093654633
1788168394561745200,18.5197451171875,9.76688003540039,0.8630626797676086,-0.18318475782871246
1788168394577877500,18.53587744140625,9.766621589660645,0.8666961193084717,-0.1797967404127121
1788168394593995000,18.5519951171875,9.766138076782227,0.8732223510742188,-0.17437496781349182
1788168394610144000,18.56814404296875,9.765494346618652,0.8824224472045898,-0.163789764046669
1788168394626270200,18.584270263671876,9.764982223510742,0.8908426761627197,-0.14805632829666138
1788168394642386700,18.60038671875,9.76482105255127,0.8951097130775452,-0.13204853236675262
1788168394658518500,18.6165185546875,9.765600204467773,0.8883777856826782,-0.11921674758195877
1788168394674636800,18.63263671875,9.767594337463379,0.8673291802406311,-0.1105269193649292
1788168394690741200,18.6487412109375,9.770001411437988,0.8402860760688782,-0.10667122900485992
1788168394706865400,18.664865478515626,9.770783424377441,0.8311403393745422,-0.10665617883205414
1788168394722987800,18.68098779296875,9.769339561462402,0.8473498225212097,-0.11127791553735733
1788168394739125800,18.697125732421874,9.766301155090332,0.880509614944458,-0.12022124975919724
1788168394755241200,18.7132412109375,9.763592720031738,0.909224808216095,-0.1262941062450409
1788168394771343400,18.72934326171875,9.760141372680664,0.9452016949653625,-0.12892353534698486
1788168394787472600,18.74547265625,9.75678539276123,0.9796603918075562,-0.12568949162960052
1788168394803652900,18.76165283203125,9.752902030944824,1.0189577341079712,-0.11410094052553177
1788168394819798000,18.777798095703126,9.751275062561035,1.0346797704696655,-0.11163926124572754
1788168394835916800,18.793916748046875,9.751253128051758,1.0330334901809692,-0.12768317759037018
1788168394852024000,18.810024169921874,9.750195503234863,1.0384001731872559,-0.16059833765029907
1788168394868187600,18.826187744140626,9.747364044189453,1.0575509071350098,-0.20217451453208923
1788168394884328000,18.842327880859376,9.744688034057617,1.0750449895858765,-0.2360559105873108
1788168394900475100,18.85847509765625,9.743714332580566,1.0783593654632568,-0.25991249084472656
1788168394916593200,18.87459326171875,9.743887901306152,1.0724891424179077,-0.27714934945106506
1788168394932697600,18.890697509765626,9.743237495422363,1.077710747718811,-0.2797216773033142
1788168394948860400,18.9068603515625,9.740429878234863,1.1074954271316528,-0.26049670577049255
1788168394965002800,18.923002685546876,9.736254692077637,1.151589274406433,-0.22263024747371674
1788168394981149000,18.93914892578125,9.732617378234863,1.1900181770324707,-0.1743757128715515
1788168394997309700,18.955309814453123,9.731383323669434,1.2057254314422607,-0.12959562242031097
1788168395013410000,18.97141015625,9.7338285446167,1.1886283159255981,-0.10069792717695236
1788168395029537500,18.98753759765625,9.735679626464844,1.1751165390014648,-0.07773575186729431
1788168395045691600,19.003691650390625,9.73827075958252,1.1542564630508423,-0.06452581286430359
1788168395061860900,19.01986083984375,9.741715431213379,1.1249388456344604,-0.062237370759248734
1788168395077982200,19.035982177734375,9.745972633361816,1.0868892669677734,-0.07123206555843353
1788168395094090200,19.05209033203125,9.749322891235352,1.0554375648498535,-0.08448047190904617
1788168395110222800,19.068222900390627,9.753800392150879,1.0110307931900024,-0.10757584869861603
1788168395126387000,19.084386962890626,9.756193161010742,0.9833855628967285,-0.14156678318977356
1788168395142566000,19.10056591796875,9.755946159362793,0.9791999459266663,-0.18185290694236755
1788168395158688000,19.11668798828125,9.753517150878906,0.9982783794403076,-0.2067043036222458
1788168395174845000,19.132844970703125,9.750598907470703,1.0201038122177124,-0.23580248653888702
1788168395190976300,19.148976318359374,9.74781322479248,1.0391227006912231,-0.2659733295440674
1788168395207095600,19.165095458984375,9.744780540466309,1.0601141452789307,-0.29290568828582764
1788168395223276300,19.1812763671875,9.741401672363281,1.0849958658218384,-0.3134760856628418
1788168395239398700,19.197398681640625,9.73872184753418,1.1039578914642334,-0.33008474111557007
1788168395255503000,19.213503173828126,9.737245559692383,1.1113355159759521,-0.34837543964385986
1788168395271634400,19.229634521484375,9.736861228942871,1.1063913106918335,-0.3739268481731415
1788168395287761400,19.245761474609374,9.7371244430542,1.0963335037231445,-0.3960369825363159
1788168395303906800,19.26190673828125,9.73755931854248,1.089462161064148,-0.40421727299690247
1788168395320033500,19.278033447265624,9.737887382507324,1.0909172296524048,-0.39220571517944336
1788168395336143000,19.29414306640625,9.73800277709961,1.1023041009902954,-0.3558294475078583
1788168395352272000,19.31027197265625,9.738097190856934,1.1156256198883057,-0.30859246850013733
1788168395368410400,19.326410400390625,9.739832878112793,1.1134575605392456,-0.25739961862564087
1788168395384561000,19.342560791015625,9.743613243103027,1.0882729291915894,-0.21923169493675232
1788168395400696300,19.3586962890625,9.748214721679688,1.0513060092926025,-0.1935228556394577
1788168395416799500,19.374799560546876,9.751130104064941,1.0287847518920898,-0.1657216101884842
1788168395432928800,19.3909287109375,9.75263786315918,1.0205657482147217,-0.1219615563750267
1788168395449076500,19.407076416015624,9.756683349609375,0.9865641593933105,-0.06489084661006927
1788168395465212000,19.4232119140625,9.76525592803955,0.9000018239021301,-0.012378274463117123
1788168395481377300,19.439377197265625,9.777064323425293,0.761107325553894,0.011486183851957321
1788168395497520000,19.45552001953125,9.786184310913086,0.6329374313354492,-0.019362708553671837
1788168395513683000,19.471682861328127,9.790085792541504,0.5641273260116577,-0.079737588763237
1788168395529843700,19.48784375,9.790345191955566,0.5504758954048157,-0.12850460410118103
1788168395545977300,19.503977294921874,9.78867244720459,0.5791223049163818,-0.1299709677696228
1788168395562143000,19.52014306640625,9.786616325378418,0.6188541054725647,-0.0976794883608818
1788168395578247200,19.5362470703125,9.785287857055664,0.6426824331283569,-0.07404078543186188
1788168395594418700,19.552418701171874,9.785493850708008,0.6388343572616577,-0.07994743436574936
1788168395610587000,19.5685869140625,9.786890029907227,0.6130556464195251,-0.10647998005151749
1788168395626720000,19.584719970703127,9.78820514678955,0.586560845375061,-0.13179688155651093
1788168395642839000,19.600839111328124,9.788825988769531,0.5717714428901672,-0.14947551488876343
1788168395658992600,19.61699267578125,9.788004875183105,0.5818336009979248,-0.1637435108423233
1788168395675121400,19.633121337890625,9.786230087280273,0.6056308150291443,-0.1824631690979004
1788168395691249700,19.649249755859376,9.783839225769043,0.6378767490386963,-0.1999906301498413
1788168395707391700,19.665391845703127,9.781164169311523,0.6749517321586609,-0.208952397108078
1788168395723513300,19.681513427734377,9.778633117675781,0.71128249168396,-0.20688802003860474
1788168395739617000,19.697616943359375,9.77677059173584,0.7385907769203186,-0.19906525313854218
1788168395755782700,19.71378271484375,9.775816917419434,0.7535814642906189,-0.18949316442012787
1788168395771912700,19.72991259765625,9.775886535644531,0.75417160987854,-0.1834961473941803
1788168395788052000,19.746052001953124,9.776579856872559,0.7446150779724121,-0.18552838265895844
1788168395804173000,19.762173095703126,9.777314186096191,0.7326817512512207,-0.19413377344608307
1788168395820276000,19.77827587890625,9.777250289916992,0.7317543625831604,-0.20076628029346466
1788168395836398000,19.794398193359374,9.77616024017334,0.7444388270378113,-0.20709095895290375
1788168395852530700,19.81053076171875,9.774235725402832,0.7665652632713318,-0.21697962284088135
1788168395868673800,19.826673828125,9.772045135498047,0.7907848954200745,-0.22842632234096527
1788168395884790800,19.842790771484374,9.768331527709961,0.8333331346511841,-0.23587410151958466
1788168395900940800,19.85894091796875,9.764778137207031,0.8752237558364868,-0.23123054206371307
1788168395917067000,19.87506689453125,9.763130187988281,0.8974822163581848,-0.214938223361969
1788168395933210600,19.891210693359376,9.762761116027832,0.9032421112060547,-0.2074374258518219
1788168395949369000,19.907369140625,9.762088775634766,0.9056825041770935,-0.22747920453548431
1788168395965516300,19.923516357421875,9.76030445098877,0.9129776358604431,-0.2707619071006775
1788168395981613600,19.939613525390627,9.758342742919922,0.9195793271064758,-0.3154420256614685
1788168395997736000,19.95573583984375,9.75852108001709,0.9108893275260925,-0.3345692753791809
1788168396013884400,19.971884521484377,9.760947227478027,0.886215329170227,-0.330035537481308
1788168396030026200,19.988026123046875,9.762367248535156,0.8729541301727295,-0.3233174681663513
1788168396046176500,20.004176513671876,9.760700225830078,0.8973723649978638,-0.3063231110572815
1788168396062281000,20.020281005859374,9.756119728088379,0.9550436735153198,-0.2764217257499695
1788168396078442000,20.03644189453125,9.751144409179688,1.014038324356079,-0.23938769102096558
1788168396094603800,20.052603759765624,9.748254776000977,1.0486770868301392,-0.20541012287139893
1788168396110774800,20.06877490234375,9.748291969299316,1.0536267757415771,-0.17625191807746887
1788168396126941400,20.08494140625,9.750991821289062,1.0325605869293213,-0.149546280503273
1788168396143048400,20.10104833984375,9.755461692810059,0.991881251335144,-0.13241751492023468
1788168396159177700,20.117177734375,9.760978698730469,0.9370532631874084,-0.12495657056570053
1788168396175298800,20.133298828125,9.765438079833984,0.8892045021057129,-0.12613876163959503
1788168396191473200,20.14947314453125,9.766651153564453,0.8758476972579956,-0.12568743526935577
1788168396207628800,20.16562890625,9.766698837280273,0.8746159076690674,-0.13045567274093628
1788168396223732000,20.18173193359375,9.766303062438965,0.8770648837089539,-0.14307327568531036
1788168396239904300,20.197904296875,9.765397071838379,0.8843146562576294,-0.15934063494205475
1788168396272178200,20.23017822265625,9.759369850158691,0.946747899055481,-0.1695716679096222
1788168396288306200,20.24630615234375,9.755192756652832,0.9923416376113892,-0.1478963941335678
1788168396304412200,20.262412109375,9.751713752746582,1.029698133468628,-0.11906006187200546
1788168396320541000,20.278541015625,9.749300003051758,1.0541534423828125,-0.10144680738449097
1788168396336680000,20.294679931640626,9.747492790222168,1.0713179111480713,-0.09511438757181168
1788168396352834800,20.310834716796876,9.745967864990234,1.0853880643844604,-0.09187014400959015
1788168396368961800,20.3269619140625,9.744688034057617,1.0975583791732788,-0.08242759853601456
1788168396385064400,20.343064453125,9.742459297180176,1.118044376373291,-0.06961093097925186
1788168396401197000,20.359197021484373,9.739694595336914,1.1424707174301147,-0.059107474982738495
1788168396417350400,20.375350341796874,9.737586975097656,1.1605623960494995,-0.05367197096347809
1788168396433483300,20.391483154296875,9.736567497253418,1.1695473194122314,-0.04242204129695892
1788168396449601800,20.407601806640624,9.736719131469727,1.1689434051513672,-0.01609148643910885
1788168396465793800,20.423793701171874,9.737144470214844,1.1652578115463257,0.024022461846470833
1788168396481923800,20.439923828125,9.736865043640137,1.1658282279968262,0.068534716963768
1788168396498133200,20.45613330078125,9.736112594604492,1.169650912284851,0.1020360067486763
1788168396514263600,20.472263671875,9.734781265258789,1.1791768074035645,0.11818181723356247
1788168396530383400,20.48838330078125,9.73227310180664,1.1977944374084473,0.13613368570804596
1788168396546535200,20.50453515625,9.730409622192383,1.2086081504821777,0.16967231035232544
1788168396562707200,20.520707275390624,9.732616424560547,1.1838719844818115,0.21217070519924164
1788168396578824700,20.53682470703125,9.738218307495117,1.130744457244873,0.24272893369197845
1788168396594958300,20.552958251953125,9.743714332580566,1.0865973234176636,0.22298520803451538
1788168396611114000,20.569114013671875,9.745725631713867,1.079122543334961,0.16342176496982574
1788168396627219500,20.585219482421873,9.74277114868164,1.1105676889419556,0.12422997504472733
1788168396643379000,20.60137890625,9.736870765686035,1.161835789680481,0.11781542748212814
1788168396659506200,20.617506103515623,9.731213569641113,1.2068179845809937,0.1321377158164978
1788168396675641300,20.633641357421876,9.729021072387695,1.223833680152893,0.13697347044944763
1788168396691808500,20.64980859375,9.730555534362793,1.2128725051879883,0.12498608976602554
1788168396707913000,20.665912841796874,9.734441757202148,1.1830884218215942,0.10648801922798157
1788168396724041000,20.682041015625,9.738519668579102,1.1502822637557983,0.09202215820550919
