time,seconds_elapsed,z,y,x
1788168376203103200,0.161103271484375,-0.01710422709584236,-0.22479841113090515,-0.10690141469240189
1788168376219281000,0.177281005859375,-0.0354301854968071,-0.2528982162475586,-0.07330382615327835
1788168376235421200,0.193421142578125,-0.039095375686883926,-0.2583959996700287,-0.039095375686883926
1788168376251506700,0.209506591796875,-0.021991148591041565,-0.2217440903186798,0.006108652334660292
1788168376267708000,0.2257080078125,-0.012828170321881771,-0.17287486791610718,0.059864792972803116
1788168376283798300,0.24179833984375,0.001832595793530345,-0.1362229436635971,0.0959058403968811
1788168376299984000,0.25798388671875,0.009162978269159794,-0.12339477986097336,0.09040805697441101
1788168376316147500,0.2741474609375,0.01038470957428217,-0.1062905490398407,0.06108652427792549
1788168376332267500,0.290267578125,0.00366519158706069,-0.08979719132184982,0.03237585723400116
1788168376348379400,0.30637939453125,0.006108652334660292,-0.0959058403968811,0.02015855349600315
1788168376364560100,0.32256005859375,0.02015855349600315,-0.1160643994808197,0.006108652334660292
1788168376380690000,0.33868994140625,0.033597588539123535,-0.11728613078594208,-0.003054326167330146
1788168376396766000,0.354765869140625,0.045204028487205505,-0.09957103431224823,0.013439035043120384
1788168376412892400,0.370892333984375,0.04153883829712868,-0.08552113175392151,0.04459316283464432
1788168376428888800,0.386888916015625,0.03420845419168472,-0.08429940044879913,0.08307767659425735
1788168376445114000,0.403114013671875,0.036041051149368286,-0.10995574295520782,0.08552113175392151
1788168376461335000,0.4193349609375,0.04459316283464432,-0.11850785464048386,0.08429940044879913
1788168376477452000,0.4354521484375,0.05497787147760391,-0.10506882518529892,0.0959058403968811
1788168376493556200,0.45155615234375,0.05742133408784866,-0.12034045159816742,0.11178833991289139
1788168376509764600,0.4677646484375,0.0354301854968071,-0.12400564551353455,0.11728613078594208
1788168376525865700,0.48386572265625,0.015882495790719986,-0.10445795953273773,0.1160643994808197
1788168376542013200,0.50001318359375,-0.013439035043120384,-0.056810468435287476,0.13561208546161652
1788168376558164000,0.5161640625,-0.02871066704392433,-0.03787364438176155,0.1417207419872284
1788168376574411300,0.532411376953125,-0.021991148591041565,-0.05619960278272629,0.12339477986097336
1788168376590449700,0.54844970703125,-0.014049900695681572,-0.09162978827953339,0.09224065393209457
1788168376606530800,0.56453076171875,-0.021380282938480377,-0.08307767659425735,0.06475171446800232
1788168376622706700,0.580706787109375,-0.0354301854968071,-0.06414084881544113,0.05009094998240471
1788168376638818300,0.596818359375,-0.031154127791523933,-0.036041051149368286,0.04886921867728233
1788168376654967800,0.6129677734375,-0.009773843921720982,-0.006108652334660292,0.0555887371301651
1788168376671019500,0.62901953125,0.02321287989616394,-0.03420845419168472,0.048258353024721146
1788168376687169500,0.64516943359375,0.03787364438176155,-0.1111774742603302,0.0403171069920063
1788168376703339000,0.661339111328125,0.00427605677396059,-0.17837265133857727,0.0006108652451075613
1788168376719516000,0.677515869140625,-0.033597588539123535,-0.1875356286764145,-0.06108652427792549
1788168376735649000,0.69364892578125,-0.0555887371301651,-0.15882496535778046,-0.11423180252313614
1788168376751699500,0.709699462890625,-0.07024950534105301,-0.1362229436635971,-0.15393804013729095
1788168376767884500,0.725884521484375,-0.056810468435287476,-0.11972958594560623,-0.17592918872833252
1788168376784011300,0.74201123046875,-0.022602014243602753,-0.16004669666290283,-0.19058994948863983
1788168376800141600,0.7581416015625,-0.009162978269159794,-0.22602014243602753,-0.2070833146572113
1788168376816365300,0.774365234375,-0.018325956538319588,-0.252287358045578,-0.23579397797584534
1788168376832428300,0.79042822265625,-0.0354301854968071,-0.24923302233219147,-0.29016098380088806
1788168376848525800,0.80652587890625,-0.04764748737215996,-0.192422553896904,-0.35124751925468445
1788168376864661800,0.822661865234375,-0.05619960278272629,-0.14538592100143433,-0.40622538328170776
1788168376880852200,0.838852294921875,-0.03420845419168472,-0.10812314599752426,-0.33658674359321594
1788168376897083400,0.85508349609375,0.01771509274840355,-0.05314527451992035,-0.18448130786418915
1788168376913153500,0.871153564453125,0.08124507963657379,-0.0757472887635231,-0.05742133408784866
1788168376929255200,0.887255126953125,0.09529497474431992,-0.08979719132184982,0.01710422709584236
1788168376945397500,0.9033974609375,0.019547687843441963,-0.14355333149433136,0.027488935738801956
1788168376961546800,0.919546630859375,-0.05314527451992035,-0.17959438264369965,-0.027488935738801956
1788168376977662000,0.935661865234375,-0.0861319974064827,-0.20891591906547546,-0.09712757170200348
1788168376993863700,0.95186376953125,-0.07269296050071716,-0.19364428520202637,-0.1459967941045761
1788168377009965800,0.9679658203125,-0.06841690838336945,-0.11484266817569733,-0.1820378452539444
1788168377026117400,0.984117431640625,-0.06536258012056351,-0.07330382615327835,-0.19914206862449646
1788168377042231600,1.0002314453125,-0.039095375686883926,-0.07880161702632904,-0.20097467303276062
1788168377058479400,1.016479248046875,-0.0012217304902151227,-0.13561208546161652,-0.15943582355976105
1788168377074569500,1.032569580078125,0.09712757170200348,-0.15577064454555511,-0.09651670604944229
1788168377090707000,1.04870703125,0.15882496535778046,-0.14966198801994324,-0.019547687843441963
1788168377106867200,1.0648671875,0.1514945775270462,-0.10262536257505417,0.039706241339445114
1788168377123006700,1.0810068359375,0.15943582355976105,-0.08552113175392151,0.05742133408784866
1788168377139219500,1.097219482421875,0.1459967941045761,-0.08368854224681854,0.02015855349600315
1788168377155269400,1.113269287109375,0.09285151958465576,-0.06475171446800232,-0.02932153269648552
1788168377171377000,1.129376953125,0.056810468435287476,-0.0006108652451075613,-0.05803219974040985
1788168377187548700,1.145548583984375,0.06536258012056351,0.03298672288656235,-0.07757988572120667
1788168377203679700,1.1616796875,0.09773843735456467,0.04459316283464432,-0.09834930300712585
1788168377219893000,1.17789306640625,0.12095131725072861,0.0555887371301651,-0.11667526513338089
1788168377235946200,1.1939462890625,0.152105450630188,0.03420845419168472,-0.12522737681865692
1788168377252095500,1.210095458984375,0.18570303916931152,0.0354301854968071,-0.09712757170200348
1788168377268223700,1.2262236328125,0.18387043476104736,0.018325956538319588,-0.05314527451992035
1788168377284351500,1.2423515625,0.18448130786418915,0.01160643994808197,-0.02932153269648552
1788168377300601300,1.258601318359375,0.20463985204696655,-0.0024434609804302454,-0.027488935738801956
1788168377316658000,1.274657958984375,0.2174680233001709,-0.004886921960860491,-0.013439035043120384
1788168377332812500,1.2908125,0.20586158335208893,0.03298672288656235,0.018936822190880775
1788168377348951800,1.306951904296875,0.18814650177955627,0.06169738993048668,0.033597588539123535
1788168377365143000,1.32314306640625,0.1661553531885147,0.03298672288656235,0.04337143152952194
1788168377381374700,1.339374755859375,0.11911872029304504,0.003054326167330146,0.06230825558304787
1788168377397412400,1.355412353515625,0.059864792972803116,-0.021380282938480377,0.0659734457731247
1788168377413567200,1.371567138671875,0.021991148591041565,0.003054326167330146,0.04581489413976669
1788168377429714700,1.387714599609375,0.015271631069481373,0.05009094998240471,0.01710422709584236
1788168377445920300,1.403920166015625,0.05253441259264946,0.1411098688840866,0.01771509274840355
1788168377462165500,1.42016552734375,0.13927727937698364,0.19853121042251587,0.060475658625364304
1788168377478089500,1.43608935546875,0.22602014243602753,0.08307767659425735,0.07269296050071716
1788168377494312000,1.45231201171875,0.24495697021484375,-0.09224065393209457,-0.0006108652451075613
1788168377510465800,1.4684658203125,0.17348572611808777,-0.2223549485206604,-0.1508837193250656
1788168377526579200,1.4845791015625,0.07757988572120667,-0.21135938167572021,-0.24068090319633484
1788168377542835000,1.5008349609375,-0.0012217304902151227,-0.1563815027475357,-0.27061331272125244
1788168377558883600,1.516883544921875,-0.007941247895359993,-0.09957103431224823,-0.24190263450145721
1788168377575041000,1.533041015625,0.07208210229873657,-0.03726277872920036,-0.14233160018920898
1788168377591202800,1.549202880859375,0.1973094791173935,0.04092797264456749,0.031154127791523933
1788168377607369200,1.565369140625,0.2773328125476837,0.06658431142568588,0.22968533635139465
1788168377623478000,1.58147802734375,0.29077184200286865,0.04886921867728233,0.394008070230484
1788168377639593700,1.59759375,0.2541199326515198,-0.00855211354792118,0.43737950921058655
1788168377655731500,1.6137314453125,0.19058994948863983,-0.08307767659425735,0.36713001132011414
1788168377671903000,1.629903076171875,0.11911872029304504,-0.1569923609495163,0.21807889640331268
1788168377688034800,1.646034912109375,0.0659734457731247,-0.17592918872833252,0.07330382615327835
1788168377704187600,1.662187744140625,0.02076941914856434,-0.11728613078594208,-0.02871066704392433
1788168377720312600,1.6783125,-0.021380282938480377,-0.060475658625364304,-0.08185594528913498
1788168377736467000,1.694467041015625,-0.05803219974040985,-0.03726277872920036,-0.11545353382825851
1788168377752596500,1.710596435546875,-0.08124507963657379,-0.0354301854968071,-0.13439035415649414
1788168377768784600,1.72678466796875,-0.07880161702632904,-0.027488935738801956,-0.16737708449363708
1788168377785014000,1.743013916015625,0.0403171069920063,0.03420845419168472,-0.13255776464939117
1788168377801004800,1.7590048828125,0.09896016865968704,0.10567969083786011,0.0024434609804302454
1788168377817233000,1.77523291015625,0.14355333149433136,0.1160643994808197,0.14294247329235077
1788168377833374200,1.791374267578125,0.19975294172763824,0.07269296050071716,0.24068090319633484
1788168377849522400,1.8075224609375,0.24617868661880493,-0.024434609338641167,0.2816088795661926
1788168377865755400,1.82375537109375,0.2431243658065796,-0.1667662113904953,0.2742784917354584
1788168377881695000,1.839695068359375,0.2076941877603531,-0.22052235901355743,0.23579397797584534
1788168377897923600,1.855923583984375,0.15515977144241333,-0.23273965716362,0.17043140530586243
1788168377914062300,1.872062255859375,0.10445795953273773,-0.14538592100143433,0.11178833991289139
1788168377930211800,1.8882119140625,0.08246681094169617,-0.04764748737215996,0.05314527451992035
1788168377946405000,1.904405029296875,0.09896016865968704,-0.04459316283464432,0.02015855349600315
1788168377962436400,1.920436279296875,0.17837265133857727,-0.10873401165008545,0.07941248267889023
1788168377978630400,1.93663037109375,0.25045475363731384,-0.08796459436416626,0.15882496535778046
1788168377994780700,1.95278076171875,0.2571742534637451,-0.07452555745840073,0.22052235901355743
1788168378010936300,1.968936279296875,0.1472185254096985,-0.45753806829452515,0.14905111491680145
1788168378027120000,1.9851201171875,0.039095375686883926,-0.6383541822433472,0.2767219543457031
1788168378043232000,2.00123193359375,0.05619960278272629,-0.21991148591041565,0.3805690407752991
1788168378059404000,2.017404052734375,0.013439035043120384,-0.18570303916931152,0.2632829248905182
1788168378075612200,2.033612060546875,-0.15821409225463867,-0.03848451003432274,0.19364428520202637
1788168378091727600,2.0497275390625,-0.18875735998153687,0.24007004499435425,0.0024434609804302454
1788168378107933000,2.065932861328125,-0.08368854224681854,0.33108896017074585,-0.19364428520202637
1788168378123978000,2.08197802734375,-0.04886921867728233,0.35246923565864563,-0.30054569244384766
1788168378140081700,2.09808154296875,-0.015882495790719986,0.13316862285137177,-0.2272418737411499
1788168378156255700,2.114255859375,-0.012217304669320583,-0.15271630883216858,-0.048258353024721146
1788168378172385000,2.130385009765625,-0.04703662544488907,-0.36651915311813354,0.04459316283464432
1788168378188604000,2.14660400390625,-0.10506882518529892,-0.6322455406188965,-0.06902777403593063
1788168378204660200,2.16266015625,-0.12278391420841217,-0.6707300543785095,-0.33292156457901
1788168378220765700,2.178765625,-0.07880161702632904,-0.5656611919403076,-0.598647952079773
1788168378236974600,2.194974609375,-0.005497787147760391,0.03848451003432274,-0.7226535677909851
1788168378253158400,2.211158447265625,-0.025045474991202354,0.4807509481906891,-0.5711590051651001
1788168378269466400,2.22746630859375,-0.02382374368607998,0.504574716091156,-0.2382374405860901
1788168378285568500,2.243568603515625,0.012828170321881771,0.3591887652873993,0.16920967400074005
1788168378301722600,2.25972265625,-0.04581489413976669,0.06291911751031876,0.5009095072746277
1788168378317899300,2.275899169921875,-0.08796459436416626,-0.34147366881370544,0.5607742667198181
1788168378334098200,2.29209814453125,-0.09712757170200348,-0.5106833577156067,0.3634648323059082
1788168378350230300,2.308230224609375,-0.1258382350206375,-0.42088615894317627,0.08979719132184982
1788168378366408200,2.324408203125,-0.1661553531885147,-0.0959058403968811,-0.1319468915462494
1788168378382557000,2.340556884765625,-0.18814650177955627,0.2669481039047241,-0.11972958594560623
1788168378398749700,2.356749755859375,-0.16798794269561768,0.3738495409488678,0.08979719132184982
1788168378414907000,2.372906982421875,-0.039706241339445114,0.2675589919090271,0.3292563557624817
1788168378431153400,2.3891533203125,0.07147123664617538,0.08368854224681854,0.4917465150356293
1788168378447196000,2.40519580078125,0.07147123664617538,-0.16737708449363708,0.543059229850769
1788168378463348700,2.4213486328125,0.015882495790719986,-0.30054569244384766,0.48808133602142334
1788168378479537700,2.43753759765625,-0.07452555745840073,-0.3078760802745819,0.31154128909111023
1788168378495683300,2.453683349609375,-0.14294247329235077,-0.17104226350784302,0.09712757170200348
1788168378511906300,2.46990625,-0.16798794269561768,-0.04948008432984352,-0.051312681287527084
1788168378527948500,2.485948486328125,-0.11239920556545258,0.01710422709584236,-0.09285151958465576
1788168378544051200,2.50205126953125,-0.006108652334660292,0.07696902006864548,-0.02076941914856434
1788168378560216300,2.51821630859375,0.1111774742603302,0.09834930300712585,0.13255776464939117
1788168378576340700,2.5343408203125,0.17959438264369965,0.07696902006864548,0.28038713335990906
1788168378592549000,2.550549072265625,0.24068090319633484,0.02687807008624077,0.38667771220207214
1788168378608584200,2.566584228515625,0.3072652220726013,0.0006108652451075613,0.3995058834552765
1788168378624703000,2.582702880859375,0.36529740691185,0.02871066704392433,0.3433062732219696
1788168378640874200,2.598874267578125,0.4031710624694824,0.10934487730264664,0.24923302233219147
1788168378657027600,2.615027587890625,0.4184426963329315,0.14782938361167908,0.16737708449363708
1788168378673249800,2.631249755859375,0.43249258399009705,0.15393804013729095,0.15577064454555511
1788168378689278000,2.64727783203125,0.4740314185619354,0.13744467496871948,0.18509216606616974
1788168378705411000,2.6634111328125,0.5815436840057373,0.14416420459747314,0.29626965522766113
1788168378721575200,2.6795751953125,0.6743952035903931,0.18081611394882202,0.5002986192703247
1788168378737715200,2.695715087890625,0.7562511563301086,0.13988813757896423,0.6334672570228577
1788168378753945300,2.7119453125,0.7660250067710876,0.08552113175392151,0.5992587804794312
1788168378770049800,2.7280498046875,0.675616979598999,0.018325956538319588,0.3488040566444397
1788168378786156000,2.744156005859375,0.5522221922874451,-0.07819075137376785,-0.060475658625364304
1788168378802295000,2.760294921875,0.5002986192703247,-0.07880161702632904,-0.38667771220207214
1788168378818441000,2.77644091796875,0.5119050741195679,-0.03237585723400116,-0.5222898125648499
1788168378834586600,2.792586669921875,0.5619960427284241,0.012217304669320583,-0.3903428912162781
1788168378850764000,2.808763916015625,0.607200026512146,0.04398229718208313,-0.15454891324043274
1788168378866870000,2.8248701171875,0.6255260109901428,-0.02076941914856434,0.005497787147760391
1788168378883064300,2.841064208984375,0.5815436840057373,-0.10690141469240189,0.0006108652451075613
1788168378899220700,2.857220703125,0.5186246037483215,-0.1270599663257599,-0.13011430203914642
1788168378915464000,2.8734638671875,0.4605923891067505,-0.0806342139840126,-0.2926044464111328
1788168378931541000,2.889541015625,0.41722095012664795,0.048258353024721146,-0.44776421785354614
1788168378947655200,2.9056552734375,0.43127086758613586,0.1869247704744339,-0.5002986192703247
1788168378963816200,2.921816162109375,0.4703662395477295,0.18814650177955627,-0.4495968222618103
1788168378979977700,2.937977783203125,0.5546656250953674,0.1215621829032898,-0.313373863697052
1788168378996223000,2.954222900390625,0.6377432942390442,-0.0006108652451075613,-0.1319468915462494
1788168379012311800,2.970311767578125,0.6536257863044739,-0.05192354694008827,0.01160643994808197
1788168379028415700,2.986415771484375,0.6224716901779175,-0.048258353024721146,0.018325956538319588
1788168379044574200,3.00257421875,0.5754350423812866,-0.027488935738801956,-0.060475658625364304
1788168379060742400,3.018742431640625,0.523511528968811,0.030543262138962746,-0.13072516024112701
1788168379076947500,3.034947509765625,0.48808133602142334,0.06108652427792549,-0.15332718193531036
1788168379092994600,3.05099462890625,0.4917465150356293,0.09346238523721695,-0.1362229436635971
1788168379109097200,3.06709716796875,0.47830748558044434,0.08918632566928864,-0.11850785464048386
1788168379125265200,3.08326513671875,0.4612032473087311,0.06169738993048668,-0.07147123664617538
1788168379141386000,3.099385986328125,0.45326200127601624,0.022602014243602753,-0.014049900695681572
1788168379157598500,3.115598388671875,0.46670106053352356,-0.02015855349600315,0.0708603709936142
1788168379173651200,3.131651123046875,0.5088507533073425,-0.048258353024721146,0.11850785464048386
1788168379189800000,3.147800048828125,0.5222898125648499,-0.07880161702632904,0.1215621829032898
1788168379205924900,3.1639248046875,0.5106833577156067,-0.10690141469240189,0.08979719132184982
1788168379222054100,3.18005419921875,0.4966334402561188,-0.1319468915462494,0.04764748737215996
1788168379238285600,3.19628564453125,0.47830748558044434,-0.15454891324043274,0.009162978269159794
1788168379254314200,3.212314208984375,0.43676865100860596,-0.1612684279680252,-0.003054326167330146
1788168379270397000,3.22839697265625,0.3732386529445648,-0.17104226350784302,0.024434609338641167
1788168379286608400,3.2446083984375,0.3384193480014801,-0.1466076523065567,0.059864792972803116
1788168379302754800,3.2607548828125,0.32559117674827576,-0.15515977144241333,0.06780604273080826
1788168379318992600,3.27699267578125,0.3072652220726013,-0.18387043476104736,0.05619960278272629
1788168379335032800,3.29303271484375,0.2883284091949463,-0.22052235901355743,0.005497787147760391
1788168379351159000,3.309158935546875,0.2779437005519867,-0.18509216606616974,-0.04642575979232788
1788168379367309300,3.325309326171875,0.26939156651496887,-0.1319468915462494,-0.04214970022439957
1788168379383466000,3.341466064453125,0.2565633952617645,-0.07330382615327835,0.030543262138962746
1788168379399662300,3.357662353515625,0.22846360504627228,-0.05864306539297104,0.11484266817569733
1788168379415778000,3.373778076171875,0.1918116807937622,-0.13500121235847473,0.11362093687057495
1788168379431905000,3.389905029296875,0.14049901068210602,-0.23151792585849762,-0.039095375686883926
1788168379448064300,3.406064208984375,0.05314527451992035,-0.2528982162475586,-0.25045475363731384
1788168379464179200,3.42217919921875,-0.00366519158706069,-0.1869247704744339,-0.4105014503002167
1788168379480386800,3.43838671875,-0.018936822190880775,-0.11423180252313614,-0.45875978469848633
1788168379496477000,3.454476806640625,-0.004886921960860491,-0.03237585723400116,-0.39645153284072876
1788168379512579300,3.470579345703125,0.0354301854968071,0.04153883829712868,-0.15515977144241333
1788168379528784000,3.486783935546875,0.10201449692249298,0.03787364438176155,0.1722639948129654
1788168379544903000,3.50290283203125,0.2021963894367218,-0.01771509274840355,0.4129449129104614
1788168379561149400,3.5191494140625,0.27611109614372253,-0.09407325088977814,0.523511528968811
1788168379577202000,3.535201904296875,0.29138273000717163,-0.19364428520202637,0.4593706727027893
1788168379593342700,3.5513427734375,0.27550023794174194,-0.24862214922904968,0.22540926933288574
1788168379609506600,3.567506591796875,0.21074850857257843,-0.19425514340400696,-0.059864792972803116
1788168379625644500,3.58364453125,0.13988813757896423,-0.005497787147760391,-0.35185837745666504
1788168379641866000,3.599865966796875,0.12217304855585098,0.14355333149433136,-0.43799036741256714
1788168379657917000,3.6159169921875,0.15821409225463867,0.14355333149433136,-0.27122417092323303
1788168379674122800,3.632122802734375,0.20586158335208893,0.025656340643763542,-0.019547687843441963
1788168379690258200,3.648258056640625,0.23518311977386475,-0.11545353382825851,0.1411098688840866
1788168379706403800,3.66440380859375,0.22113321721553802,-0.2119702398777008,0.17409659922122955
1788168379722553300,3.68055322265625,0.16432274878025055,-0.20341812074184418,0.13500121235847473
1788168379738762800,3.6967626953125,0.07024950534105301,-0.11056660860776901,0.006719517521560192
1788168379754871000,3.71287109375,-0.0024434609804302454,-0.00427605677396059,-0.14538592100143433
1788168379771024100,3.729024169921875,-0.007941247895359993,0.021991148591041565,-0.252287358045578
1788168379787179800,3.7451796875,0.006719517521560192,-0.00427605677396059,-0.2773328125476837
1788168379803423700,3.761423828125,0.015882495790719986,-0.03298672288656235,-0.23640485107898712
1788168379819504600,3.777504638671875,0.02687807008624077,-0.05192354694008827,-0.17898350954055786
1788168379835609000,3.793609130859375,0.04092797264456749,-0.0659734457731247,-0.1563815027475357
1788168379851762700,3.8097626953125,0.05803219974040985,-0.07757988572120667,-0.15515977144241333
1788168379867924700,3.8259248046875,0.07269296050071716,-0.08491026610136032,-0.15271630883216858
1788168379884174000,3.842174072265625,0.05497787147760391,-0.09529497474431992,-0.1472185254096985
1788168379900262100,3.85826220703125,0.024434609338641167,-0.10445795953273773,-0.14477506279945374
1788168379916364800,3.87436474609375,0.03726277872920036,-0.07208210229873657,-0.12461651116609573
1788168379932526300,3.8905263671875,0.06230825558304787,-0.029932396486401558,-0.06719517707824707
1788168379948664300,3.906664306640625,0.05864306539297104,0.003054326167330146,-0.001832595793530345
1788168379964872400,3.92287255859375,0.05314527451992035,-0.0012217304902151227,0.05619960278272629
1788168379980966100,3.938966064453125,0.04092797264456749,0.007941247895359993,0.0910189226269722
1788168379997075500,3.955075439453125,-0.009162978269159794,0.025656340643763542,0.13255776464939117
1788168380013280000,3.971280029296875,0.005497787147760391,0.06291911751031876,0.1918116807937622
1788168380029410000,3.98741015625,0.15577064454555511,0.09957103431224823,0.27977627515792847
1788168380045541000,4.003541015625,0.3219259977340698,0.01710422709584236,0.3017674386501312
1788168380061612800,4.01961279296875,0.3530801236629486,-0.03787364438176155,0.22846360504627228
1788168380077844000,4.035843994140625,0.2223549485206604,-0.01710422709584236,0.08429940044879913
1788168380094018300,4.052018310546875,0.01466076634824276,0.003054326167330146,-0.10751228034496307
1788168380110152700,4.068152587890625,-0.05375614017248154,0.12095131725072861,-0.22479841113090515
1788168380126377200,4.084377197265625,0.04153883829712868,0.2431243658065796,-0.14355333149433136
1788168380142476500,4.1004765625,0.2076941877603531,0.22479841113090515,0.10262536257505417
1788168380158580000,4.116580078125,0.3237585723400116,-0.012828170321881771,0.36163222789764404
1788168380174712800,4.132712890625,0.3225368559360504,-0.2541199326515198,0.4899139404296875
1788168380190856400,4.1488564453125,0.22663100063800812,-0.4147774875164032,0.4489859640598297
1788168380207073800,4.16507373046875,0.12522737681865692,-0.3500257730484009,0.23396138846874237
1788168380223095300,4.18109521484375,0.02932153269648552,-0.20402899384498596,-0.006719517521560192
1788168380239304700,4.1973046875,-0.054367005825042725,-0.11728613078594208,-0.14782938361167908
1788168380255457000,4.21345703125,-0.08246681094169617,-0.04703662544488907,-0.1514945775270462
1788168380271610600,4.229610595703125,-0.021991148591041565,-0.012217304669320583,-0.013439035043120384
1788168380287658500,4.245658447265625,0.06658431142568588,-0.031154127791523933,0.1569923609495163
1788168380303769900,4.261769775390625,0.18387043476104736,-0.1319468915462494,0.32131510972976685
1788168380320005600,4.278005615234375,0.2620611786842346,-0.2168571650981903,0.37751471996307373
1788168380336154400,4.294154296875,0.2773328125476837,-0.2382374405860901,0.31459560990333557
1788168380352268300,4.310268310546875,0.23640485107898712,-0.16798794269561768,0.18814650177955627
1788168380368526600,4.326526611328125,0.14844025671482086,-0.11056660860776901,0.06780604273080826
1788168380384574700,4.34257470703125,0.10506882518529892,-0.09712757170200348,-0.009773843921720982
1788168380400677400,4.358677490234375,0.11667526513338089,-0.11789698898792267,-0.027488935738801956
1788168380416837600,4.374837646484375,0.13561208546161652,-0.15515977144241333,-0.007941247895359993
1788168380432957700,4.390957763671875,0.15515977144241333,-0.15393804013729095,0.022602014243602753
1788168380449167400,4.40716748046875,0.11667526513338089,-0.11911872029304504,0.06230825558304787
1788168380465213700,4.423213623046875,0.06169738993048668,-0.04948008432984352,0.12095131725072861
1788168380481366800,4.43936669921875,0.05864306539297104,0.021380282938480377,0.20830504596233368
1788168380497536500,4.45553662109375,0.06658431142568588,0.010995574295520782,0.2974913716316223
1788168380513721300,4.471721435546875,0.07452555745840073,-0.04642575979232788,0.342695415019989
1788168380529881900,4.4878818359375,0.05497787147760391,-0.1661553531885147,0.33475416898727417
1788168380545876200,4.503876220703125,0.02871066704392433,-0.27061331272125244,0.2474004179239273
1788168380562088000,4.520087890625,0.009773843921720982,-0.3536909818649292,0.07880161702632904
1788168380578230800,4.536230712890625,-0.05742133408784866,-0.3543018400669098,-0.13255776464939117
1788168380594401800,4.55240185546875,-0.19120082259178162,-0.26022860407829285,-0.31093040108680725
1788168380610517500,4.568517578125,-0.24617868661880493,-0.07391469180583954,-0.342695415019989
1788168380626600700,4.5846005859375,-0.15821409225463867,0.1508837193250656,-0.15515977144241333
1788168380642822700,4.60082275390625,-0.05314527451992035,0.2535090744495392,0.08796459436416626
1788168380658971100,4.61697119140625,0.012828170321881771,0.12095131725072861,0.2883284091949463
1788168380675146200,4.633146240234375,-0.024434609338641167,-0.18631389737129211,0.2382374405860901
1788168380691328800,4.649328857421875,-0.1508837193250656,-0.4599815309047699,-0.042760565876960754
1788168380707402500,4.665402587890625,-0.27488934993743896,-0.5283984541893005,-0.46670106053352356
1788168380723599600,4.681599609375,-0.34697145223617554,-0.17837265133857727,-0.6823364496231079
1788168380739839000,4.6978388671875,-0.3585779070854187,0.2742784917354584,-0.42577308416366577
1788168380755993300,4.713993408203125,-0.28038713335990906,0.3579670190811157,0.019547687843441963
1788168380772137200,4.73013720703125,-0.11789698898792267,0.07635815441608429,0.40194934606552124
1788168380788218600,4.746218505859375,-0.003054326167330146,-0.32986724376678467,0.513737678527832
1788168380804442000,4.762442138671875,-0.07024950534105301,-0.608421802520752,0.3793473243713379
1788168380820637200,4.77863720703125,-0.2370157092809677,-0.5760459303855896,0.013439035043120384
1788168380836841200,4.79484130859375,-0.42149701714515686,-0.3323107063770294,-0.4043927788734436
1788168380852999700,4.810999755859375,-0.5400048494338989,-0.05803219974040985,-0.6407976150512695
1788168380869123800,4.827123779296875,-0.5534439086914062,0.1215621829032898,-0.5448917746543884
1788168380885331500,4.84333154296875,-0.4899139404296875,0.11789698898792267,-0.2822197377681732
1788168380901535200,4.85953515625,-0.34636059403419495,-0.003054326167330146,0.056810468435287476
1788168380917657600,4.87565771484375,-0.18997909128665924,-0.18509216606616974,0.2687807083129883
1788168380933870000,4.8918701171875,-0.09346238523721695,-0.29077184200286865,0.31581732630729675
1788168380950024400,4.9080244140625,-0.06475171446800232,-0.26083946228027344,0.24129177629947662
1788168380966179600,4.9241796875,-0.09224065393209457,-0.15393804013729095,0.12034045159816742
1788168380982387500,4.940387451171875,-0.10262536257505417,-0.04581489413976669,-0.05314527451992035
1788168380998510800,4.9565107421875,-0.0959058403968811,-0.00366519158706069,-0.1661553531885147
1788168381014724600,4.972724609375,-0.08124507963657379,-0.033597588539123535,-0.2076941877603531
1788168381030787300,4.988787353515625,-0.06475171446800232,-0.06291911751031876,-0.16004669666290283
1788168381046946300,5.0049462890625,-0.0354301854968071,-0.07269296050071716,-0.07819075137376785
1788168381063074300,5.02107421875,0.013439035043120384,-0.06475171446800232,-0.045204028487205505
1788168381079209500,5.03720947265625,0.11728613078594208,0.006719517521560192,-0.08368854224681854
1788168381095429600,5.0534296875,0.19792033731937408,0.1007927656173706,-0.08429940044879913
1788168381111497500,5.06949755859375,0.22540926933288574,0.1368338167667389,0.0024434609804302454
1788168381127607000,5.08560693359375,0.2382374405860901,0.11545353382825851,0.13255776464939117
1788168381143743200,5.1017431640625,0.25961771607398987,0.05803219974040985,0.19058994948863983
1788168381159884500,5.117884521484375,0.2981022298336029,-0.003054326167330146,0.16432274878025055
1788168381176149800,5.134149658203125,0.3023782968521118,-0.016493361443281174,0.08429940044879913
1788168381192199700,5.15019970703125,0.32070425152778625,-0.02687807008624077,-0.03176499158143997
1788168381208308000,5.166307861328125,0.44104471802711487,-0.019547687843441963,-0.14355333149433136
1788168381224448000,5.182447998046875,0.5491678714752197,-0.004886921960860491,-0.17776179313659668
1788168381240604200,5.198604248046875,0.5968153476715088,0.12950342893600464,-0.09346238523721695
1788168381256836900,5.2148369140625,0.5167919993400574,0.21319197118282318,0.039706241339445114
1788168381272885200,5.23088525390625,0.33475416898727417,0.13500121235847473,0.10445795953273773
1788168381289041700,5.247041748046875,0.09896016865968704,0.02321287989616394,0.018936822190880775
1788168381305200400,5.263200439453125,-0.08674286305904388,-0.03420845419168472,-0.19975294172763824
1788168381321363500,5.279363525390625,-0.18325957655906677,0.00733038317412138,-0.3274237811565399
1788168381337618000,5.295617919921875,-0.13500121235847473,0.09162978827953339,-0.2840523421764374
1788168381353697000,5.311697021484375,0.05864306539297104,0.1820378452539444,-0.06841690838336945
1788168381369887200,5.32788720703125,0.2889392673969269,0.12828169763088226,0.20891591906547546
1788168381386062000,5.34406201171875,0.42699480056762695,-0.07269296050071716,0.4184426963329315
1788168381402238200,5.36023828125,0.43188172578811646,-0.2632829248905182,0.5027421116828918
1788168381418487300,5.3764873046875,0.3433062732219696,-0.33475416898727417,0.4141666293144226
1788168381434586000,5.392586181640625,0.2675589919090271,-0.2718350291252136,0.13988813757896423
1788168381450694000,5.40869384765625,0.2577851414680481,-0.09468411654233932,-0.24984388053417206
1788168381466905000,5.424905029296875,0.22968533635139465,0.08674286305904388,-0.5479460954666138
1788168381483039200,5.441039306640625,0.0959058403968811,0.14782938361167908,-0.6743952035903931
1788168381499276000,5.457276123046875,0.05009094998240471,0.25045475363731384,-0.5791002511978149
1788168381515330300,5.473330322265625,0.03237585723400116,0.26145032048225403,-0.36651915311813354
1788168381531520800,5.489520751953125,0.025045474991202354,0.23273965716362,-0.07330382615327835
1788168381547651300,5.5056513671875,0.06902777403593063,0.08979719132184982,0.17043140530586243
1788168381563838000,5.521837890625,0.13744467496871948,-0.08918632566928864,0.3799581825733185
1788168381580060200,5.53806005859375,0.19364428520202637,-0.17470745742321014,0.5094616413116455
1788168381596123600,5.55412353515625,0.182648703455925,-0.2871066629886627,0.6688974499702454
1788168381612273200,5.570273193359375,0.09834930300712585,-0.4337143301963806,0.8203920125961304
1788168381628414500,5.58641455078125,0.015882495790719986,-0.5320636034011841,0.8515461683273315
1788168381644597000,5.602596923828125,0.024434609338641167,-0.5387831330299377,0.6988298296928406
1788168381660705500,5.61870556640625,0.10323622822761536,-0.48319441080093384,0.4495968222618103
1788168381676916000,5.634916015625,0.2119702398777008,-0.35246923565864563,0.18814650177955627
1788168381693025500,5.651025634765625,0.2528982162475586,-0.18875735998153687,0.059864792972803116
1788168381709161500,5.667161376953125,0.21807889640331268,-0.05925392732024193,0.12461651116609573
1788168381725342200,5.68334228515625,0.1771509200334549,-0.039706241339445114,0.26939156651496887
1788168381741493200,5.6994931640625,0.1771509200334549,-0.1869247704744339,0.38728857040405273
1788168381757608400,5.7156083984375,0.18020524084568024,-0.41233405470848083,0.4550946056842804
1788168381773769500,5.73176953125,0.1814269721508026,-0.6120869517326355,0.4245513379573822
1788168381789926400,5.747926513671875,0.1716531366109848,-0.7293730974197388,0.2932153046131134
1788168381806132500,5.764132568359375,0.10506882518529892,-0.5797111392021179,0.13072516024112701
1788168381822359800,5.78035986328125,0.054367005825042725,-0.3952298164367676,0.013439035043120384
1788168381838305000,5.796304931640625,0.05192354694008827,-0.06414084881544113,-0.031154127791523933
1788168381854636000,5.812635986328125,0.02076941914856434,0.1319468915462494,-0.13500121235847473
1788168381870798000,5.828798095703125,-0.09346238523721695,0.10506882518529892,-0.2620611786842346
1788168381886916900,5.844916748046875,-0.24434609711170197,-0.13011430203914642,-0.3891211748123169
1788168381903072300,5.861072265625,-0.3781255781650543,-0.2742784917354584,-0.4404338300228119
1788168381919195600,5.877195556640625,-0.43127086758613586,-0.1661553531885147,-0.34208452701568604
1788168381935366000,5.893365966796875,-0.4092797040939331,0.11239920556545258,-0.14782938361167908
1788168381951540700,5.909540771484375,-0.3023782968521118,0.3787364661693573,0.012217304669320583
1788168381967728000,5.92572802734375,-0.15943582355976105,0.44654250144958496,0.04337143152952194
1788168381983983400,5.9419833984375,-0.06658431142568588,0.31459560990333557,0.006108652334660292
1788168382000083700,5.958083740234375,-0.03848451003432274,0.04092797264456749,-0.0910189226269722
1788168382016191500,5.97419140625,-0.059864792972803116,-0.19058994948863983,-0.1514945775270462
1788168382032328700,5.99032861328125,-0.07696902006864548,-0.2938261926174164,-0.1918116807937622
1788168382048452900,6.006452880859375,-0.05742133408784866,-0.2828305959701538,-0.1612684279680252
1788168382064668400,6.02266845703125,-0.03176499158143997,-0.19608774781227112,-0.03237585723400116
1788168382080738000,6.038738037109375,0,-0.05497787147760391,0.12889257073402405
1788168382096898600,6.054898681640625,0.003054326167330146,0.03848451003432274,0.24923302233219147
1788168382113089300,6.07108935546875,-0.010995574295520782,0.0354301854968071,0.2681698501110077
1788168382129241600,6.08724169921875,-0.022602014243602753,-0.025656340643763542,0.22357667982578278
1788168382145469000,6.103468994140625,-0.03176499158143997,-0.08124507963657379,0.14782938361167908
1788168382161456000,6.1194560546875,-0.05375614017248154,-0.12889257073402405,0.0757472887635231
1788168382177656300,6.13565625,-0.1014036312699318,-0.15882496535778046,0.03848451003432274
1788168382193858600,6.151858642578125,-0.1563815027475357,-0.1918116807937622,-0.02871066704392433
1788168382210019600,6.16801953125,-0.18875735998153687,-0.26939156651496887,-0.009162978269159794
1788168382226216200,6.18421630859375,-0.1869247704744339,-0.2541199326515198,0.10018189996480942
1788168382242303200,6.20030322265625,-0.11789698898792267,-0.23640485107898712,0.15515977144241333
1788168382258429700,6.2164296875,-0.018325956538319588,-0.313373863697052,0.18997909128665924
1788168382274591700,6.232591796875,0.05192354694008827,-0.2767219543457031,0.2119702398777008
1788168382290759000,6.248759033203125,0.11301007121801376,-0.23457226157188416,0.20036379992961884
1788168382307009300,6.26500927734375,0.1563815027475357,-0.2669481039047241,0.21441370248794556
1788168382323067600,6.281067626953125,0.08185594528913498,-0.05742133408784866,0.17776179313659668
1788168382339225600,6.2972255859375,0.14416420459747314,-0.14844025671482086,0.18936823308467865
1788168382355399000,6.31339892578125,0.09346238523721695,-0.19303341209888458,0.24617868661880493
1788168382371573000,6.329572998046875,0.16920967400074005,-0.3194825351238251,0.15943582355976105
1788168382387791000,6.345791015625,0.2064724564552307,-0.42210787534713745,0.13011430203914642
1788168382403878100,6.361878173828125,0.15027284622192383,-0.47830748558044434,0.24862214922904968
1788168382420032000,6.378031982421875,0.09285151958465576,-0.43188172578811646,0.3188716471195221
1788168382436208400,6.39420849609375,0.015271631069481373,-0.3982841372489929,0.21502456068992615
1788168382452339700,6.410339599609375,0.01771509274840355,-0.48319441080093384,-0.048258353024721146
1788168382468520400,6.4265205078125,0.07269296050071716,-0.5002986192703247,-0.18509216606616974
1788168382484608500,6.4426083984375,0.09162978827953339,-0.49846604466438293,-0.20586158335208893
1788168382500711200,6.458711181640625,0.07208210229873657,-0.413555771112442,-0.21868975460529327
1788168382516842500,6.474842529296875,0.10567969083786011,-0.2321287989616394,-0.2223549485206604
1788168382532977700,6.490977783203125,0.18814650177955627,-0.027488935738801956,-0.23151792585849762
1788168382549069600,6.507069580078125,0.2938261926174164,0.018936822190880775,-0.3500257730484009
1788168382565270000,6.52327001953125,0.3640756905078888,0.028099801391363144,-0.4355469346046448
1788168382581374700,6.539374755859375,0.3017674386501312,-0.06780604273080826,-0.5180137157440186
1788168382597562600,6.555562744140625,0.1472185254096985,-0.1111774742603302,-0.6719517707824707
1788168382613761300,6.57176123046875,0.0507018156349659,-0.14782938361167908,-0.7385360598564148
1788168382629992400,6.587992431640625,0.03298672288656235,-0.13988813757896423,-0.6426302194595337
1788168382646066400,6.60406640625,-0.18325957655906677,0.10812314599752426,-0.2541199326515198
1788168382662172000,6.620171875,-0.1466076523065567,0.3903428912162781,0.21624629199504852
1788168382678365200,6.636365234375,-0.07513642311096191,0.2015855312347412,0.46853363513946533
1788168382694522400,6.6525224609375,-0.09346238523721695,-0.01160643994808197,0.5577199459075928
1788168382710752500,6.66875244140625,-0.22296582162380219,-0.1417207419872284,0.4703662395477295
1788168382726869200,6.684869140625,-0.2742784917354584,-0.12522737681865692,0.323147714138031
1788168382742975500,6.7009755859375,-0.25106561183929443,-0.001832595793530345,0.1264491081237793
1788168382759164400,6.717164306640625,-0.21807889640331268,-0.00733038317412138,-0.1014036312699318
1788168382775330800,6.733330810546875,0.14355333149433136,-0.3084869384765625,-0.3225368559360504
1788168382791535600,6.74953564453125,0.4502076804637909,0.003054326167330146,-0.1973094791173935
1788168382807711000,6.7657109375,0.05742133408784866,-0.024434609338641167,0.05742133408784866
1788168382823869200,6.781869140625,-0.3243694305419922,-0.3640756905078888,0.2816088795661926
1788168382840080400,6.798080322265625,-0.342695415019989,-0.475253164768219,0.43249258399009705
1788168382856206600,6.81420654296875,-0.16859880089759827,-0.3176499307155609,0.43127086758613586
1788168382872415500,6.83041552734375,0.02076941914856434,-0.06291911751031876,0.38179078698158264
1788168382888487700,6.84648779296875,0.14355333149433136,0.4948008358478546,0.1014036312699318
1788168382904592400,6.86259228515625,0.14049901068210602,0.827111542224884,-0.04459316283464432
1788168382920770300,6.878770263671875,0.06414084881544113,0.7336491346359253,-0.04703662544488907
1788168382936906500,6.894906494140625,-0.15454891324043274,-0.10751228034496307,0.1417207419872284
1788168382953132000,6.911132080078125,-0.29077184200286865,-0.2889392673969269,0.1472185254096985
1788168382969198600,6.927198486328125,-0.09651670604944229,-0.2687807083129883,0.2736676335334778
1788168382985333800,6.943333740234375,0.14355333149433136,0.015882495790719986,0.33169981837272644
1788168383001476600,6.9594765625,0.23640485107898712,0.15821409225463867,0.2968805134296417
1788168383017615600,6.97561572265625,0.048258353024721146,0.10323622822761536,0.11911872029304504
1788168383033852000,6.991851806640625,-0.16371189057826996,-0.16004669666290283,-0.11362093687057495
1788168383049970000,7.007969970703125,-0.3695734739303589,-0.5161811113357544,-0.33658674359321594
1788168383066129400,7.02412939453125,-0.46853363513946533,-0.6688974499702454,-0.3982841372489929
1788168383082308000,7.04030810546875,-0.4196644127368927,-0.5387831330299377,-0.24862214922904968
1788168383098462000,7.0564619140625,-0.3139847218990326,-0.2119702398777008,0.0024434609804302454
1788168383114635800,7.0726357421875,-0.2480112910270691,-0.06291911751031876,0.12034045159816742
1788168383130724000,7.08872412109375,-0.1918116807937622,-0.0757472887635231,0.10690141469240189
1788168383146870000,7.1048701171875,-0.15271630883216858,-0.09224065393209457,0
1788168383163067600,7.121067626953125,-0.13255776464939117,-0.05619960278272629,-0.14782938361167908
1788168383179229200,7.137229248046875,-0.13439035415649414,-0.10506882518529892,-0.29993483424186707
1788168383195412200,7.153412109375,-0.1014036312699318,-0.1918116807937622,-0.30115658044815063
1788168383211459000,7.169458984375,-0.10384709388017654,-0.34208452701568604,-0.18875735998153687
1788168383227616000,7.185615966796875,-0.1368338167667389,-0.44776421785354614,-0.07635815441608429
1788168383243774500,7.2017744140625,-0.19364428520202637,-0.4447098970413208,-0.039706241339445114
1788168383259941600,7.217941650390625,-0.19425514340400696,-0.2626720666885376,-0.06658431142568588
1788168383276075500,7.234075439453125,-0.13072516024112701,-0.09407325088977814,-0.06536258012056351
1788168383292195000,7.250195068359375,0.005497787147760391,0.003054326167330146,0.039706241339445114
1788168383308324400,7.266324462890625,0.11484266817569733,-0.014049900695681572,0.13500121235847473
1788168383324496100,7.28249609375,0.13744467496871948,-0.10445795953273773,0.12889257073402405
1788168383340669000,7.2986689453125,0.12339477986097336,-0.12034045159816742,0.06108652427792549
1788168383356886300,7.31488623046875,0.10384709388017654,-0.09834930300712585,-0.05375614017248154
1788168383372868000,7.3308681640625,0.09407325088977814,-0.060475658625364304,-0.13316862285137177
1788168383389041200,7.347041259765625,0.10567969083786011,-0.030543262138962746,-0.13927727937698364
1788168383405218000,7.363218017578125,0.14966198801994324,-0.009773843921720982,-0.08246681094169617
1788168383421354000,7.37935400390625,0.22357667982578278,0.006108652334660292,-0.01160643994808197
1788168383437484500,7.395484619140625,0.3023782968521118,0.01771509274840355,0.06414084881544113
1788168383453624800,7.411624755859375,0.3585779070854187,0.02321287989616394,0.11911872029304504
1788168383469754000,7.427754150390625,0.40683624148368835,0.009162978269159794,0.1508837193250656
1788168383485893000,7.44389306640625,0.4251621961593628,-0.08735372871160507,0.1417207419872284
1788168383502017000,7.46001708984375,0.4098905920982361,-0.20097467303276062,0.10934487730264664
1788168383518253600,7.476253662109375,0.35674530267715454,-0.2583959996700287,0.013439035043120384
1788168383534322000,7.492322021484375,0.2773328125476837,-0.14233160018920898,-0.08918632566928864
1788168383550431000,7.508430908203125,0.21807889640331268,0.1215621829032898,-0.08124507963657379
1788168383566621400,7.524621337890625,0.22296582162380219,0.3689626157283783,0.009162978269159794
1788168383582819000,7.540819091796875,0.24556782841682434,0.47769662737846375,0.09529497474431992
1788168383599058000,7.557057861328125,0.2626720666885376,0.4202753007411957,0.03787364438176155
1788168383615133400,7.573133544921875,0.21868975460529327,0.34636059403419495,-0.09468411654233932
1788168383631289600,7.58928955078125,0.15577064454555511,0.2217440903186798,-0.19425514340400696
1788168383647435500,7.605435546875,0.16737708449363708,0.17409659922122955,-0.11850785464048386
1788168383663591200,7.621591064453125,0.2791654169559479,0.1062905490398407,0.07635815441608429
1788168383679773000,7.63777294921875,0.41172316670417786,-0.02382374368607998,0.1716531366109848
1788168383695776000,7.65377587890625,0.50335294008255,-0.22052235901355743,0.19547687470912933
1788168383711969500,7.669969482421875,0.4740314185619354,-0.4043927788734436,0.1368338167667389
1788168383728121300,7.686121337890625,0.36163222789764404,-0.4856378734111786,-0.00366519158706069
1788168383744288000,7.7022880859375,0.23579397797584534,-0.4202753007411957,-0.16920967400074005
1788168383760535000,7.71853515625,0.14538592100143433,-0.2321287989616394,-0.3194825351238251
1788168383776596000,7.734595947265625,0.11484266817569733,-0.036041051149368286,-0.3628539443016052
1788168383792734500,7.750734375,0.1319468915462494,0.08124507963657379,-0.24007004499435425
1788168383808898800,7.76689892578125,0.20525072515010834,0.09162978827953339,-0.027488935738801956
1788168383825018400,7.783018310546875,0.30115658044815063,-0.04581489413976669,0.20952677726745605
1788168383841195800,7.79919580078125,0.32498031854629517,-0.19975294172763824,0.323147714138031
1788168383857281500,7.815281494140625,0.2767219543457031,-0.2217440903186798,0.3121521472930908
1788168383873437200,7.831437255859375,0.19853121042251587,-0.12522737681865692,0.21074850857257843
1788168383889655300,7.8476552734375,0.13805554807186127,0.05864306539297104,0.1368338167667389
1788168383905781000,7.863781005859375,0.10995574295520782,0.1966986060142517,0.10873401165008545
1788168383921998300,7.879998291015625,0.09957103431224823,0.19486601650714874,0.08735372871160507
1788168383938056400,7.896056396484375,0.09957103431224823,0.06108652427792549,0.07147123664617538
1788168383954162700,7.91216259765625,0.04703662544488907,-0.08552113175392151,0.036041051149368286
1788168383970298000,7.928298095703125,-0.039095375686883926,-0.13316862285137177,0.025656340643763542
1788168383986439400,7.944439453125,-0.08918632566928864,-0.018325956538319588,0.054367005825042725
1788168384002667500,7.96066748046875,-0.07024950534105301,0.10995574295520782,0.13561208546161652
1788168384018730500,7.97673046875,-0.014049900695681572,0.15454891324043274,0.20402899384498596
1788168384034859300,7.992859375,0.024434609338641167,0.09346238523721695,0.23579397797584534
1788168384051003600,8.009003662109375,0.02932153269648552,-0.11423180252313614,0.18997909128665924
1788168384067149300,8.0251494140625,-0.012217304669320583,-0.29504790902137756,0.06780604273080826
1788168384083325700,8.04132568359375,-0.05192354694008827,-0.3280346393585205,-0.08002334833145142
1788168384099435800,8.057435791015624,-0.0354301854968071,-0.2321287989616394,-0.16065755486488342
1788168384115539000,8.0735390625,0.022602014243602753,-0.16310101747512817,-0.12767083942890167
1788168384131733500,8.0897333984375,0.06780604273080826,-0.16798794269561768,-0.029932396486401558
1788168384147850000,8.10585009765625,0.08246681094169617,-0.28038713335990906,0.02382374368607998
1788168384164100900,8.122100830078125,0.03298672288656235,-0.42088615894317627,-0.05864306539297104
1788168384180152600,8.138152587890625,-0.08674286305904388,-0.4813618063926697,-0.27977627515792847
1788168384196307000,8.154306884765624,-0.20952677726745605,-0.40133845806121826,-0.44226643443107605
1788168384212508700,8.1705087890625,-0.2431243658065796,-0.19120082259178162,-0.37629300355911255
1788168384228630800,8.186630859375,-0.18081611394882202,0.01466076634824276,-0.07147123664617538
1788168384244872000,8.202871826171876,-0.08307767659425735,0.025045474991202354,0.27061331272125244
1788168384260861700,8.21886181640625,-0.003054326167330146,-0.05803219974040985,0.4190535545349121
1788168384277090300,8.23509033203125,0.00855211354792118,-0.15454891324043274,0.39706242084503174
1788168384293299700,8.2512998046875,-0.039095375686883926,-0.1966986060142517,0.20341812074184418
1788168384309426700,8.2674267578125,-0.09712757170200348,-0.1973094791173935,-0.10201449692249298
1788168384325675300,8.28367529296875,-0.15760323405265808,-0.13866640627384186,-0.3549126982688904
1788168384341722000,8.29972216796875,-0.21930062770843506,-0.07269296050071716,-0.44104471802711487
1788168384357823700,8.31582373046875,-0.24007004499435425,-0.05192354694008827,-0.37751471996307373
1788168384373950200,8.3319501953125,-0.2321287989616394,-0.030543262138962746,-0.24923302233219147
1788168384390075000,8.348074951171874,-0.16737708449363708,0.009162978269159794,-0.08674286305904388
1788168384406302700,8.364302734375,-0.09346238523721695,0.03481931984424591,0.03176499158143997
1788168384422365200,8.380365234375,-0.02871066704392433,0.00733038317412138,0.09712757170200348
1788168384438516700,8.396516845703125,0.012217304669320583,-0.06780604273080826,0.12095131725072861
1788168384454648600,8.412648681640626,0.015271631069481373,-0.11728613078594208,0.09040805697441101
1788168384470841300,8.42884130859375,-0.018325956538319588,-0.12095131725072861,-0.010995574295520782
1788168384487070200,8.4450703125,-0.05375614017248154,-0.0861319974064827,-0.08185594528913498
1788168384503136000,8.461135986328125,-0.06719517707824707,-0.007941247895359993,-0.12767083942890167
1788168384519286800,8.477286865234374,-0.02076941914856434,0.07635815441608429,-0.09896016865968704
1788168384535430100,8.49343017578125,0.07330382615327835,0.1160643994808197,-0.014049900695681572
1788168384551578600,8.50957861328125,0.1869247704744339,0.11667526513338089,0.09040805697441101
1788168384567732200,8.525732177734374,0.2565633952617645,0.0806342139840126,0.17348572611808777
1788168384583896300,8.541896240234376,0.2987131178379059,0.05742133408784866,0.2528982162475586
1788168384600002800,8.5580029296875,0.31642818450927734,0.06475171446800232,0.2828305959701538
1788168384616161000,8.5741611328125,0.342695415019989,0.028099801391363144,0.24495697021484375
1788168384632313600,8.590313720703126,0.3530801236629486,-0.04214970022439957,0.18570303916931152
1788168384648559600,8.6065595703125,0.34208452701568604,-0.0708603709936142,0.17409659922122955
1788168384664643800,8.622643798828125,0.3188716471195221,-0.05803219974040985,0.1722639948129654
1788168384680802300,8.63880224609375,0.2932153046131134,0.015271631069481373,0.16432274878025055
1788168384696960000,8.6549599609375,0.2791654169559479,0.0708603709936142,0.08002334833145142
1788168384713169700,8.671169677734374,0.2974913716316223,0.05803219974040985,-0.04764748737215996
1788168384729404700,8.68740478515625,0.33475416898727417,0.029932396486401558,-0.09957103431224823
1788168384745483000,8.70348291015625,0.34636059403419495,-0.07024950534105301,-0.06230825558304787
1788168384761627000,8.719626953125,0.3787364661693573,-0.1973094791173935,0.09957103431224823
1788168384777820200,8.735820068359375,0.4398229718208313,-0.19425514340400696,0.35185837745666504
1788168384793985500,8.751985595703125,0.5143485069274902,-0.09896016865968704,0.5375614166259766
1788168384810130400,8.76813037109375,0.5839871764183044,-0.07024950534105301,0.5363397002220154
1788168384826219300,8.78421923828125,0.6004805564880371,-0.0659734457731247,0.45265114307403564
1788168384842514700,8.8005146484375,0.5479460954666138,-0.06780604273080826,0.3323107063770294
1788168384858728000,8.81672802734375,0.4813618063926697,-0.0959058403968811,0.20952677726745605
1788168384874904600,8.832904541015624,0.3988949954509735,-0.1313360333442688,0.04581489413976669
1788168384891122700,8.849122802734374,0.30115658044815063,-0.11728613078594208,-0.08552113175392151
1788168384907181800,8.865181884765626,0.22846360504627228,-0.04092797264456749,-0.12278391420841217
1788168384923287600,8.88128759765625,0.20341812074184418,0.03481931984424591,-0.06169738993048668
1788168384939418000,8.897418212890624,0.21502456068992615,0.10445795953273773,0.025045474991202354
1788168384955554300,8.91355419921875,0.22052235901355743,0.10323622822761536,0.07452555745840073
1788168384971785700,8.92978564453125,0.21807889640331268,0.05742133408784866,0.07819075137376785
1788168384987836000,8.9458359375,0.2125810980796814,0.01771509274840355,0.06841690838336945
1788168385003944400,8.9619443359375,0.19425514340400696,-0.0024434609804302454,0.07391469180583954
1788168385020090600,8.978090576171875,0.17409659922122955,-0.05009094998240471,0.0959058403968811
1788168385036245000,8.994244873046876,0.15515977144241333,-0.11178833991289139,0.12461651116609573
1788168385052489500,9.010489501953124,0.11239920556545258,-0.21319197118282318,0.11789698898792267
1788168385068418300,9.026418212890626,0.06230825558304787,-0.3182607889175415,0.056810468435287476
1788168385084689000,9.04268896484375,0.02076941914856434,-0.3793473243713379,-0.024434609338641167
1788168385100843500,9.058843505859375,0.021380282938480377,-0.31031954288482666,-0.08124507963657379
1788168385117005000,9.075005126953124,0.05803219974040985,-0.16371189057826996,-0.042760565876960754
1788168385133169000,9.0911689453125,0.0959058403968811,-0.05497787147760391,0.04703662544488907
1788168385149215000,9.107215087890625,0.10323622822761536,-0.07880161702632904,0.07024950534105301
1788168385165408000,9.123407958984375,0.09957103431224823,-0.17959438264369965,0.03726277872920036
1788168385181574000,9.139573974609375,0.07513642311096191,-0.30604347586631775,-0.03176499158143997
1788168385197718500,9.155718505859374,0.014049900695681572,-0.3738495409488678,-0.11178833991289139
1788168385213978000,9.17197802734375,-0.0659734457731247,-0.3023782968521118,-0.1514945775270462
1788168385229932800,9.187932861328125,-0.07391469180583954,-0.13500121235847473,-0.14233160018920898
1788168385246158800,9.204158935546875,-0.01466076634824276,0.03298672288656235,-0.07819075137376785
1788168385262334500,9.22033447265625,0.045204028487205505,0.05314527451992035,-0.02382374368607998
1788168385278431500,9.236431396484376,0.04642575979232788,-0.07635815441608429,-0.11667526513338089
1788168385294566100,9.252566162109375,-0.025045474991202354,-0.14782938361167908,-0.35063666105270386
1788168385310655000,9.268655029296875,-0.10506882518529892,-0.02382374368607998,-0.3927863538265228
1788168385326914300,9.284914306640625,-0.09773843735456467,0.19120082259178162,-0.2278527319431305
1788168385343127000,9.301126953125,-0.01710422709584236,0.3237585723400116,-0.03298672288656235
1788168385359265000,9.31726513671875,0.05253441259264946,0.2932153046131134,0.05009094998240471
1788168385375411000,9.333410888671875,0.05314527451992035,0.1973094791173935,0.06352998316287994
1788168385391597600,9.34959765625,0,0.1014036312699318,-0.012828170321881771
1788168385407704300,9.365704345703126,-0.01771509274840355,0.056810468435287476,-0.12950342893600464
1788168385423848200,9.38184814453125,0.009162978269159794,0.033597588539123535,-0.18387043476104736
1788168385439995600,9.39799560546875,0.02932153269648552,0.05314527451992035,-0.15027284622192383
1788168385456179500,9.414179443359375,0.030543262138962746,0.06352998316287994,-0.05314527451992035
1788168385472308500,9.43030859375,0.02871066704392433,0.06352998316287994,0.007941247895359993
1788168385488464000,9.4464638671875,0.04764748737215996,0.06108652427792549,0.04642575979232788
1788168385504608300,9.462608154296875,0.0507018156349659,0.0403171069920063,0.03726277872920036
1788168385520758000,9.478758056640626,0.09040805697441101,0,0.02871066704392433
1788168385537004000,9.495004150390624,0.15271630883216858,-0.00855211354792118,0.02932153269648552
1788168385553069800,9.51106982421875,0.22418753802776337,-0.02076941914856434,0.014049900695681572
1788168385569186800,9.527186767578126,0.24556782841682434,-0.07513642311096191,-0.039706241339445114
1788168385585340700,9.543340576171875,0.20891591906547546,-0.12278391420841217,-0.09224065393209457
1788168385601548000,9.559548095703125,0.14233160018920898,-0.1270599663257599,-0.11362093687057495
1788168385617799000,9.575798828125,0.13927727937698364,-0.09224065393209457,-0.12767083942890167
1788168385633887000,9.591886962890625,0.24862214922904968,-0.02871066704392433,-0.0959058403968811
1788168385649986600,9.607986572265625,0.3640756905078888,0.007941247895359993,-0.02687807008624077
1788168385666141200,9.62414111328125,0.41599923372268677,-0.010995574295520782,0.02382374368607998
1788168385682260700,9.6402607421875,0.4239404797554016,-0.027488935738801956,0.03726277872920036
1788168385698471400,9.656471435546875,0.40072759985923767,-0.02321287989616394,-0.012828170321881771
1788168385714506200,9.67250634765625,0.3646865487098694,0,-0.045204028487205505
1788168385730615300,9.688615234375,0.3695734739303589,-0.039095375686883926,-0.056810468435287476
1788168385746787300,9.704787353515625,0.4196644127368927,-0.08368854224681854,-0.05375614017248154
1788168385762910000,9.720909912109375,0.4447098970413208,-0.10812314599752426,-0.08552113175392151
1788168385779121000,9.737120849609376,0.394618958234787,-0.16004669666290283,-0.11178833991289139
1788168385795168500,9.75316845703125,0.3023782968521118,-0.16065755486488342,-0.13316862285137177
1788168385811269600,9.76926953125,0.2974913716316223,0.009162978269159794,-0.1661553531885147
1788168385827442400,9.7854423828125,0.39584067463874817,0.19853121042251587,-0.20463985204696655
1788168385843573800,9.80157373046875,0.4440990388393402,0.17348572611808777,-0.26511552929878235
1788168385859792600,9.817792724609374,0.4129449129104614,0.08429940044879913,-0.2742784917354584
1788168385875818200,9.833818359375,0.34147366881370544,0.04153883829712868,-0.24129177629947662
1788168385891989000,9.849989013671875,0.31031954288482666,0.10812314599752426,-0.12095131725072861
1788168385908115200,9.866115234375,0.34025195240974426,0.15760323405265808,-0.005497787147760391
1788168385924252400,9.88225244140625,0.403781920671463,0.0659734457731247,-0.0006108652451075613
1788168385940338700,9.898338623046875,0.4349360466003418,-0.1215621829032898,-0.06841690838336945
1788168385956524300,9.914524169921876,0.41111230850219727,-0.19303341209888458,-0.11239920556545258
1788168385972629500,9.93062939453125,0.342695415019989,-0.15577064454555511,-0.13744467496871948
1788168385988770800,9.946770751953125,0.2736676335334778,-0.08796459436416626,-0.23029619455337524
1788168386004923100,9.962923095703125,0.16798794269561768,0.007941247895359993,-0.23518311977386475
1788168386021155600,9.979155517578125,0.1368338167667389,-0.033597588539123535,-0.14416420459747314
1788168386037196800,9.99519677734375,0.1973094791173935,-0.036041051149368286,-0.04398229718208313
1788168386053295900,10.0112958984375,0.2871066629886627,-0.0012217304902151227,0.0806342139840126
1788168386069439200,10.027439208984376,0.37568211555480957,0.025045474991202354,0.17837265133857727
1788168386085596700,10.0435966796875,0.44593164324760437,0.0012217304902151227,0.23457226157188416
1788168386101774000,10.059774169921875,0.4612032473087311,-0.03298672288656235,0.27061331272125244
1788168386117800700,10.07580078125,0.4489859640598297,-0.08552113175392151,0.2779437005519867
1788168386133993500,10.091993408203125,0.3836233615875244,-0.15271630883216858,0.2119702398777008
1788168386150155800,10.10815576171875,0.3072652220726013,-0.20952677726745605,0.1563815027475357
1788168386166323000,10.124322998046875,0.25534167885780334,-0.15027284622192383,0.15760323405265808
1788168386182579200,10.1405791015625,0.24617868661880493,-0.07391469180583954,0.1716531366109848
1788168386198566100,10.156566162109375,0.2376265823841095,-0.06780604273080826,0.1514945775270462
1788168386214809000,10.17280908203125,0.19853121042251587,-0.07208210229873657,0.08857546001672745
1788168386230981600,10.188981689453126,0.13011430203914642,-0.042760565876960754,0.042760565876960754
1788168386247111400,10.205111328125,0.12278391420841217,-0.0012217304902151227,0.10201449692249298
1788168386263282000,10.221281982421875,0.1661553531885147,-0.005497787147760391,0.1875356286764145
1788168386279393800,10.237393798828125,0.2064724564552307,-0.04764748737215996,0.22602014243602753
1788168386295549700,10.2535498046875,0.21807889640331268,-0.11423180252313614,0.2076941877603531
1788168386311690800,10.269690673828125,0.17470745742321014,-0.2076941877603531,0.13927727937698364
1788168386327825000,10.285824951171875,0.10995574295520782,-0.25473082065582275,0.030543262138962746
1788168386344076800,10.302076904296875,0.04581489413976669,-0.27061331272125244,-0.0659734457731247
1788168386360134100,10.318134033203124,0.059864792972803116,-0.2822197377681732,-0.05742133408784866
1788168386376237000,10.334237060546876,0.13561208546161652,-0.26572638750076294,0.036651913076639175
1788168386392405000,10.350405029296875,0.18081611394882202,-0.28466320037841797,0.09773843735456467
1788168386408548000,10.366548095703125,0.13866640627384186,-0.35124751925468445,0.00855211354792118
1788168386424782600,10.382782470703125,0.01710422709584236,-0.4050036668777466,-0.2070833146572113
1788168386440856300,10.398856201171874,-0.09040805697441101,-0.3384193480014801,-0.34025195240974426
1788168386456961000,10.4149609375,-0.08185594528913498,-0.1618792861700058,-0.24984388053417206
1788168386473139500,10.431139404296875,-0.007941247895359993,0.08429940044879913,0.09651670604944229
1788168386489339400,10.44733935546875,0.039706241339445114,0.09834930300712585,0.41172316670417786
1788168386505561000,10.46356103515625,0.07513642311096191,-0.08002334833145142,0.49724429845809937
1788168386521677600,10.479677490234375,0.06475171446800232,-0.152105450630188,0.413555771112442
1788168386537830400,10.495830322265626,0.021380282938480377,-0.10262536257505417,0.23151792585849762
1788168386554020400,10.512020263671875,-0.021991148591041565,-0.018936822190880775,-0.00855211354792118
1788168386570182400,10.528182373046874,-0.059864792972803116,0.014049900695681572,-0.18936823308467865
1788168386586432500,10.5444326171875,-0.11239920556545258,0.015271631069481373,-0.3017674386501312
1788168386602516500,10.5605166015625,-0.10812314599752426,-0.05009094998240471,-0.28099802136421204
1788168386618619100,10.576619140625,-0.0708603709936142,-0.08674286305904388,-0.15515977144241333
1788168386634784800,10.59278466796875,0.0024434609804302454,-0.06291911751031876,0.006719517521560192
1788168386650903300,10.6089033203125,0.10690141469240189,-0.02382374368607998,0.11545353382825851
1788168386667115800,10.62511572265625,0.22479841113090515,-0.02076941914856434,0.14355333149433136
1788168386683177500,10.641177490234375,0.28649580478668213,-0.05009094998240471,0.09529497474431992
1788168386699302700,10.657302734375,0.2889392673969269,-0.13072516024112701,-0.018325956538319588
1788168386715508200,10.67350830078125,0.23579397797584534,-0.20952677726745605,-0.17043140530586243
1788168386731687000,10.68968701171875,0.19547687470912933,-0.20341812074184418,-0.2620611786842346
1788168386747887600,10.7058876953125,0.20341812074184418,-0.16554448008537292,-0.2272418737411499
1788168386763988000,10.721988037109375,0.27000242471694946,-0.09224065393209457,-0.1270599663257599
1788168386780095200,10.73809521484375,0.3182607889175415,-0.04642575979232788,-0.021380282938480377
1788168386796226800,10.754226806640625,0.37262779474258423,-0.0507018156349659,0.03298672288656235
1788168386812417000,10.7704169921875,0.44104471802711487,-0.0555887371301651,0.04337143152952194
1788168386828646700,10.786646728515626,0.5009095072746277,-0.0555887371301651,0.09162978827953339
1788168386844716300,10.80271630859375,0.5595525503158569,-0.05314527451992035,0.18081611394882202
1788168386860818700,10.818818603515625,0.5827654600143433,-0.07513642311096191,0.23090706765651703
1788168386876957400,10.83495751953125,0.5717698931694031,-0.0861319974064827,0.19792033731937408
1788168386893106000,10.85110595703125,0.523511528968811,-0.07208210229873657,0.0861319974064827
1788168386909237000,10.867237060546875,0.4862487316131592,-0.04214970022439957,0.00366519158706069
1788168386925260000,10.883260009765625,0.5253441333770752,0.030543262138962746,0.009162978269159794
1788168386941474300,10.899474365234376,0.6120869517326355,0.13744467496871948,0.08796459436416626
1788168386957684000,10.91568408203125,0.6780604124069214,0.26083946228027344,0.21380282938480377
1788168386973844000,10.931843994140625,0.6927211880683899,0.1014036312699318,0.2889392673969269
1788168386990034200,10.9480341796875,0.6805039048194885,-0.1875356286764145,0.2987131178379059
1788168387006127400,10.96412744140625,0.6298020482063293,-0.21991148591041565,0.24923302233219147
1788168387022252800,10.980252685546875,0.6114761233329773,-0.039095375686883926,0.13561208546161652
1788168387038402000,10.996402099609375,0.6188064813613892,0.11789698898792267,0.07635815441608429
1788168387054516200,11.01251611328125,0.6224716901779175,0.08368854224681854,0.07696902006864548
1788168387070675700,11.02867578125,0.5821545720100403,-0.08979719132184982,0.09285151958465576
1788168387086674200,11.044674072265625,0.5100724697113037,-0.20830504596233368,0.04398229718208313
1788168387102854700,11.060854736328125,0.4386012554168701,-0.1472185254096985,-0.07941248267889023
1788168387119086000,11.077086181640626,0.3695734739303589,0.005497787147760391,-0.14966198801994324
1788168387135205400,11.093205322265625,0.3378084897994995,0.12767083942890167,-0.11239920556545258
1788168387151394800,11.109394775390625,0.3225368559360504,0.16310101747512817,-0.0507018156349659
1788168387167461400,11.12546142578125,0.31093040108680725,0.06780604273080826,-0.02871066704392433
1788168387183616300,11.1416162109375,0.31459560990333557,-0.02932153269648552,-0.006108652334660292
1788168387199791000,11.157791015625,0.3549126982688904,-0.08979719132184982,0.024434609338641167
1788168387215921200,11.173921142578125,0.4153883755207062,-0.10262536257505417,0.06963863968849182
1788168387232105200,11.190105224609376,0.4899139404296875,-0.06841690838336945,0.13927727937698364
1788168387248200000,11.206199951171875,0.5259549617767334,-0.056810468435287476,0.15577064454555511
1788168387264303600,11.2223037109375,0.5143485069274902,-0.10323622822761536,0.1411098688840866
1788168387280438500,11.2384384765625,0.47708576917648315,-0.14416420459747314,0.13072516024112701
1788168387296576800,11.25457666015625,0.43615779280662537,-0.16737708449363708,0.11239920556545258
1788168387312808700,11.27080859375,0.394008070230484,-0.13316862285137177,0.08735372871160507
1788168387328873200,11.286873291015626,0.35246923565864563,-0.048258353024721146,0.0024434609804302454
1788168387344977400,11.302977294921876,0.3274237811565399,0.036041051149368286,-0.09957103431224823
1788168387361113300,11.31911328125,0.3127630054950714,0.09712757170200348,-0.15454891324043274
1788168387377260300,11.33526025390625,0.3023782968521118,0.14538592100143433,-0.12767083942890167
1788168387393497600,11.35149755859375,0.3066543638706207,0.11972958594560623,-0.015882495790719986
1788168387409571600,11.367571533203124,0.32498031854629517,0.02687807008624077,0.07269296050071716
1788168387425673500,11.383673583984375,0.35246923565864563,-0.09773843735456467,0.11484266817569733
1788168387441832000,11.39983203125,0.37262779474258423,-0.14966198801994324,0.09468411654233932
1788168387458040600,11.41604052734375,0.3543018400669098,-0.13866640627384186,-0.00366519158706069
1788168387474270000,11.43227001953125,0.2877175211906433,-0.14966198801994324,-0.07635815441608429
1788168387490391600,11.4483916015625,0.21135938167572021,-0.16493362188339233,-0.06780604273080826
1788168387506476500,11.4644765625,0.22663100063800812,-0.15760323405265808,0.01710422709584236
1788168387522625500,11.48062548828125,0.242513507604599,-0.16310101747512817,0.019547687843441963
1788168387538786000,11.4967861328125,0.17409659922122955,-0.2889392673969269,-0.23029619455337524
1788168387555034600,11.51303466796875,0.015271631069481373,-0.44837507605552673,-0.5919284224510193
1788168387571110000,11.52910986328125,-0.12400564551353455,-0.2834414839744568,-0.7391469478607178
1788168387587262500,11.545262451171874,-0.14233160018920898,0.09346238523721695,-0.4911356568336487
1788168387603460900,11.5614609375,-0.018325956538319588,0.3536909818649292,-0.0012217304902151227
1788168387619576800,11.577576904296874,0.21074850857257843,0.27488934993743896,0.35674530267715454
1788168387635817000,11.59381689453125,0.35613444447517395,0.06230825558304787,0.40072759985923767
1788168387651894300,11.609894287109375,0.3646865487098694,-0.04337143152952194,0.22357667982578278
1788168387667995400,11.625995361328124,0.31581732630729675,0.001832595793530345,-0.033597588539123535
1788168387684209200,11.642209228515625,0.28649580478668213,0.1014036312699318,-0.2278527319431305
1788168387700330500,11.65833056640625,0.2828305959701538,0.1270599663257599,-0.323147714138031
1788168387716528400,11.6745283203125,0.2577851414680481,0.1160643994808197,-0.3090978264808655
1788168387732610000,11.690610107421875,0.2064724564552307,0.07819075137376785,-0.2272418737411499
1788168387748712200,11.706712158203125,0.16859880089759827,0.04398229718208313,-0.1264491081237793
1788168387764840200,11.722840087890624,0.19120082259178162,0.05375614017248154,-0.00427605677396059
1788168387781019600,11.73901953125,0.28588494658470154,0.07819075137376785,0.0861319974064827
1788168387797244400,11.755244384765625,0.3799581825733185,0.04581489413976669,0.09346238523721695
1788168387813308200,11.77130810546875,0.42699480056762695,-0.01466076634824276,0.08368854224681854
1788168387829411600,11.78741162109375,0.4092797040939331,-0.07208210229873657,0.03420845419168472
1788168387845545700,11.803545654296874,0.34758231043815613,-0.11728613078594208,-0.06963863968849182
1788168387861692700,11.819692626953126,0.32620203495025635,-0.1215621829032898,-0.17043140530586243
1788168387877926400,11.835926513671875,0.3842342495918274,-0.10995574295520782,-0.1612684279680252
1788168387893906400,11.851906494140625,0.46792277693748474,-0.11239920556545258,-0.09529497474431992
1788168387910078000,11.868077880859374,0.5222898125648499,-0.06536258012056351,-0.042760565876960754
1788168387926226700,11.884226806640624,0.513737678527832,-0.01038470957428217,-0.04337143152952194
1788168387942385200,11.90038525390625,0.48869219422340393,0.06352998316287994,-0.1014036312699318
1788168387958518300,11.916518310546875,0.4899139404296875,0.11301007121801376,-0.17043140530586243
1788168387974609000,11.93260888671875,0.4648684561252594,0.08307767659425735,-0.18081611394882202
1788168387990784500,11.948784423828124,0.4349360466003418,-0.0012217304902151227,-0.06352998316287994
1788168388006978600,11.964978515625,0.4697553813457489,-0.12095131725072861,0.20891591906547546
1788168388023075300,11.981075439453125,0.5424483418464661,-0.2474004179239273,0.4001167416572571
1788168388039260200,11.99726025390625,0.5693264007568359,-0.251676470041275,0.38606682419776917
1788168388055270100,12.013270263671876,0.5308418869972229,-0.07208210229873657,0.23518311977386475
1788168388071483600,12.029483642578125,0.4691445231437683,0.1612684279680252,0.01038470957428217
1788168388087647500,12.0456474609375,0.42149701714515686,0.1966986060142517,-0.12889257073402405
1788168388103767300,12.061767333984376,0.38179078698158264,0.07147123664617538,-0.11362093687057495
1788168388119975400,12.077975341796876,0.3433062732219696,-0.10323622822761536,-0.021380282938480377
1788168388136023600,12.0940234375,0.3530801236629486,-0.3090978264808655,0.048258353024721146
1788168388152130300,12.11013037109375,0.43615779280662537,-0.3640756905078888,0.12034045159816742
1788168388168256300,12.12625634765625,0.5051855444908142,-0.26083946228027344,0.16249015927314758
1788168388184388000,12.14238818359375,0.5522221922874451,-0.15760323405265808,0.1722639948129654
1788168388200529700,12.15852978515625,0.5674937963485718,-0.19364428520202637,0.12278391420841217
1788168388216556300,12.174556396484375,0.5180137157440186,-0.2736676335334778,0.02321287989616394
1788168388232766200,12.19076611328125,0.46181413531303406,-0.37629300355911255,-0.07330382615327835
1788168388248895000,12.20689501953125,0.43188172578811646,-0.4056145250797272,-0.18936823308467865
1788168388265033200,12.223033203125,0.4343251883983612,-0.3488040566444397,-0.26939156651496887
1788168388281254400,12.23925439453125,0.3579670190811157,-0.13866640627384186,-0.25534167885780334
1788168388297369300,12.255369384765626,0.3292563557624817,-0.07269296050071716,-0.13255776464939117
1788168388313475000,12.27147509765625,0.36224308609962463,-0.027488935738801956,-0.0403171069920063
1788168388329610500,12.287610595703125,0.39095374941825867,-0.0024434609804302454,0.08796459436416626
1788168388345756400,12.30375634765625,0.43188172578811646,0.036651913076639175,0.20586158335208893
1788168388362000400,12.32000048828125,0.4948008358478546,0.05375614017248154,0.2974913716316223
1788168388378041600,12.33604150390625,0.5351179838180542,0.013439035043120384,0.33536502718925476
1788168388394233300,12.3522333984375,0.513737678527832,-0.031154127791523933,0.3433062732219696
1788168388410382000,12.368382080078124,0.41722095012664795,-0.07513642311096191,0.30054569244384766
1788168388426532600,12.38453271484375,0.34208452701568604,-0.05742133408784866,0.1973094791173935
1788168388442786800,12.400786865234375,0.31520646810531616,0.01160643994808197,0.08429940044879913
1788168388458874000,12.4168740234375,0.30604347586631775,0.059864792972803116,-0.009773843921720982
1788168388474977000,12.43297705078125,0.2736676335334778,0.06352998316287994,-0.03420845419168472
1788168388491137800,12.4491376953125,0.22968533635139465,0.02932153269648552,-0.0006108652451075613
1788168388507250700,12.465250732421875,0.20830504596233368,0.010995574295520782,0.04886921867728233
1788168388523424800,12.4814248046875,0.2376265823841095,0.04459316283464432,0.07635815441608429
1788168388539547400,12.49754736328125,0.27611109614372253,0.012217304669320583,0.03420845419168472
1788168388555651600,12.513651611328125,0.2480112910270691,-0.09896016865968704,-0.0555887371301651
1788168388571813600,12.529813720703125,0.1765400618314743,-0.1569923609495163,-0.15760323405265808
1788168388587924700,12.5459248046875,0.13988813757896423,-0.192422553896904,-0.18020524084568024
1788168388604137700,12.5621376953125,0.14233160018920898,-0.2583959996700287,-0.1411098688840866
1788168388620223000,12.578222900390625,0.18020524084568024,-0.3439171314239502,-0.08124507963657379
1788168388636376000,12.5943759765625,0.1869247704744339,-0.37629300355911255,-0.059864792972803116
1788168388652547800,12.6105478515625,0.13744467496871948,-0.37751471996307373,-0.16493362188339233
1788168388668671000,12.6266708984375,0.03848451003432274,-0.3439171314239502,-0.3927863538265228
1788168388684799700,12.6427998046875,-0.060475658625364304,-0.22113321721553802,-0.5583308339118958
1788168388700944400,12.6589443359375,-0.09346238523721695,-0.01771509274840355,-0.49724429845809937
1788168388717074400,12.675074462890626,-0.03481931984424591,0.12522737681865692,-0.20830504596233368
1788168388733238800,12.69123876953125,0.06902777403593063,0.11728613078594208,0.09162978827953339
1788168388749424600,12.707424560546874,0.16554448008537292,-0.029932396486401558,0.27611109614372253
1788168388765634800,12.723634765625,0.17409659922122955,-0.09346238523721695,0.2474004179239273
1788168388781587700,12.739587646484376,0.13255776464939117,-0.0354301854968071,0.12950342893600464
1788168388797843000,12.755843017578124,0.1258382350206375,0.02076941914856434,0.00855211354792118
1788168388813980200,12.771980224609376,0.16554448008537292,0.03298672288656235,-0.05803219974040985
1788168388830094000,12.788093994140626,0.21563543379306793,0.04153883829712868,-0.04153883829712868
1788168388846342700,12.8043427734375,0.24678955972194672,0.018936822190880775,-0.001832595793530345
1788168388862290400,12.82029052734375,0.21930062770843506,0.003054326167330146,0.03726277872920036
1788168388878515000,12.836514892578125,0.15577064454555511,0.021991148591041565,0.09773843735456467
1788168388894660900,12.852660888671876,0.1820378452539444,0.04642575979232788,0.15577064454555511
1788168388910819000,12.868819091796874,0.26022860407829285,0.056810468435287476,0.1973094791173935
1788168388926971600,12.8849716796875,0.31459560990333557,0.036041051149368286,0.20402899384498596
1788168388943037400,12.901037353515624,0.34025195240974426,-0.003054326167330146,0.13561208546161652
1788168388959245000,12.9172451171875,0.31581732630729675,-0.05009094998240471,0.04153883829712868
1788168388975403500,12.933403564453124,0.2565633952617645,-0.07880161702632904,-0.039706241339445114
1788168388991517000,12.949516845703124,0.23273965716362,-0.0555887371301651,-0.1007927656173706
1788168389007724500,12.965724609375,0.2632829248905182,-0.02382374368607998,-0.12034045159816742
1788168389023814400,12.981814453125,0.3335324227809906,-0.04092797264456749,-0.07696902006864548
1788168389039915500,12.99791552734375,0.42210787534713745,-0.05192354694008827,0.005497787147760391
1788168389056075800,13.01407568359375,0.5064072608947754,-0.036651913076639175,0.10873401165008545
1788168389072195600,13.030195556640624,0.588874101638794,-0.021380282938480377,0.1869247704744339
1788168389088359000,13.04635888671875,0.6896668672561646,-0.025045474991202354,0.2773328125476837
1788168389104440300,13.0624404296875,0.7623597979545593,-0.054367005825042725,0.36224308609962463
1788168389120558300,13.078558349609375,0.7910705208778381,-0.0910189226269722,0.35674530267715454
1788168389136732200,13.094732177734375,0.7574729323387146,-0.13011430203914642,0.2742784917354584
1788168389152861700,13.11086181640625,0.6927211880683899,-0.16859880089759827,0.17470745742321014
1788168389169014000,13.127013916015626,0.6450737118721008,-0.1667662113904953,0.14905111491680145
1788168389185080300,13.143080322265625,0.6328563690185547,-0.07391469180583954,0.19853121042251587
1788168389201244400,13.159244384765625,0.6261368989944458,0.11484266817569733,0.2321287989616394
1788168389217373400,13.17537353515625,0.5833762884140015,0.1973094791173935,0.1514945775270462
1788168389233506800,13.1915068359375,0.4801400899887085,0.0507018156349659,-0.02076941914856434
1788168389249731000,13.20773095703125,0.40683624148368835,-0.04214970022439957,-0.05253441259264946
1788168389265829000,13.2238291015625,0.4043927788734436,-0.05742133408784866,0.0959058403968811
1788168389281929200,13.23992919921875,0.44226643443107605,-0.09224065393209457,0.23090706765651703
1788168389298066000,13.25606591796875,0.4434881806373596,-0.16249015927314758,0.26633724570274353
1788168389314209300,13.272209228515624,0.3933972120285034,-0.22968533635139465,0.20891591906547546
1788168389330380000,13.288380126953125,0.34147366881370544,-0.26083946228027344,0.08368854224681854
1788168389346454800,13.304454833984375,0.26633724570274353,-0.27122417092323303,-0.015882495790719986
1788168389362648000,13.32064794921875,0.18081611394882202,-0.2376265823841095,-0.08796459436416626
1788168389378795300,13.336795166015625,0.1160643994808197,-0.1875356286764145,-0.152105450630188
1788168389394947600,13.352947509765626,0.06475171446800232,-0.07757988572120667,-0.18448130786418915
1788168389411190500,13.3691904296875,0.036041051149368286,0.048258353024721146,-0.14905111491680145
1788168389427274200,13.385274169921875,0.028099801391363144,0.13744467496871948,-0.07269296050071716
1788168389443377200,13.401377197265624,0.05314527451992035,0.13500121235847473,0.029932396486401558
1788168389459536400,13.417536376953125,0.08491026610136032,0.07696902006864548,0.14355333149433136
1788168389475648500,13.4336484375,0.1062905490398407,0.00733038317412138,0.21441370248794556
1788168389491887400,13.449887451171875,0.09834930300712585,-0.02076941914856434,0.18631389737129211
1788168389508013600,13.466013671875,0.0861319974064827,-0.0012217304902151227,0.11972958594560623
1788168389524119000,13.482119140625,0.08857546001672745,0.03176499158143997,0.09407325088977814
1788168389540284200,13.4982841796875,0.10690141469240189,-0.003054326167330146,0.08674286305904388
1788168389556404500,13.514404541015624,0.11667526513338089,-0.06475171446800232,0.02871066704392433
1788168389572618800,13.53061865234375,0.07819075137376785,-0.08185594528913498,-0.03787364438176155
1788168389588666600,13.54666650390625,0.024434609338641167,-0.04092797264456749,-0.07513642311096191
1788168389604772400,13.5627724609375,0.02871066704392433,0.030543262138962746,-0.06291911751031876
1788168389620946700,13.57894677734375,0.06780604273080826,0.07269296050071716,-0.01710422709584236
1788168389637073000,13.595072998046875,0.10201449692249298,0.05253441259264946,0.08735372871160507
1788168389653298200,13.611298095703125,0.14538592100143433,-0.004886921960860491,0.16554448008537292
1788168389669364700,13.62736474609375,0.16065755486488342,-0.11911872029304504,0.1417207419872284
1788168389685468200,13.64346826171875,0.12950342893600464,-0.23518311977386475,0.018325956538319588
1788168389701604900,13.65960498046875,0.051312681287527084,-0.27061331272125244,-0.03787364438176155
1788168389717745700,13.67574560546875,0.00427605677396059,-0.22113321721553802,-0.07024950534105301
1788168389733921800,13.691921875,0.00855211354792118,-0.2064724564552307,-0.1007927656173706
1788168389757808400,13.715808349609375,0.07391469180583954,-0.28038713335990906,0.001832595793530345
1788168389773878000,13.7318779296875,0.06658431142568588,-0.403781920671463,0.07147123664617538
1788168389789990700,13.74799072265625,-0.0659734457731247,-0.6805039048194885,-0.1111774742603302
1788168389806231600,13.7642314453125,-0.22357667982578278,-0.6542366743087769,-0.3854559659957886
1788168389822494200,13.780494140625,-0.37568211555480957,-0.2535090744495392,-0.5296201705932617
1788168389838565400,13.7965654296875,-0.3891211748123169,0.1667662113904953,-0.3628539443016052
1788168389854606300,13.8126064453125,-0.24007004499435425,0.2932153046131134,0.02687807008624077
1788168389870775800,13.82877587890625,-0.07391469180583954,-0.04459316283464432,0.3481931984424591
1788168389886976800,13.844976806640625,0.012217304669320583,-0.3891211748123169,0.4434881806373596
1788168389903489000,13.861489013671875,0.01771509274840355,-0.4050036668777466,0.30604347586631775
1788168389919569400,13.8775693359375,-0.018325956538319588,-0.18448130786418915,0.10690141469240189
1788168389935423000,13.893423095703126,-0.024434609338641167,0.08002334833145142,-0.019547687843441963
1788168389951481000,13.909481201171875,0.015271631069481373,0.10934487730264664,0.018936822190880775
1788168389967723500,13.9257236328125,0.05619960278272629,-0.033597588539123535,0.11484266817569733
1788168389984191000,13.94219091796875,0.06169738993048668,-0.14416420459747314,0.1111774742603302
1788168389999985700,13.957985595703125,0.04703662544488907,-0.10445795953273773,0.054367005825042725
1788168390016240000,13.974240234375,0.05192354694008827,-0.012217304669320583,0.02015855349600315
1788168390032644600,13.99064453125,0.07452555745840073,0.033597588539123535,-0.018936822190880775
1788168390048679000,14.006678955078126,0.1264491081237793,0.01710422709584236,-0.02932153269648552
1788168390064700200,14.0227001953125,0.22663100063800812,-0.1722639948129654,0.05253441259264946
1788168390081129500,14.03912939453125,0.29626965522766113,-0.3885102868080139,0.07696902006864548
1788168390097007000,14.055007080078125,0.294437050819397,-0.3830125033855438,-0.00366519158706069
1788168390112976000,14.070975830078124,0.28955012559890747,-0.1667662113904953,-0.11239920556545258
1788168390129166800,14.087166748046876,0.3182607889175415,0.05619960278272629,-0.17409659922122955
1788168390145649700,14.103649658203125,0.3579670190811157,0.13500121235847473,-0.16798794269561768
1788168390161660700,14.11966064453125,0.40256020426750183,0.10201449692249298,-0.10506882518529892
1788168390177524200,14.135524169921876,0.43799036741256714,0.045204028487205505,-0.010995574295520782
1788168390193629000,14.15162890625,0.4990769028663635,0.05375614017248154,0.08552113175392151
1788168390210197000,14.168197021484374,0.5510004758834839,0.06780604273080826,0.14233160018920898
1788168390226345500,14.184345458984374,0.5491678714752197,0.02871066704392433,0.1313360333442688
1788168390242410500,14.200410400390625,0.4905247986316681,-0.00427605677396059,0.08491026610136032
1788168390258481200,14.216481201171876,0.4300491213798523,-0.013439035043120384,0.04948008432984352
1788168390274335500,14.23233544921875,0.3927863538265228,0.015271631069481373,0.033597588539123535
1788168390290631000,14.248630859375,0.38728857040405273,0.06414084881544113,0.06414084881544113
1788168390306943000,14.26494287109375,0.35185837745666504,0.11789698898792267,0.0659734457731247
1788168390322971600,14.2809716796875,0.303600013256073,0.16310101747512817,0.030543262138962746
1788168390339556400,14.297556396484374,0.18509216606616974,0.1014036312699318,-0.11301007121801376
1788168390355616000,14.313615966796876,0.03481931984424591,-0.04398229718208313,-0.24617868661880493
1788168390371805700,14.3298056640625,-0.025045474991202354,-0.05192354694008827,-0.22479841113090515
1788168390388009000,14.346009033203124,0.028099801391363144,0.015882495790719986,0.04703662544488907
1788168390404123600,14.36212353515625,0.13316862285137177,0.10323622822761536,0.46181413531303406
1788168390420262100,14.37826220703125,0.21135938167572021,0.07941248267889023,0.6994407176971436
1788168390436413200,14.3944130859375,0.2590068578720093,-0.08185594528913498,0.7660250067710876
1788168390452314600,14.410314697265624,0.29504790902137756,-0.2736676335334778,0.720820963382721
1788168390468642300,14.426642333984375,0.303600013256073,-0.35246923565864563,0.6139195561408997
1788168390484909600,14.44290966796875,0.3182607889175415,-0.2822197377681732,0.4288274049758911
1788168390500839700,14.458839599609375,0.3219259977340698,-0.22479841113090515,0.22968533635139465
1788168390516974000,14.47497412109375,0.252287358045578,-0.20891591906547546,0.02626720629632473
1788168390533545500,14.49154541015625,0.11239920556545258,-0.21502456068992615,-0.13011430203914642
1788168390549499400,14.50749951171875,-0.0006108652451075613,-0.18020524084568024,-0.2565633952617645
1788168390565464800,14.52346484375,-0.036041051149368286,-0.0708603709936142,-0.27488934993743896
1788168390581478700,14.539478759765625,-0.0024434609804302454,0.04703662544488907,-0.14966198801994324
1788168390597693200,14.555693115234375,0.060475658625364304,0.060475658625364304,0.010995574295520782
1788168390613904400,14.571904296875,0.1014036312699318,0.013439035043120384,0.08857546001672745
1788168390630143500,14.5881435546875,0.06475171446800232,-0.01771509274840355,0.16737708449363708
1788168390646442200,14.604442138671875,0.025656340643763542,-0.001832595793530345,0.14233160018920898
1788168390662275600,14.620275634765624,0.05925392732024193,0.02076941914856434,0.05497787147760391
1788168390678413300,14.636413330078126,0.09773843735456467,0.0006108652451075613,0.031154127791523933
1788168390694872800,14.652872802734375,0.09834930300712585,-0.0354301854968071,0.06902777403593063
1788168390711003100,14.669003173828125,0.05253441259264946,-0.05009094998240471,0.051312681287527084
1788168390727116800,14.68511669921875,-0.018325956538319588,-0.018936822190880775,-0.021380282938480377
1788168390743096300,14.701096435546875,-0.051312681287527084,0.03848451003432274,-0.07269296050071716
1788168390759091700,14.717091796875,-0.04153883829712868,0.09040805697441101,-0.09957103431224823
1788168390775285200,14.73328515625,-0.018325956538319588,0.10323622822761536,-0.06291911751031876
1788168390791570000,14.74956982421875,0.012217304669320583,0.05253441259264946,0.02076941914856434
1788168390807587600,14.765587646484375,0.05742133408784866,-0.04886921867728233,0.09773843735456467
1788168390823828500,14.781828369140625,0.06902777403593063,-0.09651670604944229,0.12889257073402405
1788168390839786200,14.7977861328125,0.05925392732024193,-0.10567969083786011,0.0959058403968811
1788168390856121300,14.814121337890626,0.06230825558304787,-0.10384709388017654,0.0555887371301651
1788168390872446700,14.83044677734375,0.10018189996480942,-0.12095131725072861,0.009162978269159794
1788168390888343600,14.846343505859375,0.13500121235847473,-0.15454891324043274,-0.0024434609804302454
1788168390904705800,14.862705810546874,0.1319468915462494,-0.14905111491680145,0.01710422709584236
1788168390920477700,14.878477783203126,0.09773843735456467,-0.16371189057826996,0.07208210229873657
1788168390937095000,14.895094970703125,0.04948008432984352,-0.2174680233001709,0.045204028487205505
1788168390953057500,14.9110576171875,-0.025045474991202354,-0.28649580478668213,-0.14844025671482086
1788168390969152300,14.92715234375,-0.12950342893600464,-0.28466320037841797,-0.49296826124191284
1788168390985251000,14.9432509765625,-0.2632829248905182,-0.24495697021484375,-0.7922922372817993
1788168391001800400,14.959800537109375,-0.34147366881370544,-0.19058994948863983,-0.8796459436416626
1788168391017856500,14.9758564453125,-0.294437050819397,-0.08918632566928864,-0.6536257863044739
1788168391034024000,14.99202392578125,-0.12034045159816742,0.03237585723400116,-0.13072516024112701
1788168391050233000,15.008233154296875,0.03481931984424591,-0.045204028487205505,0.25045475363731384
1788168391066311000,15.024310791015624,0.08002334833145142,-0.17043140530586243,0.22479841113090515
1788168391082244400,15.040244384765625,0.039095375686883926,-0.12217304855585098,0.1319468915462494
1788168391098388200,15.05638818359375,-0.0354301854968071,-0.015882495790719986,0.06841690838336945
1788168391114642200,15.07264208984375,-0.07024950534105301,0.018936822190880775,0.02015855349600315
1788168391130690800,15.08869091796875,-0.06658431142568588,0.02382374368607998,-0.015882495790719986
1788168391147025200,15.105025146484374,-0.06169738993048668,0.005497787147760391,0.005497787147760391
1788168391162828800,15.120828857421875,-0.0659734457731247,-0.021991148591041565,0.045204028487205505
1788168391179078100,15.137078125,-0.06780604273080826,-0.02321287989616394,0.1007927656173706
1788168391195344600,15.1533447265625,-0.04886921867728233,-0.03237585723400116,0.14049901068210602
1788168391211492900,15.169492919921876,0,-0.04092797264456749,0.1466076523065567
1788168391227735800,15.18573583984375,0.05253441259264946,-0.08002334833145142,0.14355333149433136
1788168391243605500,15.20160546875,0.1014036312699318,-0.12278391420841217,0.13744467496871948
1788168391260014000,15.21801416015625,0.10323622822761536,-0.16798794269561768,0.09346238523721695
1788168391276340500,15.234340576171874,0.042760565876960754,-0.17348572611808777,-0.005497787147760391
1788168391292523000,15.25052294921875,-0.009162978269159794,-0.11362093687057495,-0.08552113175392151
1788168391308756700,15.2667568359375,-0.004886921960860491,-0.039706241339445114,-0.1466076523065567
1788168391324759000,15.282759033203124,0.0354301854968071,-0.01038470957428217,-0.1765400618314743
1788168391340673800,15.298673828125,0.07330382615327835,-0.019547687843441963,-0.17837265133857727
1788168391357118200,15.3151181640625,0.09773843735456467,-0.003054326167330146,-0.16554448008537292
1788168391372899600,15.330899658203125,0.11056660860776901,0.04764748737215996,-0.11911872029304504
1788168391389474300,15.347474365234374,0.11423180252313614,0.10567969083786011,-0.021380282938480377
1788168391405075700,15.36307568359375,0.17592918872833252,0.15393804013729095,0.07147123664617538
1788168391421653500,15.379653564453125,0.3084869384765625,0.12034045159816742,0.14355333149433136
1788168391437826300,15.395826416015625,0.3854559659957886,0.045204028487205505,0.15027284622192383
1788168391453939200,15.411939208984375,0.4141666293144226,-0.01160643994808197,0.07696902006864548
1788168391469837300,15.42783740234375,0.3781255781650543,0.005497787147760391,0.0012217304902151227
1788168391485915600,15.44391552734375,0.4202753007411957,0.04214970022439957,0.13011430203914642
1788168391502406000,15.460406005859374,0.4948008358478546,0.08429940044879913,0.35063666105270386
1788168391518480400,15.47648046875,0.5180137157440186,0.045204028487205505,0.3066543638706207
1788168391534432800,15.492432861328124,0.42760565876960754,-0.022602014243602753,0.028099801391363144
1788168391550541000,15.508541015625,0.27977627515792847,-0.08307767659425735,-0.13805554807186127
1788168391566758000,15.5247578125,0.1514945775270462,-0.1319468915462494,-0.15393804013729095
1788168391582953000,15.540952880859376,0.16310101747512817,-0.08979719132184982,0.00427605677396059
1788168391599301400,15.55730126953125,0.2541199326515198,-0.07513642311096191,0.17287486791610718
1788168391615208400,15.57320849609375,0.3176499307155609,-0.17776179313659668,0.18325957655906677
1788168391631452000,15.589451904296874,0.2816088795661926,-0.32009339332580566,0.08918632566928864
1788168391647524000,15.605524169921875,0.17592918872833252,-0.34086281061172485,-0.01466076634824276
1788168391663962600,15.621962646484375,0.08491026610136032,-0.27488934993743896,-0.09834930300712585
1788168391680091100,15.638091064453125,0.0012217304902151227,-0.2028072625398636,-0.18814650177955627
1788168391696191000,15.65419091796875,-0.07208210229873657,-0.13805554807186127,-0.24129177629947662
1788168391712437000,15.67043701171875,-0.10995574295520782,-0.06291911751031876,-0.2638937830924988
1788168391728112400,15.6861123046875,-0.1160643994808197,-0.0006108652451075613,-0.21991148591041565
1788168391744371200,15.70237109375,-0.08368854224681854,0.04092797264456749,-0.07208210229873657
1788168391760791800,15.718791748046876,-0.02871066704392433,0.06719517707824707,0.10873401165008545
1788168391776621000,15.73462109375,0.033597588539123535,0.0659734457731247,0.251676470041275
1788168391792677400,15.750677490234375,0.1111774742603302,0.012217304669320583,0.34758231043815613
1788168391808663800,15.766663818359374,0.15271630883216858,-0.018936822190880775,0.3292563557624817
1788168391825010200,15.78301025390625,0.14538592100143433,-0.012217304669320583,0.24068090319633484
1788168391849394000,15.807393798828125,0.0959058403968811,-0.06780604273080826,0.1215621829032898
1788168391865685500,15.823685546875,0.08674286305904388,-0.10751228034496307,0.12217304855585098
1788168391881848600,15.8398486328125,0.06658431142568588,-0.11545353382825851,0.13805554807186127
1788168391898021600,15.856021728515625,0.02321287989616394,-0.10690141469240189,0.11545353382825851
1788168391914137900,15.872137939453125,-0.039095375686883926,-0.08307767659425735,0.04337143152952194
1788168391930282200,15.8882822265625,-0.07330382615327835,-0.015882495790719986,-0.003054326167330146
1788168391946388000,15.904387939453125,-0.05925392732024193,0.03298672288656235,0.04337143152952194
1788168391962514400,15.920514404296876,-0.004886921960860491,-0.0024434609804302454,0.13927727937698364
1788168391978698500,15.936698486328124,0.04703662544488907,-0.12950342893600464,0.18997909128665924
1788168391994919200,15.952919189453125,0.04092797264456749,-0.22418753802776337,0.17531833052635193
1788168392010921700,15.968921630859375,-0.012217304669320583,-0.22296582162380219,0.10506882518529892
1788168392027143700,15.985143798828124,-0.07147123664617538,-0.16982053220272064,-0.04092797264456749
1788168392043283500,16.001283447265624,-0.09712757170200348,-0.1313360333442688,-0.10323622822761536
1788168392059424800,16.0174248046875,-0.0910189226269722,-0.15271630883216858,-0.014049900695681572
1788168392075639600,16.0336396484375,-0.04642575979232788,-0.2076941877603531,0.19364428520202637
1788168392091694000,16.049694091796876,-0.030543262138962746,-0.33597588539123535,0.19975294172763824
1788168392107827500,16.065827392578125,-0.10751228034496307,-0.3952298164367676,-0.16249015927314758
1788168392124007700,16.082007568359376,-0.22418753802776337,-0.2736676335334778,-0.5283984541893005
1788168392140148200,16.098148193359375,-0.28527405858039856,-0.013439035043120384,-0.5180137157440186
1788168392156366300,16.114366455078127,-0.19120082259178162,0.06719517707824707,-0.182648703455925
1788168392172470800,16.130470703125,-0.04886921867728233,-0.0354301854968071,0.14233160018920898
1788168392188571100,16.146571044921874,0.06169738993048668,-0.17837265133857727,0.31642818450927734
1788168392204765700,16.162765625,0.042760565876960754,-0.17470745742321014,0.2217440903186798
1788168392220921900,16.178921875,-0.036651913076639175,-0.07880161702632904,0.05314527451992035
1788168392237065000,16.19506494140625,-0.06963863968849182,-0.019547687843441963,-0.09651670604944229
1788168392253137700,16.2111376953125,-0.056810468435287476,0.004886921960860491,-0.13805554807186127
1788168392269340000,16.22733984375,-0.021991148591041565,-0.0024434609804302454,-0.09957103431224823
1788168392285492000,16.243491943359373,-0.0012217304902151227,-0.03481931984424591,-0.02626720629632473
1788168392301703400,16.259703369140624,-0.03848451003432274,-0.021991148591041565,0.05619960278272629
1788168392317789400,16.27578955078125,-0.04153883829712868,-0.039095375686883926,0.11545353382825851
1788168392333878300,16.291878173828124,-0.02015855349600315,-0.03298672288656235,0.12889257073402405
1788168392350143000,16.30814306640625,0.03726277872920036,-0.036041051149368286,0.13500121235847473
1788168392366342000,16.324341796875,0.11362093687057495,-0.06841690838336945,0.14538592100143433
1788168392382458400,16.340458251953127,0.1618792861700058,-0.14233160018920898,0.1160643994808197
1788168392398507500,16.356507568359376,0.16798794269561768,-0.20463985204696655,0.12034045159816742
1788168392414575600,16.37257568359375,0.12767083942890167,-0.24617868661880493,0.1368338167667389
1788168392430836200,16.388836181640624,0.08246681094169617,-0.26450464129447937,0.06291911751031876
1788168392447006000,16.405005859375,0.0757472887635231,-0.26022860407829285,-0.08368854224681854
1788168392463135200,16.42113525390625,0.08368854224681854,-0.2125810980796814,-0.20952677726745605
1788168392479348200,16.43734814453125,0.08979719132184982,-0.12767083942890167,-0.25473082065582275
1788168392495420400,16.45342041015625,0.1215621829032898,-0.02076941914856434,-0.20036379992961884
1788168392511599600,16.469599609375,0.18570303916931152,0.012828170321881771,-0.05803219974040985
1788168392527774000,16.48577392578125,0.2565633952617645,-0.006719517521560192,0.06780604273080826
1788168392543885000,16.501885009765626,0.32131510972976685,-0.04948008432984352,0.13255776464939117
1788168392560117200,16.5181171875,0.34636059403419495,-0.04398229718208313,0.13316862285137177
1788168392576187400,16.5341875,0.3439171314239502,-0.03298672288656235,0.08185594528913498
1788168392592291600,16.55029150390625,0.3335324227809906,0.015271631069481373,0.018325956538319588
1788168392608521700,16.566521728515625,0.3378084897994995,0.13927727937698364,0.04092797264456749
1788168392624672000,16.582672119140625,0.37079519033432007,0.29504790902137756,0.1661553531885147
1788168392640741600,16.59874169921875,0.37568211555480957,0.2687807083129883,0.1411098688840866
1788168392656787500,16.614787353515624,0.33475416898727417,0.12339477986097336,-0.04153883829712868
1788168392673037600,16.63103759765625,0.22663100063800812,0.12828169763088226,-0.2119702398777008
1788168392689226000,16.64722607421875,0.15882496535778046,0.23090706765651703,-0.1569923609495163
1788168392705426400,16.663426513671876,0.19425514340400696,0.18081611394882202,0.04764748737215996
1788168392721658400,16.679658447265624,0.2822197377681732,-0.04886921867728233,0.20402899384498596
1788168392737694200,16.695694091796874,0.30115658044815063,-0.23335053026676178,0.20036379992961884
1788168392753812500,16.7118125,0.25961771607398987,-0.2590068578720093,0.10567969083786011
1788168392769996500,16.72799658203125,0.18020524084568024,-0.22296582162380219,-0.02321287989616394
1788168392786204400,16.744204345703125,0.09896016865968704,-0.18875735998153687,-0.13805554807186127
1788168392802340400,16.76034033203125,0.036041051149368286,-0.1618792861700058,-0.182648703455925
1788168392818460400,16.77646044921875,0.0006108652451075613,-0.08552113175392151,-0.12889257073402405
1788168392834596400,16.792596435546876,-0.024434609338641167,-0.09712757170200348,0.019547687843441963
1788168392850764800,16.808764892578125,0.02015855349600315,-0.08124507963657379,0.09651670604944229
1788168392866879000,16.82487890625,0.0507018156349659,-0.060475658625364304,0.13866640627384186
1788168392882988000,16.840988037109376,0.08429940044879913,-0.059864792972803116,0.1771509200334549
1788168392899050500,16.857050537109377,0.11423180252313614,-0.09834930300712585,0.20341812074184418
1788168392915343400,16.87334326171875,0.1368338167667389,-0.17043140530586243,0.21441370248794556
1788168392931547600,16.889547607421875,0.15760323405265808,-0.22907446324825287,0.19425514340400696
1788168392947658200,16.905658203125,0.13072516024112701,-0.2577851414680481,0.1716531366109848
1788168392963937500,16.9219375,0.054367005825042725,-0.23273965716362,0.1569923609495163
1788168392979946200,16.9379462890625,-0.02932153269648552,-0.2076941877603531,0.16249015927314758
1788168392996136200,16.95413623046875,-0.060475658625364304,-0.19853121042251587,0.15332718193531036
1788168393012262000,16.970261962890625,-0.05009094998240471,-0.18387043476104736,0.14049901068210602
1788168393028389000,16.98638916015625,-0.056810468435287476,-0.1362229436635971,0.09346238523721695
1788168393044422700,17.002422607421874,-0.11056660860776901,-0.051312681287527084,0.07391469180583954
1788168393060573700,17.01857373046875,-0.152105450630188,-0.00366519158706069,0.09834930300712585
1788168393076714200,17.03471435546875,-0.11972958594560623,0.00733038317412138,0.1264491081237793
1788168393092910300,17.050910400390624,-0.06780604273080826,-0.03420845419168472,0.16737708449363708
1788168393109050600,17.067050537109374,-0.033597588539123535,-0.152105450630188,0.1722639948129654
1788168393125101600,17.0831015625,-0.05925392732024193,-0.22357667982578278,0.12095131725072861
1788168393141347000,17.09934716796875,-0.13072516024112701,-0.20525072515010834,0.014049900695681572
1788168393157425000,17.1154248046875,-0.18997909128665924,-0.13011430203914642,-0.06536258012056351
1788168393173634000,17.131634033203124,-0.18814650177955627,-0.07880161702632904,-0.02871066704392433
1788168393189785600,17.14778564453125,-0.1618792861700058,-0.12400564551353455,0.05742133408784866
1788168393205852400,17.163852294921874,-0.17959438264369965,-0.20952677726745605,-0.02687807008624077
1788168393221929500,17.179929443359374,-0.2773328125476837,-0.3237585723400116,-0.37262779474258423
1788168393238076700,17.19607666015625,-0.4141666293144226,-0.3481931984424591,-0.788627028465271
1788168393254397700,17.212397705078125,-0.47769662737846375,-0.06841690838336945,-0.7672467231750488
1788168393270501000,17.228501220703127,-0.3445279896259308,0.24373523890972137,-0.2822197377681732
1788168393286587000,17.2445869140625,-0.10201449692249298,0.2528982162475586,0.3885102868080139
1788168393302722300,17.260722412109374,0.08246681094169617,0.03298672288656235,0.6517932415008545
1788168393318974500,17.276974365234373,0.09346238523721695,-0.17837265133857727,0.484416127204895
1788168393335207000,17.29320703125,0.02626720629632473,-0.2431243658065796,0.10873401165008545
1788168393351286000,17.3092861328125,-0.08491026610136032,-0.2021963894367218,-0.3219259977340698
1788168393367412000,17.325411865234376,-0.152105450630188,-0.12767083942890167,-0.5259549617767334
1788168393383587000,17.341587158203126,-0.12217304855585098,-0.07269296050071716,-0.48869219422340393
1788168393399645400,17.3576455078125,-0.039706241339445114,-0.03726277872920036,-0.19608774781227112
1788168393415923500,17.37392333984375,0.024434609338641167,-0.018325956538319588,0.13744467496871948
1788168393431966000,17.389966064453127,0.0555887371301651,-0.019547687843441963,0.3225368559360504
1788168393448303600,17.4063037109375,0.08491026610136032,-0.009773843921720982,0.3628539443016052
1788168393464182800,17.422182861328125,0.09712757170200348,0.0354301854968071,0.375071257352829
1788168393480508400,17.43850830078125,0.11911872029304504,0.05742133408784866,0.35124751925468445
1788168393496675800,17.45467578125,0.16065755486488342,0.00427605677396059,0.2577851414680481
1788168393512811500,17.4708115234375,0.1820378452539444,-0.10506882518529892,0.08246681094169617
1788168393529016000,17.48701611328125,0.15760323405265808,-0.1875356286764145,-0.09651670604944229
1788168393545037000,17.503037109375,0.1111774742603302,-0.1368338167667389,-0.17898350954055786
1788168393561011200,17.51901123046875,0.10323622822761536,-0.06169738993048668,-0.2021963894367218
1788168393577417000,17.5354169921875,0.1417207419872284,-0.024434609338641167,-0.14966198801994324
1788168393593496600,17.55149658203125,0.2223549485206604,-0.06902777403593063,-0.04703662544488907
1788168393609649000,17.56764892578125,0.26083946228027344,-0.10873401165008545,0.04886921867728233
1788168393625629400,17.58362939453125,0.28588494658470154,-0.07696902006864548,0.12400564551353455
1788168393641884000,17.5998837890625,0.33658674359321594,0.01160643994808197,0.16493362188339233
1788168393658094800,17.6160947265625,0.37568211555480957,0.09957103431224823,0.16004669666290283
1788168393674286000,17.6322861328125,0.36529740691185,0.1014036312699318,0.13011430203914642
1788168393690388700,17.648388671875,0.3237585723400116,0.004886921960860491,0.04459316283464432
1788168393706327300,17.664327392578127,0.30604347586631775,-0.06902777403593063,-0.036041051149368286
1788168393722566000,17.68056591796875,0.3090978264808655,-0.018936822190880775,-0.009162978269159794
1788168393738858500,17.6968583984375,0.33658674359321594,0.11484266817569733,0.11850785464048386
1788168393754977300,17.712977294921874,0.32131510972976685,0.048258353024721146,0.13439035415649414
1788168393771022300,17.729022216796874,0.2773328125476837,-0.14233160018920898,0.05925392732024193
1788168393787091500,17.745091552734376,0.23029619455337524,-0.20525072515010834,-0.015271631069481373
1788168393803338500,17.76133837890625,0.18875735998153687,-0.11789698898792267,-0.09040805697441101
1788168393819469300,17.77746923828125,0.1973094791173935,0.001832595793530345,-0.05864306539297104
1788168393835592000,17.793592041015625,0.23518311977386475,-0.022602014243602753,0.025656340643763542
1788168393851785200,17.80978515625,0.23457226157188416,-0.18020524084568024,0.08246681094169617
1788168393867853300,17.825853271484377,0.19425514340400696,-0.32498031854629517,0.06902777403593063
1788168393883956700,17.841956787109375,0.1411098688840866,-0.3237585723400116,0.013439035043120384
1788168393900083000,17.8580830078125,0.10323622822761536,-0.23457226157188416,-0.03726277872920036
1788168393916224000,17.87422412109375,0.05497787147760391,-0.11667526513338089,-0.07269296050071716
1788168393932447700,17.89044775390625,0.0006108652451075613,-0.019547687843441963,-0.08368854224681854
1788168393948351500,17.9063515625,-0.03176499158143997,0.05864306539297104,-0.03420845419168472
1788168393964650200,17.922650146484376,-0.06414084881544113,0.09285151958465576,0.0403171069920063
1788168393980775000,17.93877490234375,-0.07269296050071716,0.11056660860776901,0.09834930300712585
1788168393996875800,17.954875732421876,-0.04153883829712868,0.10690141469240189,0.152105450630188
1788168394012974600,17.970974609375,-0.0006108652451075613,0.08857546001672745,0.20586158335208893
1788168394029059600,17.9870595703125,0.0403171069920063,0.024434609338641167,0.2382374405860901
1788168394045183200,18.003183349609376,0.07452555745840073,-0.06230825558304787,0.24678955972194672
1788168394061420800,18.0194208984375,0.08796459436416626,-0.07635815441608429,0.19425514340400696
1788168394077486800,18.03548681640625,0.08735372871160507,0.019547687843441963,0.07880161702632904
1788168394093599500,18.051599609375,0.06536258012056351,0.10384709388017654,-0.04703662544488907
1788168394109860000,18.067860107421875,0.05375614017248154,0.09162978827953339,-0.06169738993048668
1788168394125918000,18.08391796875,0.06658431142568588,0.04092797264456749,0.00427605677396059
1788168394142134500,18.100134521484375,0.08796459436416626,0.015882495790719986,0.13927727937698364
1788168394158291700,18.116291748046876,0.11911872029304504,0.019547687843441963,0.2278527319431305
1788168394174480000,18.13247998046875,0.14782938361167908,0.019547687843441963,0.28649580478668213
1788168394190384000,18.148384033203126,0.16065755486488342,0.00855211354792118,0.3182607889175415
1788168394206632400,18.164632568359377,0.14966198801994324,-0.010995574295520782,0.3194825351238251
1788168394222816000,18.18081591796875,0.11545353382825851,-0.0910189226269722,0.29993483424186707
1788168394238980900,18.19698095703125,0.045204028487205505,-0.20341812074184418,0.25106561183929443
1788168394255232800,18.213232666015625,-0.010995574295520782,-0.2632829248905182,0.14844025671482086
1788168394271281200,18.22928125,-0.03787364438176155,-0.21868975460529327,0.03237585723400116
1788168394287366000,18.245365966796875,-0.08429940044879913,-0.14416420459747314,-0.00855211354792118
1788168394303543600,18.26154345703125,-0.13072516024112701,-0.13377949595451355,0.06658431142568588
1788168394319672800,18.2776728515625,-0.1618792861700058,-0.22357667982578278,0.06352998316287994
1788168394335923500,18.29392333984375,-0.22113321721553802,-0.3090978264808655,-0.14844025671482086
1788168394352022000,18.31002197265625,-0.2926044464111328,-0.28038713335990906,-0.43127086758613586
1788168394368205000,18.326205078125,-0.3640756905078888,-0.08002334833145142,-0.6236934065818787
1788168394384367000,18.3423671875,-0.34086281061172485,0.23518311977386475,-0.4031710624694824
1788168394400506000,18.358506103515627,-0.2370157092809677,0.3194825351238251,-0.00366519158706069
1788168394416738300,18.37473828125,-0.10873401165008545,0.10873401165008545,0.2571742534637451
1788168394432839400,18.39083935546875,-0.04642575979232788,-0.09712757170200348,0.2877175211906433
1788168394448943600,18.406943603515625,-0.09407325088977814,-0.16798794269561768,0.1459967941045761
1788168394465118500,18.423118408203123,-0.1612684279680252,-0.11972958594560623,-0.029932396486401558
1788168394481255000,18.4392548828125,-0.1765400618314743,-0.0012217304902151227,-0.19486601650714874
1788168394497483800,18.45548388671875,-0.16004669666290283,0.009162978269159794,-0.2687807083129883
1788168394513531600,18.47153173828125,-0.1264491081237793,-0.031154127791523933,-0.19058994948863983
1788168394529718800,18.48771875,-0.0806342139840126,-0.08246681094169617,-0.08674286305904388
1788168394545844200,18.50384423828125,-0.09407325088977814,-0.0708603709936142,-0.00366519158706069
1788168394561989600,18.51998974609375,-0.09529497474431992,-0.10506882518529892,0.0354301854968071
1788168394578192000,18.53619189453125,-0.04886921867728233,-0.1160643994808197,0.04703662544488907
1788168394594115000,18.552114990234376,0.024434609338641167,-0.11789698898792267,0.06658431142568588
1788168394610388000,18.568387939453125,0.08491026610136032,-0.1508837193250656,0.07757988572120667
1788168394626514400,18.584514404296876,0.11362093687057495,-0.17776179313659668,0.07147123664617538
1788168394642607000,18.600607177734375,0.10201449692249298,-0.17043140530586243,0.031154127791523933
1788168394658833000,18.6168330078125,0.07819075137376785,-0.15454891324043274,-0.04642575979232788
1788168394674880800,18.632880859375,0.04459316283464432,-0.11972958594560623,-0.1313360333442688
1788168394690946600,18.648946533203127,0.036041051149368286,-0.10384709388017654,-0.15943582355976105
1788168394707109400,18.665109375,0.06169738993048668,-0.06475171446800232,-0.08368854224681854
1788168394723231500,18.6812314453125,0.1417207419872284,-0.04703662544488907,0.02321287989616394
1788168394739440400,18.6974404296875,0.2125810980796814,-0.033597588539123535,0.12339477986097336
1788168394755485200,18.713485107421874,0.2681698501110077,-0.024434609338641167,0.1973094791173935
1788168394771587300,18.72958740234375,0.2767219543457031,-0.0507018156349659,0.22418753802776337
1788168394787716900,18.745716796875,0.2480112910270691,-0.07696902006864548,0.20525072515010834
1788168394803896800,18.761896728515627,0.20036379992961884,-0.07269296050071716,0.12400564551353455
1788168394820005400,18.77800537109375,0.16737708449363708,-0.004886921960860491,0.019547687843441963
1788168394836160800,18.794160888671875,0.15577064454555511,0.06536258012056351,-0.009162978269159794
1788168394852268000,18.81026806640625,0.19425514340400696,0.1667662113904953,0.07696902006864548
1788168394868432100,18.82643212890625,0.2565633952617645,0.2119702398777008,0.15393804013729095
1788168394884572200,18.842572265625,0.24984388053417206,0.1368338167667389,0.1014036312699318
1788168394900789800,18.858789794921876,0.2223549485206604,0.08185594528913498,0.016493361443281174
1788168394916837400,18.87483740234375,0.21074850857257843,0.0354301854968071,-0.024434609338641167
1788168394932890000,18.89089013671875,0.2590068578720093,-0.06475171446800232,0.07696902006864548
1788168394949104400,18.9071044921875,0.3219259977340698,-0.19975294172763824,0.2376265823841095
1788168394965246700,18.923246826171876,0.3323107063770294,-0.3072652220726013,0.29626965522766113
1788168394981390800,18.939390869140624,0.2736676335334778,-0.36224308609962463,0.23396138846874237
1788168394997554000,18.955553955078123,0.20830504596233368,-0.3543018400669098,0.11301007121801376
1788168395013581600,18.97158154296875,0.13377949595451355,-0.29138273000717163,0.015882495790719986
1788168395029781800,18.98778173828125,0.059864792972803116,-0.23640485107898712,-0.025656340643763542
1788168395045935600,19.003935546875,0,-0.17348572611808777,-0.06902777403593063
1788168395062055700,19.0200556640625,-0.05375614017248154,-0.10018189996480942,-0.13439035415649414
1788168395078226700,19.036226806640624,-0.09773843735456467,-0.03237585723400116,-0.19975294172763824
1788168395094284800,19.052284912109375,-0.17592918872833252,-0.03481931984424591,-0.1264491081237793
1788168395110467300,19.06846728515625,-0.16982053220272064,-0.025656340643763542,-0.09162978827953339
1788168395126631000,19.084630859375,-0.13255776464939117,-0.0024434609804302454,0.015271631069481373
1788168395142881300,19.10088134765625,-0.054367005825042725,0.03237585723400116,0.11545353382825851
1788168395158932000,19.116931884765624,-0.01710422709584236,0.06108652427792549,0.15515977144241333
1788168395175021000,19.13302099609375,-0.01160643994808197,0.10812314599752426,0.16310101747512817
1788168395191220200,19.14922021484375,-0.01160643994808197,0.10812314599752426,0.13744467496871948
1788168395207250200,19.165250244140626,0.014049900695681572,0.08002334833145142,0.16554448008537292
1788168395223590700,19.181590576171875,0.036651913076639175,0.039706241339445114,0.1771509200334549
1788168395239489000,19.197489013671873,0.00366519158706069,0.018325956538319588,0.12034045159816742
1788168395255747300,19.213747314453126,-0.04703662544488907,0.03787364438176155,0.05009094998240471
1788168395271878700,19.229878662109375,-0.07391469180583954,0.07635815441608429,-0.01771509274840355
1788168395288005600,19.246005615234374,-0.07757988572120667,0.051312681287527084,-0.033597588539123535
1788168395304221400,19.262221435546873,-0.04092797264456749,-0.04642575979232788,-0.007941247895359993
1788168395320209400,19.27820947265625,-0.009773843921720982,-0.19058994948863983,0.04398229718208313
1788168395336350700,19.294350830078123,0.004886921960860491,-0.34208452701568604,0.10690141469240189
1788168395352515800,19.310515869140627,0.015271631069481373,-0.40256020426750183,0.10018189996480942
1788168395368654000,19.326654052734376,-0.031154127791523933,-0.3842342495918274,-0.028099801391363144
1788168395384875300,19.342875244140625,-0.11056660860776901,-0.28649580478668213,-0.16249015927314758
1788168395400927200,19.35892724609375,-0.11484266817569733,-0.24373523890972137,-0.2021963894367218
1788168395417043700,19.375043701171876,-0.05742133408784866,-0.2822197377681732,-0.0806342139840126
1788168395433173000,19.391173095703124,-0.019547687843441963,-0.4056145250797272,-0.0354301854968071
1788168395449320700,19.40732080078125,-0.06841690838336945,-0.4703662395477295,-0.3127630054950714
1788168395465526500,19.423526611328125,-0.2278527319431305,-0.375071257352829,-0.626747727394104
1788168395481557000,19.439556884765626,-0.44104471802711487,-0.1661553531885147,-0.8625417351722717
1788168395497653500,19.455653564453126,-0.48685958981513977,0.15882496535778046,-0.7354817390441895
1788168395513927200,19.47192724609375,-0.33719760179519653,0.30604347586631775,-0.33719760179519653
1788168395530016800,19.488016845703125,-0.15943582355976105,0.14844025671482086,0.03481931984424591
1788168395546108000,19.50410791015625,-0.08002334833145142,-0.17592918872833252,0.2583959996700287
1788168395562409200,19.5204091796875,-0.09712757170200348,-0.30970868468284607,0.25473082065582275
1788168395578475000,19.53647509765625,-0.13805554807186127,-0.20891591906547546,0.1411098688840866
1788168395594662700,19.55266259765625,-0.16982053220272064,-0.02076941914856434,-0.04092797264456749
1788168395610830800,19.568830810546874,-0.17287486791610718,0.08796459436416626,-0.15393804013729095
1788168395627035100,19.58503515625,-0.20525072515010834,0.06902777403593063,-0.1362229436635971
1788168395643082500,19.60108251953125,-0.24068090319633484,0.03176499158143997,-0.04092797264456749
1788168395659236900,19.61723681640625,-0.2431243658065796,0.01466076634824276,0.1270599663257599
1788168395675365400,19.633365478515625,-0.19303341209888458,0.03787364438176155,0.19303341209888458
1788168395691494000,19.649493896484376,-0.1264491081237793,0.009773843921720982,0.23579397797584534
1788168395707706400,19.665706298828123,-0.02382374368607998,-0.048258353024721146,0.2583959996700287
1788168395723605200,19.681605224609374,0.0507018156349659,-0.1014036312699318,0.24617868661880493
1788168395739860700,19.69786083984375,0.08002334833145142,-0.13072516024112701,0.17470745742321014
1788168395756027000,19.71402685546875,0.05864306539297104,-0.13561208546161652,0.09224065393209457
1788168395772157200,19.7301572265625,0.015882495790719986,-0.10751228034496307,0.0006108652451075613
1788168395788366300,19.746366455078125,0.030543262138962746,-0.0507018156349659,-0.054367005825042725
1788168395804417000,19.7624169921875,0.0757472887635231,-0.02015855349600315,-0.04886921867728233
1788168395820520400,19.7785205078125,0.12095131725072861,-0.0354301854968071,0.014049900695681572
1788168395836642300,19.794642333984374,0.18509216606616974,-0.0403171069920063,0.07208210229873657
1788168395852775200,19.810775146484374,0.2724458873271942,-0.021380282938480377,0.10567969083786011
1788168395868853500,19.826853515625,0.31031954288482666,0.004886921960860491,0.13377949595451355
1788168395884979500,19.8429794921875,0.3029891550540924,-0.03787364438176155,0.17959438264369965
1788168395901184800,19.859184814453126,0.31581732630729675,-0.12278391420841217,0.15332718193531036
