time,seconds_elapsed,z,y,x
1787734437455518200,0.131518310546875,0,0,0.0006108652451075613
1787734437472358400,0.1483583984375,0,0,0.0006108652451075613
1787734437488434200,0.16443408203125,0,0,0.0006108652451075613
1787734437504407600,0.180407470703125,0,0,0.0006108652451075613
1787734437520481500,0.1964814453125,0,0,0.0006108652451075613
1787734437536563000,0.21256298828125,0,0,0.0006108652451075613
1787734437552638500,0.228638427734375,0,0,0.0006108652451075613
1787734437568769500,0.24476953125,0,0,0.0006108652451075613
1787734437584734000,0.26073388671875,-0.01038470957428217,0.010995574295520782,-0.0006108652451075613
1787734437600777000,0.27677685546875,-0.015882495790719986,-0.018325956538319588,0.0006108652451075613
1787734437616844300,0.29284423828125,-0.012828170321881771,-0.04214970022439957,0.001832595793530345
1787734437632949800,0.30894970703125,-0.016493361443281174,-0.039095375686883926,-0.0006108652451075613
1787734437649051600,0.3250517578125,-0.01038470957428217,-0.02871066704392433,0.006719517521560192
1787734437665009400,0.341009521484375,-0.010995574295520782,-0.01771509274840355,0.009162978269159794
1787734437681062100,0.357062255859375,-0.01466076634824276,-0.006108652334660292,0.003054326167330146
1787734437697126400,0.37312646484375,-0.02687807008624077,0.006108652334660292,-0.024434609338641167
1787734437713192400,0.3891923828125,-0.028099801391363144,0.0006108652451075613,-0.05009094998240471
1787734437729338400,0.40533837890625,-0.02871066704392433,-0.0024434609804302454,-0.05009094998240471
1787734437745314800,0.421314697265625,-0.02871066704392433,-0.001832595793530345,-0.02382374368607998
1787734437761389600,0.4373896484375,-0.028099801391363144,-0.006108652334660292,0.01710422709584236
1787734437777422300,0.45342236328125,-0.02871066704392433,-0.0006108652451075613,0.04948008432984352
1787734437793508900,0.4695087890625,-0.03237585723400116,-0.01038470957428217,0.04764748737215996
1787734437809644500,0.48564453125,-0.03481931984424591,-0.009162978269159794,0.03726277872920036
1787734437825621200,0.501621337890625,-0.029932396486401558,-0.00366519158706069,0.01710422709584236
1787734437841690600,0.517690673828125,-0.025656340643763542,-0.0006108652451075613,0.007941247895359993
1787734437857779700,0.53377978515625,-0.028099801391363144,-0.013439035043120384,0.00733038317412138
1787734437873857800,0.54985791015625,-0.02871066704392433,-0.01710422709584236,0.007941247895359993
1787734437889992700,0.56599267578125,-0.030543262138962746,-0.0024434609804302454,0.013439035043120384
1787734437905946400,0.5819462890625,-0.027488935738801956,0.0012217304902151227,0.012828170321881771
1787734437921994000,0.597993896484375,-0.022602014243602753,0.009162978269159794,0.02321287989616394
1787734437938061800,0.614061767578125,-0.02321287989616394,0.004886921960860491,0.03237585723400116
1787734437954135600,0.630135498046875,-0.028099801391363144,-0.010995574295520782,0.03298672288656235
1787734437970269000,0.64626904296875,-0.025045474991202354,-0.018325956538319588,0.031154127791523933
1787734437986222600,0.66222265625,-0.007941247895359993,-0.024434609338641167,0.03420845419168472
1787734438002272500,0.6782724609375,0.0006108652451075613,-0.021380282938480377,0.04459316283464432
1787734438018383400,0.69438330078125,0.0024434609804302454,-0.03237585723400116,0.05192354694008827
1787734438034465300,0.71046533203125,-0.0012217304902151227,-0.04581489413976669,0.05864306539297104
1787734438050577200,0.7265771484375,-0.01038470957428217,-0.07147123664617538,0.0708603709936142
1787734438066520800,0.742520751953125,-0.013439035043120384,-0.06169738993048668,0.09040805697441101
1787734438082574300,0.75857421875,-0.001832595793530345,-0.001832595793530345,0.10201449692249298
1787734438098688300,0.774688232421875,0.01160643994808197,0.05314527451992035,0.10262536257505417
1787734438114789600,0.79078955078125,0.006719517521560192,0.059864792972803116,0.06963863968849182
1787734438130912800,0.806912841796875,-0.02076941914856434,0.029932396486401558,0.01771509274840355
1787734438146885600,0.8228857421875,-0.056810468435287476,-0.02871066704392433,-0.015882495790719986
1787734438162958800,0.838958740234375,-0.07391469180583954,-0.036651913076639175,-0.012217304669320583
1787734438179012900,0.855012939453125,-0.07147123664617538,0.00427605677396059,0.036651913076639175
1787734438195141400,0.871141357421875,-0.06658431142568588,0.0507018156349659,0.09285151958465576
1787734438211272000,0.88727197265625,-0.06230825558304787,0.08979719132184982,0.0910189226269722
1787734438227255800,0.903255859375,-0.06902777403593063,0.11423180252313614,0.04214970022439957
1787734438243335400,0.91933544921875,-0.11728613078594208,0.033597588539123535,-0.028099801391363144
1787734438259422000,0.935421875,-0.15577064454555511,-0.0555887371301651,-0.07147123664617538
1787734438275535000,0.95153515625,-0.1814269721508026,-0.06475171446800232,-0.0507018156349659
1787734438291694300,0.9676943359375,-0.18448130786418915,-0.05009094998240471,0.019547687843441963
1787734438307678500,0.983678466796875,-0.18448130786418915,0.018325956538319588,0.07819075137376785
1787734438323768800,0.999768798828125,-0.17531833052635193,0.09040805697441101,0.12217304855585098
1787734438339861800,1.01586181640625,-0.16249015927314758,0.13927727937698364,0.13561208546161652
1787734438355981600,1.031981689453125,-0.14233160018920898,0.17776179313659668,0.13255776464939117
1787734438372079600,1.04807958984375,-0.12889257073402405,0.19853121042251587,0.10873401165008545
1787734438388082000,1.06408203125,-0.11911872029304504,0.16371189057826996,0.05253441259264946
1787734438404177200,1.08017724609375,-0.12217304855585098,0.07757988572120667,-0.05253441259264946
1787734438420275000,1.09627490234375,-0.13866640627384186,-0.010995574295520782,-0.12889257073402405
1787734438436402000,1.11240185546875,-0.1459967941045761,-0.07513642311096191,-0.14966198801994324
1787734438452505300,1.12850537109375,-0.1417207419872284,-0.10812314599752426,-0.11789698898792267
1787734438468510200,1.14451025390625,-0.1062905490398407,-0.08307767659425735,-0.05619960278272629
1787734438484614100,1.1606142578125,-0.05619960278272629,-0.0012217304902151227,-0.0006108652451075613
1787734438500727300,1.176727294921875,-0.009162978269159794,0.08307767659425735,0.02015855349600315
1787734438516819500,1.1928193359375,0.042760565876960754,0.10323622822761536,-0.01038470957428217
1787734438532937000,1.20893701171875,0.08979719132184982,0.08979719132184982,-0.05192354694008827
1787734438548906500,1.224906494140625,0.09346238523721695,0.0006108652451075613,-0.08735372871160507
1787734438564971000,1.240970947265625,0.07819075137376785,-0.08552113175392151,-0.12889257073402405
1787734438581088300,1.257088134765625,0.05375614017248154,-0.09957103431224823,-0.18081611394882202
1787734438597189000,1.273189208984375,0.03420845419168472,-0.1459967941045761,-0.22846360504627228
1787734438613314600,1.289314453125,0.018325956538319588,-0.19608774781227112,-0.22540926933288574
1787734438629266200,1.30526611328125,0.014049900695681572,-0.20463985204696655,-0.1820378452539444
1787734438645331700,1.321331787109375,0.015882495790719986,-0.14844025671482086,-0.12339477986097336
1787734438661402000,1.337402099609375,0.001832595793530345,-0.12400564551353455,-0.11362093687057495
1787734438677497000,1.3534970703125,-0.033597588539123535,-0.07941248267889023,-0.11911872029304504
1787734438693628200,1.369628173828125,-0.08368854224681854,-0.03420845419168472,-0.10751228034496307
1787734438709611500,1.385611572265625,-0.10506882518529892,0.014049900695681572,-0.0708603709936142
1787734438725690000,1.401690185546875,-0.11178833991289139,0.04703662544488907,-0.04581489413976669
1787734438741771300,1.417771240234375,-0.13927727937698364,0.02626720629632473,-0.06475171446800232
1787734438757879300,1.43387939453125,-0.15943582355976105,-0.01466076634824276,-0.09162978827953339
1787734438774007600,1.450007568359375,-0.16859880089759827,-0.05192354694008827,-0.11301007121801376
1787734438789999600,1.46599951171875,-0.17776179313659668,-0.06780604273080826,-0.10690141469240189
1787734438806056400,1.482056396484375,-0.17348572611808777,-0.06475171446800232,-0.07024950534105301
1787734438822148600,1.498148681640625,-0.15760323405265808,-0.07147123664617538,-0.0354301854968071
1787734438838264300,1.514264404296875,-0.13744467496871948,-0.07880161702632904,-0.00366519158706069
1787734438854363100,1.530363037109375,-0.12461651116609573,-0.07757988572120667,0.00733038317412138
1787734438870317000,1.546317138671875,-0.10445795953273773,-0.05925392732024193,-0.006108652334660292
1787734438886366500,1.562366455078125,-0.08246681094169617,-0.029932396486401558,-0.01710422709584236
1787734438902468900,1.57846875,-0.07147123664617538,0.003054326167330146,-0.02871066704392433
1787734438918548500,1.594548583984375,-0.059864792972803116,0.03298672288656235,-0.04642575979232788
1787734438934649900,1.61064990234375,-0.05253441259264946,0.04153883829712868,-0.06536258012056351
1787734438950606000,1.626606201171875,-0.048258353024721146,0.03420845419168472,-0.08429940044879913
1787734438966656000,1.642656005859375,-0.048258353024721146,0.024434609338641167,-0.09285151958465576
1787734438982762000,1.658761962890625,-0.0403171069920063,0.02015855349600315,-0.10323622822761536
1787734438998839300,1.67483935546875,-0.039095375686883926,0.010995574295520782,-0.11911872029304504
1787734439014951400,1.690951416015625,-0.04214970022439957,-0.01710422709584236,-0.10995574295520782
1787734439030915800,1.706915771484375,-0.03848451003432274,-0.04459316283464432,-0.08246681094169617
1787734439046969000,1.722968994140625,-0.030543262138962746,-0.05864306539297104,-0.05314527451992035
1787734439063035400,1.739035400390625,-0.015882495790719986,-0.060475658625364304,-0.019547687843441963
1787734439079135000,1.755135009765625,0.00366519158706069,-0.02932153269648552,0.0012217304902151227
1787734439095253500,1.77125341796875,0.019547687843441963,-0.015271631069481373,0.013439035043120384
1787734439111226000,1.78722607421875,0.03176499158143997,-0.03726277872920036,0.045204028487205505
1787734439127299300,1.80329931640625,0.05192354694008827,-0.0507018156349659,0.10201449692249298
1787734439143376600,1.819376708984375,0.0757472887635231,-0.0507018156349659,0.152105450630188
1787734439159484000,1.83548388671875,0.09773843735456467,-0.04703662544488907,0.19364428520202637
1787734439175612200,1.851612060546875,0.10323622822761536,-0.051312681287527084,0.21441370248794556
1787734439191592200,1.86759228515625,0.1160643994808197,-0.06719517707824707,0.2321287989616394
1787734439207666400,1.88366650390625,0.12278391420841217,-0.0555887371301651,0.23396138846874237
1787734439223748000,1.899748046875,0.1472185254096985,-0.05803219974040985,0.22113321721553802
1787734439239860500,1.915860595703125,0.16798794269561768,-0.11178833991289139,0.19425514340400696
1787734439255950800,1.931950927734375,0.15454891324043274,-0.1612684279680252,0.11545353382825851
1787734439271942000,1.94794189453125,0.1313360333442688,-0.16798794269561768,0.005497787147760391
1787734439288030700,1.96403076171875,0.11545353382825851,-0.1667662113904953,-0.08552113175392151
1787734439304127000,1.980126953125,0.1215621829032898,-0.12828169763088226,-0.10262536257505417
1787734439320252000,1.996251953125,0.14538592100143433,-0.06841690838336945,-0.05314527451992035
1787734439336349000,2.012348876953125,0.1869247704744339,-0.0006108652451075613,0.048258353024721146
1787734439352350700,2.028350830078125,0.22663100063800812,0.05009094998240471,0.1569923609495163
1787734439368437000,2.04443701171875,0.26633724570274353,0.09773843735456467,0.24923302233219147
1787734439384530000,2.060530029296875,0.3078760802745819,0.1472185254096985,0.3488040566444397
1787734439400651300,2.0766513671875,0.34636059403419495,0.17959438264369965,0.4196644127368927
1787734439416747800,2.092747802734375,0.37690386176109314,0.1820378452539444,0.4489859640598297
1787734439432752000,2.108752197265625,0.394618958234787,0.1716531366109848,0.43615779280662537
1787734439448851500,2.1248515625,0.413555771112442,0.11178833991289139,0.36590829491615295
1787734439464957200,2.140957275390625,0.41111230850219727,0.004886921960860491,0.23884831368923187
1787734439481035000,2.157034912109375,0.38728857040405273,-0.08429940044879913,0.10873401165008545
1787734439497144600,2.17314453125,0.35124751925468445,-0.1466076523065567,-0.01038470957428217
1787734439513107700,2.189107666015625,0.3286454975605011,-0.15027284622192383,-0.05619960278272629
1787734439529188900,2.20518896484375,0.3139847218990326,-0.1007927656173706,-0.042760565876960754
1787734439545254000,2.22125390625,0.2926044464111328,-0.06780604273080826,-0.02076941914856434
1787734439561344800,2.2373447265625,0.2730567753314972,-0.0012217304902151227,-0.013439035043120384
1787734439577461800,2.253461669921875,0.24495697021484375,0.07391469180583954,-0.036651913076639175
1787734439601495800,2.277495849609375,0.21807889640331268,0.13377949595451355,-0.09468411654233932
1787734439617650200,2.293650146484375,0.18814650177955627,0.11728613078594208,-0.12889257073402405
1787734439633662700,2.309662841796875,0.16004669666290283,0.09162978827953339,-0.15882496535778046
1787734439649726000,2.325725830078125,0.13377949595451355,0.051312681287527084,-0.17531833052635193
1787734439665767000,2.341766845703125,0.11423180252313614,0.004886921960860491,-0.1875356286764145
1787734439681866200,2.3578662109375,0.09346238523721695,-0.02687807008624077,-0.18387043476104736
1787734439698025000,2.37402490234375,0.04642575979232788,-0.09529497474431992,-0.1667662113904953
1787734439714004200,2.390004150390625,0.0006108652451075613,-0.16493362188339233,-0.1319468915462494
1787734439730093300,2.40609326171875,-0.029932396486401558,-0.20036379992961884,-0.09712757170200348
1787734439746100500,2.4221005859375,-0.05619960278272629,-0.2174680233001709,-0.060475658625364304
1787734439762180000,2.43818017578125,-0.07635815441608429,-0.16859880089759827,-0.009162978269159794
1787734439778326300,2.454326171875,-0.09346238523721695,-0.11789698898792267,0.03481931984424591
1787734439794322200,2.470322265625,-0.10445795953273773,-0.07696902006864548,0.04337143152952194
1787734439810414300,2.486414306640625,-0.15271630883216858,-0.09407325088977814,0.0006108652451075613
1787734439826430000,2.502429931640625,-0.2321287989616394,-0.15271630883216858,-0.07391469180583954
1787734439842507000,2.518507080078125,-0.2871066629886627,-0.20036379992961884,-0.12278391420841217
1787734439858646800,2.534646728515625,-0.3274237811565399,-0.21868975460529327,-0.14538592100143433
1787734439874648800,2.55064892578125,-0.33658674359321594,-0.16737708449363708,-0.12400564551353455
1787734439890707500,2.56670751953125,-0.32009339332580566,-0.09224065393209457,-0.06536258012056351
1787734439906740700,2.58274072265625,-0.29077184200286865,-0.0012217304902151227,0.04581489413976669
1787734439922820900,2.59882080078125,-0.21807889640331268,0.08857546001672745,0.13377949595451355
1787734439938965800,2.6149658203125,-0.18387043476104736,0.09529497474431992,0.06536258012056351
1787734439954978600,2.630978515625,-0.22663100063800812,-0.007941247895359993,-0.1160643994808197
1787734439971040300,2.647040283203125,-0.33169981837272644,-0.11728613078594208,-0.3805690407752991
1787734439987070000,2.663070068359375,-0.38240164518356323,-0.09224065393209457,-0.523511528968811
1787734440003131100,2.679131103515625,-0.3439171314239502,0.019547687843441963,-0.45204028487205505
1787734440019281200,2.69528125,-0.27000242471694946,0.22846360504627228,-0.17837265133857727
1787734440035282700,2.71128271484375,-0.18020524084568024,0.3842342495918274,0.1771509200334549
1787734440051334400,2.72733447265625,-0.14049901068210602,0.43188172578811646,0.4386012554168701
1787734440067355400,2.74335546875,-0.10690141469240189,0.3842342495918274,0.6383541822433472
1787734440083438600,2.7594384765625,-0.08674286305904388,0.2791654169559479,0.6890559792518616
1787734440099593500,2.775593505859375,-0.09834930300712585,0.14233160018920898,0.588874101638794
1787734440115601400,2.791601318359375,-0.1368338167667389,-0.009773843921720982,0.39584067463874817
1787734440131669000,2.8076689453125,-0.21502456068992615,-0.2064724564552307,0.1313360333442688
1787734440147711200,2.823711181640625,-0.2577851414680481,-0.25961771607398987,-0.0757472887635231
1787734440163814000,2.83981396484375,-0.30970868468284607,-0.252287358045578,-0.12950342893600464
1787734440179975400,2.855975341796875,-0.294437050819397,-0.17898350954055786,-0.08429940044879913
1787734440195949300,2.87194921875,-0.26511552929878235,-0.02076941914856434,0.02321287989616394
1787734440212036600,2.88803662109375,-0.23640485107898712,0.13255776464939117,0.11911872029304504
1787734440228043300,2.904043212890625,-0.1875356286764145,0.2974913716316223,0.18997909128665924
1787734440244151600,2.920151611328125,-0.15027284622192383,0.35613444447517395,0.18631389737129211
1787734440260325000,2.9363251953125,-0.1270599663257599,0.3286454975605011,0.12461651116609573
1787734440276313600,2.952313720703125,-0.12278391420841217,0.24129177629947662,0.059864792972803116
1787734440292408300,2.968408203125,-0.1264491081237793,0.08429940044879913,-0.03420845419168472
1787734440308420600,2.984420654296875,-0.12217304855585098,-0.06352998316287994,-0.1417207419872284
1787734440324536300,3.000536376953125,-0.11484266817569733,-0.13805554807186127,-0.20952677726745605
1787734440340718600,3.016718505859375,-0.10445795953273773,-0.20036379992961884,-0.2480112910270691
1787734440356710700,3.032710693359375,-0.08491026610136032,-0.2070833146572113,-0.29138273000717163
1787734440372758800,3.0487587890625,-0.0555887371301651,-0.15271630883216858,-0.3292563557624817
1787734440388773400,3.0647734375,-0.030543262138962746,-0.09896016865968704,-0.33536502718925476
1787734440404894000,3.08089404296875,-0.009773843921720982,-0.03176499158143997,-0.32009339332580566
1787734440421082600,3.09708251953125,0.021991148591041565,0.02076941914856434,-0.2687807083129883
1787734440437085400,3.11308544921875,0.06841690838336945,0.10384709388017654,-0.15454891324043274
1787734440453141200,3.129141357421875,0.14538592100143433,0.18448130786418915,0.016493361443281174
1787734440469180400,3.145180419921875,0.22663100063800812,0.21441370248794556,0.13377949595451355
1787734440485264100,3.16126416015625,0.27977627515792847,0.20891591906547546,0.17592918872833252
1787734440501409000,3.177408935546875,0.32681289315223694,0.1459967941045761,0.1966986060142517
1787734440517423400,3.19342333984375,0.38179078698158264,0.06902777403593063,0.20586158335208893
1787734440533494000,3.209493896484375,0.4495968222618103,0.01771509274840355,0.17531833052635193
1787734440549537000,3.225537109375,0.49357911944389343,-0.027488935738801956,0.12034045159816742
1787734440565625600,3.24162548828125,0.5198463201522827,-0.05803219974040985,0.05619960278272629
1787734440581777700,3.257777587890625,0.5192354321479797,-0.05864306539297104,0.012828170321881771
1787734440597743400,3.273743408203125,0.5180137157440186,-0.07330382615327835,-0.006108652334660292
1787734440613811200,3.289811279296875,0.5210680365562439,-0.06108652427792549,0.009162978269159794
1787734440629856000,3.30585595703125,0.5314527750015259,0.010995574295520782,0.059864792972803116
1787734440645958100,3.321958251953125,0.5516113042831421,0.1062905490398407,0.09651670604944229
1787734440662123500,3.33812353515625,0.5607742667198181,0.1661553531885147,0.07330382615327835
1787734440678098200,3.35409814453125,0.5455026626586914,0.1569923609495163,-0.03420845419168472
1787734440694175700,3.37017578125,0.4856378734111786,0.09773843735456467,-0.1771509200334549
1787734440710184200,3.38618408203125,0.41722095012664795,0.04764748737215996,-0.26572638750076294
1787734440726262800,3.4022626953125,0.33719760179519653,-0.03237585723400116,-0.2736676335334778
1787734440742403000,3.418403076171875,0.27977627515792847,-0.07513642311096191,-0.13072516024112701
1787734440758393900,3.434393798828125,0.26145032048225403,-0.07696902006864548,0.0708603709936142
1787734440774431500,3.450431396484375,0.2632829248905182,-0.04703662544488907,0.29565876722335815
1787734440790422800,3.4664228515625,0.3084869384765625,0.02626720629632473,0.41111230850219727
1787734440806485800,3.48248583984375,0.3536909818649292,0.09773843735456467,0.4282165467739105
1787734440822621400,3.498621337890625,0.3885102868080139,0.11484266817569733,0.3933972120285034
1787734440838604000,3.51460400390625,0.43249258399009705,0.10262536257505417,0.2938261926174164
1787734440854681000,3.53068115234375,0.4453207552433014,0.028099801391363144,0.1264491081237793
1787734440870680300,3.546680419921875,0.43676865100860596,-0.08491026610136032,-0.059864792972803116
1787734440894743000,3.570742919921875,0.375071257352829,-0.21563543379306793,-0.35124751925468445
1787734440910849800,3.586849853515625,0.34208452701568604,-0.20952677726745605,-0.47708576917648315
1787734440926932200,3.60293212890625,0.3188716471195221,-0.10018189996480942,-0.5180137157440186
1787734440943046100,3.619046142578125,0.3066543638706207,0.025045474991202354,-0.4642575979232788
1787734440959005400,3.63500537109375,0.30054569244384766,0.10812314599752426,-0.2871066629886627
1787734440975071000,3.651071044921875,0.2889392673969269,0.16798794269561768,-0.06963863968849182
1787734440991141000,3.66714111328125,0.2877175211906433,0.18631389737129211,0.0555887371301651
1787734441007236900,3.68323681640625,0.2626720666885376,0.1722639948129654,0.07269296050071716
1787734441023320300,3.6993203125,0.23945917189121246,0.10323622822761536,0.030543262138962746
1787734441039289300,3.715289306640625,0.22907446324825287,0.006108652334660292,-0.04581489413976669
1787734441055365000,3.731365234375,0.2217440903186798,-0.051312681287527084,-0.13316862285137177
1787734441071443500,3.747443359375,0.18997909128665924,-0.08368854224681854,-0.24190263450145721
1787734441087551700,3.7635517578125,0.14905111491680145,-0.11972958594560623,-0.3194825351238251
1787734441103689200,3.779689208984375,0.12278391420841217,-0.14844025671482086,-0.3029891550540924
1787734441119671600,3.795671630859375,0.11056660860776901,-0.16371189057826996,-0.23090706765651703
1787734441135747800,3.811747802734375,0.09651670604944229,-0.14538592100143433,-0.11850785464048386
1787734441151832000,3.82783203125,0.08857546001672745,-0.12461651116609573,-0.02626720629632473
1787734441167946000,3.843946044921875,0.08124507963657379,-0.10751228034496307,0.03481931984424591
1787734441184036400,3.860036376953125,0.0659734457731247,-0.08979719132184982,0.09896016865968704
1787734441200032000,3.876031982421875,0.05925392732024193,-0.06108652427792549,0.152105450630188
1787734441216119800,3.892119873046875,0.04703662544488907,-0.039706241339445114,0.17043140530586243
1787734441232212200,3.908212158203125,0.022602014243602753,-0.019547687843441963,0.17043140530586243
1787734441248337000,3.9243369140625,-0.00366519158706069,-0.02687807008624077,0.15821409225463867
1787734441264437200,3.940437255859375,-0.045204028487205505,-0.06291911751031876,0.12828169763088226
1787734441280434700,3.9564345703125,-0.10262536257505417,-0.1270599663257599,0.09651670604944229
1787734441296532700,3.97253271484375,-0.17531833052635193,-0.21502456068992615,0.08491026610136032
1787734441312629500,3.98862939453125,-0.1918116807937622,-0.2370157092809677,0.10567969083786011
1787734441328703000,4.004702880859375,-0.1569923609495163,-0.24434609711170197,0.048258353024721146
1787734441344796700,4.020796630859375,-0.15515977144241333,-0.2834414839744568,-0.1466076523065567
1787734441360798200,4.036798095703125,-0.19364428520202637,-0.21441370248794556,-0.39095374941825867
1787734441376854500,4.0528544921875,-0.21074850857257843,-0.0910189226269722,-0.5998696684837341
1787734441392946400,4.068946533203125,-0.2217440903186798,0.04948008432984352,-0.6151412725448608
1787734441409012700,4.0850126953125,-0.19364428520202637,0.17959438264369965,-0.3878994286060333
1787734441425132800,4.1011328125,-0.15393804013729095,0.22663100063800812,0.045204028487205505
1787734441441085200,4.117085205078125,-0.11423180252313614,0.21807889640331268,0.423329621553421
1787734441457129000,4.13312890625,-0.0861319974064827,0.1514945775270462,0.7373143434524536
1787734441473234000,4.14923388671875,-0.09040805697441101,0.0507018156349659,0.8765916228294373
1787734441489319000,4.16531884765625,-0.10384709388017654,-0.06108652427792549,0.8533787727355957
1787734441505448000,4.181447998046875,-0.12828169763088226,-0.22846360504627228,0.6823364496231079
1787734441521410800,4.197410888671875,-0.17837265133857727,-0.3805690407752991,0.42271876335144043
1787734441537466000,4.213466064453125,-0.23518311977386475,-0.44287729263305664,0.12278391420841217
1787734441553543000,4.22954296875,-0.2590068578720093,-0.38240164518356323,-0.07880161702632904
1787734441569642200,4.245642333984375,-0.26633724570274353,-0.17287486791610718,-0.19303341209888458
1787734441585778400,4.2617783203125,-0.2779437005519867,0.05009094998240471,-0.20830504596233368
1787734441601749000,4.2777490234375,-0.2791654169559479,0.24190263450145721,-0.1875356286764145
1787734441617832400,4.29383251953125,-0.24129177629947662,0.3842342495918274,-0.15271630883216858
1787734441633920000,4.309919921875,-0.17898350954055786,0.46364670991897583,-0.1007927656173706
1787734441650034700,4.32603466796875,-0.1264491081237793,0.4697553813457489,-0.06108652427792549
1787734441666125000,4.342125,-0.08368854224681854,0.4398229718208313,-0.04581489413976669
1787734441682084400,4.35808447265625,-0.030543262138962746,0.3781255781650543,-0.028099801391363144
1787734441698136600,4.374136474609375,0.018936822190880775,0.313373863697052,-0.019547687843441963
1787734441714238000,4.390238037109375,0.04703662544488907,0.23396138846874237,-0.003054326167330146
1787734441730318000,4.406318115234375,0.0555887371301651,0.15393804013729095,0.03237585723400116
1787734441746427000,4.422427001953125,0.05375614017248154,0.08735372871160507,0.05803219974040985
1787734441762388200,4.43838818359375,0.05497787147760391,0.08368854224681854,0.029932396486401558
1787734441778445300,4.4544453125,0.05009094998240471,0.11301007121801376,-0.07819075137376785
1787734441794554600,4.4705546875,0.05497787147760391,0.15760323405265808,-0.20830504596233368
1787734441810638800,4.486638916015625,0.06719517707824707,0.18448130786418915,-0.28527405858039856
1787734441826750000,4.50275,0.06352998316287994,0.1722639948129654,-0.27488934993743896
1787734441842709800,4.518709716796875,0.06291911751031876,0.14844025671482086,-0.21441370248794556
1787734441858763300,4.53476318359375,0.08429940044879913,0.1466076523065567,-0.15027284622192383
1787734441874879000,4.55087890625,0.11484266817569733,0.16737708449363708,-0.1007927656173706
1787734441890969000,4.566968994140625,0.18325957655906677,0.21380282938480377,-0.024434609338641167
1787734441907082200,4.583082275390625,0.26145032048225403,0.2223549485206604,0.06352998316287994
1787734441923048700,4.599048583984375,0.3194825351238251,0.182648703455925,0.14355333149433136
1787734441939115000,4.615114990234375,0.35674530267715454,0.08429940044879913,0.2015855312347412
1787734441955217000,4.631216796875,0.3732386529445648,-0.02321287989616394,0.21441370248794556
1787734441971324400,4.647324462890625,0.4050036668777466,-0.11239920556545258,0.20341812074184418
1787734441987459000,4.663458984375,0.46181413531303406,-0.16737708449363708,0.20463985204696655
1787734442003409700,4.67940966796875,0.5467243790626526,-0.16249015927314758,0.21074850857257843
1787734442019483100,4.695483154296875,0.5876523852348328,-0.16004669666290283,0.13561208546161652
1787734442035566800,4.71156689453125,0.684779942035675,-0.16004669666290283,-0.11484266817569733
1787734442051678000,4.727677978515625,0.6585127115249634,-0.08552113175392151,-0.50335294008255
1787734442067814000,4.74381396484375,0.5412266254425049,-0.09529497474431992,-0.6792821288108826
1787734442083789300,4.759789306640625,0.4147774875164032,-0.13988813757896423,-0.5088507533073425
1787734442099856600,4.775856689453125,0.304210901260376,-0.13439035415649414,-0.14416420459747314
1787734442115979500,4.7919794921875,0.21807889640331268,-0.0555887371301651,0.35674530267715454
1787734442132076800,4.808076904296875,0.16493362188339233,0.06291911751031876,0.7257078886032104
1787734442148176400,4.82417626953125,0.13439035415649414,0.08491026610136032,0.8680394887924194
1787734442164154000,4.840154052734375,0.1111774742603302,0.06169738993048668,0.8869763612747192
1787734442180231700,4.856231689453125,0.07696902006864548,0.05497787147760391,0.8118399381637573
1787734442196328200,4.872328125,0.04337143152952194,0.07208210229873657,0.7171558141708374
1787734442212438300,4.888438232421875,0.0006108652451075613,0.07696902006864548,0.5729916095733643
1787734442228549000,4.904549072265625,-0.0757472887635231,-0.005497787147760391,0.36713001132011414
1787734442244537600,4.92053759765625,-0.1869247704744339,-0.1508837193250656,0.1258382350206375
1787734442260577500,4.93657763671875,-0.2767219543457031,-0.2535090744495392,-0.06169738993048668
1787734442276689700,4.952689697265625,-0.3781255781650543,-0.3194825351238251,-0.22479841113090515
1787734442292765000,4.968764892578125,-0.45753806829452515,-0.3494149148464203,-0.33047810196876526
1787734442308884700,4.984884765625,-0.47219884395599365,-0.32559117674827576,-0.3488040566444397
1787734442324841000,5.000841064453125,-0.47830748558044434,-0.24007004499435425,-0.251676470041275
1787734442340901600,5.016901611328125,-0.4862487316131592,-0.07391469180583954,-0.03726277872920036
1787734442357023200,5.033023193359375,-0.45875978469848633,0.1160643994808197,0.18936823308467865
1787734442373113600,5.049113525390625,-0.43676865100860596,0.2376265823841095,0.303600013256073
1787734442389238000,5.065238037109375,-0.44287729263305664,0.3066543638706207,0.33536502718925476
1787734442405203500,5.081203369140625,-0.5296201705932617,0.4129449129104614,0.28649580478668213
1787734442421251600,5.09725146484375,-0.7037167549133301,0.43127086758613586,0.14966198801994324
1787734442437357300,5.113357421875,-1.0140362977981567,0.304210901260376,-0.1417207419872284
1787734442453449000,5.129448974609375,-1.357953429222107,0.10751228034496307,-0.4764748811721802
1787734442469581600,5.14558154296875,-1.6493362188339233,-0.05497787147760391,-0.6713408827781677
1787734442485548500,5.161548583984375,-1.9199494123458862,-0.11667526513338089,-0.6896668672561646
1787734442501620000,5.177619873046875,-2.1514673233032227,-0.07757988572120667,-0.5125159621238708
1787734442517739500,5.193739501953125,-2.3939809799194336,-0.029932396486401558,-0.21380282938480377
1787734442533833500,5.20983349609375,-2.576629638671875,-0.01038470957428217,0.021380282938480377
1787734442549924400,5.22592431640625,-2.7934868335723877,-0.06352998316287994,0.18081611394882202
1787734442565908500,5.241908447265625,-2.975524663925171,-0.15882496535778046,0.2638937830924988
1787734442581994500,5.257994384765625,-3.070208787918091,-0.19547687470912933,0.31581732630729675
1787734442598087000,5.2740869140625,-3.1416800022125244,-0.16737708449363708,0.34025195240974426
1787734442614209000,5.290208984375,-3.2094860076904297,-0.17348572611808777,0.3072652220726013
1787734442630307000,5.30630712890625,-3.26935076713562,-0.23396138846874237,0.22968533635139465
1787734442646265600,5.322265625,-3.307835340499878,-0.3066543638706207,0.15393804013729095
1787734442662318800,5.33831884765625,-3.330437421798706,-0.34758231043815613,0.0757472887635231
1787734442678416000,5.354415771484375,-3.327383041381836,-0.33475416898727417,0.04703662544488907
1787734442694542800,5.37054296875,-3.3261611461639404,-0.30543261766433716,0.04092797264456749
1787734442710645200,5.386645263671875,-3.3157765865325928,-0.24495697021484375,-0.014049900695681572
1787734442726581500,5.40258154296875,-3.3316590785980225,-0.20402899384498596,-0.09773843735456467
1787734442742634000,5.418634033203125,-3.366478443145752,-0.15393804013729095,-0.13500121235847473
1787734442758712300,5.43471240234375,-3.414736747741699,-0.10506882518529892,-0.11789698898792267
1787734442774804500,5.450804443359375,-3.4691038131713867,-0.09773843735456467,-0.05009094998240471
1787734442790913500,5.46691357421875,-3.5265250205993652,-0.08918632566928864,0.00733038317412138
1787734442806874600,5.48287451171875,-3.53752064704895,-0.06352998316287994,0.033597588539123535
1787734442822929700,5.4989296875,-3.48071026802063,-0.00366519158706069,0.03787364438176155
1787734442839042000,5.5150419921875,-3.3652565479278564,0.15332718193531036,0.02015855349600315
1787734442855133000,5.5311328125,-3.243694543838501,0.313373863697052,-0.00855211354792118
1787734442871251000,5.5472509765625,-3.098308563232422,0.41233405470848083,-0.06169738993048668
1787734442887218200,5.56321826171875,-3.0109548568725586,0.3585779070854187,-0.12828169763088226
1787734442903283700,5.57928369140625,-2.9804115295410156,0.20402899384498596,-0.18631389737129211
1787734442919356000,5.59535595703125,-2.9413161277770996,-0.01466076634824276,-0.23335053026676178
1787734442935453000,5.611452880859375,-2.8771753311157227,-0.21441370248794556,-0.2718350291252136
1787734442951580000,5.627579833984375,-2.8044822216033936,-0.3500257730484009,-0.29993483424186707
1787734442967556000,5.64355615234375,-2.737898111343384,-0.38179078698158264,-0.2968805134296417
1787734442983624200,5.659624267578125,-2.6566529273986816,-0.3286454975605011,-0.2480112910270691
1787734442999699700,5.67569970703125,-2.6035077571868896,-0.2223549485206604,-0.16920967400074005
1787734443015804400,5.691804443359375,-2.5815165042877197,-0.1368338167667389,-0.09224065393209457
1787734443031938600,5.7079384765625,-2.5662448406219482,-0.05925392732024193,-0.03237585723400116
1787734443047918800,5.7239189453125,-2.5754079818725586,-0.08307767659425735,-0.028099801391363144
1787734443063995400,5.739995361328125,-2.579684019088745,-0.13439035415649414,-0.05009094998240471
1787734443080080400,5.756080322265625,-2.5583035945892334,-0.1765400618314743,-0.07208210229873657
1787734443096193500,5.772193603515625,-2.5479190349578857,-0.2125810980796814,-0.10262536257505417
1787734443112285700,5.78828564453125,-2.5137104988098145,-0.1667662113904953,-0.13377949595451355
1787734443128277500,5.804277587890625,-2.4520130157470703,-0.08796459436416626,-0.15821409225463867
1787734443144367000,5.8203671875,-2.372600555419922,0.024434609338641167,-0.17043140530586243
1787734443160464600,5.836464599609375,-2.280359983444214,0.06658431142568588,-0.16065755486488342
1787734443176581400,5.852581298828125,-2.2015583515167236,0.06780604273080826,-0.1270599663257599
1787734443192677400,5.868677490234375,-2.1697933673858643,0.036041051149368286,-0.10323622822761536
1787734443208674800,5.8846748046875,-2.141693592071533,0.028099801391363144,-0.0806342139840126
1787734443224772400,5.9007724609375,-2.105041742324829,0.029932396486401558,-0.06902777403593063
1787734443240851500,5.9168515625,-2.065946340560913,0.02932153269648552,-0.06414084881544113
1787734443256934400,5.932934326171875,-1.996307611465454,0.04642575979232788,-0.06902777403593063
1787734443273049300,5.94904931640625,-1.8851301670074463,0.10445795953273773,-0.06230825558304787
1787734443288989400,5.964989501953125,-1.7831156253814697,0.18325957655906677,-0.04153883829712868
1787734443305046000,5.9810458984375,-1.662164330482483,0.27488934993743896,-0.006108652334660292
1787734443321124900,5.997124755859375,-1.522887110710144,0.3084869384765625,0.004886921960860491
1787734443337227800,6.013227783203125,-1.3946053981781006,0.31154128909111023,-0.009162978269159794
1787734443353362400,6.029362548828125,-1.301142930984497,0.3084869384765625,-0.04642575979232788
1787734443369327900,6.045327880859375,-1.2113457918167114,0.3127630054950714,-0.11484266817569733
1787734443385389000,6.06138916015625,-1.1435397863388062,0.34513887763023376,-0.18814650177955627
1787734443401453000,6.077453125,-1.094059705734253,0.3530801236629486,-0.24373523890972137
1787734443417549800,6.0935498046875,-1.0403034687042236,0.3439171314239502,-0.2785545587539673
1787734443433663000,6.1096630859375,-1.0140362977981567,0.32681289315223694,-0.2590068578720093
1787734443449630000,6.1256298828125,-1.0024298429489136,0.3084869384765625,-0.21807889640331268
1787734443465693700,6.141693603515625,-1.0036516189575195,0.2718350291252136,-0.15454891324043274
1787734443481763600,6.157763671875,-1.0012081861495972,0.2528982162475586,-0.05497787147760391
1787734443497865700,6.17386572265625,-1.007927656173706,0.21013765037059784,0.07452555745840073
1787734443513998600,6.18999853515625,-1.0097602605819702,0.16310101747512817,0.19364428520202637
1787734443529980000,6.20597998046875,-1.0030407905578613,0.13500121235847473,0.3090978264808655
1787734443546030800,6.22203076171875,-0.9865473508834839,0.11789698898792267,0.35246923565864563
1787734443562114300,6.2381142578125,-0.9529497623443604,0.09651670604944229,0.32131510972976685
1787734443578222300,6.254222412109375,-0.9010262489318848,0.08002334833145142,0.19364428520202637
1787734443594314000,6.27031396484375,-0.8680394887924194,0.0861319974064827,0.016493361443281174
1787734443610272000,6.28627197265625,-0.8729264140129089,0.07452555745840073,-0.10384709388017654
1787734443626323200,6.3023232421875,-0.8570439219474792,0.03848451003432274,-0.1014036312699318
1787734443642403600,6.318403564453125,-0.7874053120613098,0.09896016865968704,0.07757988572120667
1787734443658526200,6.334526123046875,-0.7513642311096191,0.11545353382825851,0.2541199326515198
1787734443674629000,6.350629150390625,-0.7812966704368591,0.015271631069481373,0.28038713335990906
1787734443690591200,6.36659130859375,-0.8106181621551514,-0.1362229436635971,0.20097467303276062
1787734443706649300,6.3826494140625,-0.8014551997184753,-0.19058994948863983,0.14477506279945374
1787734443722757600,6.398757568359375,-0.7721336483955383,-0.17959438264369965,0.15760323405265808
1787734443738837800,6.414837646484375,-0.7342600226402283,-0.15821409225463867,0.1966986060142517
1787734443754950700,6.43095068359375,-0.7006624341011047,-0.1618792861700058,0.19364428520202637
1787734443770912000,6.446912109375,-0.685390830039978,-0.14905111491680145,0.13439035415649414
1787734443786971100,6.46297119140625,-0.6805039048194885,-0.12461651116609573,0.06658431142568588
1787734443803088100,6.479088134765625,-0.6713408827781677,-0.10506882518529892,0.015882495790719986
1787734443819177200,6.49517724609375,-0.6407976150512695,-0.0861319974064827,0.018936822190880775
1787734443835296300,6.511296142578125,-0.6090326309204102,-0.05497787147760391,0.05803219974040985
1787734443851248000,6.527248046875,-0.5803219676017761,-0.03726277872920036,0.09712757170200348
1787734443867320600,6.543320556640625,-0.5736024379730225,-0.05497787147760391,0.07880161702632904
1787734443883371000,6.55937109375,-0.5693264007568359,-0.06414084881544113,0.01771509274840355
1787734443899510000,6.575510009765625,-0.5668829679489136,-0.06291911751031876,-0.08185594528913498
1787734443915648800,6.591648681640625,-0.5522221922874451,-0.036651913076639175,-0.1765400618314743
1787734443931626800,6.607626708984375,-0.5510004758834839,0,-0.21135938167572021
1787734443947701500,6.623701416015625,-0.5681046843528748,0.01160643994808197,-0.20830504596233368
1787734443971831600,6.64783154296875,-0.6096435189247131,0.00733038317412138,-0.16859880089759827
1787734443987915800,6.663915771484375,-0.656680166721344,-0.027488935738801956,-0.14477506279945374
1787734444003934000,6.679933837890625,-0.6921103000640869,-0.05314527451992035,-0.1111774742603302
1787734444020046300,6.69604638671875,-0.6908885836601257,-0.08246681094169617,-0.08429940044879913
1787734444036217900,6.7122177734375,-0.675006091594696,-0.0910189226269722,-0.07147123664617538
1787734444052210400,6.72821044921875,-0.665232241153717,-0.09529497474431992,-0.09224065393209457
1787734444068304000,6.744303955078125,-0.6579018831253052,-0.09529497474431992,-0.11667526513338089
1787734444084314000,6.760314208984375,-0.6603453159332275,-0.11484266817569733,-0.1215621829032898
1787734444100433400,6.776433349609375,-0.6676757335662842,-0.13439035415649414,-0.09773843735456467
1787734444116613000,6.792613037109375,-0.6835582256317139,-0.1563815027475357,-0.06658431142568588
1787734444132614000,6.80861376953125,-0.7067710757255554,-0.16737708449363708,-0.051312681287527084
1787734444148711700,6.824711669921875,-0.7220427393913269,-0.14233160018920898,-0.039095375686883926
1787734444164735000,6.84073486328125,-0.7422012686729431,-0.1411098688840866,-0.010995574295520782
1787734444180814000,6.85681396484375,-0.7629706859588623,-0.18325957655906677,0.018325956538319588
1787734444196957700,6.872957763671875,-0.7849618196487427,-0.2785545587539673,0.03787364438176155
1787734444212960300,6.888960205078125,-0.7898487448692322,-0.37262779474258423,0.08246681094169617
1787734444229023500,6.9050234375,-0.7544185519218445,-0.38667771220207214,0.14049901068210602
1787734444245054500,6.921054443359375,-0.6701191663742065,-0.3139847218990326,0.16310101747512817
1787734444261140000,6.937139892578125,-0.5424483418464661,-0.14966198801994324,0.1417207419872284
1787734444277302800,6.953302734375,-0.4043927788734436,-0.005497787147760391,0.06352998316287994
1787734444293314300,6.969314208984375,-0.32131510972976685,0.05619960278272629,-0.10995574295520782
1787734444309381000,6.985381103515625,-0.35246923565864563,0.07147123664617538,-0.3640756905078888
1787734444325424000,7.001424072265625,-0.41722095012664795,0.10018189996480942,-0.7018841505050659
1787734444341494000,7.017493896484375,-0.5210680365562439,0.11972958594560623,-0.7324274182319641
1787734444357648000,7.03364794921875,-0.598647952079773,0.1612684279680252,-0.41111230850219727
1787734444373646600,7.049646484375,-0.6505714654922485,0.24190263450145721,0.07941248267889023
1787734444389702400,7.065702392578125,-0.6279694437980652,0.2528982162475586,0.48319441080093384
1787734444405723400,7.081723388671875,-0.5522221922874451,0.19364428520202637,0.7275404930114746
1787734444421809000,7.097808837890625,-0.48197266459465027,0.0806342139840126,0.9132435321807861
1787734444437971700,7.1139716796875,-0.45753806829452515,-0.09712757170200348,0.9529497623443604
1787734444453973000,7.129972900390625,-0.46670106053352356,-0.34025195240974426,0.8387179970741272
1787734444470045400,7.14604541015625,-0.48808133602142334,-0.5180137157440186,0.6298020482063293
1787734444486019600,7.16201953125,-0.5186246037483215,-0.6212499737739563,0.31520646810531616
1787734444502071300,7.1780712890625,-0.5155702829360962,-0.5088507533073425,0.033597588539123535
1787734444518205000,7.194204833984375,-0.49235737323760986,-0.32131510972976685,-0.09957103431224823
1787734444534184400,7.210184326171875,-0.5198463201522827,-0.029932396486401558,-0.15393804013729095
1787734444550266400,7.226266357421875,-0.5693264007568359,0.20586158335208893,-0.19792033731937408
1787734444566267000,7.242266845703125,-0.5894849896430969,0.3433062732219696,-0.23945917189121246
1787734444582331100,7.2583310546875,-0.5913175344467163,0.46242499351501465,-0.2626720666885376
1787734444598460400,7.27446044921875,-0.5962044596672058,0.513126790523529,-0.24678955972194672
1787734444614439700,7.290439697265625,-0.5974262356758118,0.5265658497810364,-0.2015855312347412
1787734444630528000,7.306528076171875,-0.5968153476715088,0.4917465150356293,-0.15271630883216858
1787734444646545000,7.322544921875,-0.5827654600143433,0.40194934606552124,-0.1160643994808197
1787734444662609400,7.338609375,-0.5619960427284241,0.30054569244384766,-0.13744467496871948
1787734444678741000,7.354740966796875,-0.5424483418464661,0.21563543379306793,-0.17592918872833252
1787734444694740200,7.370740234375,-0.513126790523529,0.16432274878025055,-0.20891591906547546
1787734444710793700,7.386793701171875,-0.4746423065662384,0.16493362188339233,-0.23151792585849762
1787734444726817500,7.402817626953125,-0.4294382631778717,0.18570303916931152,-0.22846360504627228
1787734444742898700,7.418898681640625,-0.3701843321323395,0.22968533635139465,-0.2119702398777008
1787734444759041000,7.435041015625,-0.31093040108680725,0.24984388053417206,-0.20586158335208893
1787734444775047400,7.45104736328125,-0.24923302233219147,0.24984388053417206,-0.2064724564552307
1787734444791111000,7.46711083984375,-0.1973094791173935,0.21441370248794556,-0.19975294172763824
1787734444807150300,7.483150390625,-0.1313360333442688,0.17470745742321014,-0.14966198801994324
1787734444823244300,7.499244384765625,-0.0659734457731247,0.16432274878025055,-0.06719517707824707
1787734444839398000,7.51539794921875,-0.016493361443281174,0.15454891324043274,-0.00427605677396059
1787734444855363600,7.531363525390625,0.04214970022439957,0.14049901068210602,0.06902777403593063
1787734444871436000,7.54743603515625,0.07391469180583954,0.10751228034496307,0.13011430203914642
1787734444887484000,7.56348388671875,0.08979719132184982,0.07696902006864548,0.1563815027475357
1787734444903581700,7.579581787109375,0.10201449692249298,0.007941247895359993,0.13561208546161652
1787734444919760400,7.595760498046875,0.14294247329235077,-0.048258353024721146,0.08735372871160507
1787734444935736000,7.611736083984375,0.192422553896904,-0.06475171446800232,0.06414084881544113
1787734444951819500,7.627819580078125,0.24434609711170197,-0.02382374368607998,0.08674286305904388
1787734444967806000,7.643805908203125,0.29016098380088806,0.06108652427792549,0.14294247329235077
1787734444983916500,7.65991650390625,0.32620203495025635,0.20830504596233368,0.21991148591041565
1787734445000093400,7.676093505859375,0.36102136969566345,0.2632829248905182,0.24617868661880493
1787734445016086500,7.69208642578125,0.394618958234787,0.18387043476104736,0.1368338167667389
1787734445032188000,7.70818798828125,0.4355469346046448,0.18387043476104736,-0.10506882518529892
1787734445048207400,7.724207275390625,0.4801400899887085,0.18020524084568024,-0.33047810196876526
1787734445064309500,7.7403095703125,0.4807509481906891,0.16065755486488342,-0.3188716471195221
1787734445080491000,7.756490966796875,0.42210787534713745,0.16310101747512817,-0.08491026610136032
1787734445096470300,7.77247021484375,0.33108896017074585,0.15821409225463867,0.20036379992961884
1787734445112509000,7.788509033203125,0.28099802136421204,0.1612684279680252,0.394008070230484
1787734445128528100,7.804528076171875,0.2785545587539673,0.13561208546161652,0.5803219676017761
1787734445144642000,7.82064208984375,0.34147366881370544,0.09834930300712585,0.7018841505050659
1787734445160831500,7.83683154296875,0.44104471802711487,0.05619960278272629,0.6707300543785095
1787734445176820000,7.852820068359375,0.5247332453727722,-0.012828170321881771,0.5619960427284241
1787734445192872000,7.868871826171875,0.5467243790626526,-0.1716531366109848,0.39156460762023926
1787734445208908000,7.884907958984375,0.5375614166259766,-0.342695415019989,0.18325957655906677
1787734445224992000,7.900991943359375,0.5125159621238708,-0.46364670991897583,-0.009773843921720982
1787734445241147400,7.9171474609375,0.4599815309047699,-0.5626068711280823,-0.16859880089759827
1787734445257118000,7.933117919921875,0.39584067463874817,-0.5913175344467163,-0.20891591906547546
1787734445273182200,7.94918212890625,0.3390302062034607,-0.5736024379730225,-0.1508837193250656
1787734445289220600,7.965220703125,0.2675589919090271,-0.49235737323760986,-0.0024434609804302454
1787734445305308400,7.981308349609375,0.21013765037059784,-0.35674530267715454,0.17898350954055786
1787734445321465300,7.99746533203125,0.18509216606616974,-0.24007004499435425,0.2791654169559479
1787734445337440500,8.0134404296875,0.1875356286764145,-0.2021963894367218,0.26022860407829285
1787734445353513700,8.029513671875,0.19364428520202637,-0.19547687470912933,0.15393804013729095
1787734445369549600,8.045549560546876,0.20830504596233368,-0.22418753802776337,0.007941247895359993
1787734445385632300,8.06163232421875,0.21868975460529327,-0.2528982162475586,-0.13744467496871948
1787734445401799200,8.077799072265625,0.22479841113090515,-0.2474004179239273,-0.27611109614372253
1787734445417779700,8.09377978515625,0.22968533635139465,-0.1814269721508026,-0.3378084897994995
1787734445433868500,8.10986865234375,0.21624629199504852,-0.12095131725072861,-0.36713001132011414
1787734445449885200,8.12588525390625,0.1918116807937622,-0.07513642311096191,-0.39156460762023926
1787734445465969200,8.14196923828125,0.1466076523065567,-0.04398229718208313,-0.3787364661693573
1787734445482112300,8.1581123046875,0.08429940044879913,-0.025045474991202354,-0.3084869384765625
1787734445498110000,8.17410986328125,0.00855211354792118,-0.02687807008624077,-0.22418753802776337
1787734445514213600,8.190213623046875,-0.0861319974064827,-0.06719517707824707,-0.15454891324043274
1787734445530232800,8.20623291015625,-0.16737708449363708,-0.10018189996480942,-0.09162978827953339
1787734445546315500,8.2223154296875,-0.22113321721553802,-0.09712757170200348,-0.028099801391363144
1787734445562478800,8.238478759765625,-0.29077184200286865,-0.07452555745840073,0.04153883829712868
1787734445578489300,8.2544892578125,-0.36590829491615295,-0.027488935738801956,0.06352998316287994
1787734445594552300,8.27055224609375,-0.43188172578811646,-0.018936822190880775,0.019547687843441963
1787734445610589700,8.286589599609375,-0.5009095072746277,-0.028099801391363144,-0.045204028487205505
1787734445626672600,8.302672607421876,-0.5577199459075928,0.02015855349600315,-0.09224065393209457
1787734445642822400,8.318822509765624,-0.5510004758834839,0.07452555745840073,-0.15760323405265808
1787734445658837500,8.33483740234375,-0.5448917746543884,0.02382374368607998,-0.3188716471195221
1787734445674909400,8.350909423828124,-0.5662720799446106,-0.006108652334660292,-0.617584764957428
1787734445690949600,8.36694970703125,-0.5528330206871033,0.051312681287527084,-0.8436049222946167
1787734445707041500,8.38304150390625,-0.5161811113357544,0.13316862285137177,-0.8307767510414124
1787734445723197400,8.399197509765624,-0.46242499351501465,0.23518311977386475,-0.5283984541893005
1787734445739202300,8.415202392578125,-0.4141666293144226,0.2993239760398865,-0.06230825558304787
1787734445755261400,8.431261474609375,-0.35674530267715454,0.27000242471694946,0.3390302062034607
1787734445771296500,8.447296630859375,-0.31031954288482666,0.20463985204696655,0.5528330206871033
1787734445787375900,8.4633759765625,-0.3084869384765625,0.11789698898792267,0.6811147332191467
1787734445803540200,8.479540283203125,-0.37751471996307373,-0.036041051149368286,0.7232644557952881
1787734445819553000,8.495552978515626,-0.4502076804637909,-0.21502456068992615,0.684779942035675
1787734445835615500,8.511615478515624,-0.5186246037483215,-0.41661009192466736,0.5161811113357544
1787734445851653600,8.527653564453125,-0.5919284224510193,-0.5100724697113037,0.2376265823841095
1787734445867763500,8.543763427734374,-0.6316346526145935,-0.44654250144958496,-0.009162978269159794
1787734445891859200,8.567859130859375,-0.7379252314567566,-0.25045475363731384,-0.17409659922122955
1787734445907975200,8.58397509765625,-0.8362745046615601,-0.06536258012056351,-0.1514945775270462
1787734445924067000,8.600067138671875,-0.8729264140129089,0.17470745742321014,-0.12889257073402405
1787734445940056800,8.616056884765625,-0.8032878041267395,0.44226643443107605,-0.10567969083786011
1787734445956145000,8.632144775390625,-0.750142514705658,0.6340781450271606,-0.09712757170200348
1787734445972241700,8.64824169921875,-0.7000515460968018,0.7299839854240417,-0.10690141469240189
1787734445988357400,8.664357421875,-0.6511823534965515,0.7312057018280029,-0.09407325088977814
1787734446004459300,8.680459228515625,-0.6010913848876953,0.6548475623130798,-0.06108652427792549
1787734446020461000,8.6964609375,-0.5467243790626526,0.5662720799446106,-0.029932396486401558
1787734446036552000,8.712552001953124,-0.4795292317867279,0.43676865100860596,-0.00855211354792118
1787734446052655400,8.7286552734375,-0.40133845806121826,0.3323107063770294,-0.01710422709584236
1787734446068783900,8.744783935546875,-0.32498031854629517,0.27550023794174194,-0.042760565876960754
1787734446084888800,8.760888916015626,-0.21991148591041565,0.25106561183929443,-0.07269296050071716
1787734446100898600,8.776898681640626,-0.11728613078594208,0.2376265823841095,-0.08796459436416626
1787734446116999700,8.792999755859375,-0.027488935738801956,0.23640485107898712,-0.09285151958465576
1787734446133108700,8.809108642578124,0.05925392732024193,0.21807889640331268,-0.09407325088977814
1787734446149196800,8.82519677734375,0.1062905490398407,0.15454891324043274,-0.10812314599752426
1787734446165313000,8.84131298828125,0.13927727937698364,0.0757472887635231,-0.11301007121801376
1787734446181278500,8.857278564453125,0.17470745742321014,0.051312681287527084,-0.08796459436416626
1787734446197342500,8.873342529296876,0.25473082065582275,0.08857546001672745,-0.014049900695681572
1787734446213464000,8.889464111328126,0.3494149148464203,0.19547687470912933,0.07880161702632904
1787734446229563100,8.905563232421875,0.4288274049758911,0.2730567753314972,0.13072516024112701
1787734446245694700,8.92169482421875,0.4966334402561188,0.29016098380088806,0.1514945775270462
1787734446261676300,8.93767626953125,0.5198463201522827,0.2620611786842346,0.10323622822761536
1787734446277751000,8.9537509765625,0.4996877610683441,0.18325957655906677,-0.018936822190880775
1787734446293827000,8.9698271484375,0.4795292317867279,0.09651670604944229,-0.1215621829032898
1787734446309930800,8.9859306640625,0.4447098970413208,0.04398229718208313,-0.17898350954055786
1787734446326063900,9.00206396484375,0.3604104816913605,0.007941247895359993,-0.15760323405265808
1787734446342045200,9.018045166015625,0.294437050819397,-0.01710422709584236,-0.08552113175392151
1787734446358122500,9.03412255859375,0.2528982162475586,0.010995574295520782,0.022602014243602753
1787734446374208800,9.050208740234375,0.23396138846874237,0.004886921960860491,0.06902777403593063
1787734446390323700,9.06632373046875,0.2168571650981903,-0.05864306539297104,0.05803219974040985
1787734446406435600,9.082435546875,0.1875356286764145,-0.13805554807186127,0.036041051149368286
1787734446422393300,9.098393310546875,0.1319468915462494,-0.29138273000717163,-0.00427605677396059
1787734446438429000,9.114428955078125,0.06963863968849182,-0.38179078698158264,0.01038470957428217
1787734446454510600,9.130510498046876,0.021380282938480377,-0.3878994286060333,0.11362093687057495
1787734446470570800,9.14657080078125,-0.03848451003432274,-0.31031954288482666,0.32559117674827576
1787734446486675200,9.16267529296875,-0.06291911751031876,-0.2541199326515198,0.48808133602142334
1787734446502632700,9.1786328125,-0.04153883829712868,-0.21807889640331268,0.5210680365562439
1787734446518683100,9.19468310546875,0.0006108652451075613,-0.12217304855585098,0.48258355259895325
1787734446534785000,9.210784912109375,0.08796459436416626,-0.006719517521560192,0.403781920671463
1787734446550868500,9.226868408203124,0.17043140530586243,0.04459316283464432,0.34086281061172485
1787734446566982100,9.242982177734374,0.20036379992961884,0.024434609338641167,0.3023782968521118
1787734446582948400,9.2589482421875,0.24190263450145721,-0.12522737681865692,0.23029619455337524
1787734446598992400,9.274992431640625,0.29626965522766113,-0.3084869384765625,0.04886921867728233
1787734446615114200,9.2911142578125,0.24373523890972137,-0.45326200127601624,-0.1007927656173706
1787734446631214600,9.307214599609376,0.10567969083786011,-0.5962044596672058,-0.24190263450145721
1787734446647338000,9.323337890625,-0.051312681287527084,-0.6340781450271606,-0.29626965522766113
1787734446663303000,9.339302978515626,-0.18448130786418915,-0.618195652961731,-0.2724458873271942
1787734446679367000,9.355366943359375,-0.3494149148464203,-0.5583308339118958,-0.18997909128665924
1787734446695444500,9.371444580078125,-0.46242499351501465,-0.38179078698158264,-0.0659734457731247
1787734446711545000,9.387545166015625,-0.4489859640598297,-0.11301007121801376,0.07757988572120667
1787734446727677700,9.403677734375,-0.3597996234893799,0.09896016865968704,0.17348572611808777
1787734446743655200,9.4196552734375,-0.24129177629947662,0.26633724570274353,0.22540926933288574
1787734446759729200,9.435729248046876,-0.1820378452539444,0.35246923565864563,0.20036379992961884
1787734446775807200,9.45180712890625,-0.2070833146572113,0.3689626157283783,0.10445795953273773
1787734446791915300,9.467915283203125,-0.2718350291252136,0.3695734739303589,-0.0354301854968071
1787734446807999500,9.48399951171875,-0.35063666105270386,0.394618958234787,-0.15577064454555511
1787734446823982600,9.499982666015624,-0.4434881806373596,0.4129449129104614,-0.22968533635139465
1787734446840062000,9.51606201171875,-0.5424483418464661,0.35185837745666504,-0.25473082065582275
1787734446856148500,9.5321484375,-0.6762278079986572,0.2541199326515198,-0.2474004179239273
1787734446872264700,9.5482646484375,-0.8228355050086975,0.15515977144241333,-0.21807889640331268
1787734446888357000,9.564357177734376,-0.979216992855072,0.07147123664617538,-0.1771509200334549
1787734446904348000,9.580347900390626,-1.1856894493103027,-0.022602014243602753,-0.09040805697441101
1787734446920430300,9.596430419921875,-1.3585642576217651,-0.08979719132184982,0.039095375686883926
1787734446936519700,9.612519775390625,-1.4599679708480835,-0.11301007121801376,0.16004669666290283
1787734446952610800,9.62861083984375,-1.5424346923828125,-0.10934487730264664,0.25961771607398987
1787734446968710100,9.644710205078125,-1.6236798763275146,-0.13744467496871948,0.26939156651496887
1787734446984711700,9.660711669921875,-1.7153096199035645,-0.13866640627384186,0.19792033731937408
1787734447000810500,9.676810546875,-1.8069393634796143,-0.11239920556545258,0.10262536257505417
1787734447016935700,9.692935791015625,-1.9162843227386475,-0.04092797264456749,-0.0012217304902151227
1787734447033013500,9.709013427734375,-2.0341813564300537,0.036651913076639175,-0.08735372871160507
1787734447049116400,9.725116455078124,-2.120924234390259,0.0861319974064827,-0.12034045159816742
1787734447065121000,9.74112109375,-2.169182538986206,0.1563815027475357,-0.08979719132184982
1787734447081173800,9.757173828125,-2.1838431358337402,0.21868975460529327,-0.04337143152952194
1787734447097281500,9.773281494140624,-2.2259929180145264,0.27000242471694946,-0.036041051149368286
1787734447113364700,9.78936474609375,-2.3035728931427,0.2981022298336029,-0.06536258012056351
1787734447129480000,9.80547998046875,-2.4330763816833496,0.30543261766433716,-0.12767083942890167
1787734447145447700,9.82144775390625,-2.6138923168182373,0.26450464129447937,-0.18875735998153687
1787734447161514000,9.837513916015626,-2.769663095474243,0.2070833146572113,-0.21013765037059784
1787734447177636900,9.853636962890626,-2.8820621967315674,0.17592918872833252,-0.17470745742321014
1787734447193730300,9.869730224609375,-2.8930578231811523,0.16493362188339233,-0.09834930300712585
1787734447209852700,9.885852783203125,-2.847242832183838,0.1459967941045761,-0.009773843921720982
1787734447225824500,9.901824462890625,-2.7898216247558594,0.11239920556545258,0.048258353024721146
1787734447241899800,9.917899658203124,-2.6835310459136963,0.0861319974064827,0.11850785464048386
1787734447257980000,9.93397998046875,-2.546086311340332,0.1319468915462494,0.2028072625398636
1787734447274047500,9.950047607421874,-2.4074199199676514,0.2070833146572113,0.27061331272125244
1787734447290180900,9.966180908203125,-2.2577579021453857,0.31093040108680725,0.31459560990333557
1787734447306138400,9.982138427734375,-2.1844542026519775,0.37140607833862305,0.3066543638706207
1787734447322219300,9.99821923828125,-2.211332082748413,0.35185837745666504,0.26572638750076294
1787734447338305500,10.014305419921875,-2.326174736022949,0.2883284091949463,0.17837265133857727
1787734447354419200,10.030419189453125,-2.490497589111328,0.15515977144241333,0.04948008432984352
1787734447370509300,10.04650927734375,-2.6230554580688477,0.09162978827953339,-0.021991148591041565
1787734447386463700,10.062463623046876,-2.7097983360290527,0.07024950534105301,-0.021991148591041565
1787734447402512100,10.07851220703125,-2.7714955806732178,0.02321287989616394,0.00427605677396059
1787734447418603500,10.094603515625,-2.808758497238159,-0.031154127791523933,0.027488935738801956
1787734447434720000,10.110719970703125,-2.8258626461029053,-0.048258353024721146,0.02382374368607998
1787734447450821000,10.126821044921876,-2.8295278549194336,-0.03848451003432274,0
1787734447466775800,10.14277587890625,-2.8124237060546875,0.02015855349600315,-0.024434609338641167
1787734447482829800,10.158829833984376,-2.778215169906616,0.06169738993048668,-0.029932396486401558
1787734447498933800,10.174933837890626,-2.702467918395996,0.09896016865968704,-0.0024434609804302454
1787734447515020800,10.191020751953126,-2.6261096000671387,0.11667526513338089,0.03237585723400116
1787734447531134000,10.207134033203126,-2.5888469219207764,0.056810468435287476,0.027488935738801956
1787734447547100000,10.223099853515626,-2.574186086654663,-0.0012217304902151227,-0.004886921960860491
1787734447563161300,10.239161376953126,-2.5894577503204346,-0.036651913076639175,-0.03726277872920036
1787734447579281400,10.255281494140625,-2.6175575256347656,-0.018936822190880775,-0.03420845419168472
1787734447595381800,10.2713818359375,-2.6309967041015625,0.028099801391363144,-0.0024434609804302454
1787734447611508000,10.287508056640625,-2.6554312705993652,0.05253441259264946,0.03481931984424591
1787734447627459000,10.303458984375,-2.696969985961914,-0.016493361443281174,0.033597588539123535
1787734447643530800,10.31953076171875,-2.735454559326172,-0.09224065393209457,-0.006108652334660292
1787734447659596000,10.335595947265626,-2.7598891258239746,-0.11423180252313614,-0.0659734457731247
1787734447675697200,10.351697265625,-2.7623326778411865,-0.05253441259264946,-0.11728613078594208
1787734447691823400,10.3678232421875,-2.722015619277954,0.08552113175392151,-0.15577064454555511
1787734447707800300,10.38380029296875,-2.685974597930908,0.19364428520202637,-0.1973094791173935
1787734447723869700,10.39986962890625,-2.646268129348755,0.24190263450145721,-0.24068090319633484
1787734447739945200,10.4159453125,-2.590679407119751,0.2528982162475586,-0.24129177629947662
1787734447756050200,10.43205029296875,-2.554027557373047,0.22540926933288574,-0.20402899384498596
1787734447772184800,10.448184814453125,-2.5228734016418457,0.16920967400074005,-0.14233160018920898
1787734447788169500,10.46416943359375,-2.4642302989959717,0.15454891324043274,-0.08002334833145142
1787734447804248000,10.480248046875,-2.4074199199676514,0.21135938167572021,-0.03848451003432274
1787734447820332800,10.496332763671875,-2.356107234954834,0.29016098380088806,-0.013439035043120384
1787734447836445000,10.51244482421875,-2.2876904010772705,0.3836233615875244,-0.001832595793530345
1787734447852536000,10.5285361328125,-2.208277940750122,0.42699480056762695,-0.005497787147760391
1787734447868526800,10.54452685546875,-2.1502456665039062,0.42149701714515686,-0.015882495790719986
1787734447884614700,10.56061474609375,-2.0806069374084473,0.3854559659957886,-0.030543262138962746
1787734447900705300,10.576705322265624,-2.001805305480957,0.3488040566444397,-0.03481931984424591
1787734447916825300,10.592825439453126,-1.9034560918807983,0.31642818450927734,-0.03481931984424591
1787734447932918000,10.60891796875,-1.803274154663086,0.2834414839744568,-0.02321287989616394
1787734447948914000,10.624913818359374,-1.6939293146133423,0.24862214922904968,0.00366519158706069
1787734447965010400,10.641010498046874,-1.576032280921936,0.22418753802776337,0.0555887371301651
1787734447981107200,10.657107177734375,-1.4880677461624146,0.20525072515010834,0.10934487730264664
1787734447997184800,10.673184814453125,-1.380555510520935,0.1508837193250656,0.1667662113904953
1787734448013293800,10.6892939453125,-1.2553280591964722,0.06475171446800232,0.21013765037059784
1787734448029257200,10.70525732421875,-1.1453723907470703,0.010995574295520782,0.24007004499435425
1787734448045314000,10.72131396484375,-1.035416603088379,-0.00733038317412138,0.24556782841682434
1787734448061373700,10.737373779296876,-0.9419541954994202,0.036651913076639175,0.23518311977386475
1787734448077451800,10.75345166015625,-0.8527678847312927,0.12767083942890167,0.24373523890972137
1787734448093621500,10.76962158203125,-0.7812966704368591,0.18814650177955627,0.2736676335334778
1787734448109589200,10.78558935546875,-0.6811147332191467,0.22052235901355743,0.3390302062034607
1787734448125649400,10.8016494140625,-0.5583308339118958,0.22540926933288574,0.4153883755207062
1787734448141768400,10.8177685546875,-0.45875978469848633,0.1869247704744339,0.4648684561252594
1787734448157863700,10.83386376953125,-0.32559117674827576,0.19547687470912933,0.5015203952789307
1787734448173985300,10.8499853515625,-0.17592918872833252,0.25595253705978394,0.4856378734111786
1787734448189986000,10.865986083984374,-0.06902777403593063,0.27000242471694946,0.38728857040405273
1787734448206062800,10.882062744140624,-0.051312681287527084,0.18325957655906677,0.25961771607398987
1787734448222140000,10.898139892578126,-0.10506882518529892,0.0354301854968071,0.1258382350206375
1787734448238239200,10.9142392578125,-0.182648703455925,-0.12034045159816742,0.07757988572120667
1787734448254371600,10.93037158203125,-0.2431243658065796,-0.20525072515010834,0.11545353382825851
1787734448270357200,10.946357177734376,-0.30543261766433716,-0.2565633952617645,0.18814650177955627
1787734448286411500,10.96241162109375,-0.34025195240974426,-0.27000242471694946,0.25473082065582275
1787734448302508300,10.97850830078125,-0.3585779070854187,-0.24068090319633484,0.28588494658470154
1787734448318630000,10.9946298828125,-0.375071257352829,-0.18387043476104736,0.2669481039047241
1787734448334727200,11.01072705078125,-0.33475416898727417,-0.11056660860776901,0.1918116807937622
1787734448350687000,11.02668701171875,-0.22968533635139465,0.027488935738801956,0.09285151958465576
1787734448366740000,11.042739990234375,-0.14538592100143433,0.1319468915462494,-0.007941247895359993
1787734448382847500,11.058847412109374,-0.11545353382825851,0.1918116807937622,-0.1362229436635971
1787734448398926000,11.074926025390624,-0.15821409225463867,0.1722639948129654,-0.23884831368923187
1787734448415035100,11.09103515625,-0.23884831368923187,0.12400564551353455,-0.2883284091949463
1787734448430996700,11.106996826171875,-0.37262779474258423,-0.009773843921720982,-0.2993239760398865
1787734448447052000,11.123052001953125,-0.48747047781944275,-0.1014036312699318,-0.26572638750076294
1787734448463168500,11.13916845703125,-0.5198463201522827,-0.10567969083786011,-0.20341812074184418
1787734448479258400,11.15525830078125,-0.48380526900291443,-0.056810468435287476,-0.12889257073402405
1787734448495373300,11.171373291015625,-0.3891211748123169,0.021991148591041565,-0.042760565876960754
1787734448511321600,11.187321533203125,-0.26450464129447937,0.056810468435287476,-0.02015855349600315
1787734448527381200,11.20338134765625,-0.15882496535778046,0.025045474991202354,-0.06169738993048668
1787734448543502600,11.219502685546875,-0.07208210229873657,-0.03787364438176155,-0.13561208546161652
1787734448559597000,11.23559716796875,-0.05314527451992035,-0.06658431142568588,-0.2021963894367218
1787734448575721500,11.251721435546875,-0.07513642311096191,-0.06658431142568588,-0.2278527319431305
1787734448591695000,11.267695068359375,-0.14049901068210602,-0.06902777403593063,-0.22968533635139465
1787734448607770400,11.283770263671874,-0.23457226157188416,-0.10567969083786011,-0.20036379992961884
1787734448623849200,11.29984912109375,-0.31642818450927734,-0.15027284622192383,-0.1514945775270462
1787734448639959800,11.315959716796876,-0.3640756905078888,-0.17959438264369965,-0.10995574295520782
1787734448656097000,11.332096923828125,-0.39706242084503174,-0.19914206862449646,-0.07880161702632904
1787734448672088800,11.3480888671875,-0.40256020426750183,-0.16065755486488342,-0.06230825558304787
1787734448688171800,11.364171875,-0.39156460762023926,-0.1062905490398407,-0.07513642311096191
1787734448704257000,11.380257080078126,-0.3543018400669098,-0.03420845419168472,-0.08185594528913498
1787734448720373500,11.39637353515625,-0.33536502718925476,0.02871066704392433,-0.06475171446800232
1787734448736468000,11.412468017578124,-0.3341432809829712,0.07269296050071716,-0.027488935738801956
1787734448752468700,11.42846875,-0.3384193480014801,0.06719517707824707,0.006108652334660292
1787734448768562200,11.444562255859376,-0.3634648323059082,0.022602014243602753,0.042760565876960754
1787734448784660000,11.460659912109374,-0.3793473243713379,-0.02932153269648552,0.08185594528913498
1787734448800790800,11.476790771484374,-0.40256020426750183,-0.06841690838336945,0.09896016865968704
1787734448816894500,11.49289453125,-0.42271876335144043,-0.07635815441608429,0.0910189226269722
1787734448832894500,11.50889453125,-0.43188172578811646,-0.05009094998240471,0.05803219974040985
1787734448848994000,11.524994140625,-0.4282165467739105,-0.015271631069481373,0.001832595793530345
1787734448865095200,11.54109521484375,-0.41722095012664795,-0.0006108652451075613,-0.04703662544488907
1787734448881174800,11.5571748046875,-0.4202753007411957,-0.012217304669320583,-0.06780604273080826
1787734448897278500,11.573278564453124,-0.39584067463874817,-0.004886921960860491,-0.007941247895359993
1787734448913289200,11.589289306640625,-0.3341432809829712,0.015882495790719986,0.09468411654233932
1787734448929395000,11.60539501953125,-0.29016098380088806,-0.010995574295520782,0.1618792861700058
1787734448945510400,11.621510498046876,-0.37079519033432007,-0.11728613078594208,0.039095375686883926
1787734448961602300,11.637602294921875,-0.4184426963329315,-0.13988813757896423,-0.13866640627384186
1787734448977723600,11.6537236328125,-0.35735616087913513,-0.021380282938480377,-0.29504790902137756
1787734448993688600,11.6696884765625,-0.2981022298336029,0.13500121235847473,-0.3500257730484009
1787734449009748500,11.68574853515625,-0.24495697021484375,0.22540926933288574,-0.3072652220726013
1787734449025865000,11.701864990234375,-0.16493362188339233,0.22907446324825287,-0.19792033731937408
1787734449041966000,11.717966064453124,-0.05253441259264946,0.19975294172763824,-0.00366519158706069
1787734449058095900,11.734095947265626,0.04153883829712868,0.2321287989616394,0.23090706765651703
1787734449074047000,11.750046875,0.08002334833145142,0.30115658044815063,0.4056145250797272
1787734449090115600,11.766115478515625,0.07147123664617538,0.33597588539123535,0.5155702829360962
1787734449106186500,11.7821865234375,-0.003054326167330146,0.29565876722335815,0.5094616413116455
1787734449122282000,11.798281982421875,-0.1007927656173706,0.21868975460529327,0.4440990388393402
1787734449138407700,11.81440771484375,-0.18814650177955627,0.16493362188339233,0.38728857040405273
1787734449154385000,11.830385009765624,-0.2877175211906433,0.1875356286764145,0.3579670190811157
1787734449170458400,11.846458251953125,-0.40072759985923767,0.2541199326515198,0.33047810196876526
1787734449186532900,11.862532958984374,-0.47342056035995483,0.30115658044815063,0.29565876722335815
1787734449202635300,11.87863525390625,-0.503963828086853,0.342695415019989,0.25473082065582275
1787734449218758000,11.8947578125,-0.5076290369033813,0.39645153284072876,0.22418753802776337
1787734449234715400,11.91071533203125,-0.4801400899887085,0.4080579876899719,0.20891591906547546
1787734449250769200,11.92676904296875,-0.43799036741256714,0.3933972120285034,0.18387043476104736
1787734449266840300,11.94284033203125,-0.41111230850219727,0.31642818450927734,0.1319468915462494
1787734449282940200,11.958940185546876,-0.39767327904701233,0.22846360504627228,0.0403171069920063
1787734449299033000,11.975033203125,-0.40133845806121826,0.1368338167667389,-0.07208210229873657
1787734449314977300,11.990977294921874,-0.40683624148368835,0.0910189226269722,-0.19486601650714874
1787734449331031600,12.007031494140625,-0.4202753007411957,0.08979719132184982,-0.26450464129447937
1787734449347131100,12.023131103515626,-0.43249258399009705,0.1111774742603302,-0.2577851414680481
1787734449363210000,12.0392099609375,-0.42699480056762695,0.152105450630188,-0.20402899384498596
1787734449379318500,12.055318603515625,-0.40194934606552124,0.14416420459747314,-0.14844025671482086
1787734449395275000,12.07127490234375,-0.4031710624694824,0.05192354694008827,-0.1466076523065567
1787734449411324000,12.087323974609374,-0.3952298164367676,-0.06963863968849182,-0.182648703455925
1787734449427398700,12.103398681640625,-0.36529740691185,-0.17043140530586243,-0.2168571650981903
1787734449443479300,12.119479248046876,-0.32070425152778625,-0.20463985204696655,-0.2076941877603531
1787734449459591700,12.135591796875,-0.26022860407829285,-0.182648703455925,-0.15821409225463867
1787734449475556000,12.15155615234375,-0.1466076523065567,-0.1319468915462494,-0.06719517707824707
1787734449491614000,12.167614013671875,0.006108652334660292,-0.08979719132184982,0.04764748737215996
1787734449507686000,12.183685791015625,0.13255776464939117,-0.09651670604944229,0.15515977144241333
1787734449523786000,12.199785888671874,0.252287358045578,-0.12278391420841217,0.25106561183929443
1787734449539907000,12.215906982421876,0.33719760179519653,-0.19914206862449646,0.29138273000717163
1787734449555882500,12.231882568359374,0.38179078698158264,-0.24373523890972137,0.30054569244384766
1787734449571952600,12.24795263671875,0.42699480056762695,-0.1966986060142517,0.3170390725135803
1787734449588027100,12.264027099609375,0.4807509481906891,-0.016493361443281174,0.3445279896259308
1787734449604131300,12.28013134765625,0.5674937963485718,0.23273965716362,0.35124751925468445
1787734449620270000,12.29627001953125,0.6542366743087769,0.3646865487098694,0.29565876722335815
1787734449636237800,12.31223779296875,0.6976081132888794,0.2626720666885376,0.13316862285137177
1787734449652314000,12.328314208984375,0.6200281977653503,0.039095375686883926,-0.08124507963657379
1787734449668405800,12.34440576171875,0.5222898125648499,-0.13805554807186127,-0.2070833146572113
1787734449684501000,12.3605009765625,0.4147774875164032,-0.31642818450927734,-0.2070833146572113
1787734449700587500,12.37658740234375,0.32559117674827576,-0.3701843321323395,-0.039706241339445114
1787734449716557000,12.39255712890625,0.32559117674827576,-0.33597588539123535,0.22968533635139465
1787734449732627200,12.408627197265625,0.44654250144958496,-0.18936823308467865,0.4599815309047699
1787734449748703200,12.424703125,0.665232241153717,-0.028099801391363144,0.5852088928222656
1787734449764818000,12.44081787109375,0.9004153609275818,0.09651670604944229,0.5387831330299377
1787734449780933600,12.45693359375,1.0396926403045654,0.16982053220272064,0.4153883755207062
1787734449796925700,12.47292578125,1.1062769889831543,0.17287486791610718,0.25106561183929443
1787734449813012500,12.489012451171876,1.0879509449005127,0.11239920556545258,0.10201449692249298
1787734449829103600,12.505103515625,1.0073168277740479,0.006719517521560192,-0.0024434609804302454
1787734449845229000,12.52122900390625,0.8558222055435181,-0.16432274878025055,-0.0861319974064827
1787734449861330000,12.537329833984375,0.6572909951210022,-0.31093040108680725,-0.1062905490398407
1787734449877331500,12.55333154296875,0.49724429845809937,-0.40744712948799133,-0.06475171446800232
1787734449893383400,12.569383544921875,0.45142942667007446,-0.42760565876960754,-0.0006108652451075613
1787734449909491700,12.58549169921875,0.46364670991897583,-0.4043927788734436,0.08185594528913498
1787734449925574700,12.60157470703125,0.4746423065662384,-0.36224308609962463,0.14233160018920898
1787734449941688300,12.617688232421875,0.45326200127601624,-0.29016098380088806,0.1612684279680252
1787734449957653500,12.633653564453125,0.45631635189056396,-0.15577064454555511,0.16737708449363708
1787734449973713200,12.649713134765625,0.48808133602142334,0.024434609338641167,0.14844025671482086
1787734449989758500,12.665758544921875,0.5247332453727722,0.15454891324043274,0.07819075137376785
1787734450005880000,12.681880126953125,0.5448917746543884,0.21135938167572021,-0.0024434609804302454
1787734450021999600,12.69799951171875,0.5436700582504272,0.23945917189121246,-0.09712757170200348
1787734450037974000,12.71397412109375,0.49357911944389343,0.21380282938480377,-0.15577064454555511
1787734450054046200,12.730046142578125,0.4153883755207062,0.13377949595451355,-0.15943582355976105
1787734450070121700,12.746121826171875,0.3274237811565399,0.02932153269648552,-0.0861319974064827
1787734450086222600,12.76222265625,0.23884831368923187,-0.06719517707824707,0.03176499158143997
1787734450102349600,12.778349609375,0.12889257073402405,-0.15271630883216858,0.1368338167667389
1787734450118329000,12.7943291015625,0.03298672288656235,-0.2376265823841095,0.18020524084568024
1787734450134402000,12.810402099609375,-0.04886921867728233,-0.2840523421764374,0.19425514340400696
1787734450150481000,12.82648095703125,-0.10506882518529892,-0.28588494658470154,0.1814269721508026
1787734450166594000,12.842593994140625,-0.13744467496871948,-0.3439171314239502,0.15821409225463867
1787734450182686500,12.8586865234375,-0.16249015927314758,-0.4056145250797272,0.14844025671482086
1787734450198627600,12.874627685546875,-0.21319197118282318,-0.46731191873550415,0.15821409225463867
1787734450214685700,12.890685791015626,-0.26450464129447937,-0.45631635189056396,0.16982053220272064
1787734450230803200,12.90680322265625,-0.3170390725135803,-0.37079519033432007,0.14294247329235077
1787734450246888700,12.922888671875,-0.32620203495025635,-0.21868975460529327,0.06108652427792549
1787734450262997500,12.93899755859375,-0.2736676335334778,-0.013439035043120384,-0.08735372871160507
1787734450278958000,12.9549580078125,-0.2028072625398636,0.04459316283464432,-0.2919935882091522
1787734450295006500,12.97100634765625,-0.17959438264369965,-0.01710422709584236,-0.6316346526145935
1787734450311108600,12.987108642578125,-0.17104226350784302,-0.12217304855585098,-1.007927656173706
1787734450327194000,13.003194091796875,-0.14233160018920898,-0.23335053026676178,-1.263269305229187
1787734450343300900,13.01930078125,-0.10934487730264664,-0.3078760802745819,-1.3530665636062622
1787734450359248400,13.035248291015625,0.010995574295520782,-0.33169981837272644,-1.130711555480957
1787734450375290600,13.05129052734375,0.2742784917354584,-0.2535090744495392,-0.7079927921295166
1787734450391391500,13.0673916015625,0.5919284224510193,-0.04337143152952194,-0.13255776464939117
1787734450407471900,13.083471923828125,0.7122688889503479,0.12950342893600464,0.3182607889175415
1787734450423595500,13.099595458984375,0.6982190012931824,0.19608774781227112,0.5552765130996704
1787734450439549400,13.115549560546874,0.6414085030555725,0.15882496535778046,0.6194173693656921
1787734450455610400,13.1316103515625,0.5656611919403076,0.06475171446800232,0.6029239892959595
1787734450471728600,13.147728759765625,0.45326200127601624,-0.10323622822761536,0.5253441333770752
1787734450487833300,13.163833251953125,0.2932153046131134,-0.22663100063800812,0.43615779280662537
1787734450503967000,13.179967041015624,0.01160643994808197,-0.28588494658470154,0.31581732630729675
1787734450519932400,13.195932373046874,-0.34147366881370544,-0.26511552929878235,0.18936823308467865
1787734450535995000,13.211994873046875,-0.608421802520752,-0.18020524084568024,0.1160643994808197
1787734450552074200,13.22807421875,-0.7874053120613098,0,0.09224065393209457
1787734450568179000,13.244178955078125,-0.8228355050086975,0.21441370248794556,0.12400564551353455
1787734450584314600,13.260314697265626,-0.7287622094154358,0.41233405470848083,0.1514945775270462
1787734450600299300,13.27629931640625,-0.6041457056999207,0.5290092825889587,0.13805554807186127
1787734450616378000,13.292378173828125,-0.5106833577156067,0.5962044596672058,0.060475658625364304
1787734450632454700,13.30845458984375,-0.4758640229701996,0.6817256212234497,-0.05009094998240471
1787734450648584700,13.324584716796876,-0.4642575979232788,0.6878342628479004,-0.15393804013729095
1787734450664623600,13.34062353515625,-0.475253164768219,0.598647952079773,-0.26450464129447937
1787734450680602400,13.356602294921874,-0.5015203952789307,0.46731191873550415,-0.3396410644054413
1787734450696673300,13.37267333984375,-0.5302310585975647,0.28955012559890747,-0.3830125033855438
1787734450712762400,13.388762451171875,-0.5442809462547302,0.17409659922122955,-0.39217549562454224
1787734450728884000,13.404884033203125,-0.5479460954666138,0.11423180252313614,-0.3738495409488678
1787734450744986400,13.420986328125,-0.5393940210342407,0.13011430203914642,-0.34574973583221436
1787734450760959700,13.436959716796874,-0.5290092825889587,0.13866640627384186,-0.3335324227809906
1787734450777059600,13.4530595703125,-0.4966334402561188,0.13561208546161652,-0.3280346393585205
1787734450793160700,13.46916064453125,-0.4190535545349121,0.06414084881544113,-0.31459560990333557
1787734450809239000,13.485239013671874,-0.2883284091949463,-0.031154127791523933,-0.27488934993743896
1787734450825356300,13.501356201171875,-0.06414084881544113,-0.07452555745840073,-0.17776179313659668
1787734450841314300,13.517314208984375,0.2076941877603531,0.004886921960860491,-0.06963863968849182
1787734450857366000,13.533365966796875,0.484416127204895,0.04764748737215996,-0.013439035043120384
1787734450873479400,13.5494794921875,0.6798930168151855,0.060475658625364304,-0.009162978269159794
1787734450889574400,13.565574462890625,0.817948579788208,0.03176499158143997,-0.02871066704392433
1787734450905699600,13.581699462890626,0.8698720932006836,-0.016493361443281174,-0.039706241339445114
1787734450921657300,13.5976572265625,0.8387179970741272,-0.05497787147760391,-0.01038470957428217
1787734450937714000,13.6137138671875,0.7391469478607178,-0.06841690838336945,0.054367005825042725
1787734450953817600,13.629817626953125,0.6310238242149353,-0.05314527451992035,0.12950342893600464
1787734450969891300,13.645891357421876,0.6004805564880371,0.09529497474431992,0.21013765037059784
1787734450986009300,13.66200927734375,0.6157521605491638,0.22907446324825287,0.2730567753314972
1787734451001967400,13.67796728515625,0.5858197808265686,0.3170390725135803,0.30482175946235657
1787734451018020600,13.6940205078125,0.42577308416366577,0.2541199326515198,0.2932153046131134
1787734451034130700,13.710130615234375,0.14844025671482086,0.05253441259264946,0.2528982162475586
1787734451058239200,13.7342392578125,-0.42638394236564636,-0.36590829491615295,0.21624629199504852
1787734451074277600,13.750277587890626,-0.5766568183898926,-0.39217549562454224,0.30970868468284607
1787734451090370600,13.76637060546875,-0.485027015209198,-0.14538592100143433,0.4593706727027893
1787734451106537000,13.782536865234375,-0.18997909128665924,0.19547687470912933,0.5870414972305298
1787734451122512000,13.798511962890625,0.1459967941045761,0.5094616413116455,0.6572909951210022
1787734451138591700,13.814591796875,0.43188172578811646,0.7580837607383728,0.6768386960029602
1787734451154585000,13.830585205078124,0.5320636034011841,0.817948579788208,0.6310238242149353
1787734451170647800,13.846647705078125,0.48258355259895325,0.6933320760726929,0.5577199459075928
1787734451186786800,13.862786865234375,0.27977627515792847,0.36590829491615295,0.46853363513946533
1787734451202773800,13.878773681640626,-0.030543262138962746,0.015271631069481373,0.4153883755207062
1787734451218825200,13.8948251953125,-0.32620203495025635,-0.2076941877603531,0.39706242084503174
1787734451234845700,13.910845703125,-0.5913175344467163,-0.35552358627319336,0.37629300355911255
1787734451250924000,13.926924072265624,-0.7745771408081055,-0.4092797040939331,0.33292156457901
1787734451267068700,13.943068603515625,-0.9034696817398071,-0.40256020426750183,0.251676470041275
1787734451283079200,13.9590791015625,-0.9529497623443604,-0.3243694305419922,0.17043140530586243
1787734451299139800,13.975139892578126,-0.970054030418396,-0.1270599663257599,0.08735372871160507
1787734451315154400,13.991154541015625,-0.9865473508834839,0.022602014243602753,0.03237585723400116
1787734451331233500,14.007233642578125,-0.9932668805122375,0.1215621829032898,0.019547687843441963
1787734451347374000,14.0233740234375,-0.9963212013244629,0.18387043476104736,0.033597588539123535
1787734451363379200,14.039379150390625,-1.0207557678222656,0.12828169763088226,0.05864306539297104
1787734451379441200,14.055441162109375,-1.1032226085662842,-0.02687807008624077,0.07147123664617538
1787734451395482600,14.071482666015624,-1.2901474237442017,-0.3646865487098694,0.08368854224681854
1787734451411571700,14.08757177734375,-1.550986886024475,-0.6432411074638367,0.13561208546161652
1787734451427722000,14.103721923828125,-1.845423936843872,-0.8350527882575989,0.22968533635139465
1787734451443693600,14.119693603515625,-2.0983221530914307,-0.8900306820869446,0.3182607889175415
1787734451459767800,14.135767822265626,-2.4098634719848633,-0.8533787727355957,0.3793473243713379
1787734451475813400,14.1518134765625,-2.7085764408111572,-0.7183775305747986,0.3646865487098694
1787734451491908900,14.167908935546874,-2.8991663455963135,-0.5864306092262268,0.3023782968521118
1787734451508070400,14.1840703125,-3.0744848251342773,-0.46853363513946533,0.19547687470912933
1787734451524045600,14.200045654296876,-3.232698917388916,-0.38179078698158264,0.08552113175392151
1787734451540123600,14.21612353515625,-3.356093645095825,-0.40194934606552124,-0.009773843921720982
1787734451556169700,14.232169677734374,-3.475212335586548,-0.5424483418464661,-0.12095131725072861
1787734451572270800,14.248270751953125,-3.5967745780944824,-0.6731734871864319,-0.17348572611808777
1787734451588432100,14.26443212890625,-3.763540744781494,-0.6536257863044739,-0.1466076523065567
1787734451604428300,14.28042822265625,-3.9241983890533447,-0.5619960427284241,-0.08735372871160507
1787734451620523500,14.2965234375,-4.087910175323486,-0.43737950921058655,-0.05314527451992035
1787734451636539400,14.312539306640625,-4.204585552215576,-0.3017674386501312,-0.09162978827953339
1787734451652654300,14.328654296875,-4.312708854675293,-0.26450464129447937,-0.20891591906547546
1787734451668823600,14.344823486328124,-4.459316253662109,-0.36102136969566345,-0.4043927788734436
1787734451684813600,14.3608134765625,-4.608978271484375,-0.5668829679489136,-0.5772676467895508
1787734451700914000,14.376913818359375,-4.7360382080078125,-0.7672467231750488,-0.6591235995292664
1787734451716915000,14.3929150390625,-4.813618183135986,-0.8765916228294373,-0.6291912198066711
1787734451733011700,14.40901171875,-4.84110689163208,-0.8454375267028809,-0.49724429845809937
1787734451749191000,14.42519091796875,-4.783685684204102,-0.6695083379745483,-0.32986724376678467
1787734451765171500,14.44117138671875,-4.6688432693481445,-0.4899139404296875,-0.23579397797584534
1787734451781206800,14.457206787109374,-4.447710037231445,-0.3634648323059082,-0.24373523890972137
1787734451797219000,14.473218994140625,-4.132503509521484,-0.28038713335990906,-0.33475416898727417
1787734451813350000,14.489349853515625,-3.8117990493774414,-0.19058994948863983,-0.4141666293144226
1787734451829539300,14.505539306640625,-3.456275463104248,-0.05375614017248154,-0.4642575979232788
1787734451845550800,14.52155078125,-3.192992687225342,0.021380282938480377,-0.46303585171699524
1787734451861614300,14.5376142578125,-3.017674207687378,0.025045474991202354,-0.4398229718208313
1787734451877628400,14.55362841796875,-2.9156599044799805,-0.05803219974040985,-0.4043927788734436
1787734451893674800,14.5696748046875,-2.8063149452209473,-0.15821409225463867,-0.34208452701568604
1787734451909829400,14.585829345703125,-2.6896395683288574,-0.2076941877603531,-0.2669481039047241
1787734451925808000,14.60180810546875,-2.5870141983032227,-0.2028072625398636,-0.20463985204696655
1787734451941879000,14.617879150390625,-2.4801127910614014,-0.15271630883216858,-0.1362229436635971
1787734451957923600,14.633923583984375,-2.370157241821289,-0.07513642311096191,-0.08796459436416626
1787734451974011400,14.650011474609375,-2.264477491378784,-0.010995574295520782,-0.0708603709936142
1787734451990164700,14.666164794921874,-2.207667112350464,-0.01466076634824276,-0.09896016865968704
1787734452006136300,14.68213623046875,-2.2015583515167236,-0.021380282938480377,-0.1722639948129654
1787734452022217500,14.698217529296874,-2.2266037464141846,0.014049900695681572,-0.26022860407829285
1787734452038284500,14.714284423828126,-2.2198843955993652,0.08124507963657379,-0.3078760802745819
1787734452054384400,14.73038427734375,-2.1642956733703613,0.19425514340400696,-0.3225368559360504
1787734452070551600,14.746551513671875,-2.0726656913757324,0.24373523890972137,-0.3084869384765625
1787734452086539500,14.76253955078125,-1.9871445894241333,0.25106561183929443,-0.2828305959701538
1787734452102625300,14.778625244140626,-1.9236146211624146,0.20586158335208893,-0.2718350291252136
1787734452118634500,14.794634521484374,-1.927890658378601,0.11484266817569733,-0.28038713335990906
1787734452134710000,14.8107099609375,-1.966986060142517,0.03848451003432274,-0.2840523421764374
1787734452150852600,14.8268525390625,-1.9901989698410034,0.00733038317412138,-0.252287358045578
1787734452166846000,14.842845947265625,-1.9773707389831543,0.012217304669320583,-0.18936823308467865
1787734452182940400,14.8589404296875,-1.9272798299789429,0.025656340643763542,-0.1368338167667389
1787734452198964000,14.8749638671875,-1.8674150705337524,0.06658431142568588,-0.10934487730264664
1787734452215043300,14.891043212890626,-1.757459282875061,0.182648703455925,-0.08857546001672745
1787734452231182800,14.907182861328126,-1.6181820631027222,0.323147714138031,-0.08002334833145142
1787734452247180500,14.9231806640625,-1.500285029411316,0.43127086758613586,-0.07880161702632904
1787734452263233800,14.93923388671875,-1.4422528743743896,0.4709770977497101,-0.09224065393209457
1787734452279265000,14.95526513671875,-1.4019356966018677,0.44776421785354614,-0.1215621829032898
1787734452295348000,14.971347900390626,-1.3732250928878784,0.4147774875164032,-0.1569923609495163
1787734452319455700,14.995455810546876,-1.312138557434082,0.42638394236564636,-0.17287486791610718
1787734452343572500,15.019572509765625,-1.284038782119751,0.4544837474822998,-0.12400564551353455
1787734452359614500,15.035614501953125,-1.235169529914856,0.44654250144958496,-0.08674286305904388
1787734452375708000,15.0517080078125,-1.131933331489563,0.3854559659957886,-0.045204028487205505
1787734452391863000,15.067863037109374,-0.998153805732727,0.384845107793808,0.010995574295520782
1787734452407836200,15.083836181640624,-0.8594874143600464,0.43249258399009705,0.07024950534105301
1787734452423907600,15.099907470703124,-0.7483099102973938,0.504574716091156,0.09896016865968704
1787734452439948800,15.11594873046875,-0.685390830039978,0.5681046843528748,0.0861319974064827
1787734452456041500,15.13204150390625,-0.7018841505050659,0.637132465839386,0.05619960278272629
1787734452472202000,15.148201904296876,-0.778853178024292,0.665232241153717,0.02871066704392433
1787734452488183300,15.164183349609376,-0.8918632864952087,0.607200026512146,-0.004886921960860491
1787734452504265000,15.180264892578125,-0.93095862865448,0.5204572081565857,-0.036041051149368286
1787734452520317700,15.196317626953125,-0.8930850028991699,0.4440990388393402,-0.039706241339445114
1787734452536416500,15.21241650390625,-0.8002334833145142,0.413555771112442,0.00427605677396059
1787734452552586000,15.2285859375,-0.6701191663742065,0.4245513379573822,0.08552113175392151
1787734452568570000,15.244570068359375,-0.5265658497810364,0.3933972120285034,0.15882496535778046
1787734452584650500,15.260650390625,-0.4795292317867279,0.18936823308467865,0.15393804013729095
1787734452600661500,15.27666162109375,-0.5742133259773254,-0.2877175211906433,0.0659734457731247
1787734452616760800,15.2927607421875,-0.7861835956573486,-0.7415903806686401,-0.06108652427792549
1787734452632960500,15.30896044921875,-0.8704829812049866,-0.8381071090698242,-0.06719517707824707
1787734452648941800,15.32494189453125,-0.749531626701355,-0.5149593949317932,0.14782938361167908
1787734452665029400,15.341029296875,-0.513737678527832,-0.03176499158143997,0.4905247986316681
1787734452681040000,15.357039794921874,-0.2779437005519867,0.30970868468284607,0.7611380815505981
1787734452697162500,15.37316259765625,-0.08674286305904388,0.37079519033432007,0.8283332586288452
1787734452713357800,15.38935791015625,0.13316862285137177,0.3274237811565399,0.7513642311096191
1787734452729350000,15.405349853515625,0.2742784917354584,0.26939156651496887,0.5876523852348328
1787734452745406500,15.421406494140625,0.3017674386501312,0.2535090744495392,0.43127086758613586
1787734452761434000,15.43743408203125,0.24068090319633484,0.21624629199504852,0.2675589919090271
1787734452777524200,15.453524169921875,0.12339477986097336,0.12034045159816742,0.12950342893600464
1787734452793680100,15.46968017578125,-0.02871066704392433,0.001832595793530345,0.01710422709584236
1787734452809693700,15.485693603515625,-0.14416420459747314,-0.07452555745840073,-0.04581489413976669
1787734452825763600,15.501763671875,-0.21013765037059784,-0.11911872029304504,-0.07147123664617538
1787734452841808000,15.517807861328125,-0.20463985204696655,-0.1215621829032898,-0.07330382615327835
1787734452857899500,15.5338994140625,-0.18020524084568024,-0.0910189226269722,-0.07941248267889023
1787734452874059300,15.550059326171874,-0.17348572611808777,-0.06414084881544113,-0.12767083942890167
1787734452890030800,15.56603076171875,-0.20952677726745605,-0.06475171446800232,-0.20952677726745605
1787734452906109400,15.582109375,-0.26633724570274353,-0.0507018156349659,-0.26450464129447937
1787734452922160400,15.598160400390626,-0.3543018400669098,-0.006719517521560192,-0.2919935882091522
1787734452938267100,15.61426708984375,-0.4538728892803192,0.009773843921720982,-0.29077184200286865
1787734452954433000,15.63043310546875,-0.5473352670669556,0.02871066704392433,-0.2773328125476837
1787734452970408700,15.64640869140625,-0.6059783101081848,0.036041051149368286,-0.2681698501110077
1787734452986493200,15.6624931640625,-0.656680166721344,0.01466076634824276,-0.2791654169559479
1787734453002504400,15.67850439453125,-0.7171558141708374,-0.09285151958465576,-0.3292563557624817
1787734453018616000,15.694615966796874,-0.7751879692077637,-0.21807889640331268,-0.394618958234787
1787734453034762000,15.710761962890626,-0.8448266386985779,-0.34758231043815613,-0.4440990388393402
1787734453050760400,15.726760498046875,-0.93095862865448,-0.46242499351501465,-0.43127086758613586
1787734453082882300,15.75888232421875,-1.0610729455947876,-0.484416127204895,-0.2877175211906433
1787734453098963000,15.774962890625,-1.0525208711624146,-0.40622538328170776,-0.20586158335208893
1787734453115120400,15.791120361328124,-0.9957103729248047,-0.2993239760398865,-0.12767083942890167
1787734453131083000,15.8070830078125,-0.9468411207199097,-0.24678955972194672,-0.07024950534105301
1787734453147134700,15.823134765625,-0.8747590184211731,-0.2028072625398636,-0.016493361443281174
1787734453163139300,15.839139404296875,-0.7965682744979858,-0.18325957655906677,0.03298672288656235
1787734453179218700,15.85521875,-0.7428121566772461,-0.17104226350784302,0.07147123664617538
1787734453195361000,15.871361083984375,-0.6860016584396362,-0.13439035415649414,0.11362093687057495
1787734453211369200,15.887369140625,-0.627358615398407,-0.09346238523721695,0.14844025671482086
1787734453227428400,15.903428466796875,-0.5693264007568359,-0.09224065393209457,0.15577064454555511
1787734453243453700,15.91945361328125,-0.5351179838180542,-0.11545353382825851,0.13316862285137177
1787734453259527400,15.93552734375,-0.5302310585975647,-0.14905111491680145,0.09285151958465576
1787734453275667500,15.95166748046875,-0.5363397002220154,-0.1472185254096985,0.018936822190880775
1787734453291668700,15.967668701171876,-0.47219884395599365,-0.15332718193531036,-0.06536258012056351
1787734453307726000,15.98372607421875,-0.46547931432724,-0.28588494658470154,-0.24373523890972137
1787734453323751700,15.999751708984375,-0.6805039048194885,-0.4899139404296875,-0.5088507533073425
1787734453339828200,16.015828125,-0.8912523984909058,-0.6120869517326355,-0.7128797173500061
1787734453355980000,16.03197998046875,-1.0134254693984985,-0.627358615398407,-0.797789990901947
1787734453371972900,16.047972900390626,-1.0170906782150269,-0.5406157374382019,-0.6517932415008545
1787734453388018400,16.064018310546874,-0.7867944240570068,-0.2528982162475586,-0.25595253705978394
1787734453404039400,16.080039306640625,-0.4184426963329315,0.16310101747512817,0.2064724564552307
1787734453420107800,16.096107666015627,0.08185594528913498,0.5949827432632446,0.7189884185791016
1787734453436259000,16.112259033203124,0.4447098970413208,0.7263187766075134,1.0458012819290161
1787734453452259800,16.128259765625,0.637132465839386,0.6389650702476501,1.1374311447143555
1787734453468316200,16.144316162109376,0.7391469478607178,0.43799036741256714,1.0610729455947876
1787734453484302300,16.16030224609375,0.6517932415008545,0.24434609711170197,0.8625417351722717
1787734453500388400,16.176388427734373,0.46303585171699524,0.15577064454555511,0.6927211880683899
1787734453516547300,16.19254736328125,0.17959438264369965,0.16310101747512817,0.5668829679489136
1787734453532513000,16.208512939453126,-0.12461651116609573,0.23273965716362,0.5174028873443604
1787734453548595500,16.224595458984375,-0.37140607833862305,0.3433062732219696,0.49785518646240234
1787734453564603100,16.24060302734375,-0.4764748811721802,0.38728857040405273,0.45875978469848633
1787734453580705300,16.256705322265624,-0.46792277693748474,0.3903428912162781,0.3878994286060333
1787734453596880600,16.272880615234374,-0.39217549562454224,0.4245513379573822,0.28955012559890747
1787734453612849400,16.288849365234373,-0.34697145223617554,0.494189977645874,0.18631389737129211
1787734453628922400,16.30492236328125,-0.32009339332580566,0.5381723046302795,0.07147123664617538
1787734453644921900,16.320921875,-0.2974913716316223,0.5345070958137512,-0.00733038317412138
1787734453661021700,16.337021728515627,-0.28649580478668213,0.5253441333770752,-0.051312681287527084
1787734453677206500,16.35320654296875,-0.27122417092323303,0.49724429845809937,-0.09529497474431992
1787734453693196500,16.369196533203127,-0.24984388053417206,0.39645153284072876,-0.1459967941045761
1787734453709228000,16.38522802734375,-0.22663100063800812,0.3084869384765625,-0.21319197118282318
1787734453725234200,16.401234130859375,-0.21624629199504852,0.22113321721553802,-0.2877175211906433
1787734453741314600,16.417314453125,-0.19303341209888458,0.13561208546161652,-0.35613444447517395
1787734453757459500,16.43345947265625,-0.18936823308467865,0.06291911751031876,-0.3952298164367676
1787734453773467600,16.449467529296875,-0.20891591906547546,-0.001832595793530345,-0.4153883755207062
1787734453789527800,16.46552783203125,-0.22052235901355743,-0.051312681287527084,-0.40133845806121826
1787734453805563400,16.4815634765625,-0.18875735998153687,-0.001832595793530345,-0.35185837745666504
1787734453821646300,16.497646240234374,-0.1160643994808197,0.06658431142568588,-0.30543261766433716
1787734453837798100,16.513798095703127,-0.02321287989616394,0.07880161702632904,-0.2779437005519867
1787734453853766100,16.52976611328125,0.09346238523721695,0.025045474991202354,-0.23151792585849762
1787734453869841000,16.5458408203125,0.2028072625398636,-0.015882495790719986,-0.14355333149433136
1787734453885883000,16.5618828125,0.25595253705978394,-0.08002334833145142,-0.05742133408784866
1787734453901980700,16.577980712890625,0.26572638750076294,-0.21868975460529327,0.030543262138962746
1787734453918148600,16.594148681640625,0.2431243658065796,-0.32131510972976685,0.09407325088977814
1787734453934158600,16.61015869140625,0.19914206862449646,-0.31459560990333557,0.1313360333442688
1787734453950229500,16.6262294921875,0.16310101747512817,-0.13866640627384186,0.16859880089759827
1787734453966224400,16.642224365234377,0.192422553896904,0.19425514340400696,0.2076941877603531
1787734453982285600,16.65828564453125,0.28588494658470154,0.49357911944389343,0.2382374405860901
1787734453998428400,16.674428466796876,0.3194825351238251,0.5247332453727722,0.2028072625398636
1787734454014424300,16.69042431640625,0.2987131178379059,0.3549126982688904,0.11362093687057495
1787734454030527500,16.706527587890626,0.21319197118282318,0.11728613078594208,0.06414084881544113
1787734454046530600,16.722530517578125,0.10506882518529892,-0.05314527451992035,0.08918632566928864
1787734454062590700,16.7385908203125,-0.00733038317412138,-0.18570303916931152,0.1814269721508026
1787734454078733800,16.75473388671875,-0.027488935738801956,-0.18448130786418915,0.2871066629886627
1787734454094718700,16.77071875,0.06841690838336945,-0.08246681094169617,0.37751471996307373
1787734454110759400,16.786759521484374,0.29504790902137756,0.12522737681865692,0.4966334402561188
1787734454126784000,16.802783935546874,0.608421802520752,0.38240164518356323,0.6194173693656921
1787734454142855700,16.818855712890624,0.8747590184211731,0.5485569834709167,0.675616979598999
1787734454158997000,16.8349970703125,1.0036516189575195,0.5143485069274902,0.6542366743087769
1787734454174999000,16.8509990234375,1.0494664907455444,0.4031710624694824,0.5760459303855896
1787734454191048000,16.8670478515625,0.9621127843856812,0.17837265133857727,0.4392121136188507
1787734454207074800,16.88307470703125,0.79840087890625,-0.05375614017248154,0.2919935882091522
1787734454223143000,16.899142822265624,0.5369505286216736,-0.2638937830924988,0.13011430203914642
1787734454239288800,16.915288818359375,0.2926044464111328,-0.3536909818649292,-0.006108652334660292
1787734454255252200,16.931252197265625,0.1459967941045761,-0.34513887763023376,-0.10506882518529892
1787734454271318500,16.947318603515626,0.051312681287527084,-0.294437050819397,-0.17287486791610718
1787734454287363600,16.963363525390626,0.06475171446800232,-0.2217440903186798,-0.15577064454555511
1787734454303457000,16.97945703125,0.1814269721508026,-0.07635815441608429,-0.07147123664617538
1787734454319611600,16.995611572265624,0.32559117674827576,0.029932396486401558,0.00366519158706069
1787734454335582700,17.011582763671875,0.4538728892803192,0.12767083942890167,0.05009094998240471
1787734454351654700,17.027654541015625,0.475253164768219,0.16737708449363708,0.02871066704392433
1787734454367711700,17.043711669921876,0.4337143301963806,0.11484266817569733,-0.031154127791523933
1787734454383792400,17.05979248046875,0.34147366881370544,0.045204028487205505,-0.10751228034496307
1787734454399954700,17.07595458984375,0.20341812074184418,-0.04337143152952194,-0.16859880089759827
1787734454415935700,17.091935791015626,0.08124507963657379,-0.1362229436635971,-0.18509216606616974
1787734454432019500,17.10801953125,-0.04948008432984352,-0.24617868661880493,-0.14966198801994324
1787734454448043000,17.12404296875,-0.15393804013729095,-0.3433062732219696,-0.05864306539297104
1787734454464149500,17.1401494140625,-0.2638937830924988,-0.403781920671463,0.03176499158143997
1787734454480321800,17.15632177734375,-0.36102136969566345,-0.44287729263305664,0.07757988572120667
1787734454496310300,17.172310302734374,-0.4593706727027893,-0.4593706727027893,0.07941248267889023
1787734454512404500,17.188404541015625,-0.5803219676017761,-0.4746423065662384,0.022602014243602753
1787734454528423200,17.204423095703124,-0.6737843751907349,-0.4355469346046448,-0.03420845419168472
1787734454544541700,17.220541748046877,-0.7415903806686401,-0.3225368559360504,-0.06169738993048668
1787734454560753200,17.236753173828124,-0.779464066028595,-0.19058994948863983,-0.06414084881544113
1787734454576746000,17.25274609375,-0.8008443117141724,-0.14905111491680145,-0.0861319974064827
1787734454592793600,17.268793701171877,-0.8118399381637573,-0.13805554807186127,-0.14294247329235077
1787734454608817400,17.2848173828125,-0.8515461683273315,-0.1918116807937622,-0.24617868661880493
1787734454624936000,17.30093603515625,-0.9010262489318848,-0.27488934993743896,-0.3433062732219696
1787734454641115400,17.317115478515625,-0.911410927772522,-0.3341432809829712,-0.39156460762023926
1787734454657099300,17.333099365234375,-0.8338310718536377,-0.31520646810531616,-0.3830125033855438
1787734454673142300,17.349142333984375,-0.7012733221054077,-0.2583959996700287,-0.32009339332580566
1787734454689151000,17.36515087890625,-0.6249151229858398,-0.18081611394882202,-0.2687807083129883
1787734454705215700,17.3812158203125,-0.5821545720100403,-0.09896016865968704,-0.2480112910270691
1787734454721366500,17.397366455078124,-0.5161811113357544,-0.05742133408784866,-0.2168571650981903
1787734454737357600,17.413357666015624,-0.41722095012664795,0.02076941914856434,-0.10812314599752426
1787734454753406700,17.42940673828125,-0.3072652220726013,0.14966198801994324,0.06108652427792549
1787734454769426700,17.4454267578125,-0.1459967941045761,0.27061331272125244,0.33475416898727417
1787734454785517800,17.461517822265623,0.02626720629632473,0.3445279896259308,0.636521577835083
1787734454801677300,17.47767724609375,0.13316862285137177,0.3701843321323395,0.8778133392333984
1787734454817684500,17.4936845703125,0.21930062770843506,0.37262779474258423,1.0873401165008545
1787734454833755000,17.5097548828125,0.24373523890972137,0.29626965522766113,1.149037480354309
1787734454849784000,17.5257841796875,0.1514945775270462,0.06902777403593063,1.0250319242477417
1787734454865866200,17.5418662109375,-0.05192354694008827,-0.20402899384498596,0.7776314616203308
1787734454882028800,17.55802880859375,-0.39095374941825867,-0.4801400899887085,0.3995058834552765
1787734454898032400,17.574032470703123,-0.6933320760726929,-0.5381723046302795,0.059864792972803116
1787734454914104600,17.5901044921875,-0.8729264140129089,-0.4202753007411957,-0.13255776464939117
1787734454930124000,17.6061240234375,-0.9712757468223572,-0.16249015927314758,-0.2382374405860901
1787734454946197200,17.622197265625,-0.8772025108337402,0.14233160018920898,-0.26022860407829285
1787734454962333700,17.638333740234376,-0.6640105247497559,0.3488040566444397,-0.24495697021484375
1787734454978316800,17.65431689453125,-0.3677408695220947,0.5216789245605469,-0.22907446324825287
1787734454994409500,17.670409423828126,-0.16982053220272064,0.5754350423812866,-0.2590068578720093
1787734455010417000,17.6864169921875,-0.03787364438176155,0.5760459303855896,-0.3335324227809906
1787734455026474500,17.702474609375,0.0507018156349659,0.5528330206871033,-0.4141666293144226
1787734455042606000,17.718606201171873,0.08796459436416626,0.4508185386657715,-0.5186246037483215
1787734455058583800,17.734583740234374,0.056810468435287476,0.27122417092323303,-0.6053674817085266
1787734455074633200,17.75063330078125,-0.00427605677396059,0.10751228034496307,-0.6487388610839844
1787734455090655000,17.766655029296874,-0.0659734457731247,-0.07452555745840073,-0.6621779203414917
1787734455106730800,17.782730712890626,-0.06352998316287994,-0.17959438264369965,-0.6487388610839844
1787734455122870800,17.798870849609376,-0.02871066704392433,-0.21868975460529327,-0.6291912198066711
1787734455138878200,17.814878173828124,0.00855211354792118,-0.21991148591041565,-0.5968153476715088
1787734455154938000,17.830938232421875,0.045204028487205505,-0.1973094791173935,-0.5736024379730225
1787734455170967600,17.846967529296876,0.11545353382825851,-0.14538592100143433,-0.5424483418464661
1787734455187042800,17.863042724609375,0.21135938167572021,-0.0959058403968811,-0.4893030524253845
1787734455203214300,17.87921435546875,0.33047810196876526,-0.021991148591041565,-0.35735616087913513
1787734455219226400,17.895226318359374,0.39095374941825867,-0.014049900695681572,-0.18325957655906677
1787734455235295500,17.91129541015625,0.4343251883983612,-0.06719517707824707,-0.03848451003432274
1787734455251337500,17.92733740234375,0.5534439086914062,-0.10934487730264664,0.11484266817569733
1787734455267432000,17.943431884765626,0.7428121566772461,-0.11667526513338089,0.24495697021484375
1787734455283591000,17.9595908203125,0.9560040831565857,-0.07208210229873657,0.33292156457901
1787734455299563800,17.975563720703125,1.1074986457824707,-0.018936822190880775,0.3549126982688904
1787734455315638000,17.991637939453124,1.2046263217926025,0.030543262138962746,0.30482175946235657
1787734455331685600,18.007685546875,1.2620476484298706,0.05253441259264946,0.19792033731937408
1787734455347782100,18.0237822265625,1.2944234609603882,0.09346238523721695,0.1014036312699318
1787734455363950800,18.039950927734374,1.3536773920059204,0.15454891324043274,0.05497787147760391
1787734455379916800,18.055916748046876,1.4764612913131714,0.2565633952617645,0.10262536257505417
1787734455395983600,18.071983642578125,1.6713273525238037,0.3500257730484009,0.20097467303276062
1787734455411968000,18.087968017578124,1.9309450387954712,0.22296582162380219,0.3176499307155609
1787734455428056300,18.104056396484374,2.040289878845215,-0.19914206862449646,0.3481931984424591
1787734455444232000,18.12023193359375,1.9969184398651123,-0.5821545720100403,0.2993239760398865
1787734455460203800,18.136203857421876,2.0280725955963135,-0.665232241153717,0.29077184200286865
1787734455476279600,18.152279541015623,2.169182538986206,-0.4080579876899719,0.40072759985923767
1787734455492283000,18.168282958984374,2.37626576423645,-0.027488935738801956,0.6029239892959595
1787734455508390400,18.184390380859377,2.615725040435791,0.24678955972194672,0.7623597979545593
1787734455524574500,18.200574462890625,2.9694159030914307,0.4349360466003418,0.8784242272377014
1787734455540554000,18.216553955078126,3.327993869781494,0.5186246037483215,0.9242390990257263
1787734455556588800,18.2325888671875,3.5613443851470947,0.6151412725448608,0.9053022861480713
1787734455572616400,18.248616455078125,3.7061195373535156,0.6957755088806152,0.8344419002532959
1787734455588734200,18.264734130859374,3.7030651569366455,0.6976081132888794,0.7464773058891296
1787734455604851000,18.280850830078126,3.6383132934570312,0.6017022728919983,0.6475171446800232
1787734455620848400,18.296848388671876,3.5833356380462646,0.4917465150356293,0.5448917746543884
1787734455636900400,18.312900390625,3.536909818649292,0.40133845806121826,0.38606682419776917
1787734455652910600,18.32891064453125,3.478877544403076,0.3738495409488678,0.21563543379306793
1787734455669002500,18.34500244140625,3.428175687789917,0.3903428912162781,0.09162978827953339
1787734455685148000,18.36114794921875,3.3878586292266846,0.4905247986316681,-0.036651913076639175
1787734455701161500,18.377161376953126,3.3994650840759277,0.598647952079773,-0.1466076523065567
1787734455717229800,18.393229736328124,3.4324517250061035,0.6218608021736145,-0.2321287989616394
1787734455733273600,18.409273681640624,3.4599406719207764,0.5809328556060791,-0.25534167885780334
1787734455749367000,18.425366943359375,3.5185837745666504,0.5540547966957092,-0.2174680233001709
1787734455765521200,18.441521240234376,3.604104995727539,0.5522221922874451,-0.1459967941045761
1787734455781489700,18.45748974609375,3.601050615310669,0.5797111392021179,-0.12278391420841217
1787734455797569000,18.473569091796875,3.4880404472351074,0.5778785347938538,-0.17104226350784302
1787734455813576200,18.489576171875,3.316998243331909,0.5876523852348328,-0.26083946228027344
1787734455829674500,18.505674560546876,3.157562494277954,0.5656611919403076,-0.3292563557624817
1787734455845838000,18.521838134765623,2.941926956176758,0.4031710624694824,-0.3683517575263977
1787734455861851600,18.5378515625,2.685974597930908,0.08124507963657379,-0.36590829491615295
1787734455877919000,18.5539189453125,2.5393667221069336,-0.10690141469240189,-0.23579397797584534
1787734455893909800,18.56990966796875,2.5253169536590576,-0.02076941914856434,-0.045204028487205505
1787734455909971000,18.585970947265626,2.662761688232422,0.19975294172763824,0.17104226350784302
1787734455926111000,18.602111083984376,2.833193063735962,0.43127086758613586,0.24556782841682434
1787734455942086000,18.6180859375,2.889392614364624,0.6695083379745483,0.21074850857257843
1787734455958168800,18.6341689453125,2.9248228073120117,0.9181304574012756,0.1362229436635971
1787734455974163700,18.650163818359374,2.9639182090759277,0.99876469373703,0.06169738993048668
1787734455990232800,18.66623291015625,2.942537784576416,0.9224064946174622,0.02871066704392433
1787734456006374000,18.682373779296874,2.839301586151123,0.8222246170043945,0.03787364438176155
1787734456022364000,18.698364013671874,2.6780333518981934,0.7159340381622314,0.0708603709936142
1787734456038414300,18.714414306640624,2.506380081176758,0.5827654600143433,0.07452555745840073
1787734456054441000,18.73044091796875,2.3744332790374756,0.42760565876960754,0.03787364438176155
1787734456070512000,18.74651220703125,2.2876904010772705,0.27488934993743896,-0.004886921960860491
1787734456086647300,18.762647216796875,2.214386463165283,0.19364428520202637,-0.051312681287527084
1787734456102651100,18.778651123046874,2.1655173301696777,0.11911872029304504,-0.09040805697441101
1787734456118707700,18.794707763671877,2.1600193977355957,0.09834930300712585,-0.12400564551353455
1787734456134737700,18.810737548828126,2.2351558208465576,0.25106561183929443,-0.11362093687057495
1787734456150820900,18.82682080078125,2.348165988922119,0.455705463886261,-0.07024950534105301
1787734456174893600,18.8508935546875,2.479501962661743,0.7073819637298584,-0.00733038317412138
1787734456190985700,18.86698583984375,2.415361166000366,0.7024950385093689,-0.06536258012056351
1787734456207100700,18.8831005859375,2.2883012294769287,0.4813618063926697,-0.18936823308467865
1787734456223059700,18.899059814453125,2.1368067264556885,0.1514945775270462,-0.32620203495025635
1787734456239117800,18.915117919921876,2.0286834239959717,0.009773843921720982,-0.3885102868080139
1787734456255167000,18.9311669921875,1.947438359260559,0.09896016865968704,-0.4190535545349121
1787734456271259600,18.947259765625,1.987755537033081,0.38179078698158264,-0.4086688458919525
1787734456287383600,18.963383544921875,2.110539436340332,0.6585127115249634,-0.38667771220207214
1787734456303351000,18.97935107421875,2.2797491550445557,0.8240572214126587,-0.3787364661693573
1787734456319418000,18.995418212890623,2.367102861404419,0.7617489695549011,-0.42577308416366577
1787734456335490800,19.01149072265625,2.3744332790374756,0.6530149579048157,-0.4544837474822998
1787734456351587600,19.027587646484374,2.291966438293457,0.5803219676017761,-0.4355469346046448
1787734456367663600,19.04366357421875,2.14902400970459,0.5607742667198181,-0.34574973583221436
1787734456383648000,19.05964794921875,2.006692409515381,0.5406157374382019,-0.22052235901355743
1787734456399728400,19.075728271484376,1.9040669202804565,0.4893030524253845,-0.1417207419872284
1787734456415817000,19.09181689453125,1.7886134386062622,0.3933972120285034,-0.07696902006864548
1787734456431934700,19.107934814453124,1.623068928718567,0.2590068578720093,-0.03298672288656235
1787734456448028200,19.124028076171875,1.4569135904312134,0.1417207419872284,0.018325956538319588
1787734456464018200,19.14001806640625,1.273043155670166,0.14538592100143433,0.10934487730264664
1787734456480103700,19.156103759765625,1.156978726387024,0.2174680233001709,0.16737708449363708
1787734456496201500,19.172201416015625,1.1215485334396362,0.24923302233219147,0.16249015927314758
1787734456512321800,19.18832177734375,1.1478158235549927,0.2791654169559479,0.10873401165008545
1787734456528425500,19.204425537109376,1.1820242404937744,0.313373863697052,0.027488935738801956
1787734456544403200,19.2204033203125,1.1661417484283447,0.38728857040405273,-0.04886921867728233
1787734456560496400,19.236496337890625,1.130711555480957,0.44654250144958496,-0.10262536257505417
1787734456576600800,19.252600830078126,1.0824532508850098,0.394618958234787,-0.14477506279945374
1787734456592680000,19.268679931640627,1.0170906782150269,0.29016098380088806,-0.1466076523065567
1787734456608788000,19.2847880859375,0.9584475755691528,0.1814269721508026,-0.1215621829032898
1787734456624745200,19.3007451171875,0.9340129494667053,0.10018189996480942,-0.0708603709936142
1787734456640797000,19.316796875,0.8875871896743774,0.05742133408784866,-0.010995574295520782
1787734456656865000,19.332864990234373,0.8313875794410706,0.06902777403593063,0.003054326167330146
1787734456672961500,19.34896142578125,0.770301103591919,0.07941248267889023,-0.031154127791523933
1787734456689102600,19.3651025390625,0.6719517707824707,0.08918632566928864,-0.10018189996480942
1787734456705078300,19.381078369140624,0.5699372887611389,0.1362229436635971,-0.1612684279680252
1787734456721145000,19.39714501953125,0.4813618063926697,0.17409659922122955,-0.2168571650981903
1787734456737217000,19.413217041015624,0.40744712948799133,0.18325957655906677,-0.2577851414680481
1787734456753320700,19.42932080078125,0.3897320330142975,0.20341812074184418,-0.25045475363731384
1787734456769451300,19.445451171875,0.39767327904701233,0.1918116807937622,-0.20830504596233368
1787734456785435100,19.46143505859375,0.3793473243713379,0.1563815027475357,-0.16920967400074005
1787734456801511400,19.477511474609376,0.33292156457901,0.12278391420841217,-0.15027284622192383
1787734456817598000,19.493597900390625,0.26145032048225403,0.07452555745840073,-0.16249015927314758
1787734456833690600,19.509690673828125,0.17104226350784302,-0.025045474991202354,-0.2028072625398636
1787734456849783600,19.525783447265624,0.042760565876960754,-0.15882496535778046,-0.18325957655906677
1787734456865738000,19.541738037109376,-0.02015855349600315,-0.36224308609962463,-0.1875356286764145
1787734456881784300,19.557784423828124,-0.014049900695681572,-0.4190535545349121,-0.19792033731937408
1787734456897877500,19.57387744140625,-0.03420845419168472,-0.403781920671463,-0.19547687470912933
1787734456913957400,19.589957275390624,-0.08491026610136032,-0.4141666293144226,-0.18020524084568024
1787734456930059000,19.60605908203125,-0.14233160018920898,-0.34636059403419495,-0.12034045159816742
1787734456946018600,19.6220185546875,-0.1973094791173935,-0.20586158335208893,-0.05497787147760391
1787734456962066000,19.63806591796875,-0.21868975460529327,-0.05864306539297104,-0.04398229718208313
