time,seconds_elapsed,z,y,x
1787734437464748800,0.140748779296875,-16.97800064086914,55.2660026550293,-13.268000602722168
1787734437480564700,0.156564697265625,11.820000648498535,73.67400360107422,-19.661001205444336
1787734437496547300,0.17254736328125,10.753000259399414,73.88800048828125,-19.760000228881836
1787734437512646100,0.188646240234375,10.452000617980957,75.08800506591797,-18.22100067138672
1787734437528809200,0.204809326171875,11.938000679016113,73.14000701904297,-19.463001251220703
1787734437544795400,0.22079541015625,9.91100025177002,74.3270034790039,-19.144001007080078
1787734437560885000,0.236885009765625,12.241000175476074,75.07600402832031,-18.93600082397461
1787734437576894700,0.252894775390625,10.97800064086914,74.3280029296875,-18.94099998474121
1787734437592980000,0.26897998046875,9.507000923156738,73.69100189208984,-18.64000129699707
1787734437609106000,0.28510595703125,10.15000057220459,73.37000274658203,-18.541000366210938
1787734437625103600,0.301103515625,10.676000595092773,74.44600677490234,-18.125
1787734437641158000,0.317157958984375,12.455000877380371,74.96800231933594,-18.93800163269043
1787734437657178600,0.3331787109375,11.428000450134277,73.802001953125,-18.131999969482422
1787734437673256200,0.349256103515625,11.39900016784668,74.75700378417969,-18.836000442504883
1787734437689398500,0.3653984375,12.36400032043457,74.87000274658203,-18.327001571655273
1787734437705360400,0.3813603515625,13.327000617980957,74.33200073242188,-18.33300018310547
1787734437721426400,0.397426513671875,11.932000160217285,74.21800231933594,-19.046001434326172
1787734437737466600,0.413466552734375,12.13800048828125,74.86200714111328,-18.93800163269043
1787734437753565700,0.429565673828125,13.10300064086914,74.86600494384766,-18.532001495361328
1787734437769727700,0.445727783203125,12.03600025177002,73.78300476074219,-19.457000732421875
1787734437785700900,0.461700927734375,11.620000839233398,74.11400604248047,-18.84200096130371
1787734437801774000,0.477774169921875,12.058000564575195,73.47300720214844,-18.645000457763672
1787734437817770800,0.493770751953125,8.885000228881836,74.0260009765625,-17.71900177001953
1787734437833867000,0.509866943359375,11.860000610351562,73.59000396728516,-17.93000030517578
1787734437850027000,0.526027099609375,11.015000343322754,72.94499969482422,-18.138999938964844
1787734437866015500,0.542015380859375,9.577000617980957,74.64200592041016,-19.650001525878906
1787734437882108200,0.558108154296875,12.062000274658203,73.04300689697266,-18.75
1787734437898122000,0.5741220703125,10.038000106811523,74.01500701904297,-18.43400001525879
1787734437914195000,0.59019482421875,9.843000411987305,74.0260009765625,-17.618000030517578
1787734437930330600,0.60633056640625,10.347000122070312,73.03600311279297,-19.461000442504883
1787734437946326800,0.622326904296875,11.28700065612793,75.51000213623047,-18.626001358032227
1787734437962375700,0.638375732421875,11.745000839233398,73.36900329589844,-18.442001342773438
1787734437978397000,0.65439697265625,11.983000755310059,73.05900573730469,-17.52800178527832
1787734437994471700,0.6704716796875,11.908000946044922,75.5,-19.34000015258789
1787734438010612500,0.686612548828125,10.593000411987305,73.27200317382812,-17.829999923706055
1787734438026618400,0.702618408203125,11.421000480651855,73.47400665283203,-18.644001007080078
1787734438042675700,0.71867578125,11.17300033569336,74.7490005493164,-19.44700050354004
1787734438058685400,0.734685546875,11.606000900268555,74.32100677490234,-19.350000381469727
1787734438074771700,0.750771728515625,12.557000160217285,73.99300384521484,-19.761001586914062
1787734438090912800,0.766912841796875,10.342000961303711,74.54600524902344,-18.735000610351562
1787734438106929400,0.782929443359375,10.874000549316406,72.81700134277344,-19.770000457763672
1787734438123000000,0.799,10.366000175476074,73.4800033569336,-18.33700180053711
1787734438139044600,0.815044677734375,11.85200023651123,74.34100341796875,-17.82200050354004
1787734438155138000,0.831137939453125,10.249000549316406,74.2300033569336,-18.329999923706055
1787734438171297300,0.84729736328125,11.086000442504883,73.35600280761719,-19.46000099182129
1787734438187271000,0.86327099609375,12.247000694274902,74.97200012207031,-18.73400115966797
1787734438203355000,0.87935498046875,11.872000694274902,72.73200225830078,-17.93800163269043
1787734438219404500,0.895404541015625,12.241000175476074,74.96700286865234,-19.03900146484375
1787734438235506400,0.91150634765625,11.624000549316406,73.68400573730469,-18.947999954223633
1787734438251676000,0.927676025390625,11.721000671386719,74.00200653076172,-19.14900016784668
1787734438267659000,0.943658935546875,12.04900074005127,73.14300537109375,-19.259000778198242
1787734438283746800,0.959746826171875,11.213000297546387,74.125,-18.027000427246094
1787734438299826700,0.97582666015625,14.064001083374023,74.43600463867188,-18.53700065612793
1787734438315932400,0.991932373046875,10.979000091552734,75.40900421142578,-18.21900177001953
1787734438332108500,1.008108642578125,10.883000373840332,74.44300079345703,-18.32900047302246
1787734438348098000,1.02409814453125,12.039000511169434,73.89300537109375,-19.25200080871582
1787734438364193300,1.040193359375,11.619000434875488,75.19400024414062,-18.222000122070312
1787734438380211500,1.05621142578125,10.581000328063965,74.77799987792969,-17.409000396728516
1787734438396333600,1.07233349609375,11.708000183105469,75.94000244140625,-18.5210018157959
1787734438412517000,1.08851708984375,11.080000877380371,76.3790054321289,-17.803001403808594
1787734438428513300,1.10451318359375,11.284000396728516,76.1570053100586,-18.314001083374023
1787734438444614700,1.12061474609375,11.500000953674316,76.26700592041016,-18.110000610351562
1787734438460637200,1.13663720703125,11.584000587463379,76.03700256347656,-19.233001708984375
1787734438476764000,1.152763916015625,11.269001007080078,75.82400512695312,-19.23400115966797
1787734438492955600,1.16895556640625,12.999000549316406,74.54300689697266,-18.637001037597656
1787734438508966700,1.184966552734375,11.921000480651855,75.50800323486328,-18.729000091552734
1787734438525034800,1.20103466796875,11.59000015258789,76.58200073242188,-18.617000579833984
1787734438541069600,1.217069580078125,11.483000755310059,76.47300720214844,-18.71900177001953
1787734438557159400,1.233159423828125,13.290000915527344,75.71500396728516,-19.136001586914062
1787734438573312000,1.24931201171875,13.201000213623047,75.29300689697266,-18.630001068115234
1787734438589330000,1.265329833984375,12.233000755310059,75.8280029296875,-18.828001022338867
1787734438605403000,1.28140283203125,10.222000122070312,74.42900085449219,-19.44900131225586
1787734438621423600,1.297423583984375,11.706000328063965,75.72300720214844,-18.726001739501953
1787734438637514800,1.3135146484375,11.382000923156738,75.93600463867188,-18.826000213623047
1787734438653670400,1.32967041015625,10.5260009765625,76.58200073242188,-18.71700096130371
1787734438669639000,1.345638916015625,12.26400089263916,76.927001953125,-16.7810001373291
1787734438685708800,1.361708740234375,11.066000938415527,75.61400604248047,-18.93000030517578
1787734438701760000,1.377760009765625,11.60200023651123,75.4000015258789,-18.83100128173828
1787734438717863200,1.39386328125,12.429000854492188,76.6820068359375,-19.02400016784668
1787734438734031600,1.410031494140625,11.285000801086426,76.26600646972656,-18.21200180053711
1787734438750008600,1.426008544921875,10.34000015258789,75.84200286865234,-18.010000228881836
1787734438766092000,1.442092041015625,11.559000968933105,76.88700103759766,-19.836000442504883
1787734438782139100,1.45813916015625,11.38800048828125,77.02000427246094,-17.900001525878906
1787734438798252000,1.474251953125,10.93600082397461,78.3010025024414,-18.295000076293945
1787734438814395600,1.490395751953125,11.480000495910645,77.22700500488281,-18.407001495361328
1787734438830384000,1.506384033203125,10.393000602722168,78.18700408935547,-18.907001495361328
1787734438846476500,1.5224765625,12.530000686645508,77.54300689697266,-18.711000442504883
1787734438862491400,1.538491455078125,12.642000198364258,77.0060043334961,-18.81800079345703
1787734438878567000,1.55456689453125,11.693000793457031,77.01100158691406,-18.511001586914062
1787734438894707200,1.570707275390625,10.610000610351562,78.72900390625,-18.393001556396484
1787734438910705400,1.586705322265625,11.456000328063965,78.61800384521484,-18.599000930786133
1787734438926761000,1.602760986328125,10.920000076293945,76.99500274658203,-19.83500099182129
1787734438942780700,1.61878076171875,10.946000099182129,77.76700592041016,-18.197999954223633
1787734438958856400,1.6348564453125,10.830000877380371,77.97700500488281,-18.50200080871582
1787734438974993200,1.6509931640625,12.076000213623047,77.85000610351562,-19.82900047302246
1787734438990997000,1.6669970703125,13.571001052856445,77.42100524902344,-19.73200035095215
1787734439007050800,1.68305078125,12.540000915527344,77.00900268554688,-18.61400032043457
1787734439023081000,1.6990810546875,13.576000213623047,77.74800109863281,-19.32200050354004
1787734439039164200,1.7151640625,11.229000091552734,78.50200653076172,-19.312000274658203
1787734439055304700,1.7313046875,11.884000778198242,78.18700408935547,-18.705001831054688
1787734439071273000,1.74727294921875,12.96500015258789,77.6570053100586,-18.202001571655273
1787734439087346200,1.76334619140625,11.146000862121582,79.16400146484375,-17.880001068115234
1787734439103384800,1.779384765625,12.606000900268555,77.74100494384766,-19.9320011138916
1787734439119477800,1.795477783203125,10.808000564575195,78.07200622558594,-19.418001174926758
1787734439135639600,1.8116396484375,13.165000915527344,78.08100128173828,-18.50400161743164
1787734439151614000,1.827614013671875,11.65000057220459,77.95800018310547,-19.827001571655273
1787734439167692000,1.843692138671875,11.141000747680664,77.86400604248047,-18.910001754760742
1787734439183741000,1.859740966796875,10.606000900268555,78.29500579833984,-18.804000854492188
1787734439199841300,1.87584130859375,11.961000442504883,78.16900634765625,-20.029001235961914
1787734439216006700,1.892006591796875,12.722001075744629,77.8550033569336,-19.422000885009766
1787734439231985400,1.9079853515625,11.885000228881836,77.97200012207031,-18.80900001525879
1787734439248073500,1.924073486328125,13.581000328063965,76.88600158691406,-19.635000228881836
1787734439264083000,1.9400830078125,12.506000518798828,77.63700103759766,-19.729000091552734
1787734439280193300,1.956193359375,12.720000267028809,78.39300537109375,-19.213001251220703
1787734439304190700,1.980190673828125,11.693000793457031,76.03900146484375,-19.131000518798828
1787734439320356400,1.9963564453125,11.153000831604004,77.9800033569336,-18.29800033569336
1787734439336538400,2.012538330078125,12.221000671386719,76.9010009765625,-18.71700096130371
1787734439352476700,2.0284765625,12.348000526428223,76.69700622558594,-17.904001235961914
1787734439368626000,2.0446259765625,10.711000442504883,76.13200378417969,-20.249000549316406
1787734439384719000,2.060718994140625,10.723000526428223,76.24800109863281,-19.637001037597656
1787734439400793900,2.0767939453125,12.85300064086914,77.43700408935547,-18.611000061035156
1787734439416937000,2.09293701171875,13.2760009765625,76.3550033569336,-19.334001541137695
1787734439432941300,2.10894140625,11.194000244140625,74.54600524902344,-18.634000778198242
1787734439449041000,2.125041015625,11.095000267028809,75.52300262451172,-17.709001541137695
1787734439465146000,2.14114599609375,11.934000968933105,74.43500518798828,-18.84000015258789
1787734439481192000,2.15719189453125,13.222001075744629,74.76500701904297,-18.02400016784668
1787734439497334300,2.173334228515625,11.083000183105469,74.21900177001953,-19.04400062561035
1787734439513284600,2.18928466796875,13.629000663757324,75.0780029296875,-18.63300132751465
1787734439529377800,2.205377685546875,12.907000541687012,74.33600616455078,-18.12900161743164
1787734439545330700,2.22133056640625,10.802000045776367,72.83700561523438,-18.24100112915039
1787734439561462300,2.237462158203125,11.51400089263916,74.43800354003906,-18.636001586914062
1787734439577651500,2.2536513671875,11.278000831604004,74.64100646972656,-19.55000114440918
1787734439601685000,2.27768505859375,13.712000846862793,74.74000549316406,-19.858001708984375
1787734439617839400,2.29383935546875,12.792000770568848,73.14200592041016,-19.260000228881836
1787734439633852000,2.309851806640625,13.640000343322754,73.78800201416016,-18.950000762939453
1787734439649916000,2.325916015625,13.218000411987305,74.54700469970703,-18.33100128173828
1787734439665956000,2.3419560546875,11.921000480651855,74.75100708007812,-19.2450008392334
1787734439682055200,2.35805517578125,14.058000564575195,74.43099975585938,-18.843000411987305
1787734439698213600,2.374213623046875,12.13800048828125,74.86200714111328,-18.93800163269043
1787734439714193200,2.390193115234375,11.954000473022461,75.09600067138672,-17.510000228881836
1787734439730282200,2.4062822265625,14.704000473022461,75.0840072631836,-18.023000717163086
1787734439746289700,2.42228955078125,12.349000930786133,74.64400482177734,-19.144001007080078
1787734439762369500,2.43836962890625,15.218000411987305,74.96500396728516,-18.839000701904297
1787734439778515700,2.454515625,14.699000358581543,74.75700378417969,-18.433000564575195
1787734439794511400,2.470511474609375,15.128000259399414,75.6240005493164,-17.713001251220703
1787734439810603000,2.48660302734375,14.258000373840332,74.64000701904297,-19.248001098632812
1787734439826619000,2.502618896484375,13.504000663757324,75.9310073852539,-18.931001663208008
1787734439842696000,2.518696044921875,11.72700023651123,75.19500732421875,-18.1200008392334
1787734439858836000,2.5348359375,12.65000057220459,75.281005859375,-19.546001434326172
1787734439874838000,2.550838134765625,13.632000923156738,75.18800354003906,-18.428001403808594
1787734439890896600,2.566896728515625,14.88900089263916,74.74300384521484,-19.452001571655273
1787734439906930000,2.582929931640625,13.092000961303711,75.83200073242188,-18.422000885009766
1787734439923009800,2.599009765625,15.430000305175781,75.5050048828125,-18.529001235961914
1787734439939155200,2.6151552734375,14.232000350952148,77.6500015258789,-18.509000778198242
1787734439955167700,2.631167724609375,14.870000839233398,76.13700103759766,-19.440000534057617
1787734439971229000,2.64722900390625,15.36400032043457,77.95100402832031,-19.93400001525879
1787734439987259100,2.663259033203125,14.463000297546387,75.5,-19.03700065612793
1787734440003320300,2.6793203125,13.67400074005127,77.9590072631836,-19.52400016784668
1787734440019470000,2.695469970703125,13.79900074005127,78.0780029296875,-18.606000900268555
1787734440035472100,2.71147216796875,14.11600112915039,79.04900360107422,-18.089000701904297
1787734440051523800,2.72752392578125,15.920001029968262,78.28900146484375,-18.60700035095215
1787734440067544600,2.743544677734375,15.919000625610352,79.36900329589844,-17.986000061035156
1787734440083627800,2.759627685546875,14.659000396728516,78.84000396728516,-17.68400001525879
1787734440099782700,2.77578271484375,16.983001708984375,78.1810073852539,-18.60900115966797
1787734440115790300,2.791790283203125,15.272000312805176,77.9590072631836,-19.32200050354004
1787734440131858000,2.80785791015625,14.851000785827637,76.99000549316406,-19.738000869750977
1787734440147900400,2.823900390625,16.03900146484375,77.86500549316406,-18.30500030517578
1787734440164003000,2.840003173828125,16.117000579833984,77.41500091552734,-19.838001251220703
1787734440180164400,2.856164306640625,14.61500072479248,79.6780014038086,-19.10300064086914
1787734440196138500,2.872138427734375,16.211000442504883,78.48800659179688,-19.726001739501953
1787734440212225800,2.888225830078125,15.678000450134277,78.81200408935547,-19.621000289916992
1787734440228232400,2.904232421875,15.586000442504883,78.92900085449219,-18.907001495361328
1787734440244340700,2.9203408203125,15.067000389099121,80.66600036621094,-17.261001586914062
1787734440260514300,2.936514404296875,15.272000312805176,79.58100128173828,-18.28900146484375
1787734440276502800,2.952502685546875,15.38900089263916,79.8030014038086,-17.676000595092773
1787734440292597200,2.96859716796875,16.95800018310547,80.86700439453125,-18.076000213623047
1787734440308609800,2.98460986328125,16.56599998474121,79.8070068359375,-17.270000457763672
1787734440324725500,3.0007255859375,15.598000526428223,80.01700592041016,-17.67500114440918
1787734440340907800,3.01690771484375,17.052000045776367,80.75100708007812,-18.689001083374023
1787734440356899800,3.03289990234375,16.753000259399414,80.656005859375,-17.874000549316406
1787734440372948000,3.048947998046875,15.556000709533691,81.39700317382812,-18.681001663208008
1787734440388962300,3.06496240234375,17.803001403808594,81.51100158691406,-17.868000030517578
1787734440405084000,3.081083984375,15.66200065612793,81.93600463867188,-18.371000289916992
1787734440421271800,3.097271728515625,17.898000717163086,81.28900146484375,-18.481000900268555
1787734440437274400,3.1132744140625,15.875000953674316,81.72000122070312,-18.475000381469727
1787734440453330400,3.129330322265625,18.101001739501953,81.82300567626953,-18.57900047302246
1787734440469369600,3.14536962890625,15.86400032043457,81.71400451660156,-18.98400115966797
1787734440485453000,3.161453125,17.251001358032227,81.06700134277344,-19.09400177001953
1787734440501598700,3.1775986328125,15.97800064086914,80.96200561523438,-19.093000411987305
1787734440517612300,3.1936123046875,17.293001174926758,80.33600616455078,-17.674001693725586
1787734440533684000,3.20968408203125,20.461000442504883,80.75300598144531,-18.18400001525879
1787734440549726200,3.225726318359375,17.95400047302246,79.26900482177734,-17.277000427246094
1787734440565814300,3.241814208984375,19.435001373291016,79.47900390625,-17.37900161743164
1787734440581966800,3.257966796875,18.929000854492188,79.17100524902344,-16.464000701904297
1787734440597932500,3.2739326171875,19.50400161743164,77.79200744628906,-15.356000900268555
1787734440614001000,3.2900009765625,18.993000030517578,79.9020004272461,-17.884000778198242
1787734440630045200,3.306045166015625,18.60700035095215,79.9260025024414,-16.1510009765625
1787734440646147300,3.322147216796875,20.39900016784668,79.05000305175781,-17.282001495361328
1787734440662312700,3.338312744140625,19.893001556396484,78.41800689697266,-16.57400131225586
1787734440678286800,3.354286865234375,20.31300163269043,79.06300354003906,-16.365001678466797
1787734440694365200,3.370365234375,19.979000091552734,79.7020034790039,-16.66400146484375
1787734440710373400,3.386373291015625,18.006999969482422,77.57200622558594,-15.968000411987305
1787734440726452200,3.4024521484375,21.257001876831055,78.08200073242188,-17.4950008392334
1787734440742592300,3.41859228515625,20.889001846313477,78.11700439453125,-14.94800090789795
1787734440758582800,3.434582763671875,20.977001190185547,77.45700073242188,-16.176000595092773
1787734440774620400,3.450620361328125,21.404001235961914,78.43000030517578,-15.455000877380371
1787734440790612000,3.466612060546875,21.28900146484375,76.91200256347656,-16.793001174926758
1787734440806675200,3.48267529296875,20.884000778198242,78.11400604248047,-15.152000427246094
1787734440822810600,3.498810546875,23.43000030517578,77.35100555419922,-15.773000717163086
1787734440838792400,3.51479248046875,20.874000549316406,77.0270004272461,-16.282001495361328
1787734440854870300,3.530870361328125,22.185001373291016,76.83100128173828,-14.757000923156738
1787734440870869800,3.546869873046875,23.465002059936523,76.4010009765625,-14.762001037597656
1787734440894931700,3.570931640625,22.52400016784668,75.54600524902344,-14.667000770568848
1787734440910950100,3.5869501953125,23.161001205444336,77.38200378417969,-13.531001091003418
1787734440927031300,3.60303125,23.381000518798828,77.81900024414062,-12.916000366210938
1787734440943124500,3.61912451171875,22.72300148010254,77.15900421142578,-14.245000839233398
1787734440959048700,3.635048583984375,22.530000686645508,76.73900604248047,-13.63800048828125
1787734440975260200,3.65126025390625,22.31300163269043,77.60000610351562,-13.324000358581543
1787734440991195400,3.6671953125,23.716001510620117,76.74800109863281,-12.824000358581543
1787734441007289900,3.683289794921875,23.834001541137695,76.21400451660156,-12.625000953674316
1787734441023503400,3.69950341796875,24.54800033569336,76.19500732421875,-13.951000213623047
1787734441039434200,3.715434326171875,23.631000518798828,76.22000122070312,-12.218000411987305
1787734441055554600,3.731554443359375,24.358001708984375,75.56100463867188,-13.345000267028809
1787734441071633000,3.7476328125,24.077001571655273,74.8280029296875,-12.129000663757324
1787734441087689200,3.763689208984375,25.13800048828125,74.9330062866211,-12.129000663757324
1787734441103878400,3.77987841796875,23.32400131225586,75.5790023803711,-12.121000289916992
1787734441119840000,3.795840087890625,24.299001693725586,74.83300018310547,-11.721000671386719
1787734441135937300,3.811937255859375,24.73900032043457,74.19300079345703,-11.422000885009766
1787734441151989000,3.827989013671875,24.28900146484375,74.39400482177734,-12.438000679016113
1787734441168135700,3.8441357421875,25.251001358032227,74.72100067138672,-11.927000999450684
1787734441184225800,3.860225830078125,24.73400115966797,74.7300033569336,-11.315000534057617
1787734441200221000,3.876220947265625,25.53900146484375,76.10700225830078,-12.425000190734863
1787734441216309000,3.89230908203125,26.029001235961914,74.84900665283203,-10.297000885009766
1787734441232336600,3.908336669921875,24.671001434326172,73.78400421142578,-9.999000549316406
1787734441248449300,3.92444921875,26.125001907348633,73.9780044555664,-11.324000358581543
1787734441264627000,3.940626953125,26.773000717163086,74.3080062866211,-10.609000205993652
1787734441280624000,3.9566240234375,26.014001846313477,74.84000396728516,-11.010000228881836
1787734441296721400,3.972721435546875,24.358001708984375,74.0040054321289,-9.59000015258789
1787734441312818700,3.988818603515625,24.444000244140625,72.47900390625,-11.437000274658203
1787734441328892400,4.004892333984375,25.51000213623047,72.37100219726562,-11.337000846862793
1787734441344985900,4.02098583984375,26.177001953125,72.49700164794922,-9.91100025177002
1787734441360987400,4.0369873046875,26.158000946044922,72.91699981689453,-10.518000602722168
1787734441377044200,4.053044189453125,24.235000610351562,73.77799987792969,-10.508000373840332
1787734441393135400,4.06913525390625,25.222002029418945,72.82200622558594,-9.70300006866455
1787734441409190100,4.085190185546875,24.29400062561035,71.43600463867188,-9.307000160217285
1787734441425322000,4.101322021484375,26.156002044677734,73.02400207519531,-10.517000198364258
1787734441441274400,4.1172744140625,25.761001586914062,72.06999969482422,-9.812000274658203
1787734441457318100,4.133318115234375,27.780000686645508,72.39200592041016,-9.506000518798828
1787734441473423000,4.149423095703125,26.62700080871582,71.53800201416016,-9.410000801086426
1787734441489506300,4.16550634765625,26.391000747680664,70.2280044555664,-11.255000114440918
1787734441505637000,4.18163720703125,24.91400146484375,69.69600677490234,-11.156000137329102
1787734441521599700,4.197599853515625,25.56100082397461,70.67300415039062,-10.130000114440918
1787734441537655300,4.2136552734375,23.963001251220703,70.02400207519531,-10.745000839233398
1787734441553698300,4.2296982421875,26.09400177001953,70.67400360107422,-10.029000282287598
1787734441569830000,4.245829833984375,27.39000129699707,69.06400299072266,-10.044000625610352
1787734441585967900,4.2619677734375,25.450000762939453,70.67000579833984,-10.333000183105469
1787734441601938200,4.277938232421875,24.625001907348633,70.90299987792969,-9.108000755310059
1787734441618022400,4.2940224609375,26.115001678466797,68.5250015258789,-10.455000877380371
1787734441634109000,4.31010888671875,26.21200180053711,69.81600189208984,-10.03600025177002
1787734441650114000,4.326114013671875,25.786001205444336,68.08700561523438,-11.172000885009766
1787734441666314200,4.342314208984375,25.76500129699707,69.58700561523438,-11.158000946044922
1787734441682273800,4.358273681640625,26.30500030517578,68.94300079345703,-11.165000915527344
1787734441698325800,4.37432568359375,26.334001541137695,68.31300354003906,-10.254000663757324
1787734441714364700,4.39036474609375,29.16900062561035,70.12600708007812,-10.547000885009766
1787734441730442000,4.40644189453125,27.481000900268555,69.16300201416016,-10.655000686645508
1787734441746615300,4.422615234375,26.31300163269043,68.84000396728516,-10.860000610351562
1787734441762545700,4.438545654296875,25.768001556396484,68.07600402832031,-11.987000465393066
1787734441778634500,4.454634521484375,25.24300193786621,67.32400512695312,-12.196001052856445
1787734441794744300,4.470744384765625,28.073001861572266,68.48600006103516,-13.106000900268555
1787734441810828000,4.486828125,27.565000534057617,66.66300201416016,-13.224000930786133
1787734441826939600,4.502939697265625,27.470001220703125,66.99500274658203,-12.508000373840332
1787734441842899500,4.5188994140625,28.296001434326172,65.79000091552734,-14.35300064086914
1787734441858952400,4.534952392578125,27.552001953125,66.6550064086914,-13.835000991821289
1787734441874975200,4.550975341796875,26.475000381469727,67.08000183105469,-14.237000465393066
1787734441891158500,4.567158447265625,27.657001495361328,66.54600524902344,-13.938000679016113
1787734441907271700,4.583271728515625,27.88500213623047,65.25900268554688,-14.052000999450684
1787734441923238000,4.59923779296875,27.564001083374023,65.58200073242188,-13.946001052856445
1787734441939304200,4.61530419921875,28.48400115966797,66.531005859375,-14.958001136779785
1787734441955335200,4.631335205078125,26.255001068115234,65.34600067138672,-15.679000854492188
1787734441971513600,4.647513671875,27.735000610351562,65.1240005493164,-16.09000015258789
1787734441987648300,4.663648193359375,26.031002044677734,65.34000396728516,-16.18800163269043
1787734442003599000,4.67959912109375,25.834001541137695,64.70100402832031,-15.887001037597656
1787734442019672000,4.695672119140625,27.20100212097168,64.04199981689453,-16.91400146484375
1787734442035756300,4.71175634765625,27.86100196838379,62.21800231933594,-17.032001495361328
1787734442051824600,4.72782470703125,25.707000732421875,62.311004638671875,-18.35300064086914
1787734442068003000,4.744003173828125,25.483001708984375,61.980003356933594,-19.069000244140625
1787734442083979000,4.75997900390625,27.066001892089844,62.51200485229492,-19.168001174926758
1787734442100045800,4.7760458984375,24.437000274658203,60.803001403808594,-19.078001022338867
1787734442116141300,4.792141357421875,23.790000915527344,61.87800216674805,-18.86400032043457
1787734442132156200,4.80815625,23.909000396728516,61.23800277709961,-18.666000366210938
1787734442148365300,4.824365234375,24.85500144958496,62.95900344848633,-18.041000366210938
1787734442164309800,4.840309814453125,23.902000427246094,61.77400207519531,-18.661001205444336
1787734442180420900,4.8564208984375,24.6200008392334,61.32500457763672,-20.09200096130371
1787734442196517600,4.872517578125,25.053001403808594,60.68100357055664,-20.099000930786133
1787734442212551400,4.888551513671875,24.84600067138672,61.65700149536133,-19.275001525878906
1787734442228738600,4.904738525390625,25.593000411987305,61.65800476074219,-19.07200050354004
1787734442244726800,4.920726806640625,25.709001541137695,60.79900360107422,-19.181001663208008
1787734442260767000,4.93676708984375,24.821001052856445,61.31700134277344,-20.602001190185547
1787734442276736500,4.952736572265625,24.73400115966797,62.410003662109375,-19.064001083374023
1787734442292770000,4.96877001953125,23.865001678466797,60.346004486083984,-21.220001220703125
1787734442309063400,4.9850634765625,23.975000381469727,61.53700256347656,-20.293001174926758
1787734442325030100,5.001030029296875,24.590002059936523,61.522003173828125,-21.31300163269043
1787734442341090800,5.0170908203125,24.802001953125,62.81900405883789,-20.487001419067383
1787734442357105400,5.03310546875,24.498001098632812,62.612003326416016,-19.979000091552734
1787734442373303000,5.049302978515625,23.631000518798828,62.06300354003906,-21.10300064086914
1787734442389427000,5.065427001953125,23.41900062561035,62.711002349853516,-20.690000534057617
1787734442405362000,5.08136181640625,22.420001983642578,63.875003814697266,-21.9010009765625
1787734442421440500,5.0974404296875,25.042001724243164,63.160003662109375,-19.058000564575195
1787734442437546500,5.11354638671875,23.933000564575195,64.21400451660156,-20.47300148010254
1787734442453638100,5.12963818359375,27.04400062561035,63.58000183105469,-19.464000701904297
1787734442469770800,5.145770751953125,23.847002029418945,65.09100341796875,-19.03900146484375
1787734442485737200,5.1617373046875,24.4580020904541,65.83000183105469,-19.74700164794922
1787734442501809000,5.177808837890625,24.22800064086914,66.79199981689453,-19.942001342773438
1787734442517814800,5.193814697265625,24.75200080871582,68.94900512695312,-18.905000686645508
1787734442533965300,5.20996533203125,23.647001266479492,69.57300567626953,-20.426000595092773
1787734442550112800,5.22611279296875,24.916000366210938,70.75700378417969,-19.907001495361328
1787734442566052400,5.24205224609375,22.157001495361328,72.49100494384766,-18.768001556396484
1787734442582183400,5.258183349609375,24.569000244140625,72.68500518798828,-19.992000579833984
1787734442598273800,5.274273681640625,24.11600112915039,74.39800262451172,-20.18000030517578
1787734442614398500,5.2903984375,22.701000213623047,76.54100036621094,-20.363000869750977
1787734442630496000,5.30649609375,24.674001693725586,78.7800064086914,-20.957000732421875
1787734442646455000,5.322455078125,24.45600128173828,78.66900634765625,-21.26300048828125
1787734442662507500,5.338507568359375,22.36800193786621,80.46700286865234,-23.282001495361328
1787734442678499800,5.354499755859375,22.435001373291016,83.46900177001953,-23.154001235961914
1787734442694626000,5.3706259765625,23.071001052856445,83.57500457763672,-23.154001235961914
1787734442710834400,5.38683447265625,20.470001220703125,85.7090072631836,-24.150001525878906
1787734442726710800,5.402710693359375,20.97800064086914,85.91000366210938,-25.066001892089844
1787734442742823200,5.4188232421875,21.79800033569336,87.7280044555664,-25.255001068115234
1787734442758717000,5.434717041015625,22.817001342773438,90.51000213623047,-25.435001373291016
1787734442774839000,5.450839111328125,23.426000595092773,89.73600769042969,-27.174001693725586
1787734442791103000,5.46710302734375,23.566001892089844,91.96100616455078,-28.988000869750977
1787734442807058000,5.483057861328125,25.34200096130371,91.94100189208984,-30.315000534057617
1787734442823118800,5.499118896484375,22.57000160217285,94.2080078125,-29.375001907348633
1787734442839231200,5.515231201171875,25.067001342773438,93.20000457763672,-32.34100341796875
1787734442855237600,5.531237548828125,24.163002014160156,95.76200103759766,-33.13199996948242
1787734442871440000,5.54743994140625,22.87900161743164,95.54200744628906,-33.74400329589844
1787734442887407600,5.56340771484375,24.64000129699707,97.0260009765625,-34.75200271606445
1787734442903473000,5.579472900390625,24.075000762939453,99.05900573730469,-35.038002014160156
1787734442919485400,5.5954853515625,23.840002059936523,98.5060043334961,-36.367000579833984
1787734442935579400,5.611579345703125,24.516000747680664,99.76000213623047,-38.59800338745117
1787734442951769300,5.627769287109375,25.99100112915039,99.31800842285156,-39.419002532958984
1787734442967745300,5.643745361328125,23.83700180053711,100.16800689697266,-40.224002838134766
1787734442983812900,5.659812744140625,27.398000717163086,100.4570083618164,-42.26300048828125
1787734442999889200,5.67588916015625,27.06100082397461,102.28300476074219,-41.941001892089844
1787734443015993600,5.69199365234375,25.961000442504883,100.74900817871094,-44.60100173950195
1787734443032127700,5.708127685546875,26.677001953125,102.56800842285156,-44.68800354003906
1787734443048095200,5.72409521484375,26.95600128173828,102.76000213623047,-46.31700134277344
1787734443064184300,5.740184326171875,27.251001358032227,103.82600402832031,-46.715003967285156
1787734443080269600,5.75626953125,29.095001220703125,104.21500396728516,-49.4640007019043
1787734443096333300,5.772333251953125,28.181001663208008,103.4850082397461,-48.044002532958984
1787734443112475100,5.78847509765625,29.696001052856445,105.16500854492188,-50.47500228881836
1787734443128466700,5.804466796875,28.82600212097168,105.69400787353516,-51.08100128173828
1787734443144556500,5.820556640625,29.527002334594727,105.12700653076172,-53.3280029296875
1787734443160653800,5.83665380859375,29.22300148010254,104.3800048828125,-53.130001068115234
1787734443176770800,5.852770751953125,29.045001983642578,106.2820053100586,-55.1510009765625
1787734443192866600,5.868866455078125,31.255001068115234,106.26600646972656,-56.070003509521484
1787734443208864300,5.8848642578125,30.58500099182129,106.46300506591797,-57.39200210571289
1787734443224961800,5.9009619140625,28.783000946044922,105.6030044555664,-57.80500411987305
1787734443241041000,5.917041015625,31.580001831054688,105.8810043334961,-60.76000213623047
1787734443257123600,5.93312353515625,29.95600128173828,105.64800262451172,-62.288002014160156
1787734443273238500,5.949238525390625,29.715002059936523,105.95500183105469,-63.406002044677734
1787734443289178400,5.965178466796875,30.200000762939453,105.927001953125,-65.44400024414062
1787734443305235000,5.98123486328125,31.249000549316406,105.59300231933594,-66.26300048828125
1787734443321129700,5.997129638671875,31.614002227783203,105.12400817871094,-69.22200012207031
1787734443337232100,6.013232177734375,30.80000114440918,104.17400360107422,-68.21000671386719
1787734443353498400,6.029498291015625,29.806001663208008,105.12500762939453,-69.32100677490234
1787734443369441300,6.045441162109375,30.644001007080078,103.82000732421875,-70.65800476074219
1787734443385578000,6.061577880859375,31.150001525878906,104.77700805664062,-71.16000366210938
1787734443401458400,6.07745849609375,28.68800163269043,102.28300476074219,-73.62300109863281
1787734443417559300,6.093559326171875,31.95100212097168,102.36800384521484,-74.84900665283203
1787734443433758200,6.10975830078125,31.000001907348633,102.04800415039062,-74.85100555419922
1787734443449700600,6.12570068359375,30.34200096130371,102.90100860595703,-75.25
1787734443465883400,6.14188330078125,31.084001541137695,101.71000671386719,-76.07600402832031
1787734443481802000,6.157802001953125,31.93600082397461,100.19700622558594,-76.906005859375
1787734443497923300,6.17392333984375,31.38100242614746,99.96800231933594,-78.1290054321289
1787734443514187800,6.190187744140625,30.97100067138672,98.6810073852539,-78.24200439453125
1787734443530169000,6.206169189453125,28.297000885009766,99.43000793457031,-78.64000701904297
1787734443546220300,6.22222021484375,30.10900115966797,98.13400268554688,-79.16300201416016
1787734443562273500,6.2382734375,28.713001251220703,97.26200103759766,-80.39100646972656
1787734443578411500,6.25441162109375,28.683000564575195,97.35200500488281,-81.71400451660156
1787734443594449400,6.270449462890625,28.269001007080078,95.19800567626953,-82.54800415039062
1787734443610317800,6.28631787109375,29.841001510620117,95.39900207519531,-83.36300659179688
1787734443626512100,6.30251220703125,27.946001052856445,94.22300720214844,-83.37100219726562
1787734443642472200,6.31847216796875,30.16200065612793,93.56300354003906,-84.39800262451172
1787734443658713600,6.334713623046875,28.905000686645508,93.35800170898438,-83.78700256347656
1787734443674818300,6.350818359375,28.492000579833984,91.8530044555664,-84.2080078125
1787734443690718200,6.36671826171875,27.18800163269043,91.51300811767578,-85.73700714111328
1787734443706838800,6.3828388671875,28.560001373291016,92.26300811767578,-85.6300048828125
1787734443722946800,6.39894677734375,28.137001037597656,90.96800231933594,-86.35400390625
1787734443739027000,6.41502685546875,27.123001098632812,88.18800354003906,-85.97000122070312
1787734443755139800,6.431139892578125,29.340002059936523,87.96100616455078,-86.68800354003906
1787734443771101200,6.44710107421875,29.983001708984375,87.531005859375,-86.69200134277344
1787734443787160600,6.46316064453125,27.650001525878906,87.32000732421875,-86.69100189208984
1787734443803277000,6.479277099609375,29.881000518798828,85.58800506591797,-87.7280044555664
1787734443819291400,6.49529150390625,28.696001052856445,86.33600616455078,-88.0260009765625
1787734443835485700,6.511485595703125,28.94900131225586,85.06400299072266,-87.01800537109375
1787734443851299000,6.527299072265625,28.931001663208008,84.7280044555664,-88.04000091552734
1787734443867509800,6.543509765625,28.836000442504883,83.87100219726562,-88.04800415039062
1787734443883375900,6.5593759765625,26.904001235961914,85.37500762939453,-88.0320053100586
1787734443899699200,6.57569921875,27.655000686645508,84.83800506591797,-88.03700256347656
1787734443915838200,6.591838134765625,26.79800033569336,83.53800201416016,-89.16800689697266
1787734443931816200,6.607816162109375,29.154001235961914,83.11400604248047,-88.56400299072266
1787734443947890700,6.623890625,28.08500099182129,81.81400299072266,-89.69500732421875
1787734443972020700,6.648020751953125,26.97800064086914,80.34000396728516,-87.87300109863281
1787734443988105000,6.66410498046875,27.899002075195312,80.53400421142578,-89.29800415039062
1787734444004123100,6.680123046875,26.31100082397461,81.0790023803711,-88.7820053100586
1787734444020235500,6.696235595703125,25.777000427246094,79.781005859375,-89.71000671386719
1787734444036407300,6.7124072265625,27.168001174926758,79.6780014038086,-89.30500793457031
1787734444052399400,6.7283994140625,26.459001541137695,78.51100158691406,-88.4990005493164
1787734444068492800,6.744492919921875,26.059001922607422,77.55400085449219,-87.99800109863281
1787734444084503000,6.7605029296875,27.7080020904541,78.16900634765625,-89.8280029296875
1787734444100622600,6.77662255859375,26.275001525878906,76.1500015258789,-88.72400665283203
1787734444116802300,6.79280224609375,27.762001037597656,77.12100219726562,-88.10600280761719
1787734444132803000,6.808802978515625,26.052001953125,76.25200653076172,-89.1300048828125
1787734444148900900,6.82490087890625,28.177001953125,76.79000091552734,-88.72000122070312
1787734444164924200,6.840924072265625,26.50400161743164,75.62000274658203,-88.32100677490234
1787734444181003300,6.857003173828125,25.865001678466797,75.0790023803711,-88.73300170898438
1787734444197147000,6.87314697265625,26.615001678466797,73.78500366210938,-89.2540054321289
1787734444213149400,6.8891494140625,26.014001846313477,72.62000274658203,-88.34700775146484
1787734444229212700,6.905212646484375,25.676000595092773,72.39200592041016,-89.36700439453125
1787734444245243600,6.92124365234375,26.944002151489258,73.03500366210938,-89.26100158691406
1787734444261329400,6.937329345703125,27.926000595092773,70.7800064086914,-89.48600769042969
1787734444277492000,6.953491943359375,25.709001541137695,71.9800033569336,-88.14900207519531
1787734444293503500,6.96950341796875,26.35300064086914,70.79400634765625,-88.56700134277344
1787734444309570000,6.985570068359375,24.957000732421875,71.3270034790039,-88.96800231933594
1787734444325613600,7.001613525390625,25.509000778198242,70.58300018310547,-88.46600341796875
1787734444341683000,7.017682861328125,24.566001892089844,71.02400207519531,-87.64600372314453
1787734444357837000,7.033837158203125,23.834001541137695,70.38300323486328,-87.54900360107422
1787734444373835500,7.04983544921875,24.663002014160156,69.83000183105469,-88.7770004272461
1787734444389891600,7.0658916015625,25.330001831054688,70.17100524902344,-87.24700164794922
1787734444405912800,7.081912841796875,24.4580020904541,69.51000213623047,-88.6780014038086
1787734444421997800,7.097997802734375,26.054000854492188,69.94200134277344,-88.26900482177734
1787734444438161000,7.114160888671875,24.076000213623047,68.24000549316406,-87.56800079345703
1787734444454162000,7.130161865234375,25.716001510620117,65.45600128173828,-87.18700408935547
1787734444470234600,7.146234619140625,26.74300193786621,67.48699951171875,-87.47600555419922
1787734444486208800,7.162208740234375,25.788002014160156,66.73200225830078,-87.88900756835938
1787734444502260200,7.17826025390625,26.321001052856445,65.97600555419922,-88.30400085449219
1787734444518394000,7.19439404296875,28.556001663208008,66.40800476074219,-87.79400634765625
1787734444534373400,7.210373291015625,24.96000099182129,65.23300170898438,-87.9020004272461
1787734444550455300,7.226455322265625,26.652000427246094,65.5510025024414,-88.00300598144531
1787734444566455800,7.242455810546875,24.974000930786133,64.70100402832031,-87.60100555419922
1787734444582520300,7.258520263671875,25.541000366210938,64.39800262451172,-86.1780014038086
1787734444598649300,7.2746494140625,22.66200065612793,65.26000213623047,-86.16700744628906
1787734444614628600,7.290628662109375,23.52400016784668,64.72600555419922,-85.96900177001953
1787734444630717000,7.306717041015625,23.617000579833984,63.96200180053711,-86.99400329589844
1787734444646733800,7.32273388671875,22.89900016784668,63.0050048828125,-86.49200439453125
1787734444662798600,7.338798583984375,21.1820011138916,64.94200134277344,-86.06600189208984
1787734444678930000,7.354929931640625,20.977001190185547,64.62300109863281,-85.96600341796875
1787734444694929400,7.370929443359375,21.009000778198242,63.4530029296875,-85.26400756835938
1787734444710982700,7.386982666015625,21.552001953125,63.35200119018555,-84.7560043334961
1787734444727006500,7.40300634765625,21.111000061035156,63.55900192260742,-85.36500549316406
1787734444743087900,7.419087890625,20.7760009765625,65.6030044555664,-84.83700561523438
1787734444759230000,7.43522998046875,20.4010009765625,63.47200393676758,-83.93900299072266
1787734444775236400,7.451236328125,19.743000030517578,63.676002502441406,-84.75100708007812
1787734444791299800,7.4672998046875,21.325000762939453,63.776004791259766,-85.15900421142578
1787734444807339500,7.483339599609375,21.111000061035156,63.88300323486328,-85.15800476074219
1787734444823433200,7.49943310546875,17.97100067138672,63.26700210571289,-83.5300064086914
1787734444839587000,7.515587158203125,18.4950008392334,62.93800354003906,-84.04300689697266
1787734444855552800,7.531552734375,18.492000579833984,63.15200424194336,-84.04100036621094
1787734444871625200,7.547625244140625,17.535001754760742,63.58500289916992,-83.83200073242188
1787734444887673000,7.563673095703125,17.947999954223633,64.44200134277344,-83.82500457763672
1787734444903771100,7.579771240234375,17.83700180053711,63.7910041809082,-84.44200134277344
1787734444919949600,7.595949462890625,17.59800148010254,64.74700164794922,-85.04400634765625
1787734444935925200,7.61192529296875,18.784000396728516,64.10800170898438,-84.64400482177734
1787734444952009000,7.628009033203125,15.484001159667969,64.32500457763672,-84.84200286865234
1787734444967995100,7.6439951171875,17.533000946044922,64.8810043334961,-83.10700225830078
1787734444984105700,7.660105712890625,15.927000999450684,64.65900421142578,-83.82000732421875
1787734445000283000,7.676282958984375,17.6200008392334,65.41000366210938,-83.61200714111328
1787734445016276000,7.69227587890625,19.341001510620117,64.01499938964844,-83.5250015258789
1787734445032376800,7.708376953125,15.611001014709473,65.31000518798828,-83.30500030517578
1787734445048396800,7.724396728515625,17.924001693725586,67.66900634765625,-82.8800048828125
1787734445064498700,7.740498779296875,16.678001403808594,65.74400329589844,-82.79300689697266
1787734445080680000,7.756679931640625,16.751001358032227,67.34400177001953,-83.28800201416016
1787734445096659700,7.77265966796875,17.277999877929688,66.8010025024414,-83.8030014038086
1787734445112698000,7.788697998046875,16.75400161743164,67.1300048828125,-83.29000091552734
1787734445128717000,7.804717041015625,16.668001174926758,67.46700286865234,-82.16700744628906
1787734445144831500,7.82083154296875,16.211999893188477,67.23200225830078,-83.69600677490234
1787734445161020700,7.837020751953125,16.20600128173828,67.01300048828125,-84.10600280761719
1787734445177009200,7.853009033203125,15.973000526428223,67.86500549316406,-84.5050048828125
1787734445193060900,7.869060791015625,17.93600082397461,67.24500274658203,-82.5780029296875
1787734445209097200,7.88509716796875,16.85900115966797,67.67000579833984,-82.9800033569336
1787734445225181200,7.90118115234375,17.808000564575195,67.34000396728516,-83.49400329589844
1787734445241336600,7.917336669921875,15.883000373840332,68.84700012207031,-83.17200469970703
1787734445257307600,7.9333076171875,13.742000579833984,69.27300262451172,-83.67500305175781
1787734445273371400,7.949371337890625,16.70400047302246,68.28800201416016,-84.8080062866211
1787734445289409800,7.965409912109375,14.902000427246094,69.69800567626953,-83.7750015258789
1787734445305497900,7.981497802734375,16.157001495361328,68.9280014038086,-85.10700225830078
1787734445321654500,7.997654541015625,17.12900161743164,68.93600463867188,-84.39500427246094
1787734445337629400,8.01362939453125,16.256000518798828,68.16699981689453,-85.92900085449219
1787734445353703200,8.029703125,16.918001174926758,69.802001953125,-83.7760009765625
1787734445369739000,8.045739013671875,15.637001037597656,69.1510009765625,-84.49400329589844
1787734445385821700,8.06182177734375,15.519001007080078,69.03600311279297,-85.10600280761719
1787734445401988000,8.077988037109375,15.42300033569336,68.93500518798828,-84.69900512695312
1787734445417969200,8.09396923828125,13.926000595092773,70.33600616455078,-84.2770004272461
1787734445434057700,8.1100576171875,17.553001403808594,70.77200317382812,-83.25900268554688
1787734445450074400,8.126074462890625,18.354000091552734,71.2820053100586,-85.08900451660156
1787734445466158300,8.142158447265626,16.029001235961914,70.86000061035156,-84.88600158691406
1787734445482301700,8.1583017578125,16.85500144958496,71.38500213623047,-85.59600067138672
1787734445498299100,8.174299072265624,17.197999954223633,71.29100036621094,-84.5780029296875
1787734445514402600,8.190402587890626,16.152000427246094,70.9780044555664,-84.07100677490234
1787734445530421800,8.206421875,16.020000457763672,72.1520004272461,-84.46800231933594
1787734445546504400,8.22250439453125,17.371000289916992,72.13200378417969,-85.79400634765625
1787734445562668000,8.23866796875,17.06100082397461,71.48900604248047,-85.79900360107422
1787734445578678500,8.254678466796875,18.78700065612793,70.74600219726562,-85.09500122070312
1787734445594741800,8.27074169921875,17.513999938964844,71.61300659179688,-84.47400665283203
1787734445610779100,8.286779052734374,16.339000701904297,69.99000549316406,-85.81100463867188
1787734445626861800,8.30286181640625,17.203001022338867,70.21400451660156,-84.99500274658203
1787734445643011600,8.319011474609376,15.289000511169434,71.40400695800781,-84.37100219726562
1787734445659027000,8.33502685546875,17.341001510620117,68.93600463867188,-84.39600372314453
1787734445675098600,8.3510986328125,14.143000602722168,68.5009994506836,-85.21000671386719
1787734445691138800,8.367138916015625,16.9950008392334,68.92000579833984,-85.61800384521484
1787734445707230700,8.383230712890626,17.20400047302246,70.86200714111328,-84.58200073242188
1787734445723387100,8.39938720703125,15.30000114440918,69.46500396728516,-85.10200500488281
1787734445739391700,8.415391845703125,17.211000442504883,70.3270034790039,-84.58700561523438
1787734445755451000,8.431450927734375,15.951001167297363,69.79700469970703,-84.28400421142578
1787734445771485700,8.447485595703125,14.809000968933105,68.08500671386719,-84.19600677490234
1787734445787565000,8.46356494140625,15.946001052856445,69.79400634765625,-84.48800659179688
1787734445803729000,8.47972900390625,16.608001708984375,69.70000457763672,-83.47100067138672
1787734445819742000,8.495741943359375,14.078001022338867,68.2020034790039,-83.58300018310547
1787734445835804400,8.511804443359376,16.404001235961914,67.76000213623047,-84.3030014038086
1787734445851842800,8.5278427734375,16.365001678466797,67.73600006103516,-86.03500366210938
1787734445867952600,8.54395263671875,16.858001708984375,65.94000244140625,-84.11600494384766
1787734445891917300,8.567917236328125,15.106000900268555,68.5040054321289,-84.906005859375
1787734445908035800,8.584035888671876,17.378000259399414,66.2560043334961,-84.41900634765625
1787734445924193800,8.60019384765625,16.345001220703125,64.97900390625,-83.92000579833984
1787734445940245800,8.616245849609374,15.472001075744629,66.04600524902344,-84.31700134277344
1787734445956334000,8.632333984375,16.14000129699707,64.98300170898438,-83.61400604248047
1787734445972367000,8.6483671875,14.205000877380371,65.51300048828125,-84.32000732421875
1787734445988370700,8.66437060546875,14.808000564575195,63.28600311279297,-82.50700378417969
1787734446004603100,8.68060302734375,15.280000686645508,64.22200012207031,-84.53700256347656
1787734446020559600,8.6965595703125,14.040000915527344,63.05600357055664,-83.7300033569336
1787734446036741400,8.712741455078126,13.623001098632812,62.845001220703125,-83.52800750732422
1787734446052681000,8.728680908203126,14.456000328063965,63.698001861572266,-83.72500610351562
1787734446068882400,8.74488232421875,12.140000343322754,63.60600280761719,-82.90800476074219
1787734446085031700,8.76103173828125,13.009000778198242,63.50800323486328,-82.09500122070312
1787734446101038800,8.777038818359374,12.6850004196167,64.04600524902344,-81.98800659179688
1787734446117189000,8.793189208984375,13.754000663757324,63.18400192260742,-82.20100402832031
1787734446133237000,8.809237060546875,11.540000915527344,61.57600402832031,-82.51800537109375
1787734446149226500,8.8252265625,12.064000129699707,63.19200134277344,-81.79100036621094
1787734446165502200,8.841502197265624,14.068000793457031,63.073001861572266,-82.50800323486328
1787734446181375000,8.857375,11.515000343322754,64.04700469970703,-82.08900451660156
1787734446197531400,8.873531494140625,10.451000213623047,65.02000427246094,-81.56900024414062
1787734446213523200,8.889523193359375,10.646000862121582,63.820003509521484,-83.10800170898438
1787734446229641700,8.905641845703125,10.675000190734863,64.16200256347656,-81.5770034790039
1787734446245884200,8.92188427734375,10.961000442504883,64.57400512695312,-82.79600524902344
1787734446261865500,8.937865478515626,10.54800033569336,65.33800506591797,-81.77000427246094
1787734446277939700,8.953939697265625,10.432000160217285,65.54900360107422,-82.07400512695312
1787734446294016800,8.970016845703125,9.49000072479248,64.58600616455078,-82.08100128173828
1787734446310120000,8.986119873046874,11.518000602722168,66.31800079345703,-80.54000091552734
1787734446326253300,9.00225341796875,9.585000038146973,65.22700500488281,-82.1780014038086
1787734446342234400,9.018234375,9.136000633239746,66.29400634765625,-82.57500457763672
1787734446358311700,9.034311767578124,10.42300033569336,65.86800384521484,-82.2750015258789
1787734446374332700,9.050332763671875,10.86400032043457,67.49800109863281,-80.52900695800781
1787734446390391800,9.066391845703125,9.57800006866455,67.06000518798828,-81.34600067138672
1787734446406624300,9.082624267578124,11.6850004196167,67.91100311279297,-81.54500579833984
1787734446422573300,9.0985732421875,9.54800033569336,66.61000061035156,-82.9800033569336
1787734446438618400,9.114618408203125,10.108000755310059,66.95100402832031,-81.45000457763672
1787734446454699800,9.13069970703125,11.280000686645508,66.19499969482422,-81.76400756835938
1787734446470759700,9.146759765625,9.335000038146973,67.58300018310547,-82.36000061035156
1787734446486864600,9.16286474609375,10.17300033569336,66.49300384521484,-83.59300231933594
1787734446502822100,9.178822265625,9.63700008392334,67.031005859375,-83.48600769042969
1787734446518872800,9.194872802734375,10.491000175476074,67.68099975585938,-82.87000274658203
1787734446534931500,9.210931396484375,14.045001029968262,65.54400634765625,-81.97700500488281
1787734446550940200,9.226940185546875,9.963000297546387,65.95500183105469,-83.8010025024414
1787734446567171600,9.243171630859376,11.709000587463379,65.87200164794922,-81.76700592041016
1787734446583137500,9.259137451171876,11.792000770568848,64.88600158691406,-83.406005859375
1787734446599181800,9.275181884765624,10.922000885009766,66.38800048828125,-83.39100646972656
1787734446615252700,9.291252685546874,11.285000801086426,65.00900268554688,-82.28300476074219
1787734446631316700,9.307316650390625,11.738000869750977,67.12300109863281,-84.4050064086914
1787734446647527000,9.32352685546875,11.670001029968262,65.84900665283203,-83.4990005493164
1787734446663491800,9.339491943359375,12.5600004196167,65.87200164794922,-81.66600036621094
1787734446679556000,9.35555615234375,11.692000389099121,64.781005859375,-83.2030029296875
1787734446695559000,9.371558837890625,13.692000389099121,66.17300415039062,-83.09100341796875
1787734446711734300,9.387734375,12.088000297546387,67.03300476074219,-83.08200073242188
1787734446727866600,9.40386669921875,12.307000160217285,65.09100341796875,-84.01600646972656
1787734446743844600,9.4198447265625,12.118000984191895,65.32200622558594,-82.79100036621094
1787734446759917800,9.435917724609375,10.958000183105469,64.57200622558594,-82.89800262451172
1787734446775930000,9.45193017578125,12.633000373840332,65.31200408935547,-83.5050048828125
1787734446792073000,9.468072998046875,13.816000938415527,64.88700103759766,-83.1030044555664
1787734446808188400,9.4841884765625,12.23900032043457,64.57400512695312,-82.59400177001953
1787734446824097800,9.500097900390625,10.428000450134277,64.03300476074219,-83.20800018310547
1787734446840251000,9.5162509765625,9.23900032043457,65.1030044555664,-83.50200653076172
1787734446856337700,9.532337646484375,12.452000617980957,65.54700469970703,-81.97500610351562
1787734446872376600,9.54837646484375,11.52400016784668,64.3759994506836,-81.47400665283203
1787734446888532000,9.564531982421874,9.72800064086914,63.845001220703125,-81.37500762939453
1787734446904436200,9.580436279296874,10.488000869750977,62.340003967285156,-81.59300231933594
1787734446920619500,9.59661962890625,11.736001014709473,63.079002380371094,-82.3010025024414
1787734446936699600,9.61269970703125,8.594000816345215,61.59700393676758,-81.29200744628906
1787734446952663000,9.6286630859375,9.155000686645508,60.750003814697266,-80.48500061035156
1787734446968899300,9.6448994140625,11.572000503540039,60.40700149536133,-81.81500244140625
1787734446984825900,9.660825927734376,13.292000770568848,60.20100402832031,-81.0040054321289
1787734447000999700,9.676999755859375,10.970000267028809,57.40300369262695,-82.14700317382812
1787734447017124600,9.69312451171875,12.692000389099121,57.198001861572266,-81.23400115966797
1787734447033127200,9.709127197265625,11.66200065612793,57.54300308227539,-79.59900665283203
1787734447049293800,9.7252939453125,11.452000617980957,56.35600280761719,-80.22100067138672
1787734447065253600,9.741253662109376,11.844000816345215,54.67100143432617,-77.99500274658203
1787734447081362400,9.757362548828125,10.475000381469727,53.707000732421875,-78.10400390625
1787734447097375500,9.77337548828125,9.546000480651855,53.4010009765625,-77.08700561523438
1787734447113553700,9.7895537109375,11.158000946044922,52.005001068115234,-77.10100555419922
1787734447129668900,9.8056689453125,8.987000465393066,50.207000732421875,-75.58600616455078
1787734447145637400,9.821637451171876,8.394000053405762,49.69400405883789,-73.96000671386719
1787734447161703000,9.837702880859375,9.780000686645508,50.7760009765625,-73.03500366210938
1787734447177826000,9.853825927734375,9.919000625610352,49.17500305175781,-72.54000091552734
1787734447193919700,9.869919677734375,9.620000839233398,48.32200241088867,-72.24200439453125
1787734447210041900,9.886041748046875,7.682000160217285,46.86100387573242,-69.60400390625
1787734447226011100,9.90201123046875,8.873000144958496,45.36000061035156,-69.51700592041016
1787734447242089200,9.918089111328126,8.067000389099121,44.84700393676758,-67.89000701904297
1787734447258169000,9.934169189453126,9.12700080871582,44.30400085449219,-68.30400085449219
1787734447274166000,9.950166015625,9.160000801086426,45.51300048828125,-66.052001953125
1787734447290369800,9.966369873046874,9.42400074005127,44.78700256347656,-64.22500610351562
1787734447306171100,9.982171142578125,8.667000770568848,43.91600036621094,-65.3530044555664
1787734447322408000,9.998407958984375,9.473999977111816,44.60200119018555,-62.0880012512207
1787734447338388200,10.01438818359375,8.780000686645508,42.03900146484375,-61.49900436401367
1787734447354530300,10.0305302734375,10.748000144958496,42.070003509521484,-58.954002380371094
1787734447370698500,10.046698486328125,10.719000816345215,43.349002838134766,-59.452003479003906
1787734447386652700,10.062652587890625,9.90000057220459,42.288002014160156,-58.74700164794922
1787734447402701600,10.07870166015625,7.816000461578369,41.23500061035156,-57.63300323486328
1787734447418792400,10.09479248046875,9.543000221252441,42.33000183105469,-55.691001892089844
1787734447434877400,10.11087744140625,9.586000442504883,42.1400032043457,-53.85900115966797
1787734447451010300,10.12701025390625,7.9710001945495605,43.426002502441406,-54.04900360107422
1787734447466965200,10.14296533203125,7.909000396728516,42.37200164794922,-52.73400115966797
1787734447483019000,10.15901904296875,8.910000801086426,41.426002502441406,-51.31700134277344
1787734447499059000,10.175058837890624,8.498000144958496,41.32600021362305,-50.80800247192383
1787734447515121700,10.19112158203125,9.915000915527344,41.99400329589844,-48.76700210571289
1787734447531323100,10.2073232421875,9.653000831604004,42.35300064086914,-46.01300048828125
1787734447547274200,10.223274169921876,10.083000183105469,42.57200241088867,-45.60400390625
1787734447563350500,10.2393505859375,9.66100025177002,42.89900207519531,-45.29500198364258
1787734447579406800,10.25540673828125,9.974000930786133,44.624000549316406,-44.465003967285156
1787734447595571000,10.271571044921876,10.249000549316406,42.39200210571289,-43.05900192260742
1787734447611697400,10.287697509765625,8.261000633239746,43.71000289916992,-40.906002044677734
1787734447627648300,10.303648193359376,9.494000434875488,45.41200256347656,-41.707000732421875
1787734447643720000,10.319719970703124,9.148000717163086,43.948001861572266,-39.07100296020508
1787734447659785000,10.335784912109375,8.743000030517578,44.50100326538086,-37.84400177001953
1787734447675886300,10.35188623046875,9.180000305175781,45.5880012512207,-36.612003326416016
1787734447692012500,10.368012451171875,10.47700023651123,46.4640007019043,-35.0780029296875
1787734447707989500,10.383989501953126,10.052000045776367,47.97700119018555,-34.147003173828125
1787734447724059100,10.40005908203125,10.726000785827637,49.40400314331055,-31.589000701904297
1787734447740134400,10.416134521484375,10.827000617980957,48.10400390625,-32.61900329589844
1787734447756239400,10.4322392578125,7.964000225067139,50.16400146484375,-31.171001434326172
1787734447772374300,10.448374267578124,9.670000076293945,50.922000885009766,-30.352001190185547
1787734447788358100,10.464358154296875,11.509000778198242,51.480003356933594,-28.516000747680664
1787734447804437200,10.480437255859375,9.176000595092773,51.91800308227539,-28.101001739501953
1787734447820522000,10.49652197265625,10.52500057220459,54.49100112915039,-27.87700080871582
1787734447836584400,10.51258447265625,11.201000213623047,54.513004302978516,-26.1460018157959
1787734447852721200,10.52872119140625,10.701000213623047,55.397003173828125,-24.202001571655273
1787734447868694300,10.5446943359375,10.545000076293945,57.637001037597656,-24.99700164794922
1787734447884803800,10.560803955078125,11.428000450134277,57.22300338745117,-23.779001235961914
1787734447900894500,10.57689453125,12.891000747680664,59.58400344848633,-23.352001190185547
1787734447917014500,10.5930146484375,12.678000450134277,58.50300216674805,-24.075000762939453
1787734447933107000,10.60910693359375,11.529000282287598,60.570003509521484,-21.916000366210938
1787734447949052400,10.625052490234374,12.245000839233398,61.85000228881836,-22.31300163269043
1787734447965199000,10.64119921875,10.87700080871582,63.58900451660156,-20.666000366210938
1787734447981296000,10.657296142578126,13.405000686645508,63.24800109863281,-21.793001174926758
1787734447997374000,10.6733740234375,12.646000862121582,63.564002990722656,-22.29800033569336
1787734448013374000,10.6893740234375,13.021000862121582,63.81300354003906,-19.648000717163086
1787734448029269200,10.705269287109376,12.67400074005127,65.5260009765625,-19.836000442504883
1787734448045503200,10.721503173828125,14.386000633239746,64.55900573730469,-19.847000122070312
1787734448061376800,10.737376708984375,12.432000160217285,67.02100372314453,-20.23000144958496
1787734448077455400,10.753455322265625,12.552000999450684,67.6780014038086,-19.20600128173828
1787734448093696800,10.76969677734375,13.289000511169434,66.48400115966797,-20.236000061035156
1787734448109592800,10.7855927734375,13.076000213623047,67.02400207519531,-19.92500114440918
1787734448125838800,10.8018388671875,12.0260009765625,67.14100646972656,-19.312000274658203
1787734448141824300,10.81782421875,13.503000259399414,67.67400360107422,-19.411001205444336
1787734448158016500,10.8340166015625,13.509000778198242,67.3530044555664,-19.312000274658203
1787734448174134300,10.85013427734375,14.384000778198242,66.71900177001953,-18.606000900268555
1787734448190056400,10.866056396484375,14.748001098632812,68.41100311279297,-20.22100067138672
1787734448206252000,10.882251953125,15.01400089263916,67.36199951171875,-18.499000549316406
1787734448222166000,10.898166015625,16.623001098632812,67.4780044555664,-17.685001373291016
1787734448238427600,10.914427734375,16.913000106811523,67.56800079345703,-18.907001495361328
1787734448254542600,10.93054248046875,14.668000221252441,67.99500274658203,-19.308000564575195
1787734448270481700,10.946481689453124,14.337000846862793,68.96000671386719,-19.299001693725586
1787734448286600700,10.9626005859375,15.214000701904297,67.89500427246094,-18.697999954223633
1787734448302558000,10.978557861328126,15.971000671386719,67.9020004272461,-18.088001251220703
1787734448318670300,10.99467041015625,15.832000732421875,68.63899993896484,-19.100000381469727
1787734448334916400,11.010916259765626,16.677000045776367,69.4990005493164,-18.788000106811523
1787734448350773200,11.026773193359375,14.982000350952148,68.531005859375,-19.201000213623047
1787734448366929200,11.04292919921875,15.11600112915039,68.656005859375,-17.876001358032227
1787734448382894600,11.05889453125,13.914000511169434,70.1500015258789,-18.47300148010254
1787734448398930400,11.074930419921875,15.606000900268555,69.49500274658203,-19.194000244140625
1787734448415224300,11.091224365234375,14.557001113891602,69.39600372314453,-18.68400001525879
1787734448431185700,11.107185546875,14.850000381469727,70.24500274658203,-19.288000106811523
1787734448447241000,11.123240966796875,15.05000114440918,72.29100036621094,-18.5570011138916
1787734448463357700,11.139357666015625,12.837000846862793,70.03500366210938,-19.185001373291016
1787734448479393800,11.155393798828126,15.254000663757324,71.09600067138672,-19.68800163269043
1787734448495562500,11.1715625,13.485000610351562,71.44499969482422,-17.850000381469727
1787734448511510800,11.1875107421875,13.373001098632812,70.36100006103516,-18.7760009765625
1787734448527570400,11.2035703125,16.299001693725586,74.11000061035156,-18.543001174926758
1787734448543691800,11.21969189453125,14.393000602722168,73.03600311279297,-18.957000732421875
1787734448559743700,11.23574365234375,17.084001541137695,71.86500549316406,-18.054000854492188
1787734448575910700,11.25191064453125,13.770000457763672,72.18099975585938,-18.862001419067383
1787734448591884800,11.267884765625,13.755001068115234,72.92900085449219,-19.05900001525879
1787734448607959800,11.283959716796875,15.051000595092773,72.50800323486328,-18.351001739501953
1787734448624038700,11.30003857421875,14.278000831604004,74.0040054321289,-18.7450008392334
1787734448640149000,11.31614892578125,17.48200035095215,73.68500518798828,-18.14000129699707
1787734448656286000,11.332285888671874,14.723000526428223,72.39400482177734,-18.861000061035156
1787734448672278300,11.3482783203125,15.54900074005127,73.24300384521484,-19.36400032043457
1787734448688361000,11.36436083984375,14.672000885009766,74.74100494384766,-19.6560001373291
1787734448704294000,11.3802939453125,14.467000961303711,75.07000732421875,-19.143001556396484
1787734448720393000,11.39639306640625,15.034000396728516,74.11800384521484,-18.134000778198242
1787734448736657400,11.412657470703126,16.966001510620117,72.72300720214844,-18.046001434326172
1787734448752625200,11.428625244140624,14.91100025177002,73.6760025024414,-19.1560001373291
1787734448768751600,11.444751708984375,16.802000045776367,73.98500061035156,-19.869001388549805
1787734448784809700,11.460809814453125,16.58500099182129,74.95500183105469,-19.452001571655273
1787734448800979700,11.476979736328126,13.838000297546387,74.1030044555664,-19.35500144958496
1787734448817083600,11.493083740234376,13.605000495910645,75.60400390625,-19.341001510620117
1787734448833084400,11.50908447265625,16.685001373291016,75.92400360107422,-19.13800048828125
1787734448849183000,11.525182861328124,15.30000114440918,74.73500061035156,-20.064001083374023
1787734448865284400,11.541284423828126,16.25800132751465,76.24700164794922,-19.033000946044922
1787734448881364000,11.557364013671876,15.29900074005127,76.78700256347656,-18.822999954223633
1787734448897468000,11.573468017578126,16.55500030517578,77.96300506591797,-18.916000366210938
1787734448913391900,11.589391845703124,15.523000717163086,77.11800384521484,-18.108001708984375
1787734448929584600,11.605584716796875,14.451000213623047,77.65400695800781,-18.203001022338867
1787734448945700000,11.6217001953125,14.77500057220459,77.11600494384766,-18.310001373291016
1787734448961641500,11.637641357421876,15.807001113891602,77.31300354003906,-19.532001495361328
1787734448977898500,11.6538984375,17.395000457763672,77.84700012207031,-19.428001403808594
1787734448993795800,11.6697958984375,17.084001541137695,78.06900024414062,-18.916000366210938
1787734449009937700,11.685937744140626,15.995000839233398,79.24300384521484,-19.41400146484375
1787734449025898500,11.7018984375,18.0310001373291,79.35900115966797,-18.499000549316406
1787734449041977600,11.7179775390625,17.529001235961914,78.62100219726562,-17.689001083374023
1787734449058285000,11.73428515625,17.83100128173828,78.50200653076172,-18.506000518798828
1787734449074187800,11.750187744140625,17.5260009765625,79.48400115966797,-17.27400016784668
1787734449090304800,11.7663046875,18.171001434326172,79.05500030517578,-17.177000045776367
1787734449106375400,11.78237548828125,17.736000061035156,77.32100677490234,-18.720001220703125
1787734449122329000,11.7983291015625,17.641000747680664,76.57100677490234,-18.726001739501953
1787734449138597000,11.81459716796875,17.740001678466797,78.40300750732422,-17.895000457763672
1787734449154573600,11.830573486328126,18.332000732421875,78.8080062866211,-19.624000549316406
1787734449170647600,11.8466474609375,18.43400001525879,80.4260025024414,-18.795000076293945
1787734449186624500,11.86262451171875,19.400001525878906,79.67400360107422,-18.803001403808594
1787734449202824200,11.87882421875,19.303001403808594,79.35600280761719,-18.602001190185547
1787734449218947000,11.894947021484375,20.257001876831055,80.11000061035156,-18.189001083374023
1787734449234900500,11.910900390625,18.987001419067383,80.6550064086914,-17.67300033569336
1787734449250958300,11.926958251953126,19.966001510620117,81.42400360107422,-16.14000129699707
1787734449267029200,11.943029296875,22.071001052856445,79.68000030517578,-18.093000411987305
1787734449283043800,11.9590439453125,18.68600082397461,79.36900329589844,-17.68400001525879
1787734449299222300,11.97522216796875,21.010000228881836,81.73600769042969,-16.75
1787734449315128800,11.99112890625,21.23200035095215,80.87700653076172,-16.85900115966797
1787734449331220700,12.007220703125,20.549001693725586,81.39000701904297,-18.586000442504883
1787734449347284000,12.023283935546875,22.349000930786133,82.78900146484375,-17.964000701904297
1787734449363399000,12.03939892578125,21.39000129699707,83.0050048828125,-17.961000442504883
1787734449379507700,12.0555078125,22.468000411987305,82.79700469970703,-17.35300064086914
1787734449395455700,12.071455810546874,21.19300079345703,82.58200073242188,-17.5570011138916
1787734449411513000,12.08751318359375,21.71200180053711,82.25000762939453,-18.27400016784668
1787734449435633200,12.111633056640626,23.310001373291016,83.656005859375,-17.143001556396484
1787734449451690800,12.127690673828125,22.44300079345703,84.29500579833984,-17.54400062561035
1787734449467721500,12.143721435546874,23.47300148010254,84.27400207519531,-18.97100067138672
1787734449483807200,12.15980712890625,22.939001083374023,85.677001953125,-18.2450008392334
1787734449499954200,12.1759541015625,22.24300193786621,83.54600524902344,-17.447999954223633
1787734449515923000,12.1919228515625,21.785001754760742,84.17500305175781,-18.56300163269043
1787734449531998200,12.207998291015626,23.910001754760742,84.06400299072266,-18.56599998474121
1787734449548039000,12.224038818359375,23.613000869750977,83.64600372314453,-17.85700035095215
1787734449564134700,12.240134765625,22.93800163269043,86.21700286865234,-17.935001373291016
1787734449580292000,12.2562919921875,24.668001174926758,83.96400451660156,-17.957000732421875
1787734449596262700,12.2722626953125,24.14000129699707,83.96600341796875,-17.854000091552734
1787734449612343300,12.28834326171875,23.788002014160156,84.3790054321289,-19.072999954223633
1787734449628380200,12.304380126953125,23.71000099182129,83.96400451660156,-18.058000564575195
1787734449644488000,12.320488037109374,23.117000579833984,82.58700561523438,-16.947999954223633
1787734449660655900,12.33665576171875,25.23400115966797,82.5790023803711,-17.256999969482422
1787734449676642000,12.35264208984375,24.8330020904541,82.37800598144531,-16.341001510620117
1787734449692712000,12.3687119140625,25.042001724243164,82.8080062866211,-16.236000061035156
1787734449708701000,12.384700927734375,24.703001022338867,81.9320068359375,-17.66900062561035
1787734449724789500,12.40078955078125,24.639001846313477,82.06500244140625,-15.733000755310059
1787734449740967700,12.4169677734375,23.477001190185547,82.28700256347656,-15.322000503540039
1787734449756940500,12.4329404296875,25.860000610351562,81.92300415039062,-18.18000030517578
1787734449773031700,12.44903173828125,24.464000701904297,80.6830062866211,-14.930000305175781
1787734449789057500,12.4650576171875,27.82900047302246,81.19900512695312,-16.05000114440918
1787734449805169700,12.481169677734375,26.065000534057617,81.22600555419922,-14.214000701904297
1787734449821350000,12.497349853515624,26.466001510620117,81.1030044555664,-15.336000442504883
1787734449837340200,12.513340087890626,27.051000595092773,78.86500549316406,-14.338000297546387
1787734449853440300,12.529440185546875,28.740001678466797,79.39700317382812,-14.437000274658203
1787734449869461800,12.545461669921876,26.198001861572266,78.75700378417969,-14.541000366210938
1787734449885582300,12.561582275390625,25.79800033569336,78.98800659179688,-13.316000938415527
1787734449901723600,12.5777236328125,26.84400177001953,78.43700408935547,-14.3410005569458
1787734449917728800,12.593728759765625,29.402002334594727,78.22300720214844,-14.041000366210938
1787734449933786600,12.60978662109375,27.606000900268555,78.12200164794922,-13.734000205993652
1787734449949819400,12.6258193359375,26.44500160217285,77.91300201416016,-13.530000686645508
1787734449965904100,12.641904052734375,28.20400047302246,76.21700286865234,-11.918000221252441
1787734449982053000,12.65805322265625,24.99700164794922,77.29000091552734,-12.210000991821289
1787734449998021000,12.674021240234374,28.422000885009766,74.81500244140625,-12.542000770568848
1787734450014092800,12.6900927734375,27.0260009765625,75.24100494384766,-12.944000244140625
1787734450030131500,12.70613134765625,27.843000411987305,75.06800079345703,-9.788000106811523
1787734450046226000,12.722225830078125,27.501001358032227,74.406005859375,-11.220000267028809
1787734450062388500,12.738388427734375,29.959001541137695,73.43900299072266,-11.130000114440918
1787734450078359800,12.75435986328125,28.89000129699707,73.3280029296875,-11.53700065612793
1787734450094435600,12.770435546875,30.48200225830078,73.21700286865234,-11.642000198364258
1787734450110481000,12.78648095703125,29.006000518798828,73.11700439453125,-11.233000755310059
1787734450126580000,12.802580078125,27.81100082397461,73.21100616455078,-12.351000785827637
1787734450142743300,12.818743408203124,29.762001037597656,72.36700439453125,-11.13900089263916
1787734450158716400,12.83471630859375,28.683000564575195,73.11500549316406,-11.437000274658203
1787734450174805800,12.8508056640625,31.067001342773438,71.9520034790039,-10.02400016784668
1787734450190797800,12.8667978515625,29.863000869750977,72.2560043334961,-11.446000099182129
1787734450206880300,12.88288037109375,28.395000457763672,71.18900299072266,-11.249000549316406
1787734450223045000,12.899045166015625,28.709001541137695,72.375,-10.730000495910645
1787734450239044000,12.915044189453125,29.12700080871582,71.5060043334961,-11.553000450134277
1787734450255101000,12.931100830078124,29.030000686645508,71.18700408935547,-11.35200023651123
1787734450271130400,12.94713037109375,28.82900047302246,70.87000274658203,-11.04900074005127
1787734450287204400,12.963204345703126,27.090002059936523,71.17200469970703,-12.67400074005127
1787734450303344600,12.9793447265625,28.761001586914062,70.24500274658203,-9.730000495910645
1787734450319344000,12.99534423828125,28.59200096130371,71.8280029296875,-11.550000190734863
1787734450335405000,13.011405029296874,27.402000427246094,72.57300567626953,-12.051000595092773
1787734450351414300,13.027414306640624,27.684001922607422,71.21000671386719,-9.822000503540039
1787734450367482600,13.043482666015626,27.411001205444336,71.2820053100586,-12.470000267028809
1787734450383632100,13.059632080078124,25.19900131225586,70.64700317382812,-12.065000534057617
1787734450399629300,13.07562939453125,27.63500213623047,70.42400360107422,-12.47800064086914
1787734450415684900,13.091684814453124,26.827001571655273,67.96400451660156,-12.193000793457031
1787734450431710700,13.107710693359374,28.38800048828125,69.7800064086914,-12.484000205993652
1787734450447795000,13.123794921875,26.498001098632812,67.5260009765625,-12.909000396728516
1787734450463953000,13.139952880859376,25.884000778198242,66.677001953125,-12.407000541687012
1787734450479967700,13.1559677734375,26.124000549316406,65.18000030517578,-12.11500072479248
1787734450496047000,13.172047119140625,26.63300132751465,65.49000549316406,-12.927000999450684
1787734450512093000,13.188093017578124,25.873001098632812,65.04900360107422,-13.949000358581543
1787734450528176400,13.20417626953125,28.315000534057617,64.72100067138672,-14.159000396728516
1787734450544337000,13.2203369140625,27.022001266479492,66.22400665283203,-14.042000770568848
1787734450560311800,13.236311767578124,26.893001556396484,66.7509994506836,-14.750000953674316
1787734450576392200,13.25239208984375,26.310001373291016,65.16300201416016,-13.337000846862793
1787734450592441300,13.26844140625,27.235000610351562,66.22400665283203,-14.042000770568848
1787734450608545500,13.284545654296876,28.073001861572266,65.89200592041016,-14.759000778198242
1787734450624720600,13.300720703125,27.316001892089844,66.53300476074219,-14.956000328063965
1787734450640696800,13.31669677734375,28.295001983642578,67.84200286865234,-13.112000465393066
1787734450656742100,13.3327421875,27.617000579833984,66.6300048828125,-15.669000625610352
1787734450672737800,13.34873779296875,27.816001892089844,67.91900634765625,-15.454000473022461
1787734450688837000,13.364837158203125,30.376001358032227,67.27300262451172,-15.361001014709473
1787734450705013000,13.381012939453125,30.58700180053711,67.7040023803711,-15.154000282287598
1787734450721000000,13.397,29.941001892089844,68.02400207519531,-15.35400104522705
1787734450737095400,13.413095458984374,27.091001510620117,66.95800018310547,-15.258000373840332
1787734450753095400,13.429095458984374,29.31100082397461,68.13800048828125,-14.945000648498535
1787734450769210000,13.445210205078125,28.00200080871582,68.33500671386719,-16.367000579833984
1787734450785400300,13.461400390625,28.93600082397461,70.58900451660156,-15.941000938415527
1787734450801396500,13.477396484375,27.541000366210938,69.82600402832031,-17.067001342773438
1787734450817449000,13.493448974609375,29.025001525878906,68.85000610351562,-17.790000915527344
1787734450833487400,13.5094873046875,28.934001922607422,69.72400665283203,-16.560001373291016
1787734450849564700,13.525564697265626,29.979001998901367,69.81999969482422,-17.27400016784668
1787734450865705000,13.541705078125,27.338001251220703,69.50800323486328,-16.86600112915039
1787734450881719000,13.557718994140625,27.534000396728516,69.17400360107422,-17.786001205444336
1787734450897786000,13.5737861328125,27.546001434326172,67.66800689697266,-18.20600128173828
1787734450913826000,13.589825927734376,27.32900047302246,67.99000549316406,-18.203001022338867
1787734450929904600,13.605904541015626,26.49700164794922,68.21800231933594,-17.283000946044922
1787734450946055400,13.622055419921875,26.470001220703125,67.87700653076172,-18.71200180053711
1787734450962054400,13.638054443359374,27.024002075195312,66.0530014038086,-18.83100128173828
1787734450978102800,13.654102783203125,25.41900062561035,66.26399993896484,-19.235000610351562
1787734450994123300,13.670123291015624,26.049001693725586,64.96200561523438,-20.368000030517578
1787734451010202600,13.68620263671875,24.968000411987305,66.35700225830078,-20.354000091552734
1787734451026360300,13.7023603515625,25.86400032043457,65.62700653076172,-18.73200035095215
1787734451042367000,13.718366943359374,24.095001220703125,67.20899963378906,-20.85500144958496
1787734451058428200,13.73442822265625,25.512001037597656,66.2560043334961,-19.84600067138672
1787734451074467000,13.750467041015625,26.588001251220703,65.39800262451172,-19.753000259399414
1787734451090560000,13.76656005859375,25.724000930786133,64.95800018310547,-20.67300033569336
1787734451106726100,13.78272607421875,25.600000381469727,65.59600067138672,-21.07400131225586
1787734451122700800,13.79870068359375,23.569000244140625,66.3479995727539,-21.167001724243164
1787734451138781700,13.81478173828125,25.540000915527344,64.0040054321289,-19.968000411987305
1787734451154774300,13.830774169921876,25.898000717163086,65.36800384521484,-22.09600067138672
1787734451170837000,13.8468369140625,25.202001571655273,64.7490005493164,-20.368000030517578
1787734451186975700,13.862975830078126,25.269001007080078,65.48100280761719,-21.68600082397461
1787734451202963000,13.878962890625,28.293001174926758,64.427001953125,-20.07000160217285
1787734451219014700,13.8950146484375,28.07200050354004,64.5300064086914,-20.374000549316406
1787734451235035000,13.911034912109375,27.53900146484375,63.557003021240234,-21.095001220703125
1787734451251113200,13.92711328125,25.547000885009766,64.54800415039062,-19.352001190185547
1787734451267258000,13.943258056640625,27.200000762939453,65.0580062866211,-21.08100128173828
1787734451283268000,13.95926806640625,26.692001342773438,66.15399932861328,-19.339000701904297
1787734451299329000,13.9753291015625,27.54400062561035,65.8290023803711,-19.44500160217285
1787734451315344000,13.99134375,25.524002075195312,66.1550064086914,-19.338001251220703
1787734451331423000,14.007423095703125,24.996000289916992,65.94200134277344,-19.339000701904297
1787734451347563000,14.02356298828125,24.625001907348633,66.7750015258789,-21.165000915527344
1787734451363568400,14.039568359375,24.975000381469727,67.98200225830078,-19.01500129699707
1787734451379630000,14.055630126953124,26.032001495361328,68.19400024414062,-19.117000579833984
1787734451395671600,14.071671630859376,24.73600196838379,68.39900207519531,-19.928001403808594
1787734451411761000,14.087760986328124,24.31300163269043,69.48100280761719,-19.205001831054688
1787734451427911200,14.1039111328125,26.409000396728516,70.32600402832031,-19.913000106811523
1787734451443883000,14.119883056640624,23.393001556396484,71.2770004272461,-21.225000381469727
1787734451459957000,14.13595703125,23.427001953125,71.08200073242188,-19.801000595092773
1787734451476002300,14.152002197265626,24.762001037597656,73.42900085449219,-20.393001556396484
1787734451492098000,14.16809814453125,22.647001266479492,73.43800354003906,-19.983001708984375
1787734451508259800,14.184259765625,23.538002014160156,76.10000610351562,-21.183000564575195
1787734451524234800,14.20023486328125,23.007001876831055,76.96500396728516,-20.665000915527344
1787734451540312600,14.2163125,22.426000595092773,79.74500274658203,-21.14900016784668
1787734451556359000,14.23235888671875,22.37700080871582,80.68800354003906,-22.7710018157959
1787734451572460000,14.2484599609375,20.119001388549805,83.052001953125,-22.543001174926758
1787734451588621600,14.26462158203125,22.46000099182129,81.86300659179688,-23.066001892089844
1787734451604617500,14.280617431640625,22.601001739501953,85.17000579833984,-24.158000946044922
1787734451620712700,14.296712646484375,22.000001907348633,88.26200103759766,-25.352001190185547
1787734451636728600,14.312728515625,20.99700164794922,88.23500061035156,-27.490001678466797
1787734451652843500,14.328843505859375,21.71500015258789,89.94700622558594,-27.578001022338867
1787734451669013000,14.345012939453126,20.37900161743164,91.10100555419922,-29.60300064086914
1787734451685002800,14.361002685546875,24.045001983642578,94.09000396728516,-29.989002227783203
1787734451701103000,14.37710302734375,23.85700035095215,95.87800598144531,-32.52000045776367
1787734451717103900,14.393103759765625,23.196001052856445,95.97300720214844,-33.53700256347656
1787734451733201200,14.409201171875,25.157001495361328,97.23200225830078,-35.26000213623047
1787734451749380000,14.425380126953126,22.871000289916992,97.85000610351562,-37.3910026550293
1787734451765361000,14.44136083984375,23.444000244140625,100.51200103759766,-38.59000015258789
1787734451781397000,14.45739697265625,23.841001510620117,99.19800567626953,-40.6400032043457
1787734451797408000,14.473407958984374,28.064001083374023,98.31200408935547,-42.28300094604492
1787734451813539000,14.4895390625,24.790000915527344,101.28900146484375,-44.3910026550293
1787734451829728300,14.505728271484376,27.72800064086914,101.4800033569336,-45.820003509521484
1787734451845740800,14.52174072265625,26.191001892089844,103.1810073852539,-47.025001525878906
1787734451861803000,14.537802978515625,25.32600212097168,102.3080062866211,-48.25400161743164
1787734451877817000,14.553817138671874,27.306001663208008,103.90300750732422,-48.95600128173828
1787734451893864000,14.569864013671875,27.180002212524414,103.35100555419922,-50.18300247192383
1787734451910018800,14.586018798828125,26.93800163269043,103.00900268554688,-51.7130012512207
1787734451925997800,14.601997802734376,28.683000564575195,103.72600555419922,-53.95000076293945
1787734451942068500,14.618068359375,30.58700180053711,102.96200561523438,-54.77400207519531
1787734451958112500,14.634112548828124,26.623001098632812,104.35200500488281,-55.470001220703125
1787734451974200600,14.65020068359375,27.101001739501953,106.69700622558594,-56.36700439453125
1787734451990354000,14.66635400390625,27.70100212097168,105.0530014038086,-59.031002044677734
1787734452006325800,14.68232568359375,27.8070011138916,104.94400787353516,-59.134002685546875
1787734452022406700,14.69840673828125,27.110000610351562,105.98900604248047,-61.16100311279297
1787734452038473700,14.7144736328125,30.899002075195312,105.42300415039062,-63.00400161743164
1787734452054573600,14.730573486328124,29.30000114440918,103.5840072631836,-64.44499969482422
1787734452070740500,14.746740478515624,30.46200180053711,104.01100158691406,-64.44200134277344
1787734452086728700,14.762728759765626,29.522001266479492,105.47000122070312,-67.58600616455078
1787734452102814700,14.778814697265625,30.703001022338867,102.88300323486328,-68.6290054321289
1787734452118823400,14.794823486328125,29.952001571655273,102.77100372314453,-69.03700256347656
1787734452134899200,14.810899169921875,30.027002334594727,103.07600402832031,-70.25700378417969
1787734452151042000,14.8270419921875,29.66900062561035,102.62100219726562,-72.29700469970703
1787734452167035100,14.84303515625,31.505001068115234,100.36700439453125,-72.31999969482422
1787734452183129600,14.859129638671876,28.902000427246094,100.33800506591797,-74.76100158691406
1787734452199153400,14.8751533203125,30.796001434326172,99.78400421142578,-75.88899993896484
1787734452215232500,14.891232421875,27.961000442504883,98.94400787353516,-74.97600555419922
1787734452231372000,14.9073720703125,28.98400115966797,98.16200256347656,-77.22600555419922
1787734452247369700,14.92336962890625,31.44500160217285,96.9800033569336,-77.13700103759766
1787734452263423000,14.939423095703125,29.435001373291016,96.23200225830078,-77.24300384521484
1787734452279454500,14.955454345703124,29.489002227783203,95.44300079345703,-80.10200500488281
1787734452295537000,14.971536865234375,28.751001358032227,94.04300689697266,-80.72500610351562
1787734452311685400,14.987685302734375,27.700000762939453,92.43000793457031,-81.24700164794922
1787734452327694300,15.0036943359375,29.913002014160156,92.84800720214844,-81.7560043334961
1787734452343761700,15.01976171875,28.250001907348633,91.25200653076172,-81.1570053100586
1787734452359804000,15.035803955078125,28.856000900268555,89.71900177001953,-83.51400756835938
1787734452375897300,15.0518974609375,26.117000579833984,89.62800598144531,-82.59400177001953
1787734452392052500,15.068052490234376,30.0210018157959,90.58000183105469,-83.10000610351562
1787734452408025000,15.084025146484375,27.814001083374023,88.22000122070312,-83.5260009765625
1787734452424097000,15.100096923828126,27.906002044677734,88.96700286865234,-83.72300720214844
1787734452440138000,15.116137939453125,27.174001693725586,87.46300506591797,-84.14300537109375
1787734452456231000,15.13223095703125,28.55000114440918,86.80900573730469,-84.76100158691406
1787734452472391200,15.14839111328125,28.341001510620117,86.59500122070312,-84.76300048828125
1787734452488372500,15.16437255859375,27.268001556396484,85.0770034790039,-86.20100402832031
1787734452504454000,15.180453857421876,26.851001739501953,85.51500701904297,-85.58600616455078
1787734452520507000,15.1965068359375,25.24100112915039,84.4260025024414,-87.01900482177734
1787734452536606000,15.21260595703125,26.84200096130371,83.99600219726562,-86.92300415039062
1787734452552775400,15.228775390625,24.935001373291016,84.00200653076172,-86.71700286865234
1787734452568759600,15.244759521484376,24.444000244140625,81.10900115966797,-86.74200439453125
1787734452584840200,15.260840087890625,24.402000427246094,82.16500091552734,-87.95500183105469
1787734452600851000,15.276850830078125,25.152000427246094,82.70800018310547,-87.34000396728516
1787734452616950000,15.292949951171876,25.389001846313477,80.88500213623047,-87.35600280761719
1787734452633150000,15.30914990234375,22.887001037597656,78.86400604248047,-86.5560073852539
1787734452649131800,15.3251318359375,24.681001663208008,79.39400482177734,-86.75800323486328
1787734452665219000,15.341218994140625,24.240001678466797,78.73700714111328,-87.88300323486328
1787734452681229000,15.35722900390625,25.655000686645508,76.37800598144531,-87.80400085449219
1787734452697352000,15.37335205078125,24.142000198364258,77.77000427246094,-88.09500122070312
1787734452713547000,15.389547119140625,25.51700210571289,76.35900115966797,-89.2300033569336
1787734452729539600,15.40553955078125,24.37900161743164,76.05500030517578,-88.11100769042969
1787734452745595600,15.421595703125,23.315000534057617,76.3790054321289,-88.0050048828125
1787734452761623600,15.43762353515625,23.767000198364258,76.17900085449219,-86.88700103759766
1787734452777713000,15.453712890625,23.315000534057617,75.83900451660156,-88.31500244140625
1787734452793869300,15.469869384765625,23.006000518798828,76.27799987792969,-87.59800720214844
1787734452809883000,15.4858828125,23.52400016784668,76.26900482177734,-88.21000671386719
1787734452825953000,15.501953125,23.34200096130371,75.85600280761719,-87.09300231933594
1787734452841997000,15.5179970703125,21.51300048828125,75.3030014038086,-88.52100372314453
1787734452858089000,15.5340888671875,21.9320011138916,75.4070053100586,-88.72500610351562
1787734452874248700,15.550248779296876,22.190000534057617,75.54300689697266,-86.58500671386719
1787734452890220300,15.56622021484375,24.71900177001953,75.09500122070312,-87.71200561523438
1787734452906298400,15.58229833984375,20.900001525878906,75.53500366210938,-87.29600524902344
1787734452922349600,15.598349609375,23.637001037597656,75.6240005493164,-88.31700134277344
1787734452938456600,15.61445654296875,22.801000595092773,74.44500732421875,-88.42900085449219
1787734452954621700,15.63062158203125,21.87900161743164,74.46700286865234,-86.89900207519531
1787734452970597600,15.64659765625,23.796001434326172,72.6300048828125,-87.83500671386719
1787734452986682000,15.66268212890625,23.442001342773438,74.33800506591797,-88.3290023803711
1787734453002693400,15.678693359375,22.530000686645508,74.1500015258789,-86.49500274658203
1787734453018805200,15.69480517578125,22.643001556396484,73.83000183105469,-86.39700317382812
1787734453034951400,15.710951416015625,23.806001663208008,73.06800079345703,-87.11800384521484
1787734453050949600,15.72694970703125,21.711000442504883,72.44100189208984,-86.2040023803711
1787734453083071700,15.75907177734375,23.522001266479492,70.06400299072266,-87.45000457763672
1787734453099152100,15.775152099609375,23.73000144958496,71.35800170898438,-86.8270034790039
1787734453115309800,15.791309814453125,23.862001419067383,69.31999969482422,-86.94700622558594
1787734453131272200,15.807272216796875,23.424001693725586,69.42100524902344,-87.45500183105469
1787734453147323600,15.82332373046875,24.389001846313477,68.7760009765625,-87.46200561523438
1787734453163328500,15.83932861328125,23.12200164794922,68.89100646972656,-87.052001953125
1787734453179408000,15.855407958984374,24.110000610351562,68.04400634765625,-86.14400482177734
1787734453195550500,15.871550537109375,21.530000686645508,68.35400390625,-87.36000061035156
1787734453211558400,15.887558349609375,21.559001922607422,67.93900299072266,-86.34500122070312
1787734453227618000,15.9036181640625,21.91400146484375,65.47400665283203,-86.26600646972656
1787734453243642600,15.919642578125,22.073001861572266,66.84700012207031,-87.7820053100586
1787734453259716400,15.93571630859375,23.692001342773438,65.88800048828125,-87.1810073852539
1787734453275856400,15.9518564453125,21.5570011138916,66.42400360107422,-87.37700653076172
1787734453291858200,15.967858154296875,23.46200180053711,67.71400451660156,-86.85900115966797
1787734453307915300,15.983915283203125,22.942001342773438,65.56100463867188,-87.69200134277344
1787734453323940900,15.99994091796875,22.547000885009766,65.5790023803711,-86.36700439453125
1787734453340017200,16.01601708984375,22.203001022338867,65.7800064086914,-87.38400268554688
1787734453356169200,16.032169189453125,23.520000457763672,65.156005859375,-85.86300659179688
1787734453372162000,16.048162109375,22.56300163269043,65.37300109863281,-85.75800323486328
1787734453388207400,16.064207275390626,23.84600067138672,63.7550048828125,-86.38500213623047
1787734453404228600,16.080228515625,24.384000778198242,62.78600311279297,-86.70000457763672
1787734453420297000,16.096296875,22.72800064086914,62.1660041809082,-85.17500305175781
1787734453436448300,16.1124482421875,21.94700050354004,62.901004791259766,-86.39000701904297
1787734453452448800,16.12844873046875,21.211000442504883,62.36600112915039,-86.39400482177734
1787734453468505000,16.144505126953124,20.15300178527832,64.20800018310547,-85.052001953125
1787734453484491300,16.1604912109375,21.545000076293945,63.2390022277832,-85.16400146484375
1787734453500577300,16.176577392578125,18.96500015258789,64.84600067138672,-85.55400085449219
1787734453516736300,16.192736328125,19.826000213623047,63.663002014160156,-85.77000427246094
1787734453532702200,16.2087021484375,19.101001739501953,63.67500305175781,-84.9540023803711
1787734453548784600,16.22478466796875,18.75800132751465,64.30900573730469,-85.66100311279297
1787734453564792000,16.2407919921875,19.533000946044922,63.35400390625,-84.8550033569336
1787734453580894200,16.256894287109375,18.788000106811523,63.78600311279297,-84.64700317382812
1787734453597069800,16.27306982421875,18.08300018310547,62.19000244140625,-83.94700622558594
1787734453613038300,16.289038330078125,18.700000762939453,63.47300338745117,-84.03800201416016
1787734453629111800,16.30511181640625,19.032001495361328,62.29300308227539,-84.1510009765625
1787734453645110800,16.32111083984375,17.650001525878906,61.64500427246094,-84.66400146484375
1787734453661211000,16.3372109375,17.047000885009766,62.74800109863281,-82.41300201416016
1787734453677395700,16.353395751953126,18.492000579833984,62.612003326416016,-84.35100555419922
1787734453693385700,16.3693857421875,16.628000259399414,61.67100143432617,-82.8290023803711
1787734453709416700,16.385416748046875,15.121000289916992,62.525001525878906,-83.22700500488281
1787734453725423600,16.401423583984375,18.32000160217285,61.880001068115234,-83.03300476074219
1787734453741503700,16.417503662109375,14.396000862121582,62.538002014160156,-82.41100311279297
1787734453757648600,16.433648681640626,17.3700008392334,59.83200454711914,-84.06900024414062
1787734453773656800,16.44965673828125,12.495000839233398,61.79000473022461,-82.41500091552734
1787734453789717000,16.465717041015626,14.308000564575195,62.333003997802734,-81.70000457763672
1787734453805752800,16.4817529296875,15.742000579833984,63.37900161743164,-83.42400360107422
1787734453821835300,16.497835205078125,14.056000709533691,63.3900032043457,-82.81100463867188
1787734453837987300,16.5139873046875,13.861001014709473,62.644004821777344,-82.51100158691406
1787734453853955300,16.529955322265625,14.177000999450684,62.967002868652344,-82.4070053100586
1787734453870029800,16.54602978515625,14.707000732421875,63.073001861572266,-82.4070053100586
1787734453886072300,16.562072265625,14.694000244140625,63.49700164794922,-82.7090072631836
1787734453902169600,16.578169677734376,12.595000267028809,63.083003997802734,-81.89500427246094
1787734453918337800,16.594337890625,13.895000457763672,61.368003845214844,-81.81000518798828
1787734453934347800,16.61034765625,13.617000579833984,64.13800048828125,-83.00700378417969
1787734453950418700,16.626418701171875,14.165000915527344,63.3910026550293,-82.7090072631836
1787734453966413000,16.6424130859375,13.414000511169434,63.28000259399414,-83.11600494384766
1787734453982475000,16.65847509765625,13.633000373840332,63.28300476074219,-82.81100463867188
1787734453998617300,16.674617431640623,13.660000801086426,63.30000305175781,-81.58900451660156
1787734454014614000,16.690614013671876,12.76300048828125,64.78500366210938,-82.79700469970703
1787734454030716700,16.706716552734374,12.6850004196167,64.69499969482422,-81.57500457763672
1787734454046719500,16.722719482421876,13.00100040435791,64.36900329589844,-81.88400268554688
1787734454062780400,16.738780517578125,11.954000473022461,63.51400375366211,-81.78800201416016
1787734454078922800,16.7549228515625,11.289000511169434,64.36300659179688,-82.49300384521484
1787734454094908200,16.770908203125,13.621000289916992,64.14100646972656,-82.8030014038086
1787734454110948600,16.786948486328125,12.133000373840332,64.79000091552734,-82.49000549316406
1787734454126973200,16.80297314453125,12.128000259399414,64.78800201416016,-82.69400024414062
1787734454143044600,16.819044677734375,12.606000900268555,62.55000305175781,-81.69600677490234
1787734454159186000,16.83518603515625,11.317000389099121,63.5150032043457,-81.78700256347656
1787734454175188000,16.85118798828125,13.005001068115234,64.8030014038086,-81.47300720214844
1787734454191237600,16.867237548828125,11.307000160217285,65.34700012207031,-81.0580062866211
1787734454207263700,16.883263671875,10.646000862121582,66.30500030517578,-81.5580062866211
1787734454223332000,16.89933203125,13.009000778198242,65.67000579833984,-80.75200653076172
1787734454239477800,16.915477783203126,12.660000801086426,65.22000122070312,-82.38500213623047
1787734454255441700,16.931441650390624,14.056000709533691,66.52400207519531,-80.84700012207031
1787734454271507700,16.9475078125,11.146000862121582,66.71800231933594,-82.6760025024414
1787734454287552500,16.963552490234374,12.566000938415527,65.44400024414062,-81.67000579833984
1787734454303646000,16.97964599609375,12.67300033569336,65.11900329589844,-81.87700653076172
1787734454319800800,16.99580078125,11.372000694274902,67.69900512695312,-81.44500732421875
1787734454335772200,17.011772216796874,11.345000267028809,67.35800170898438,-82.8740005493164
1787734454351843600,17.027843505859376,11.692000389099121,66.94300079345703,-81.85900115966797
1787734454367901000,17.04390087890625,11.476000785827637,67.37300109863281,-81.7540054321289
1787734454383981300,17.059981201171876,11.987000465393066,67.79300689697266,-82.36200714111328
1787734454400144100,17.07614404296875,12.523000717163086,68.11900329589844,-81.9520034790039
1787734454416125000,17.092125,11.36400032043457,67.91100311279297,-81.64700317382812
1787734454432208400,17.10820849609375,11.667000770568848,67.57600402832031,-82.56700134277344
1787734454448232200,17.124232177734374,10.830000877380371,68.99000549316406,-81.12700653076172
1787734454464338700,17.140338623046876,9.867000579833984,68.66300201416016,-81.63800048828125
1787734454480510200,17.15651025390625,12.092000961303711,67.9000015258789,-82.36100769042969
1787734454496499500,17.17249951171875,12.083000183105469,68.21900177001953,-82.56200408935547
1787734454512593400,17.188593505859377,12.82300090789795,68.10800170898438,-82.76700592041016
1787734454528612000,17.204612060546875,12.9350004196167,68.21900177001953,-82.46100616455078
1787734454544731600,17.220731689453125,11.980000495910645,66.49200439453125,-83.49400329589844
1787734454560942300,17.2369423828125,12.507000923156738,67.13700103759766,-83.28500366210938
1787734454576935400,17.252935302734375,13.055000305175781,66.82200622558594,-82.677001953125
1787734454592982800,17.268982666015624,11.672000885009766,66.71500396728516,-82.8800048828125
1787734454609006600,17.285006591796876,13.16100025177002,64.87700653076172,-83.91700744628906
1787734454625124900,17.301124755859377,12.96500015258789,64.99500274658203,-83.10100555419922
1787734454641304800,17.317304931640624,13.922000885009766,65.10200500488281,-82.9990005493164
1787734454657288200,17.3332880859375,14.326000213623047,65.6290054321289,-83.60600280761719
1787734454673331200,17.349331298828126,13.167000770568848,65.96100616455078,-82.99100494384766
1787734454689340000,17.36533984375,12.94800090789795,65.09300231933594,-83.81300354003906
1787734454705405000,17.381405029296875,12.768000602722168,64.24800109863281,-82.90300750732422
1787734454721555500,17.397555419921876,14.046000480651855,63.816001892089844,-83.01100158691406
1787734454737546800,17.413546630859376,13.208000183105469,64.4729995727539,-82.08700561523438
1787734454753596000,17.429595947265625,12.97700023651123,63.16500473022461,-83.7280044555664
1787734454769616000,17.445615966796876,13.223000526428223,62.86100387573242,-82.4070053100586
1787734454785707000,17.46170703125,11.179000854492188,63.820003509521484,-83.00700378417969
1787734454801866000,17.477865966796877,12.985000610351562,63.38600158691406,-83.21700286865234
1787734454817873700,17.493873779296877,12.789000511169434,64.04500579833984,-82.09000396728516
1787734454833944000,17.509944091796875,14.080000877380371,62.97200393676758,-81.9990005493164
1787734454849972500,17.525972412109375,14.006000518798828,61.803001403808594,-81.29700469970703
1787734454866055400,17.542055419921876,12.826000213623047,62.01400375366211,-81.70100402832031
1787734454882218000,17.558218017578124,10.894000053405762,61.57200241088867,-82.92500305175781
1787734454898221600,17.5742216796875,12.608000755310059,61.470001220703125,-82.31600189208984
1787734454914294000,17.5902939453125,13.566000938415527,61.25400161743164,-82.32000732421875
1787734454930313200,17.606313232421876,15.394001007080078,59.64400100708008,-82.33600616455078
1787734454946386700,17.62238671875,13.793000221252441,60.72200393676758,-82.01900482177734
1787734454962523000,17.63852294921875,13.050000190734863,60.50700378417969,-82.12200164794922
1787734454978506000,17.654506103515626,13.474000930786133,60.39800262451172,-82.22500610351562
1787734454994598700,17.6705986328125,10.846000671386719,59.013004302978516,-81.9280014038086
1787734455010605800,17.686605712890625,12.217000961303711,60.95100402832031,-81.09800720214844
1787734455026663400,17.702663330078124,11.79800033569336,59.44200134277344,-81.82400512695312
1787734455042795000,17.718794921875,11.282000541687012,60.316001892089844,-80.59300231933594
1787734455058773000,17.73477294921875,11.788000106811523,61.59800338745117,-80.88800048828125
1787734455074822400,17.750822509765626,11.047000885009766,60.62700271606445,-81.4050064086914
1787734455090844400,17.766844482421874,10.539000511169434,60.3180046081543,-80.59200286865234
1787734455106919700,17.782919677734377,10.315000534057617,61.28400421142578,-80.48200225830078
1787734455123060000,17.79906005859375,11.476000785827637,60.845001220703125,-81.09800720214844
1787734455139067600,17.815067626953127,9.315999984741211,62.66400146484375,-81.58900451660156
1787734455155126800,17.831126708984375,10,61.394004821777344,-80.2760009765625
1787734455171157000,17.847156982421875,11.247000694274902,62.99700164794922,-80.46800231933594
1787734455187232000,17.86323193359375,10.492000579833984,62.019004821777344,-81.59600067138672
1787734455203403500,17.879403564453124,9.53600025177002,62.88500213623047,-81.0780029296875
1787734455219415600,17.89541552734375,11.432000160217285,63.845001220703125,-81.17300415039062
1787734455235485000,17.91148486328125,10.03700065612793,63.94600296020508,-81.7820053100586
1787734455251527000,17.92752685546875,11.104000091552734,63.5160026550293,-81.78700256347656
1787734455267621000,17.94362109375,11.346000671386719,64.5060043334961,-79.84300231933594
1787734455283780000,17.959780029296876,10.354000091552734,63.728004455566406,-81.98800659179688
1787734455299753200,17.975753173828124,10.675000190734863,65.13500213623047,-80.95700073242188
1787734455315827000,17.991826904296875,9.643000602722168,63.85700225830078,-80.45800018310547
1787734455331874800,18.007874755859376,8.736000061035156,65.66100311279297,-81.86700439453125
1787734455347971300,18.023971435546876,9.804000854492188,64.58200073242188,-82.28500366210938
1787734455364140000,18.04014013671875,10.00100040435791,65.22100067138672,-82.58600616455078
1787734455380106000,18.05610595703125,9.343000411987305,67.04700469970703,-82.36500549316406
1787734455396172800,18.0721728515625,9.4660005569458,66.84000396728516,-81.7560043334961
1787734455412157200,18.0881572265625,9.120000839233398,69.09400177001953,-81.5320053100586
1787734455428245800,18.104245849609374,7.960000514984131,69.20899963378906,-81.12200164794922
1787734455444420900,18.1204208984375,9.188000679016113,70.90800476074219,-82.12700653076172
1787734455460393000,18.13639306640625,8.788000106811523,70.92400360107422,-81.0060043334961
1787734455476468500,18.152468505859375,9.725000381469727,70.8030014038086,-81.92500305175781
1787734455492472300,18.168472412109374,7.866000175476074,71.74600219726562,-83.74800109863281
1787734455508579300,18.184579345703124,12.010000228881836,74.44300079345703,-81.89600372314453
1787734455524763600,18.200763671875,9.01300048828125,75.08100128173828,-82.59900665283203
1787734455540743200,18.2167431640625,10.933000564575195,76.3810043334961,-81.36800384521484
1787734455556778500,18.232778564453124,8.909000396728516,77.02799987792969,-81.25800323486328
1787734455572806000,18.248805908203124,8.684000015258789,79.93900299072266,-80.00900268554688
1787734455588923400,18.26492333984375,8.9350004196167,79.09700012207031,-78.79500579833984
1787734455605040000,18.2810400390625,6.77400016784668,80.8070068359375,-79.38800048828125
1787734455621037000,18.297037109375,7.508000373840332,82.96200561523438,-78.4530029296875
1787734455637089800,18.31308984375,5.935000419616699,82.86800384521484,-77.63700103759766
1787734455653100000,18.32910009765625,6.354000091552734,84.26900482177734,-77.01399993896484
1787734455669191400,18.34519140625,4.243000030517578,86.98200225830078,-74.74600219726562
1787734455685337000,18.361337158203124,5.444000244140625,86.89200592041016,-73.32200622558594
1787734455701350400,18.377350341796873,4.12600040435791,89.56900787353516,-73.6030044555664
1787734455717419800,18.393419677734375,4.339000225067139,92.16300201416016,-71.95000457763672
1787734455733462800,18.409462890625,5.648000240325928,91.10200500488281,-71.04400634765625
1787734455749556200,18.42555615234375,5.570000171661377,93.17200469970703,-68.47900390625
1787734455765710300,18.44171044921875,4.747000217437744,93.94600677490234,-66.84200286865234
1787734455781678600,18.4576787109375,4.744000434875488,96.43000793457031,-65.39300537109375
1787734455797758200,18.47375830078125,8.062000274658203,96.87300109863281,-63.96800231933594
1787734455813765400,18.489765380859374,4.3520002365112305,98.39500427246094,-62.72700119018555
1787734455829863700,18.50586376953125,4.609000205993652,96.47700500488281,-61.92900466918945
1787734455846027500,18.522027587890626,5.6080002784729,97.25800323486328,-59.47900390625
1787734455862041000,18.538041015625,3.4930002689361572,98.7800064086914,-58.13900375366211
1787734455878108200,18.554108154296873,4.796000003814697,98.36300659179688,-57.125003814697266
1787734455894099200,18.57009912109375,7.139000415802002,100.84900665283203,-55.27300262451172
1787734455910160100,18.58616015625,6.500000476837158,99.12000274658203,-56.40800094604492
1787734455926300000,18.6022998046875,4.642000198364258,99.37200164794922,-53.85600280761719
1787734455942275000,18.618275146484375,4.8560004234313965,100.4530029296875,-53.134002685546875
1787734455958357800,18.634357666015624,6.183000087738037,100.26600646972656,-50.89600372314453
1787734455974352600,18.6503525390625,5.820000171661377,99.44000244140625,-48.66200256347656
1787734455990422000,18.666422119140623,3.81000018119812,99.8800048828125,-48.044002532958984
1787734456006562800,18.682562744140625,5.535000324249268,101.406005859375,-45.89400100708008
1787734456022553000,18.698552978515625,3.5840001106262207,98.42400360107422,-44.797000885009766
1787734456038603500,18.714603515625,5.741000175476074,99.6290054321289,-42.54800033569336
1787734456054629600,18.730629638671875,6.7300004959106445,98.89100646972656,-41.53700256347656
1787734456070701000,18.746701171875,4.455000400543213,97.74300384521484,-39.50699996948242
1787734456086835700,18.762835693359374,3.2750000953674316,98.81800842285156,-39.39400100708008
1787734456102839800,18.77883984375,7.323000431060791,97.84700775146484,-39.40800094604492
1787734456118897000,18.79489697265625,4.169000148773193,98.19600677490234,-37.770999908447266
1787734456134926600,18.810926513671873,5.692000389099121,96.7030029296875,-37.073001861572266
1787734456151010000,18.827010009765626,6.401000499725342,97.22100830078125,-38.2920036315918
1787734456174913500,18.85091357421875,6.082000255584717,95.01600646972656,-34.94900131225586
1787734456191027500,18.86702734375,8.23799991607666,94.16800689697266,-34.04300308227539
1787734456207225600,18.8832255859375,7.762000560760498,93.98600769042969,-31.70100212097168
1787734456223249200,18.899249267578124,7.3510003089904785,93.1300048828125,-31.606000900268555
1787734456239307000,18.91530712890625,7.265000343322754,92.71000671386719,-30.998001098632812
1787734456255260400,18.931260498046875,7.800000190734863,93.68500518798828,-30.176000595092773
1787734456271448800,18.94744873046875,8.56100082397461,92.72200775146484,-29.981000900268555
1787734456287573000,18.963572998046875,9.255000114440918,91.89100646972656,-27.952001571655273
1787734456303449600,18.97944970703125,8.572999954223633,90.3070068359375,-26.23400115966797
1787734456319607300,18.995607177734374,10.030000686645508,91.26000213623047,-26.940000534057617
1787734456335680000,19.011679931640625,9.25,89.57400512695312,-24.917001724243164
1787734456351733200,19.027733154296875,11.154000282287598,90.21500396728516,-24.812000274658203
1787734456367852800,19.043852783203125,9.38700008392334,88.94400787353516,-23.904001235961914
1787734456383837400,19.05983740234375,9.111000061035156,88.21400451660156,-22.48400115966797
1787734456399917600,19.07591748046875,11.87700080871582,87.02400207519531,-23.007001876831055
1787734456416006400,19.09200634765625,10.857000350952148,85.32100677490234,-22.20600128173828
1787734456432072400,19.108072509765623,10.346000671386719,85.33500671386719,-21.288000106811523
1787734456456156400,19.132156494140624,11.11500072479248,84.48400115966797,-20.68600082397461
1787734456472264700,19.1482646484375,12.293000221252441,83.40800476074219,-20.900001525878906
1787734456488442400,19.1644423828125,9.744000434875488,82.43900299072266,-21.517000198364258
1787734456504435700,19.180435791015626,12.19800090789795,81.2540054321289,-21.73400115966797
1787734456520533000,19.196532958984374,12.155000686645508,80.31900024414062,-19.501001358032227
1787734456536533000,19.212532958984376,12.668000221252441,79.65900421142578,-20.73000144958496
1787734456552650800,19.228650634765625,13.748001098632812,79.02000427246094,-20.330001831054688
1787734456568836900,19.2448369140625,14.408000946044922,79.79000091552734,-18.796001434326172
1787734456584836000,19.260836181640624,12.189000129699707,78.07000732421875,-19.41900062561035
1787734456600888600,19.276888671875,14.817000389099121,78.48200225830078,-20.336000442504883
1787734456616915000,19.2929150390625,13.28800106048584,77.01000213623047,-18.411001205444336
1787734456632992500,19.308992431640625,13.590001106262207,77.86400604248047,-18.608001708984375
1787734456649136600,19.32513671875,11.788000106811523,77.11300659179688,-18.918001174926758
1787734456665101800,19.341101806640626,13.634000778198242,74.32500457763672,-18.843000411987305
1787734456681171500,19.35717138671875,13.849000930786133,75.29900360107422,-18.12200164794922
1787734456697234000,19.37323388671875,14.694000244140625,75.83500671386719,-18.016000747680664
1787734456713328000,19.389328125,14.268000602722168,74.21400451660156,-19.049001693725586
1787734456729485800,19.40548583984375,13.635000228881836,74.75800323486328,-18.534000396728516
1787734456745452800,19.421452880859373,14.816000938415527,75.30400085449219,-17.613000869750977
1787734456761529900,19.43752978515625,16.16699981689453,74.96000671386719,-19.1460018157959
1787734456777580500,19.45358056640625,14.248001098632812,74.2020034790039,-19.96500015258789
1787734456793681700,19.469681640625,14.724000930786133,75.42100524902344,-16.89900016784668
1787734456809849600,19.485849609375,16.196001052856445,74.86900329589844,-17.92500114440918
1787734456825856500,19.5018564453125,15.999000549316406,73.906005859375,-17.83100128173828
1787734456841901000,19.517901123046876,13.884000778198242,72.29400634765625,-18.45400047302246
1787734456857913600,19.53391357421875,13.41100025177002,74.64300537109375,-19.1460018157959
1787734456873984500,19.549984619140623,13.965001106262207,75.08800506591797,-17.81800079345703
1787734456890122000,19.5661220703125,16.73200035095215,74.6550064086914,-17.825000762939453
1787734456906114800,19.58211474609375,13.40000057220459,75.06900024414062,-19.345001220703125
1787734456922168000,19.59816796875,14.467000961303711,75.1780014038086,-19.040000915527344
1787734456938191400,19.61419140625,14.083001136779785,75.09500122070312,-17.30900001525879
1787734456954268200,19.63026806640625,12.97900104522705,74.96300506591797,-19.244001388549805
