time,seconds_elapsed,z,y,x
1787734437467911000,0.143910888671875,-149.0830078125,-14.342000961303711,95.41000366210938
1787734437484082000,0.16008203125,-120.28400421142578,4.065000057220459,89.01600646972656
1787734437500279800,0.17627978515625,-121.35100555419922,4.28000020980835,88.91800689697266
1787734437516006700,0.192006591796875,-121.65200805664062,5.4800004959106445,90.45700073242188
1787734437532076000,0.208075927734375,-120.16600799560547,3.5320000648498535,89.21500396728516
1787734437548262100,0.22426220703125,-122.19300842285156,4.718000411987305,89.53400421142578
1787734437564220700,0.240220703125,-119.86300659179688,5.467000484466553,89.74100494384766
1787734437580481000,0.25648095703125,-121.12600708007812,4.719000339508057,89.73600769042969
1787734437596282000,0.2722822265625,-122.59700775146484,4.082000255584717,90.03800201416016
1787734437612347100,0.28834716796875,-121.9530029296875,3.761000156402588,90.13600158691406
1787734437628529000,0.30452880859375,-121.42800903320312,4.838000297546387,90.552001953125
1787734437644453000,0.320453125,-119.64900207519531,5.360000133514404,89.74000549316406
1787734437660776000,0.33677587890625,-120.6760025024414,4.193000316619873,90.54600524902344
1787734437676547000,0.352547119140625,-120.70500946044922,5.148000240325928,89.84100341796875
1787734437693067500,0.369067626953125,-119.74000549316406,5.261000156402588,90.35000610351562
1787734437708847900,0.384847900390625,-118.77700805664062,4.724000453948975,90.34400177001953
1787734437724740400,0.400740234375,-120.17100524902344,4.609000205993652,89.63200378417969
1787734437741084700,0.417084716796875,-119.96600341796875,5.253000259399414,89.73900604248047
1787734437756974300,0.432974365234375,-119.00100708007812,5.25700044631958,90.14600372314453
1787734437773022500,0.4490224609375,-120.06800842285156,4.175000190734863,89.22100067138672
1787734437789191000,0.46519091796875,-120.4840087890625,4.505000114440918,89.83500671386719
1787734437805042200,0.481042236328125,-120.04600524902344,3.864000082015991,90.03300476074219
1787734437821380600,0.497380615234375,-123.21800231933594,4.4170002937316895,90.9580078125
1787734437837151000,0.51315087890625,-120.24400329589844,3.9810001850128174,90.74700164794922
1787734437853225500,0.5292255859375,-121.08900451660156,3.3370001316070557,90.53900146484375
1787734437869529900,0.54552978515625,-122.52700805664062,5.033000469207764,89.02800750732422
1787734437885426200,0.56142626953125,-120.04200744628906,3.434000253677368,89.927001953125
1787734437901709600,0.57770947265625,-122.06600952148438,4.406000137329102,90.24400329589844
1787734437917434600,0.5934345703125,-122.2610092163086,4.4170002937316895,91.05900573730469
1787734437933560300,0.609560302734375,-121.75700378417969,3.427000045776367,89.21600341796875
1787734437950235400,0.6262353515625,-120.81700897216797,5.902000427246094,90.052001953125
1787734437965766000,0.641765869140625,-120.3580093383789,3.760000228881836,90.23600769042969
1787734437981981700,0.657981689453125,-120.12100219726562,3.451000213623047,91.1500015258789
1787734437997682000,0.673681884765625,-120.19600677490234,5.891000270843506,89.33800506591797
1787734438013854500,0.6898544921875,-121.5110092163086,3.6630001068115234,90.84800720214844
1787734438030086400,0.70608642578125,-120.6830062866211,3.8650002479553223,90.03400421142578
1787734438046012700,0.7220126953125,-120.9310073852539,5.141000270843506,89.2300033569336
1787734438062294000,0.7382939453125,-120.49800872802734,4.713000297546387,89.3280029296875
1787734438078027000,0.754027099609375,-119.54700469970703,4.384000301361084,88.91600799560547
1787734438094107100,0.770107177734375,-121.76200866699219,4.937000274658203,89.94300079345703
1787734438110400800,0.78640087890625,-121.2300033569336,3.2080001831054688,88.90800476074219
1787734438126332000,0.802331787109375,-121.73800659179688,3.871000289916992,90.34100341796875
1787734438142656500,0.818656494140625,-120.25200653076172,4.7330002784729,90.85600280761719
1787734438158383400,0.83438330078125,-121.8550033569336,4.621000289916992,90.34700775146484
1787734438174466600,0.850466552734375,-121.01800537109375,3.747000217437744,89.21800231933594
1787734438190747000,0.866746826171875,-119.85700225830078,5.363000392913818,89.94400787353516
1787734438207080700,0.883080810546875,-120.23200225830078,3.124000072479248,90.73900604248047
1787734438223444000,0.89944384765625,-119.86300659179688,5.359000205993652,89.63800048828125
1787734438238906600,0.91490673828125,-120.4800033569336,4.075000286102295,89.7300033569336
1787734438255551000,0.931551025390625,-120.38300323486328,4.394000053405762,89.52900695800781
1787734438271530000,0.947530029296875,-120.05500793457031,3.5340001583099365,89.41900634765625
1787734438287306800,0.963306640625,-120.89100646972656,4.517000198364258,90.6510009765625
1787734438303686400,0.979686279296875,-118.03900909423828,4.827000141143799,90.14100646972656
1787734438319332900,0.995332763671875,-121.12500762939453,5.800000190734863,90.4590072631836
1787734438335427600,1.011427490234375,-121.22000885009766,4.835000038146973,90.34800720214844
1787734438351770600,1.0277705078125,-120.06500244140625,4.285000324249268,89.42500305175781
1787734438367742000,1.043741943359375,-120.4850082397461,5.585000038146973,90.45600128173828
1787734438384011800,1.06001171875,-121.52300262451172,5.169000148773193,91.26900482177734
1787734438399876400,1.07587646484375,-120.39600372314453,6.331000328063965,90.1570053100586
1787734438415763200,1.09176318359375,-121.02300262451172,6.770000457763672,90.87500762939453
1787734438432096000,1.108095947265625,-120.81900787353516,6.549000263214111,90.36300659179688
1787734438448173300,1.12417333984375,-120.60400390625,6.658000469207764,90.56700134277344
1787734438464380200,1.140380126953125,-120.52000427246094,6.429000377655029,89.44500732421875
1787734438480489500,1.156489501953125,-120.83500671386719,6.215000152587891,89.44300079345703
1787734438496438500,1.1724384765625,-119.1050033569336,4.934000015258789,90.04100799560547
1787734438512977400,1.188977294921875,-120.1820068359375,5.89900016784668,89.94900512695312
1787734438528477000,1.204476806640625,-120.51400756835938,6.973000526428223,90.06100463867188
1787734438545092600,1.221092529296875,-120.62100219726562,6.86400032043457,89.9580078125
1787734438560569000,1.236569091796875,-118.81400299072266,6.1060004234313965,89.54200744628906
1787734438576646000,1.25264599609375,-118.90300750732422,5.684000492095947,90.04700469970703
1787734438592874500,1.26887451171875,-119.87100219726562,6.219000339508057,89.85000610351562
1787734438608805400,1.284805419921875,-121.88200378417969,4.821000099182129,89.22900390625
1787734438625281000,1.301281005859375,-120.39800262451172,6.11400032043457,89.95100402832031
1787734438641061000,1.31706103515625,-120.72200775146484,6.327000141143799,89.85200500488281
1787734438657246000,1.333245849609375,-121.5780029296875,6.973000526428223,89.96000671386719
1787734438673276400,1.3492763671875,-119.84000396728516,7.318000316619873,91.89700317382812
1787734438689247500,1.36524755859375,-121.03800201416016,6.005000114440918,89.74700164794922
1787734438705545500,1.38154541015625,-120.50200653076172,5.7910003662109375,89.84700775146484
1787734438721207600,1.39720751953125,-119.67500305175781,7.073000431060791,89.65300750732422
1787734438737465600,1.413465576171875,-120.81900787353516,6.657000541687012,90.46600341796875
1787734438753606000,1.42960595703125,-121.76400756835938,6.2330002784729,90.66700744628906
1787734438769588000,1.445587890625,-120.54500579833984,7.278000354766846,88.84100341796875
1787734438786027000,1.462027099609375,-120.71600341796875,7.4110002517700195,90.77800750732422
1787734438801595600,1.477595703125,-121.16800689697266,8.693000793457031,90.38200378417969
1787734438818180000,1.49418017578125,-120.62400817871094,7.619000434875488,90.27000427246094
1787734438833983000,1.50998291015625,-121.71100616455078,8.57800006866455,89.77100372314453
1787734438849905700,1.52590576171875,-119.57400512695312,7.934000492095947,89.96600341796875
1787734438866354700,1.542354736328125,-119.46200561523438,7.397000312805176,89.85900115966797
1787734438882043100,1.558043212890625,-120.41100311279297,7.403000354766846,90.16600799560547
1787734438898047500,1.574047607421875,-121.49400329589844,9.121000289916992,90.28500366210938
1787734438914270700,1.590270751953125,-120.64800262451172,9.009000778198242,90.0790023803711
1787734438930334200,1.606334228515625,-121.18400573730469,7.386000156402588,88.84300231933594
1787734438946527000,1.62252685546875,-121.15800476074219,8.157999992370605,90.4800033569336
1787734438962340600,1.638340576171875,-121.27400207519531,8.369000434875488,90.1760025024414
1787734438978412800,1.654412841796875,-120.02800750732422,8.242000579833984,88.84900665283203
1787734438994598100,1.67059814453125,-118.53300476074219,7.812000274658203,88.94500732421875
1787734439010678500,1.686678466796875,-119.56400299072266,7.40000057220459,90.06300354003906
1787734439026908400,1.702908447265625,-118.52800750732422,8.138999938964844,89.3550033569336
1787734439042638300,1.718638427734375,-120.87500762939453,8.893000602722168,89.36500549316406
1787734439058586400,1.73458642578125,-120.22000885009766,8.579000473022461,89.97300720214844
1787734439075294200,1.751294189453125,-119.13900756835938,8.04800033569336,90.47600555419922
1787734439090829800,1.766829833984375,-120.9580078125,9.555000305175781,90.79700469970703
1787734439107224300,1.783224365234375,-119.49700927734375,8.131999969482422,88.74500274658203
1787734439123085600,1.79908544921875,-121.29600524902344,8.463000297546387,89.26000213623047
1787734439138969300,1.81496923828125,-118.93900299072266,8.472000122070312,90.17400360107422
1787734439155255300,1.83125537109375,-120.4540023803711,8.348999977111816,88.85000610351562
1787734439171183400,1.847183349609375,-120.96300506591797,8.255000114440918,89.76700592041016
1787734439187483000,1.86348291015625,-121.49700927734375,8.68600082397461,89.87300109863281
1787734439203256300,1.87925634765625,-120.14300537109375,8.56100082397461,88.64800262451172
1787734439219460000,1.895460205078125,-119.3810043334961,8.246000289916992,89.2560043334961
1787734439235682800,1.911682861328125,-120.21900939941406,8.363000869750977,89.86900329589844
1787734439251479600,1.9274794921875,-118.52300262451172,7.277000427246094,89.04200744628906
1787734439267779600,1.943779541015625,-119.59800720214844,8.028000831604004,88.94800567626953
1787734439283527000,1.95952685546875,-119.38400268554688,8.785000801086426,89.46400451660156
1787734439299601700,1.9756015625,-121.17500305175781,7.716000556945801,89.45700073242188
1787734439316006000,1.992005859375,-120.09700775146484,6.75100040435791,89.54900360107422
1787734439332313600,2.008313720703125,-120.49900817871094,8.38700008392334,91.60100555419922
1787734439348184000,2.02418408203125,-119.36500549316406,7.067000389099121,89.24500274658203
1787734439364039000,2.040038818359375,-121.99800872802734,6.652000427246094,89.9580078125
1787734439380273400,2.0562734375,-119.3860092163086,6.406000137329102,87.91500091552734
1787734439396413700,2.07241357421875,-120.40100860595703,6.544000148773193,90.0570068359375
1787734439412233700,2.088233642578125,-119.37300872802734,8.467000007629395,89.76700592041016
1787734439428608000,2.10460791015625,-120.50000762939453,5.360000133514404,89.63900756835938
1787734439444413200,2.1204130859375,-121.2330093383789,5.908000469207764,90.46000671386719
1787734439460478200,2.136478271484375,-120.5830078125,5.266000270843506,90.6570053100586
1787734439477018600,2.1530185546875,-119.42200469970703,5.4760003089904785,90.4540023803711
1787734439492884500,2.168884521484375,-120.06800842285156,4.499000072479248,89.427001953125
1787734439509294600,2.185294677734375,-120.27600860595703,4.826000213623047,89.83800506591797
1787734439524763000,2.200762939453125,-118.13700866699219,5.048000335693359,90.65200805664062
1787734439540705800,2.216705810546875,-120.05000305175781,4.294000148773193,90.13800048828125
1787734439557165300,2.233165283203125,-121.09100341796875,3.6600000858306885,90.64300537109375
1787734439573132000,2.249132080078125,-120.39000701904297,5.254000186920166,89.74000549316406
1787734439589337600,2.265337646484375,-120.0820083618164,4.815000057220459,89.02300262451172
1787734439605148400,2.2811484375,-118.39200592041016,5.13100004196167,88.81900787353516
1787734439621346300,2.29734619140625,-119.31200408935547,3.5330002307891846,89.41800689697266
1787734439637867800,2.31386767578125,-118.46400451660156,4.179000377655029,89.7280044555664
1787734439653348400,2.329348388671875,-118.8860092163086,4.938000202178955,90.34600067138672
1787734439669711600,2.345711669921875,-120.1830062866211,5.142000198364258,89.4330062866211
1787734439685684500,2.3616845703125,-118.04600524902344,4.823000431060791,89.83500671386719
1787734439701537000,2.377537109375,-119.96600341796875,5.253000259399414,89.73900604248047
1787734439718016800,2.394016845703125,-120.14900207519531,5.487000465393066,91.16800689697266
1787734439733712000,2.4097119140625,-117.40000915527344,5.4760003089904785,90.6550064086914
1787734439750050600,2.426050537109375,-119.7550048828125,5.0360002517700195,89.53300476074219
1787734439765771800,2.441771728515625,-116.8860092163086,5.357000350952148,89.83800506591797
1787734439781894400,2.457894287109375,-117.4050064086914,5.14900016784668,90.24400329589844
1787734439798157300,2.4741572265625,-116.97600555419922,6.015000343322754,90.96500396728516
1787734439814278700,2.490278564453125,-117.84600830078125,5.031000137329102,89.42900085449219
1787734439830434300,2.506434326171875,-118.60000610351562,6.323000431060791,89.74700164794922
1787734439846023000,2.52202294921875,-120.37700653076172,5.586000442504883,90.5580062866211
1787734439862131500,2.53813134765625,-119.4540023803711,5.673000335693359,89.1310043334961
1787734439878395600,2.554395751953125,-118.47200775146484,5.579000473022461,90.25000762939453
1787734439894849800,2.570849853515625,-117.21500396728516,5.135000228881836,89.22500610351562
1787734439910787300,2.586787353515625,-119.01200866699219,6.223000526428223,90.2560043334961
1787734439926434000,2.60243408203125,-116.67400360107422,5.896000385284424,90.14800262451172
1787734439942558500,2.618558349609375,-117.87200927734375,8.042000770568848,90.16900634765625
1787734439958753500,2.63475341796875,-117.2340087890625,6.528000354766846,89.23800659179688
1787734439975145500,2.6511455078125,-116.74000549316406,8.342000007629395,88.74400329589844
1787734439991275800,2.66727587890625,-117.64100646972656,5.891000270843506,89.64000701904297
1787734440007018200,2.683018310546875,-118.43000793457031,8.350000381469727,89.15300750732422
1787734440022835500,2.69883544921875,-118.30400848388672,8.470000267028809,90.07100677490234
1787734440038956800,2.714956787109375,-117.98800659179688,9.440999984741211,90.58900451660156
1787734440055042000,2.7310419921875,-116.18400573730469,8.681000709533691,90.07000732421875
1787734440071389000,2.747388916015625,-116.18500518798828,9.761000633239746,90.69100189208984
1787734440087035000,2.763034912109375,-117.44500732421875,9.231000900268555,90.99400329589844
1787734440103070500,2.779070556640625,-115.12000274658203,8.572000503540039,90.06800079345703
1787734440119371800,2.795371826171875,-116.8320083618164,8.351000785827637,89.3550033569336
1787734440135322000,2.811322021484375,-117.25300598144531,7.381000518798828,88.94000244140625
1787734440151938600,2.8279384765625,-116.06500244140625,8.256000518798828,90.37200164794922
1787734440167384000,2.843384033203125,-115.98700714111328,7.807000160217285,88.84000396728516
1787734440183481900,2.85948193359375,-117.48900604248047,10.069000244140625,89.57500457763672
1787734440200172800,2.8761728515625,-115.89300537109375,8.879000663757324,88.95100402832031
1787734440215790000,2.8917900390625,-116.4260025024414,9.20300006866455,89.0570068359375
1787734440232275000,2.90827490234375,-116.51800537109375,9.320000648498535,89.77100372314453
1787734440247755500,2.923755615234375,-117.03600311279297,11.058000564575195,91.41700744628906
1787734440263822800,2.93982275390625,-116.8320083618164,9.972000122070312,90.38800048828125
1787734440280546800,2.956546875,-116.71500396728516,10.194000244140625,91.00100708007812
1787734440296063200,2.972063232421875,-115.14600372314453,11.258000373840332,90.60100555419922
1787734440312373200,2.988373291015625,-115.53800201416016,10.19800090789795,91.4070053100586
1787734440328327400,3.004327392578125,-116.5060043334961,10.408000946044922,91.00300598144531
1787734440344616000,3.020615966796875,-115.052001953125,11.143000602722168,89.98900604248047
1787734440360472300,3.036472412109375,-115.35100555419922,11.047000885009766,90.8030014038086
1787734440376577800,3.052577880859375,-116.54800415039062,11.788000106811523,89.99600219726562
1787734440392706600,3.06870654296875,-114.3010025024414,11.903000831604004,90.80900573730469
1787734440408493300,3.084493408203125,-116.44200897216797,12.328001022338867,90.3070068359375
1787734440424632300,3.10063232421875,-114.20600891113281,11.680000305175781,90.19600677490234
1787734440440815900,3.11681591796875,-116.22900390625,12.112000465393066,90.2030029296875
1787734440457295400,3.13329541015625,-114.00300598144531,12.214000701904297,90.09900665283203
1787734440473129500,3.14912939453125,-116.24000549316406,12.105000495910645,89.69300079345703
1787734440489219300,3.16521923828125,-114.8530044555664,11.458000183105469,89.5840072631836
1787734440505257700,3.1812578125,-116.12600708007812,11.35300064086914,89.58500671386719
1787734440521175000,3.197175048828125,-114.81100463867188,10.72700023651123,91.00300598144531
1787734440537258800,3.2132587890625,-111.64300537109375,11.144000053405762,90.49400329589844
1787734440553455900,3.229455810546875,-114.15000915527344,9.660000801086426,91.4010009765625
1787734440569227000,3.24522705078125,-112.66900634765625,9.870000839233398,91.29900360107422
1787734440585301000,3.261301025390625,-113.17500305175781,9.562000274658203,92.21400451660156
1787734440601520400,3.277520263671875,-112.60000610351562,8.183000564575195,93.32100677490234
1787734440617486300,3.293486328125,-113.11100769042969,10.293000221252441,90.79400634765625
1787734440633827000,3.3098271484375,-113.49700164794922,10.317000389099121,92.5260009765625
1787734440649563000,3.32556298828125,-111.70500183105469,9.442000389099121,91.39600372314453
1787734440665660400,3.341660400390625,-112.21100616455078,8.809000015258789,92.10400390625
1787734440682001200,3.358001220703125,-111.79100799560547,9.454000473022461,92.31300354003906
1787734440697802000,3.373802001953125,-112.12500762939453,10.094000816345215,92.01300811767578
1787734440714388200,3.39038818359375,-114.09700775146484,7.963000297546387,92.71000671386719
1787734440729819000,3.40581884765625,-110.84700775146484,8.473000526428223,91.1820068359375
1787734440745915100,3.4219150390625,-111.21500396728516,8.508000373840332,93.7300033569336
1787734440762359000,3.438359130859375,-111.12700653076172,7.848000526428223,92.50100708007812
1787734440778334700,3.454334716796875,-110.70000457763672,8.822000503540039,93.22300720214844
1787734440794448400,3.470448486328125,-110.81500244140625,7.304000377655029,91.88500213623047
1787734440810156300,3.48615625,-111.22000885009766,8.505000114440918,93.5260009765625
1787734440826076000,3.502075927734375,-108.67400360107422,7.743000507354736,92.9050064086914
1787734440842423300,3.51842333984375,-111.2300033569336,7.418000221252441,92.39600372314453
1787734440858497800,3.534497802734375,-109.91900634765625,7.2220001220703125,93.92000579833984
1787734440874792400,3.55079248046875,-108.63800811767578,6.7920002937316895,93.91500091552734
1787734440890405000,3.566405029296875,-110.31600189208984,6.267000198364258,94.52400207519531
1787734440906422800,3.5824228515625,-109.68400573730469,6.587000370025635,94.5260009765625
1787734440922519800,3.598519775390625,-108.6100082397461,7.674000263214111,95.7560043334961
1787734440938496300,3.614496337890625,-108.97200775146484,8.837000846862793,94.54500579833984
1787734440954768000,3.630767822265625,-109.15100860595703,6.479000091552734,94.52400207519531
1787734440970596900,3.646596923828125,-109.99100494384766,7.567000389099121,95.6550064086914
1787734440986905300,3.6629052734375,-109.12400817871094,7.469000339508057,96.36600494384766
1787734441002911000,3.678910888671875,-108.29700469970703,7.778000354766846,95.5530014038086
1787734441019293000,3.69529296875,-107.64500427246094,6.1650004386901855,95.23300170898438
1787734441035199200,3.71119921875,-108.51000213623047,7.021000385284424,95.03700256347656
1787734441050922200,3.726922119140625,-108.47400665283203,6.39400053024292,96.2540054321289
1787734441067017200,3.743017333984375,-106.96400451660156,4.677000045776367,96.23700714111328
1787734441083266800,3.759266845703125,-108.156005859375,6.070000171661377,96.04700469970703
1787734441099259600,3.775259765625,-108.14400482177734,5.5360002517700195,96.24600219726562
1787734441115548200,3.791548095703125,-108.3290023803711,5.338000297546387,97.36500549316406
1787734441131308300,3.807308349609375,-107.49300384521484,4.895000457763672,96.44400787353516
1787734441147508200,3.82350830078125,-106.93800354003906,4.801000118255615,97.46100616455078
1787734441163897300,3.8398974609375,-106.44600677490234,5.1010003089904785,95.93500518798828
1787734441179526700,3.855526611328125,-108.12400817871094,5.116000175476074,96.85400390625
1787734441195941400,3.87194140625,-107.07200622558594,6.297000408172607,97.16800689697266
1787734441211678500,3.887678466796875,-106.20500183105469,5.334000110626221,97.36300659179688
1787734441227828500,3.903828369140625,-106.16300201416016,4.603000164031982,98.7820053100586
1787734441244020200,3.920020263671875,-107.6810073852539,4.586000442504883,97.35800170898438
1787734441259949600,3.935949462890625,-106.1760025024414,4.271000385284424,97.96400451660156
1787734441276622800,3.952622802734375,-104.47700500488281,4.701000213623047,98.27200317382812
1787734441292511200,3.96851123046875,-107.66100311279297,5.139000415802002,98.58500671386719
1787734441308208600,3.984208740234375,-107.22900390625,3.0890002250671387,97.6500015258789
1787734441324427800,4.000427734375,-107.01000213623047,3.4170000553131104,98.16200256347656
1787734441340511700,4.01651171875,-105.73900604248047,2.3330001831054688,97.33500671386719
1787734441356724200,4.03272412109375,-106.57300567626953,3.2080001831054688,98.56700134277344
1787734441372423400,4.04842333984375,-107.01500701904297,4.170000076293945,98.37200164794922
1787734441388534500,4.064534423828125,-107.2080078125,2.886000156402588,98.46300506591797
1787734441404746200,4.080746337890625,-107.94100189208984,3.001000165939331,98.97400665283203
1787734441420683000,4.09668310546875,-106.36100769042969,3.0990002155303955,98.46400451660156
1787734441437167400,4.11316748046875,-105.72200775146484,3.4230000972747803,98.77100372314453
1787734441453147000,4.12914697265625,-106.01600646972656,2.682000160217285,99.37600708007812
1787734441468843500,4.144843505859375,-105.46700286865234,0.531000018119812,98.84700775146484
1787734441485314800,4.161314697265625,-104.63500213623047,2.140000104904175,99.06400299072266
1787734441501141500,4.1771416015625,-107.41000366210938,0.51500004529953,97.42300415039062
1787734441517342700,4.1933427734375,-105.50000762939453,0.29500001668930054,97.21500396728516
1787734441533594000,4.209593994140625,-108.34600830078125,0.7440000176429749,98.44500732421875
1787734441549569500,4.225569580078125,-107.0790023803711,1.3870000839233398,98.5510025024414
1787734441565531400,4.241531494140625,-104.29300689697266,-0.5470000505447388,98.42900848388672
1787734441581776100,4.257776123046875,-106.0060043334961,0.6350000500679016,98.54300689697266
1787734441597694700,4.27369482421875,-107.39000701904297,0.8510000109672546,98.54700469970703
1787734441613332200,4.289332275390625,-107.57200622558594,-0.31800001859664917,99.14800262451172
1787734441629524500,4.3055244140625,-105.46100616455078,0.42600002884864807,99.05000305175781
1787734441645965600,4.321965576171875,-105.91100311279297,-1.2080000638961792,96.89700317382812
1787734441661774300,4.3377744140625,-105.79900360107422,-0.3400000035762787,97.71900177001953
1787734441677958100,4.353958251953125,-106.75300598144531,-0.44600000977516174,97.72000122070312
1787734441693657600,4.36965771484375,-105.46000671386719,-1.3010001182556152,98.01600646972656
1787734441710020400,4.386020263671875,-105.1570053100586,0.30900001525878906,98.33600616455078
1787734441726044000,4.4020439453125,-103.12200164794922,-0.4390000104904175,98.63200378417969
1787734441741928200,4.41792822265625,-105.08000183105469,-0.35600000619888306,96.59800720214844
1787734441758363600,4.43436376953125,-105.45600128173828,-1.7310000658035278,97.91000366210938
1787734441774121200,4.450121337890625,-107.48700714111328,-1.412000060081482,97.50800323486328
1787734441790100200,4.466100341796875,-105.39700317382812,-2.3000001907348633,95.46100616455078
1787734441806383000,4.482383056640625,-104.02000427246094,-2.196000099182129,95.35800170898438
1787734441822408200,4.498408203125,-105.17200469970703,-2.7250001430511475,95.76200103759766
1787734441838898000,4.51489794921875,-103.80500793457031,-3.06000018119812,94.94200134277344
1787734441854318800,4.53031884765625,-103.7820053100586,-3.5860002040863037,95.6510009765625
1787734441870574000,4.546573974609375,-104.90200805664062,-1.999000072479248,94.03600311279297
1787734441886705200,4.562705078125,-104.77000427246094,-2.5240001678466797,94.84700775146484
1787734441902778000,4.578778076171875,-105.06800842285156,-4.3480000495910645,94.62700653076172
1787734441919041300,4.595041259765625,-103.177001953125,-3.7150001525878906,94.12100219726562
1787734441934754600,4.610754638671875,-104.9780044555664,-3.1690001487731934,94.63700103759766
1787734441950749400,4.62674951171875,-104.46700286865234,-4.371000289916992,92.99600219726562
1787734441967101000,4.643100830078125,-105.31800842285156,-4.154000282287598,93.10100555419922
1787734441982965500,4.658965576171875,-105.22300720214844,-4.269000053405762,92.48900604248047
1787734441999646200,4.675646240234375,-106.92500305175781,-4.26800012588501,92.38900756835938
1787734442015022600,4.691022705078125,-105.74000549316406,-5.98900032043457,92.06700134277344
1787734442031240200,4.707240234375,-104.03600311279297,-5.98900032043457,92.26800537109375
1787734442047464700,4.723464599609375,-105.3280029296875,-7.186000347137451,90.73100280761719
1787734442063641000,4.73964111328125,-106.79300689697266,-8.25100040435791,91.02900695800781
1787734442079975000,4.755974853515625,-105.26900482177734,-6.891000270843506,88.79800415039062
1787734442095984600,4.771984619140625,-105.76700592041016,-8.27500057220459,89.39800262451172
1787734442111523800,4.78752392578125,-108.95000457763672,-7.944000244140625,89.71100616455078
1787734442127874600,4.80387451171875,-107.7820053100586,-7.946000576019287,89.7090072631836
1787734442143708400,4.81970849609375,-108.50300598144531,-7.607000350952148,90.93500518798828
1787734442160029400,4.836029541015625,-106.9310073852539,-7.298000335693359,90.22300720214844
1787734442175670000,4.851669921875,-108.34000396728516,-7.529000282287598,88.79700469970703
1787734442191832800,4.867832763671875,-106.41300201416016,-8.819000244140625,88.6810073852539
1787734442208099300,4.884099365234375,-107.46300506591797,-9.027000427246094,89.08800506591797
1787734442224029700,4.90002978515625,-107.26900482177734,-7.309000492095947,89.3070068359375
1787734442240354800,4.916354736328125,-106.48800659179688,-8.909000396728516,90.0050048828125
1787734442256061700,4.932061767578125,-106.2030029296875,-8.281000137329102,88.88900756835938
1787734442272173600,4.948173583984375,-108.12400817871094,-7.959000587463379,88.69100189208984
1787734442288389600,4.9643896484375,-107.39600372314453,-7.646000385284424,88.1830062866211
1787734442304401700,4.980401611328125,-107.79300689697266,-9.790000915527344,88.06300354003906
1787734442320692500,4.9966923828125,-108.35000610351562,-7.427000522613525,88.39000701904297
1787734442336435500,5.012435546875,-107.51400756835938,-7.9770002365112305,87.46700286865234
1787734442352555800,5.0285556640625,-107.21200561523438,-5.934000492095947,87.99400329589844
1787734442369152300,5.04515234375,-108.77300262451172,-7.749000549316406,88.28600311279297
1787734442384784100,5.0607841796875,-108.57300567626953,-7.64900016784668,87.7770004272461
1787734442401390000,5.07739013671875,-108.58000183105469,-7.005000114440918,87.88500213623047
1787734442417273900,5.09327392578125,-108.61800384521484,-4.218000411987305,87.91000366210938
1787734442432902100,5.108902099609375,-107.9070053100586,-7.633000373840332,89.10100555419922
1787734442449516000,5.12551611328125,-105.42000579833984,-4.648000240325928,88.20700073242188
1787734442465463800,5.1414638671875,-106.86300659179688,-5.484000205993652,89.62800598144531
1787734442481433600,5.15743359375,-108.80000305175781,-3.7680001258850098,89.54400634765625
1787734442497400000,5.173400146484375,-107.23100280761719,-3.568000078201294,88.62700653076172
1787734442513256000,5.189255859375,-107.77900695800781,-2.497000217437744,88.53500366210938
1787734442529551600,5.205551513671875,-107.16400146484375,0.0820000022649765,89.16800689697266
1787734442545949700,5.22194970703125,-108.46600341796875,1.471000075340271,88.77400207519531
1787734442561854000,5.23785400390625,-108.64700317382812,1.1670000553131104,89.99400329589844
1787734442577506300,5.25350634765625,-108.69300842285156,3.192000150680542,89.19700622558594
1787734442593625600,5.26962548828125,-108.51100158691406,4.038000106811523,88.39000701904297
1787734442610147000,5.28614697265625,-108.31300354003906,5.867000102996826,88.91500091552734
1787734442626016800,5.302016845703125,-108.16100311279297,7.77500057220459,87.40400695800781
1787734442642333700,5.318333740234375,-107.11900329589844,9.381999969482422,87.51800537109375
1787734442658426400,5.33442626953125,-108.94800567626953,9.803000450134277,86.7090072631836
1787734442674005800,5.350005859375,-109.98100280761719,12.459000587463379,84.9010009765625
1787734442690297300,5.36629736328125,-109.656005859375,13.976000785827637,86.13600158691406
1787734442706186000,5.38218603515625,-109.7040023803711,15.460000991821289,84.927001953125
1787734442722448100,5.3984482421875,-111.74200439453125,15.450000762939453,84.01200103759766
1787734442738085000,5.414085205078125,-111.35000610351562,16.511001586914062,83.20600128173828
1787734442754297300,5.43029736328125,-109.06900787353516,20.797000885009766,83.44500732421875
1787734442770448100,5.4464482421875,-109.07100677490234,19.60700035095215,82.62000274658203
1787734442786436000,5.46243603515625,-108.0770034790039,21.725000381469727,80.9050064086914
1787734442802791700,5.478791748046875,-107.9260025024414,22.012001037597656,78.36100006103516
1787734442818482700,5.494482666015625,-108.34600830078125,24.177001953125,79.90900421142578
1787734442834614500,5.510614501953125,-107.98800659179688,24.02800178527832,76.85100555419922
1787734442850830600,5.52683056640625,-107.79000854492188,23.911001205444336,76.13700103759766
1787734442866911700,5.542911865234375,-107.95500183105469,26.577001571655273,75.14200592041016
1787734442883172400,5.55917236328125,-109.2300033569336,26.57900047302246,75.14300537109375
1787734442898983400,5.5749833984375,-107.29800415039062,29.009000778198242,72.81900024414062
1787734442915358500,5.5913583984375,-108.45100402832031,28.91200065612793,73.43099975585938
1787734442931194000,5.607194091796875,-107.86600494384766,29.20400047302246,71.29400634765625
1787734442947351300,5.623351318359375,-107.6030044555664,29.926000595092773,69.26200103759766
1787734442963505000,5.6395048828125,-106.1290054321289,30.673002243041992,69.16500091552734
1787734442979315700,5.655315673828125,-106.25100708007812,29.691001892089844,67.83300018310547
1787734442995560200,5.671560302734375,-105.66600799560547,32.46800231933594,67.24500274658203
1787734443011607000,5.68760693359375,-105.09600830078125,32.534000396728516,64.29100036621094
1787734443027493400,5.703493408203125,-106.57000732421875,31.788002014160156,64.38800048828125
1787734443043883000,5.719883056640625,-103.94900512695312,31.87200164794922,62.95900344848633
1787734443059526000,5.73552587890625,-106.54700469970703,34.656002044677734,62.478004455566406
1787734443075739100,5.7517392578125,-102.34400177001953,34.406002044677734,60.33100128173828
1787734443091926800,5.7679267578125,-103.43400573730469,34.17399978637695,58.90400314331055
1787734443107768600,5.7837685546875,-103.72400665283203,35.05600357055664,60.746002197265625
1787734443124275700,5.800275634765625,-103.16700744628906,35.54800033569336,57.4900016784668
1787734443140496000,5.816495849609375,-102.65200805664062,34.888999938964844,56.36300277709961
1787734443156430600,5.8324306640625,-102.47000122070312,35.95000076293945,55.65900421142578
1787734443172659700,5.84865966796875,-103.4590072631836,35.71600341796875,54.02800369262695
1787734443188616200,5.8646162109375,-101.68600463867188,36.88199996948242,53.323001861572266
1787734443204587800,5.880587890625,-101.71000671386719,36.6510009765625,52.099002838134766
1787734443220747000,5.8967470703125,-102.66400146484375,36.00600051879883,51.78900146484375
1787734443236403700,5.91240380859375,-100.94900512695312,36.92100143432617,48.33100128173828
1787734443252637000,5.928636962890625,-101.17300415039062,35.83300018310547,47.099002838134766
1787734443268544300,5.944544189453125,-102.3550033569336,36.1510009765625,46.69600296020508
1787734443285091800,5.961091796875,-103.06300354003906,36.54100036621094,43.746002197265625
1787734443300489000,5.976489013671875,-102.11900329589844,36.20800018310547,43.02900314331055
1787734443316601900,5.992601806640625,-99.81500244140625,35.861000061035156,41.393001556396484
1787734443332974000,6.00897412109375,-100.9050064086914,34.332000732421875,39.1400032043457
1787734443348836600,6.024836669921875,-100.68400573730469,35.63500213623047,40.374000549316406
1787734443365116400,6.041116455078125,-103.68500518798828,34.54199981689453,38.43300247192383
1787734443380859000,6.05685888671875,-99.1300048828125,34.63600158691406,38.02000045776367
1787734443397088800,6.0730888671875,-103.30500793457031,33.64900207519531,35.87800216674805
1787734443413150200,6.089150146484375,-100.97300720214844,32.99400329589844,35.25800323486328
1787734443429088500,6.105088623046875,-100.59700775146484,32.53200149536133,32.80800247192383
1787734443445425200,6.121425048828125,-101.74900817871094,32.86800003051758,33.729000091552734
1787734443461163800,6.137163818359375,-101.12100219726562,32.861000061035156,33.32100296020508
1787734443477732000,6.153732177734375,-101.02400207519531,31.88300132751465,32.294002532958984
1787734443493531100,6.16953125,-100.39900207519531,30.79400062561035,31.06100082397461
1787734443509636400,6.18563623046875,-101.2300033569336,28.645000457763672,30.53400230407715
1787734443525903600,6.201903564453125,-101.36500549316406,29.384000778198242,29.72500228881836
1787734443541621200,6.217621337890625,-104.76100158691406,29.60700225830078,29.935001373291016
1787734443557696000,6.233696044921875,-101.906005859375,28.298002243041992,28.59600067138672
1787734443574023000,6.25002294921875,-103.19200134277344,27.536001205444336,27.57200050354004
1787734443589722400,6.265722412109375,-102.87400817871094,26.56300163269043,26.952001571655273
1787734443606033700,6.28203369140625,-103.6300048828125,25.152000427246094,25.514001846313477
1787734443621734100,6.297734130859375,-103.6550064086914,25.677001953125,24.70400047302246
1787734443637880800,6.313880859375,-103.09200286865234,24.507001876831055,25.406002044677734
1787734443654222300,6.330222412109375,-101.92900848388672,23.205001831054688,24.374000549316406
1787734443670321700,6.34632177734375,-104.35600280761719,23.434001922607422,25.194000244140625
1787734443686527200,6.36252734375,-104.79600524902344,21.91200065612793,23.552001953125
1787734443702130700,6.378130615234375,-102.47400665283203,22.873001098632812,23.5570011138916
1787734443718326300,6.394326171875,-105.5560073852539,21.47100067138672,22.530000686645508
1787734443734987000,6.410987060546875,-103.85800170898438,20.711000442504883,22.012001037597656
1787734443750678800,6.4266787109375,-103.06000518798828,18.25800132751465,22.9060001373291
1787734443766751000,6.4427509765625,-102.76300811767578,17.488000869750977,21.47300148010254
1787734443782947000,6.458947021484375,-103.81200408935547,17.713001251220703,22.189001083374023
1787734443798846500,6.474846435546875,-102.86600494384766,17.381999969482422,21.57400131225586
1787734443815092200,6.49109228515625,-102.77700805664062,16.506999969482422,20.242000579833984
1787734443830764300,6.506764404296875,-103.39100646972656,15.981000900268555,20.951000213623047
1787734443847033300,6.523033447265625,-103.13800811767578,15.357000350952148,22.371000289916992
1787734443862751700,6.538751708984375,-102.54700469970703,14.572000503540039,19.817001342773438
1787734443878863000,6.554863037109375,-105.1760025024414,14.700000762939453,21.04400062561035
1787734443895178500,6.571178466796875,-104.56400299072266,16.196001052856445,20.852001190185547
1787734443911269000,6.58726904296875,-105.11200714111328,14.133000373840332,18.79800033569336
1787734443927560700,6.603560791015625,-104.84600830078125,13.733000755310059,20.933000564575195
1787734443943207200,6.619207275390625,-102.65800476074219,12.94800090789795,18.580001831054688
1787734443959235800,6.63523583984375,-105.0580062866211,10.708000183105469,19.072999954223633
1787734443975503400,6.65150341796875,-105.12600708007812,10.731000900268555,20.80500030517578
1787734443991479300,6.667479248046875,-104.20500183105469,10.925000190734863,19.37900161743164
1787734444007799800,6.6837998046875,-105.79300689697266,11.470000267028809,19.895000457763672
1787734444023550000,6.699550048828125,-106.3270034790039,10.17300033569336,18.968000411987305
1787734444040291300,6.716291259765625,-104.93600463867188,10.069000244140625,19.373001098632812
1787734444055961000,6.731961181640625,-105.64500427246094,8.902000427246094,20.178001403808594
1787734444071978200,6.747978271484375,-106.04500579833984,7.945000171661377,20.68000030517578
1787734444088259300,6.76425927734375,-104.39600372314453,8.56100082397461,18.849000930786133
1787734444103946500,6.779946533203125,-105.8290023803711,6.5420002937316895,19.95400047302246
1787734444120254500,6.79625439453125,-104.34200286865234,7.512000560760498,20.57200050354004
1787734444136849700,6.812849609375,-106.052001953125,6.64400053024292,19.54800033569336
1787734444152295700,6.828295654296875,-103.927001953125,7.182000160217285,19.957000732421875
1787734444168621600,6.84462158203125,-105.60000610351562,6.011000156402588,20.356000900268555
1787734444184315000,6.86031494140625,-106.23900604248047,5.4710001945495605,19.94500160217285
1787734444200404500,6.876404541015625,-105.48900604248047,4.177000045776367,19.42300033569336
1787734444216621600,6.89262158203125,-106.09000396728516,3.011000156402588,20.330001831054688
1787734444232538400,6.908538330078125,-106.4280014038086,2.7830002307891846,19.310001373291016
1787734444248883000,6.924883056640625,-105.16000366210938,3.4260001182556152,19.416000366210938
1787734444264589800,6.94058984375,-104.1780014038086,1.1710000038146973,19.19099998474121
1787734444280703200,6.956703125,-106.39500427246094,2.371000051498413,20.529001235961914
1787734444297519600,6.97351953125,-105.75000762939453,1.186000108718872,20.110000610351562
1787734444312943400,6.988943359375,-107.14700317382812,1.718000054359436,19.709001541137695
1787734444329641700,7.005641845703125,-106.59500885009766,0.9740000367164612,20.211000442504883
1787734444344948200,7.0209482421875,-107.53800201416016,1.415000081062317,21.0310001373291
1787734444361081900,7.037081787109375,-108.27000427246094,0.7750000357627869,21.128000259399414
1787734444377273900,7.05327392578125,-107.44100189208984,0.22100001573562622,19.900001525878906
1787734444393327400,7.069327392578125,-106.77400207519531,0.562000036239624,21.43000030517578
1787734444409539600,7.08553955078125,-107.64600372314453,-0.09800000488758087,19.999000549316406
1787734444425244400,7.101244384765625,-106.05000305175781,0.3330000042915344,20.409000396728516
1787734444441341000,7.1173408203125,-108.02800750732422,-1.3680000305175781,21.10900115966797
1787734444457687600,7.1336875,-106.38800811767578,-4.152000427246094,21.490001678466797
1787734444473530000,7.149530029296875,-105.36100769042969,-2.121000051498413,21.201000213623047
1787734444489820200,7.165820068359375,-106.31500244140625,-2.875000238418579,20.788000106811523
1787734444505542100,7.181542236328125,-105.78300476074219,-3.632000207901001,20.373001098632812
1787734444521579000,7.1975791015625,-103.54800415039062,-3.200000047683716,20.884000778198242
1787734444537900000,7.213900146484375,-107.14400482177734,-4.374000072479248,20.7760009765625
1787734444553754600,7.229754638671875,-105.4520034790039,-4.057000160217285,20.67500114440918
1787734444570103300,7.246103271484375,-107.1300048828125,-4.906000137329102,21.077001571655273
1787734444585795000,7.261795166015625,-106.56300354003906,-5.209000110626221,22.500001907348633
1787734444602282000,7.278281982421875,-109.44200897216797,-4.3480000495910645,22.511001586914062
1787734444618105300,7.294105224609375,-108.58000183105469,-4.88200044631958,22.709001541137695
1787734444634090000,7.310090087890625,-108.48600769042969,-5.646000385284424,21.683000564575195
1787734444650336800,7.326336669921875,-109.20500183105469,-6.603000164031982,22.185001373291016
1787734444666069000,7.342069091796875,-110.92200469970703,-4.6650004386901855,22.612001419067383
1787734444682156000,7.358156005859375,-111.12700653076172,-4.985000133514404,22.711000442504883
1787734444698382300,7.37438232421875,-111.09500885009766,-6.15500020980835,23.41400146484375
1787734444714312700,7.390312744140625,-110.552001953125,-6.256000518798828,23.922000885009766
1787734444730718500,7.406718505859375,-110.99300384521484,-6.049000263214111,23.31300163269043
1787734444746462200,7.422462158203125,-111.3280029296875,-4.005000114440918,23.841001510620117
1787734444763133700,7.4391337890625,-111.7030029296875,-6.136000156402588,24.73900032043457
1787734444778806800,7.454806884765625,-112.36100769042969,-5.931000232696533,23.927001953125
1787734444794987800,7.47098779296875,-110.77900695800781,-5.832000255584717,23.518001556396484
1787734444811249400,7.48724951171875,-110.99300384521484,-5.725000381469727,23.519001007080078
1787734444826750000,7.50275,-114.13300323486328,-6.341000080108643,25.148000717163086
1787734444842876700,7.518876708984375,-113.6090087890625,-6.6700005531311035,24.635000228881836
1787734444859577900,7.535577880859375,-113.61200714111328,-6.456000328063965,24.637001037597656
1787734444875069700,7.551069580078125,-114.56900787353516,-6.023000240325928,24.84600067138672
1787734444891435300,7.567435302734375,-114.156005859375,-5.1660003662109375,24.85300064086914
1787734444907187700,7.583187744140625,-114.26700592041016,-5.817000389099121,24.23600196838379
1787734444923245000,7.5992451171875,-114.5060043334961,-4.860000133514404,23.63300132751465
1787734444939505400,7.61550537109375,-113.32000732421875,-5.500000476837158,24.034000396728516
1787734444955437000,7.63143701171875,-116.62000274658203,-5.283000469207764,23.836000442504883
1787734444971780900,7.64778076171875,-114.57100677490234,-4.7270002365112305,25.57000160217285
1787734444987500000,7.6635,-116.177001953125,-4.948000431060791,24.85700035095215
1787734445003633000,7.6796328125,-114.4840087890625,-4.198000431060791,25.065000534057617
1787734445019900000,7.69589990234375,-112.76300811767578,-5.593000411987305,25.15300178527832
1787734445035911400,7.711911376953125,-116.49300384521484,-4.298000335693359,25.373001098632812
1787734445052452900,7.728452880859375,-114.18000793457031,-1.9380000829696655,25.79800033569336
1787734445067880400,7.74388037109375,-115.4260025024414,-3.864000082015991,25.884000778198242
1787734445083989200,7.7599892578125,-115.3530044555664,-2.264000177383423,25.389001846313477
1787734445100397600,7.7763974609375,-114.82600402832031,-2.807000160217285,24.874000549316406
1787734445116140500,7.792140625,-115.35000610351562,-2.4780001640319824,25.387001037597656
1787734445132671200,7.808671142578125,-115.43600463867188,-2.1410000324249268,26.511001586914062
1787734445148245500,7.82424560546875,-115.89100646972656,-2.375,24.981000900268555
1787734445164900900,7.84090087890625,-115.89800262451172,-2.5950000286102295,24.57200050354004
1787734445180554500,7.856554443359375,-116.1310043334961,-1.7430000305175781,24.172000885009766
1787734445196506000,7.872506103515625,-114.16800689697266,-2.3630001544952393,26.100000381469727
1787734445212901000,7.888901123046875,-115.24400329589844,-1.9380000829696655,25.69700050354004
1787734445228865800,7.90486572265625,-114.29600524902344,-2.2680001258850098,25.184001922607422
1787734445244655000,7.920655029296875,-116.22100830078125,-0.7600000500679016,25.505001068115234
1787734445261134600,7.937134521484375,-118.36200714111328,-0.33500000834465027,25.00200080871582
1787734445276768000,7.95276806640625,-115.40000915527344,-1.319000005722046,23.869001388549805
1787734445293178400,7.969178466796875,-117.2020034790039,0.08900000154972076,24.90300178527832
1787734445309145000,7.98514501953125,-115.94700622558594,-0.6800000071525574,23.57000160217285
1787734445324799200,8.00079931640625,-114.97500610351562,-0.6720000505447388,24.282001495361328
1787734445341163300,8.017163330078125,-115.84800720214844,-1.4410001039505005,22.748001098632812
1787734445357012500,8.033012451171874,-115.18600463867188,0.19300000369548798,24.9010009765625
1787734445373430000,8.049429931640624,-116.46700286865234,-0.45600003004074097,24.184001922607422
1787734445389261800,8.06526171875,-116.58500671386719,-0.5710000395774841,23.57200050354004
1787734445405289000,8.0812890625,-116.6810073852539,-0.6730000376701355,23.979001998901367
1787734445422003700,8.098003662109376,-118.17800903320312,0.7270000576972961,24.400001525878906
1787734445437501400,8.11350146484375,-114.5510025024414,1.1640000343322754,25.418001174926758
1787734445454090000,8.130090087890625,-113.75000762939453,1.6740000247955322,23.588001251220703
1787734445469544700,8.145544677734375,-116.07500457763672,1.2510000467300415,23.791000366210938
1787734445485619200,8.161619140625,-115.24900817871094,1.7760001420974731,23.082000732421875
1787734445501954600,8.17795458984375,-114.906005859375,1.6820000410079956,24.099000930786133
1787734445517843200,8.19384326171875,-115.9520034790039,1.3690000772476196,24.60700035095215
1787734445534184400,8.210184326171875,-116.0840072631836,2.5430002212524414,24.21000099182129
1787734445549814000,8.22581396484375,-114.73300170898438,2.5230000019073486,22.884000778198242
1787734445565937400,8.2419375,-115.04300689697266,1.880000114440918,22.87900161743164
1787734445582381000,8.258381103515624,-113.31700897216797,1.1370000839233398,23.58300018310547
1787734445598148000,8.274148193359375,-114.59000396728516,2.005000114440918,24.203001022338867
1787734445614554400,8.290554443359374,-115.76500701904297,0.38100001215934753,22.86600112915039
1787734445630195000,8.30619482421875,-114.90000915527344,0.6050000190734863,23.6820011138916
1787734445646482200,8.322482177734376,-116.81500244140625,1.7950000762939453,24.306001663208008
1787734445662572800,8.33857275390625,-114.76300811767578,-0.6720000505447388,24.282001495361328
1787734445679031800,8.35503173828125,-117.96100616455078,-1.1069999933242798,23.46700096130371
1787734445694915800,8.370915771484375,-115.1090087890625,-0.6880000233650208,23.060001373291016
1787734445710647300,8.386647216796876,-114.90000915527344,1.2540000677108765,24.095001220703125
1787734445726846000,8.402845947265625,-116.80400848388672,-0.1420000046491623,23.576000213623047
1787734445743088600,8.419088623046875,-114.89300537109375,0.718000054359436,24.091001510620117
1787734445759165200,8.435165283203125,-116.15300750732422,0.18800000846385956,24.393001556396484
1787734445775201000,8.451200927734375,-117.29500579833984,-1.5230001211166382,24.481000900268555
1787734445790967800,8.4669677734375,-116.1570053100586,0.1850000023841858,24.189001083374023
1787734445807112400,8.483112548828124,-115.49600219726562,0.09100000560283661,25.20600128173828
1787734445823312100,8.49931201171875,-118.02600860595703,-1.406000018119812,25.09400177001953
1787734445839463200,8.515463134765625,-115.70000457763672,-1.8480000495910645,24.374000549316406
1787734445855552500,8.531552490234375,-115.73800659179688,-1.871000051498413,22.643001556396484
1787734445871300900,8.54730078125,-115.24600219726562,-3.6680002212524414,24.562000274658203
1787734445895957200,8.571957275390625,-116.99800872802734,-1.1040000915527344,23.7710018157959
1787734445911514600,8.5875146484375,-114.72600555419922,-3.3510000705718994,24.25800132751465
1787734445927474400,8.603474365234375,-115.75900268554688,-4.629000186920166,24.757001876831055
1787734445943781400,8.619781494140625,-116.63200378417969,-3.561000108718872,24.36100196838379
1787734445959896000,8.63589599609375,-115.96400451660156,-4.624000072479248,25.06300163269043
1787734445976104700,8.652104736328125,-117.89900207519531,-4.095000267028809,24.35700035095215
1787734445991847400,8.667847412109374,-117.29600524902344,-6.322000503540039,26.171001434326172
1787734446007876900,8.683876953125,-116.82400512695312,-5.386000156402588,24.141000747680664
1787734446024211000,8.7002109375,-118.06300354003906,-6.552000522613525,24.94700050354004
1787734446040299300,8.71629931640625,-118.48100280761719,-6.76300048828125,25.150001525878906
1787734446056555300,8.73255517578125,-117.64800262451172,-5.909000396728516,24.952001571655273
1787734446072329000,8.748328857421875,-119.96400451660156,-6.002000331878662,25.769001007080078
1787734446088771800,8.764771728515624,-119.09500885009766,-6.099000453948975,26.582000732421875
1787734446104596000,8.780595947265626,-119.41900634765625,-5.562000274658203,26.689001083374023
1787734446120716800,8.796716796875,-118.35000610351562,-6.423000335693359,26.477001190185547
1787734446137343500,8.813343505859375,-120.56400299072266,-8.032000541687012,26.160001754760742
1787734446152698600,8.82869873046875,-120.04000854492188,-6.4150004386901855,26.886001586914062
1787734446168900000,8.844900146484376,-118.03600311279297,-6.535000324249268,26.170001983642578
1787734446185133800,8.8611337890625,-120.58900451660156,-5.561000347137451,26.589000701904297
1787734446201065700,8.877065673828126,-121.65300750732422,-4.588000297546387,27.108001708984375
1787734446217382000,8.8933818359375,-121.4580078125,-5.788000106811523,25.569002151489258
1787734446233165300,8.909165283203125,-121.42900848388672,-5.446000099182129,27.100000381469727
1787734446249393200,8.92539306640625,-121.14300537109375,-5.034000396728516,25.881000518798828
1787734446265409500,8.941409423828125,-121.5560073852539,-4.269000053405762,26.907001495361328
1787734446281535700,8.95753564453125,-121.67200469970703,-4.059000015258789,26.604001998901367
1787734446297904600,8.973904541015624,-122.61400604248047,-5.022000312805176,26.59600067138672
1787734446313534700,8.98953466796875,-120.58600616455078,-3.2900002002716064,28.137001037597656
1787734446329598500,9.005598388671874,-122.51900482177734,-4.38100004196167,26.500001907348633
1787734446345854200,9.021854248046875,-122.96800231933594,-3.314000129699707,26.102001190185547
1787734446361948700,9.03794873046875,-121.6810073852539,-3.7400002479553223,26.40300178527832
1787734446378442800,9.05444287109375,-121.24000549316406,-2.1100001335144043,28.148000717163086
1787734446394359300,9.070359375,-122.52600860595703,-2.5480000972747803,27.33100128173828
1787734446409941200,9.085941162109375,-120.41900634765625,-1.696000099182129,27.132001876831055
1787734446426312700,9.102312744140624,-122.5560073852539,-2.998000144958496,25.69700050354004
1787734446442202600,9.11820263671875,-121.99600219726562,-2.6570000648498535,27.22800064086914
1787734446458594800,9.1345947265625,-120.82400512695312,-3.4130001068115234,26.91400146484375
1787734446474247700,9.15024755859375,-122.76800537109375,-2.0250000953674316,26.317001342773438
1787734446490203100,9.166203125,-121.9310073852539,-3.1150002479553223,25.084001541137695
1787734446506583800,9.182583740234374,-122.46700286865234,-2.577000141143799,25.192001342773438
1787734446522599200,9.19859912109375,-121.61300659179688,-1.9270000457763672,25.8070011138916
1787734446538854700,9.214854736328125,-118.05900573730469,-4.063000202178955,26.70100212097168
1787734446554518000,9.23051806640625,-122.14100646972656,-3.6530001163482666,24.876001358032227
1787734446570572300,9.246572265625,-120.39500427246094,-3.7350001335144043,26.910001754760742
1787734446586707200,9.262707275390625,-120.31200408935547,-4.7220001220703125,25.272001266479492
1787734446602883600,9.278883544921875,-121.1820068359375,-3.2200002670288086,25.286001205444336
1787734446619293000,9.29529296875,-120.81900787353516,-4.599000453948975,26.394001007080078
1787734446635065000,9.311065185546875,-120.36500549316406,-2.4850001335144043,24.273000717163086
1787734446651343000,9.327343017578125,-120.43400573730469,-3.759000062942505,25.179000854492188
1787734446667476700,9.343476806640625,-119.54300689697266,-3.7350001335144043,27.011001586914062
1787734446683203000,9.359203125,-120.41200256347656,-4.826000213623047,25.475000381469727
1787734446699537400,9.375537353515625,-118.41100311279297,-3.43500018119812,25.586000442504883
1787734446715139300,9.391139404296876,-120.01600646972656,-2.575000047683716,25.59600067138672
1787734446731192600,9.407192626953124,-119.79700469970703,-4.517000198364258,24.66200065612793
1787734446747563500,9.4235634765625,-119.98600769042969,-4.2860002517700195,25.886001586914062
1787734446763547100,9.439547119140625,-121.14500427246094,-5.035000324249268,25.779001235961914
1787734446779751700,9.455751708984375,-119.47000885009766,-4.296000003814697,25.17300033569336
1787734446795472400,9.471472412109375,-118.28800201416016,-4.7210001945495605,25.575000762939453
1787734446811849000,9.487848876953125,-119.86500549316406,-5.033000469207764,26.0830020904541
1787734446827918000,9.50391796875,-121.6760025024414,-5.575000286102295,25.470001220703125
1787734446844000500,9.52000048828125,-122.86500549316406,-4.505000114440918,25.17500114440918
1787734446860285000,9.536284912109375,-119.65200805664062,-4.061000347137451,26.703001022338867
1787734446875868200,9.5518681640625,-120.58000946044922,-5.2310004234313965,27.203001022338867
1787734446891815700,9.567815673828125,-122.37500762939453,-5.76300048828125,27.303001403808594
1787734446908507000,9.5845068359375,-121.61600494384766,-7.267000198364258,27.08500099182129
1787734446924175400,9.60017529296875,-120.36800384521484,-6.529000282287598,26.376001358032227
1787734446940769300,9.616769287109374,-123.51000213623047,-8.011000633239746,27.386001586914062
1787734446956638200,9.63263818359375,-122.94900512695312,-8.858000755310059,28.19300079345703
1787734446972171000,9.6481708984375,-120.5320053100586,-9.201000213623047,26.862001419067383
1787734446988415500,9.66441552734375,-118.81200408935547,-9.407000541687012,27.673002243041992
1787734447004514600,9.6805146484375,-121.13400268554688,-12.205000877380371,26.531002044677734
1787734447021054200,9.69705419921875,-119.41200256347656,-12.410000801086426,27.444002151489258
1787734447036553500,9.712553466796875,-120.44200897216797,-12.065000534057617,29.078001022338867
1787734447052596000,9.728595947265624,-120.65200805664062,-13.25100040435791,28.457000732421875
1787734447069077200,9.7450771484375,-120.26000213623047,-14.937000274658203,30.6820011138916
1787734447085131300,9.76113134765625,-121.6290054321289,-15.90000057220459,30.57400131225586
1787734447101264000,9.777263916015626,-122.5580062866211,-16.207000732421875,31.591001510620117
1787734447117466400,9.79346630859375,-120.94600677490234,-17.60300064086914,31.57600212097168
1787734447133174800,9.8091748046875,-123.11700439453125,-19.400001525878906,33.09100341796875
1787734447149371000,9.825370849609374,-123.71000671386719,-19.913000106811523,34.717002868652344
1787734447165311500,9.8413115234375,-122.32400512695312,-18.832000732421875,35.64200210571289
1787734447181874000,9.8578740234375,-122.18400573730469,-20.433000564575195,36.137001037597656
1787734447197706200,9.873706298828125,-122.4840087890625,-21.285001754760742,36.435001373291016
1787734447213850400,9.889850341796874,-124.42200469970703,-22.74700164794922,39.07400131225586
1787734447229721600,9.9057216796875,-123.23100280761719,-24.248001098632812,39.16100311279297
1787734447245946400,9.9219462890625,-124.03700256347656,-24.761001586914062,40.78700256347656
1787734447261948400,9.937948486328125,-122.97700500488281,-25.304000854492188,40.37300109863281
1787734447277636000,9.953635986328125,-122.94400787353516,-24.095001220703125,42.625003814697266
1787734447293782800,9.96978271484375,-122.68000793457031,-24.821001052856445,44.452003479003906
1787734447309862000,9.98586181640625,-123.43700408935547,-25.692001342773438,43.32500076293945
1787734447326012700,10.0020126953125,-122.6300048828125,-25.006000518798828,46.590003967285156
1787734447342225700,10.0182255859375,-123.32400512695312,-27.569002151489258,47.17900085449219
1787734447358111200,10.034111328125,-121.35600280761719,-27.538002014160156,49.72300338745117
1787734447374446600,10.050446533203125,-121.38500213623047,-26.259000778198242,49.22500228881836
1787734447390486800,10.06648681640625,-122.2040023803711,-27.319002151489258,49.93000411987305
1787734447406333400,10.08233349609375,-124.28800964355469,-28.373001098632812,51.044002532958984
1787734447422679300,10.09867919921875,-122.56100463867188,-27.27800178527832,52.987003326416016
1787734447438331600,10.11433154296875,-122.51800537109375,-27.46700096130371,54.81900405883789
1787734447454251500,10.13025146484375,-124.13300323486328,-26.181001663208008,54.62900161743164
1787734447470998300,10.146998291015626,-124.19500732421875,-27.235000610351562,55.94400405883789
1787734447486663400,10.162663330078125,-123.19400787353516,-28.1820011138916,57.36000442504883
1787734447502880300,10.17888037109375,-123.60600280761719,-28.282001495361328,57.86900329589844
1787734447518856700,10.194856689453125,-122.18900299072266,-27.614002227783203,59.91100311279297
1787734447534702600,10.21070263671875,-122.45100402832031,-27.255001068115234,62.66400146484375
1787734447550914800,10.226914794921875,-122.02000427246094,-27.036001205444336,63.073001861572266
1787734447566951700,10.24295166015625,-122.44300842285156,-26.709001541137695,63.38200378417969
1787734447583304200,10.25930419921875,-122.1300048828125,-24.98400115966797,64.21200561523438
1787734447598995500,10.274995361328125,-121.8550033569336,-27.216001510620117,65.61800384521484
1787734447615279900,10.29127978515625,-123.84300231933594,-25.898000717163086,67.77200317382812
1787734447631278000,10.307278076171874,-122.6100082397461,-24.196001052856445,66.97000122070312
1787734447647457800,10.323457763671875,-122.95500946044922,-25.660001754760742,69.60600280761719
1787734447663588400,10.33958837890625,-123.3600082397461,-25.10700035095215,70.83399963378906
1787734447679579000,10.355578857421875,-122.92300415039062,-24.020000457763672,72.06500244140625
1787734447695441400,10.37144140625,-121.62700653076172,-23.144001007080078,73.59900665283203
1787734447711626800,10.387626708984374,-122.05200958251953,-21.630001068115234,74.5300064086914
1787734447727685600,10.403685546875,-121.37800598144531,-20.20400047302246,77.08900451660156
1787734447743928000,10.419927978515625,-121.27700805664062,-21.50400161743164,76.0580062866211
1787734447759636000,10.435635986328125,-124.14000701904297,-19.444000244140625,77.5060043334961
1787734447776257000,10.452257080078125,-122.43400573730469,-18.685001373291016,78.32600402832031
1787734447792074800,10.46807470703125,-120.59500885009766,-18.128000259399414,80.16200256347656
1787734447808190000,10.48418994140625,-122.92800903320312,-17.690000534057617,80.57600402832031
1787734447824554800,10.5005546875,-121.5790023803711,-15.117000579833984,80.8010025024414
1787734447840235800,10.51623583984375,-120.90300750732422,-15.095000267028809,82.5320053100586
1787734447856000800,10.532000732421874,-121.40300750732422,-14.211000442504883,84.47600555419922
1787734447872341800,10.548341796875,-121.55900573730469,-11.971000671386719,83.6810073852539
1787734447888458800,10.564458740234375,-120.6760025024414,-12.384000778198242,84.89900207519531
1787734447904679200,10.58067919921875,-119.21300506591797,-10.023000717163086,85.32500457763672
1787734447920342300,10.59634228515625,-119.4260025024414,-11.104000091552734,84.6030044555664
1787734447936506000,10.612506103515624,-120.57500457763672,-9.03700065612793,86.76200103759766
1787734447952538600,10.62853857421875,-119.8590087890625,-7.758000373840332,86.36500549316406
1787734447968692000,10.64469189453125,-121.22700500488281,-6.019000053405762,88.01100158691406
1787734447984960300,10.660960205078124,-118.69900512695312,-6.360000133514404,86.88500213623047
1787734448000619500,10.67661962890625,-119.4580078125,-6.044000148773193,86.3790054321289
1787734448016646000,10.69264599609375,-119.0830078125,-5.794000148773193,89.02900695800781
1787734448033347300,10.709347412109375,-119.43000793457031,-4.082000255584717,88.84100341796875
1787734448048992500,10.724992431640626,-117.71800231933594,-5.049000263214111,88.83100128173828
1787734448065224000,10.741223876953125,-119.67200469970703,-2.5870001316070557,88.44700622558594
1787734448081007000,10.757007080078125,-119.552001953125,-1.9300000667572021,89.47200775146484
1787734448097000400,10.77300048828125,-118.81500244140625,-3.124000072479248,88.44100189208984
1787734448113224000,10.789223876953125,-119.02800750732422,-2.5830001831054688,88.75200653076172
1787734448129288200,10.8052880859375,-120.0780029296875,-2.4660000801086426,89.36600494384766
1787734448145752000,10.821751953125,-118.60100555419922,-1.9340001344680786,89.26700592041016
1787734448161381000,10.837381103515625,-118.59500885009766,-2.254000186920166,89.36600494384766
1787734448177524500,10.8535244140625,-117.72000885009766,-2.889000177383423,90.07200622558594
1787734448193705500,10.86970556640625,-117.35600280761719,-1.1970000267028809,88.45700073242188
1787734448209863000,10.88586279296875,-117.09000396728516,-2.246000051498413,90.17900085449219
1787734448226037800,10.902037841796876,-115.48100280761719,-2.130000114440918,90.99300384521484
1787734448241855000,10.91785498046875,-115.19100189208984,-2.0400002002716064,89.77100372314453
1787734448257814000,10.93381396484375,-117.43500518798828,-1.6130000352859497,89.37000274658203
1787734448274084600,10.950084716796875,-117.76700592041016,-0.6480000019073486,89.3790054321289
1787734448290428700,10.9664287109375,-116.88900756835938,-1.7130000591278076,89.97900390625
1787734448306604800,10.982604736328126,-116.13300323486328,-1.7060000896453857,90.59000396728516
1787734448322171000,10.9981708984375,-116.27200317382812,-0.9690000414848328,89.5780029296875
1787734448338734000,11.014734130859376,-115.427001953125,-0.10900000482797623,89.89000701904297
1787734448354400800,11.03040087890625,-117.12200927734375,-1.0760000944137573,89.47600555419922
1787734448370473200,11.04647314453125,-116.98800659179688,-0.9520000219345093,90.8010025024414
1787734448387052300,11.06305224609375,-118.19000244140625,0.5410000085830688,90.20500183105469
1787734448402489000,11.078489013671875,-116.49800872802734,-0.11300000548362732,89.48400115966797
1787734448418719700,11.0947197265625,-117.54700469970703,-0.2120000123977661,89.99400329589844
1787734448434776800,11.11077685546875,-117.2540054321289,0.6360000371932983,89.38900756835938
1787734448450885600,11.1268857421875,-117.05400848388672,2.682000160217285,90.12000274658203
1787734448467149600,11.143149658203125,-119.26600646972656,0.42600002884864807,89.49200439453125
1787734448482984700,11.158984619140625,-116.85000610351562,1.4870001077651978,88.98900604248047
1787734448498904300,11.174904296875,-118.61900329589844,1.8360000848770142,90.8280029296875
1787734448515544000,11.1915439453125,-118.73100280761719,0.753000020980835,89.90200805664062
1787734448531220200,11.20722021484375,-115.80500793457031,4.502000331878662,90.13500213623047
1787734448547491300,11.2234912109375,-117.71100616455078,3.4280002117156982,89.72000122070312
1787734448563372000,11.2393720703125,-115.01900482177734,2.257000207901001,90.62300109863281
1787734448579232800,11.255232666015624,-118.3340072631836,2.572000026702881,89.81500244140625
1787734448595917600,11.27191748046875,-118.34900665283203,3.320000171661377,89.61800384521484
1787734448611692500,11.287692626953126,-117.05300903320312,2.8990001678466797,90.32600402832031
1787734448627837000,11.3038369140625,-117.82600402832031,4.394999980926514,89.9330062866211
1787734448644111400,11.320111328125,-114.62200164794922,4.077000141143799,90.53700256347656
1787734448659583500,11.33558349609375,-117.3810043334961,2.7850000858306885,89.81600189208984
1787734448675915300,11.351915283203125,-116.55500793457031,3.635000228881836,89.31300354003906
1787734448691909400,11.367909423828126,-117.4320068359375,5.13200044631958,89.02200317382812
1787734448708127200,11.384127197265625,-117.63700866699219,5.461000442504883,89.53400421142578
1787734448723860500,11.399860595703124,-117.07000732421875,4.509000301361084,90.54400634765625
1787734448739907000,11.415906982421875,-115.13800811767578,3.114000082015991,90.6310043334961
1787734448756235300,11.4322353515625,-117.19300842285156,4.067000389099121,89.52200317382812
1787734448772356600,11.448356689453124,-115.302001953125,4.37600040435791,88.80900573730469
1787734448788676400,11.46467626953125,-115.51900482177734,5.3460001945495605,89.22500610351562
1787734448804397000,11.48039697265625,-118.26500701904297,4.49500036239624,89.32300567626953
1787734448820371700,11.496371826171876,-118.49900817871094,5.99500036239624,89.33700561523438
1787734448836678100,11.51267822265625,-115.41900634765625,6.315000534057617,89.53900146484375
1787734448853237500,11.529237548828124,-116.80400848388672,5.12600040435791,88.61400604248047
1787734448869231400,11.5452314453125,-115.84600830078125,6.63800048828125,89.64400482177734
1787734448884797200,11.560797119140625,-116.80500793457031,7.179000377655029,89.85400390625
1787734448901352000,11.57735205078125,-115.54900360107422,8.354000091552734,89.76100158691406
1787734448917122000,11.5931220703125,-116.58100891113281,7.509000301361084,90.57000732421875
1787734448933180700,11.6091806640625,-117.65200805664062,8.045000076293945,90.47400665283203
1787734448949527800,11.62552783203125,-117.3290023803711,7.508000373840332,90.36700439453125
1787734448965187300,11.641187255859375,-116.29700469970703,7.704000473022461,89.14500427246094
1787734448981212200,11.657212158203125,-114.7090072631836,8.23900032043457,89.25000762939453
1787734448997408300,11.673408203125,-115.02000427246094,8.460000038146973,89.76100158691406
1787734449013520400,11.689520263671875,-116.1090087890625,9.634000778198242,89.26400756835938
1787734449029735400,11.7057353515625,-114.07300567626953,9.75,90.17900085449219
1787734449045470000,11.721469970703126,-114.57500457763672,9.01200008392334,90.98800659179688
1787734449061797000,11.737797119140625,-114.27300262451172,8.893000602722168,90.17200469970703
1787734449093841000,11.7698408203125,-113.9330062866211,9.447000503540039,91.50000762939453
1787734449110069800,11.78606982421875,-114.36800384521484,7.712000370025635,89.9580078125
1787734449125765400,11.801765380859376,-114.46300506591797,6.962000370025635,89.95100402832031
1787734449141856500,11.8178564453125,-114.36400604248047,8.795000076293945,90.7820053100586
1787734449158581000,11.8345810546875,-113.77200317382812,9.199000358581543,89.0530014038086
1787734449174204400,11.850204345703125,-113.67000579833984,10.817000389099121,89.88200378417969
1787734449190482400,11.866482421875,-112.7040023803711,10.066000938415527,89.8740005493164
1787734449206316000,11.88231591796875,-112.8010025024414,9.747000694274902,90.07500457763672
1787734449222254000,11.898254150390626,-111.84600830078125,10.50100040435791,90.48800659179688
1787734449238469000,11.91446923828125,-113.11700439453125,11.046000480651855,91.0040054321289
1787734449254617000,11.9306171875,-112.13800811767578,11.815000534057617,92.53800201416016
1787734449270777000,11.946777099609376,-110.03300476074219,10.071000099182129,90.5840072631836
1787734449286548500,11.962548583984375,-113.41800689697266,9.760000228881836,90.99300384521484
1787734449302503700,11.978503662109375,-111.09400177001953,12.12700080871582,91.9280014038086
1787734449318754800,11.9947548828125,-110.87200164794922,11.268000602722168,91.81800079345703
1787734449334843600,12.01084375,-111.55500793457031,11.781000137329102,90.09200286865234
1787734449351097900,12.027097900390626,-109.7550048828125,13.180000305175781,90.71300506591797
1787734449366829300,12.042829345703124,-110.71400451660156,13.396000862121582,90.71600341796875
1787734449382839000,12.058839111328124,-109.63600158691406,13.188000679016113,91.32400512695312
1787734449399269000,12.07526904296875,-110.91100311279297,12.973000526428223,91.12000274658203
1787734449415600600,12.0916005859375,-110.39200592041016,12.641000747680664,90.40400695800781
1787734449431633200,12.107633056640625,-109.11400604248047,14.370000839233398,91.64000701904297
1787734449447193900,12.12319384765625,-110.19700622558594,14.575000762939453,90.8280029296875
1787734449463279400,12.139279296875,-108.61100769042969,15.542000770568848,91.14000701904297
1787734449479653000,12.155653076171875,-109.46700286865234,14.242000579833984,90.00900268554688
1787734449495508700,12.1715087890625,-108.62500762939453,15.42500114440918,90.4260025024414
1787734449511629600,12.187629638671876,-110.50100708007812,13.720000267028809,90.92300415039062
1787734449527455000,12.203455078125,-109.48100280761719,14.233000755310059,89.39800262451172
1787734449543412700,12.219412841796874,-108.0790023803711,15.00100040435791,90.8290023803711
1787734449559688400,12.2356884765625,-108.50000762939453,15.004000663757324,91.03300476074219
1787734449575962600,12.251962646484374,-109.13700866699219,15.221000671386719,91.13800811767578
1787734449592145200,12.268145263671874,-106.71900177001953,14.770000457763672,89.8060073852539
1787734449607771000,12.28377099609375,-108.29300689697266,14.784000396728516,90.6240005493164
1787734449623723800,12.299723876953125,-108.62200164794922,14.670001029968262,90.11400604248047
1787734449640014300,12.316014404296874,-108.5840072631836,13.612000465393066,91.12300109863281
1787734449656118300,12.3321181640625,-107.58600616455078,12.34000015258789,92.23100280761719
1787734449672340200,12.34834033203125,-108.47200775146484,13.183000564575195,91.11900329589844
1787734449688652000,12.364652099609375,-106.62800598144531,12.664000511169434,92.53800201416016
1787734449704000800,12.380000732421875,-107.0790023803711,13.081000328063965,91.62600708007812
1787734449720707600,12.39670751953125,-106.52400207519531,12.338000297546387,92.2300033569336
1787734449736415000,12.4124150390625,-109.28500366210938,13.315000534057617,92.8530044555664
1787734449752643600,12.4286435546875,-107.69100189208984,12.233000755310059,92.2300033569336
1787734449768425500,12.444425537109375,-105.78500366210938,11.794000625610352,91.71500396728516
1787734449784355800,12.46035595703125,-106.5790023803711,10.748000144958496,93.54000091552734
1787734449800621300,12.476621337890625,-104.36700439453125,11.382000923156738,93.13500213623047
1787734449816739600,12.492739501953125,-106.2550048828125,12.04800033569336,94.57000732421875
1787734449833182500,12.509182373046874,-105.0820083618164,10.860000610351562,94.04800415039062
1787734449848768300,12.524768310546875,-105.07500457763672,8.70300006866455,93.01100158691406
1787734449864803300,12.54080322265625,-104.40800476074219,9.801000595092773,95.0570068359375
1787734449881081300,12.557081298828125,-105.90200805664062,9.042000770568848,94.23700714111328
1787734449897151200,12.573151123046875,-106.51800537109375,8.84000015258789,95.0510025024414
1787734449913578500,12.58957861328125,-103.34500122070312,9.368000030517578,94.84800720214844
1787734449929326000,12.605326171875,-104.29500579833984,7.859000205993652,94.12300109863281
1787734449945066500,12.62106640625,-104.59600830078125,8.519000053405762,95.35100555419922
1787734449961347800,12.637347900390624,-104.35600280761719,7.3470001220703125,95.85000610351562
1787734449977928700,12.6539287109375,-106.01800537109375,7.156000137329102,97.37800598144531
1787734449993595100,12.66959521484375,-105.2030029296875,6.701000213623047,95.54000091552734
1787734450009372000,12.685371826171876,-105.3790054321289,5.426000118255615,96.34400177001953
1787734450025520600,12.701520751953124,-102.91800689697266,6.190000057220459,97.67200469970703
1787734450041706000,12.7177060546875,-104.8320083618164,4.571000099182129,96.53900146484375
1787734450057715500,12.733715576171875,-104.14800262451172,4.599000453948975,98.6780014038086
1787734450074065000,12.75006494140625,-102.04100799560547,3.504000186920166,97.23900604248047
1787734450089757700,12.7657578125,-102.25300598144531,3.829000234603882,97.44600677490234
1787734450105829400,12.781829345703125,-103.84100341796875,3.2940001487731934,97.34200286865234
1787734450122050600,12.798050537109376,-102.70000457763672,3.9240002632141113,96.531005859375
1787734450138199000,12.814198974609376,-103.8530044555664,3.17900013923645,96.72900390625
1787734450154715400,12.83071533203125,-101.91000366210938,1.8980001211166382,97.3270034790039
1787734450170173000,12.8461728515625,-102.34100341796875,4.164000034332275,98.46800231933594
1787734450186164200,12.862164306640626,-100.75000762939453,2.6480002403259277,97.43400573730469
1787734450202388200,12.87838818359375,-104.2350082397461,1.908000111579895,97.83900451660156
1787734450218501000,12.894501220703125,-102.10900115966797,1.2580000162124634,97.5250015258789
1787734450235040000,12.9110400390625,-104.14000701904297,3.0900001525878906,98.0530014038086
1787734450250468600,12.926468505859376,-103.18700408935547,1.25,96.81300354003906
1787734450266621200,12.94262109375,-103.39900207519531,1.5750000476837158,97.02000427246094
1787734450283179500,12.959179443359375,-104.04100799560547,1.8970000743865967,97.02400207519531
1787734450298805200,12.97480517578125,-104.33900451660156,0.937000036239624,97.32100677490234
1787734450315060200,12.991060302734375,-102.7280044555664,1.2700001001358032,98.34100341796875
1787734450330799900,13.0067998046875,-103.83000183105469,2.5440001487731934,97.33500671386719
1787734450346844200,13.02284423828125,-105.32200622558594,2.759000062942505,97.23700714111328
1787734450363191600,13.039191650390626,-103.39600372314453,1.3600000143051147,97.01800537109375
1787734450379175400,13.055175537109376,-106.90200805664062,1.1490000486373901,96.81700134277344
1787734450395340300,13.07134033203125,-105.73700714111328,0.9280000329017639,96.50800323486328
1787734450411040000,13.0870400390625,-105.30400848388672,-0.3630000054836273,96.08900451660156
1787734450427090000,13.10308984375,-104.11500549316406,-0.5680000185966492,96.9000015258789
1787734450443332600,13.11933251953125,-104.98900604248047,-1.446000099182129,95.26400756835938
1787734450459421200,13.135421142578124,-105.17500305175781,-1.8620001077651978,96.177001953125
1787734450475684600,13.1516845703125,-107.05000305175781,-4.9710001945495605,95.84600830078125
1787734450491417600,13.16741748046875,-105.02700805664062,-2.702000141143799,97.49400329589844
1787734450507472000,13.183471923828124,-105.8030014038086,-5.314000129699707,94.41600799560547
1787734450523808500,13.19980859375,-104.42200469970703,-4.343000411987305,95.03400421142578
1787734450540250600,13.216250732421875,-104.46000671386719,-3.7180001735687256,93.71500396728516
1787734450556245800,13.232245849609376,-105.50000762939453,-3.4870002269744873,94.83900451660156
1787734450571876000,13.2478759765625,-106.57300567626953,-3.059000253677368,94.64000701904297
1787734450587801000,13.263801025390626,-105.69900512695312,-4.451000213623047,94.83100128173828
1787734450604221200,13.28022119140625,-103.06600189208984,-3.388000249862671,94.531005859375
1787734450620425500,13.296425537109375,-105.09600830078125,-3.500000238418579,93.92200469970703
1787734450636392200,13.31239208984375,-103.61600494384766,-2.5340001583099365,94.23400115966797
1787734450652145700,13.328145751953125,-104.24900817871094,-2.2060000896453857,94.64500427246094
1787734450668197600,13.34419775390625,-104.07100677490234,-2.3350000381469727,93.01400756835938
1787734450684391400,13.360391357421875,-103.43800354003906,-2.3390002250671387,92.80900573730469
1787734450700700000,13.376699951171876,-101.29700469970703,-2.3310000896453857,93.62100219726562
1787734450716721400,13.392721435546875,-102.56200408935547,-1.4600000381469727,94.54800415039062
1787734450732762400,13.408762451171874,-103.34600830078125,-2.3470001220703125,92.19800567626953
1787734450748492800,13.424492919921875,-104.04800415039062,-2.5370001792907715,93.92900085449219
1787734450764822500,13.440822509765624,-103.03300476074219,-0.406000018119812,93.1310043334961
1787734450781219000,13.457218994140625,-103.79800415039062,-0.20200000703334808,92.31900787353516
1787734450797395500,13.4733955078125,-103.70500183105469,0.7620000243186951,92.3280029296875
1787734450813235500,13.4892353515625,-103.91200256347656,-1.071000099182129,91.39500427246094
1787734450829052400,13.505052490234375,-103.1760025024414,-0.10400000214576721,91.7080078125
1787734450845144600,13.52114453125,-102.76600646972656,0.31800001859664917,91.30400085449219
1787734450861198000,13.537197998046874,-104.3530044555664,0.5400000214576721,91.71500396728516
1787734450877465300,13.55346533203125,-103.71400451660156,-0.8640000224113464,90.88700103759766
1787734450893227000,13.56922705078125,-104.57500457763672,-0.5450000166893005,90.58500671386719
1787734450909214200,13.585214111328124,-103.9070053100586,-1.8240001201629639,91.18400573730469
1787734450925449500,13.601449462890624,-105.8290023803711,-1.8280000686645508,90.677001953125
1787734450941491200,13.6174912109375,-105.19300842285156,-1.6130000352859497,90.7800064086914
1787734450957879300,13.63387939453125,-105.30900573730469,-2.700000047683716,89.6500015258789
1787734450973770800,13.649770751953126,-107.20500183105469,-3.3360002040863037,89.9530029296875
1787734450989496600,13.66549658203125,-106.15900421142578,-4.320000171661377,88.61900329589844
1787734451005766400,13.681766357421875,-105.4280014038086,-3.8960001468658447,88.31600189208984
1787734451021828600,13.69782861328125,-107.54000854492188,-3.562000274658203,89.03400421142578
1787734451038349300,13.714349365234375,-106.69800567626953,-3.567000150680542,88.7280044555664
1787734451054368000,13.730367919921875,-107.46700286865234,-2.501000165939331,88.22900390625
1787734451069752800,13.7457529296875,-106.14600372314453,-3.7720000743865967,89.54000091552734
1787734451086040800,13.762040771484376,-105.95100402832031,-3.999000072479248,88.62100219726562
1787734451102544100,13.778544189453125,-106.7090072631836,-5.196000099182129,87.18500518798828
1787734451118385700,13.7943857421875,-106.8320083618164,-2.3950002193450928,88.22900390625
1787734451134117400,13.810117431640625,-107.44400787353516,-4.9730000495910645,87.69800567626953
1787734451150338300,13.82633837890625,-106.7020034790039,-4.759000301361084,87.80000305175781
1787734451166403300,13.8424033203125,-106.60600280761719,-5.197000026702881,87.0830078125
1787734451182591000,13.858591064453124,-106.17400360107422,-3.681000232696533,88.31900787353516
1787734451198665700,13.874665771484375,-107.02400207519531,-5.625000476837158,87.08000183105469
1787734451214698800,13.89069873046875,-102.64700317382812,-3.889000177383423,89.22900390625
1787734451230380000,13.906380126953126,-103.6100082397461,-6.1610002517700195,87.47900390625
1787734451246511000,13.922510986328126,-105.8270034790039,-5.609000205993652,88.40300750732422
1787734451262597000,13.93859716796875,-105.94500732421875,-4.752000331878662,88.41100311279297
1787734451278840800,13.9548408203125,-107.02400207519531,-3.3550002574920654,88.5260009765625
1787734451294559000,13.97055908203125,-102.43500518798828,-3.889000177383423,89.22900390625
1787734451310587000,13.9865869140625,-106.37200164794922,-3.564000129699707,89.03300476074219
1787734451326814000,14.00281396484375,-106.88700866699219,-4.093000411987305,89.43600463867188
1787734451342892800,14.018892822265625,-107.3550033569336,-2.930000066757202,88.22500610351562
1787734451359566800,14.03556689453125,-107.44600677490234,-2.38100004196167,89.2490005493164
1787734451374917400,14.05091748046875,-106.72400665283203,-1.2060000896453857,89.05400085449219
1787734451390944000,14.066944091796875,-106.71400451660156,-1.4160000085830688,89.35800170898438
1787734451407159600,14.08315966796875,-107.37000274658203,-1.2100000381469727,88.64800262451172
1787734451423255000,14.099255126953125,-106.74000549316406,0.6210000514984131,89.4780044555664
1787734451439529700,14.11552978515625,-106.97400665283203,0.7160000205039978,88.56200408935547
1787734451455220200,14.13122021484375,-108.50000762939453,2.0990002155303955,87.66000366210938
1787734451471271200,14.147271240234375,-108.27200317382812,2.757000207901001,88.78600311279297
1787734451487491000,14.163490966796875,-108.83100891113281,3.1730000972747803,87.77100372314453
1787734451503598600,14.1795986328125,-108.52200317382812,5.004000186920166,88.50000762939453
1787734451519854600,14.1958544921875,-109.60700225830078,6.505000114440918,88.41300201416016
1787734451535573200,14.2115732421875,-109.35400390625,9.599000930786133,87.42100524902344
1787734451551637500,14.227637451171875,-110.11600494384766,10.45300006866455,87.1240005493164
1787734451567914000,14.2439140625,-110.07500457763672,12.575000762939453,85.51300048828125
1787734451584033000,14.260032958984375,-110.69800567626953,13.017000198364258,86.43400573730469
1787734451600333800,14.276333740234374,-109.89000701904297,13.531001091003418,84.91000366210938
1787734451616653300,14.2926533203125,-109.96200561523438,16.621000289916992,83.61300659179688
1787734451632092200,14.308092041015625,-110.13900756835938,19.604000091552734,82.31500244140625
1787734451648371200,14.32437109375,-110.47900390625,19.160001754760742,81.08900451660156
1787734451664474400,14.340474365234375,-111.4780044555664,21.297000885009766,80.49800109863281
1787734451680853500,14.356853515625,-110.37300872802734,22.229001998901367,78.26399993896484
1787734451696635000,14.372634765625,-107.65300750732422,25.334001541137695,78.39000701904297
1787734451712574200,14.38857421875,-109.3340072631836,26.256000518798828,75.03900146484375
1787734451728877600,14.404877685546875,-107.0300064086914,27.422000885009766,74.33300018310547
1787734451745047300,14.42104736328125,-108.44300842285156,27.18800163269043,72.7030029296875
1787734451761219600,14.437219482421876,-109.07600402832031,30.261001586914062,70.08200073242188
1787734451776751600,14.452751708984374,-107.38300323486328,29.714000701904297,69.46400451660156
1787734451793048300,14.46904833984375,-106.6780014038086,29.36600112915039,67.5250015258789
1787734451809201200,14.485201171875,-105.91600799560547,31.04100227355957,64.68600463867188
1787734451825627400,14.50162744140625,-105.94100189208984,31.0260009765625,63.56500244140625
1787734451841482500,14.517482421875,-104.52600860595703,33.249000549316406,61.750003814697266
1787734451857299200,14.53329931640625,-106.52700805664062,32.72200012207031,62.15500259399414
1787734451873223200,14.54922314453125,-106.4000015258789,33.967002868652344,59.11000442504883
1787734451889400300,14.565400390625,-104.14900207519531,33.43600082397461,59.71400451660156
1787734451905666600,14.58166650390625,-105.15800476074219,33.62200164794922,57.47500228881836
1787734451921992200,14.5979921875,-104.55900573730469,33.922000885009766,55.94900131225586
1787734451937905000,14.61390478515625,-102.0570068359375,34.645999908447266,54.323001861572266
1787734451953502200,14.629502197265625,-104.27600860595703,32.711002349853516,53.595001220703125
1787734451969803500,14.645803466796876,-105.6050033569336,35.70500183105469,53.012001037597656
1787734451985878500,14.66187841796875,-104.19600677490234,37.70900344848633,50.78700256347656
1787734452002117000,14.6781171875,-104.50700378417969,34.797000885009766,49.336002349853516
1787734452018022700,14.694022705078124,-103.67500305175781,35.10900115966797,48.72600173950195
1787734452033897200,14.709897216796875,-103.31900787353516,36.47100067138672,46.49700164794922
1787734452050385000,14.726385009765625,-101.94500732421875,34.62800216674805,45.052001953125
1787734452066210300,14.742210205078125,-101.85200500488281,34.72800064086914,44.544002532958984
1787734452082426600,14.758426513671875,-102.74200439453125,34.70500183105469,42.711002349853516
1787734452098220500,14.774220458984376,-101.74600219726562,35.204002380371094,40.066001892089844
1787734452114608600,14.790608642578125,-102.2350082397461,32.3120002746582,40.143001556396484
1787734452130474000,14.806473876953126,-102.07000732421875,33.90400314331055,39.03600311279297
1787734452146633500,14.822633544921874,-102.5060043334961,32.60100173950195,37.70100021362305
1787734452162855400,14.83885546875,-100.62200164794922,32.25699996948242,36.26900100708008
1787734452179068700,14.855068603515624,-102.23600769042969,31.490001678466797,34.8380012512207
1787734452194901800,14.87090185546875,-103.10400390625,30.184001922607422,33.198001861572266
1787734452210771500,14.886771484375,-102.78800201416016,30.1820011138916,33.09600067138672
1787734452226984000,14.90298388671875,-103.61900329589844,28.033000946044922,32.569000244140625
1787734452243097600,14.91909765625,-101.51800537109375,28.556001663208008,31.85700225830078
1787734452258776600,14.934776611328125,-101.82400512695312,26.94300079345703,31.43600082397461
1787734452274876400,14.95087646484375,-102.79800415039062,25.85300064086914,29.900001525878906
1787734452291067600,14.967067626953124,-102.302001953125,26.047000885009766,28.47500228881836
1787734452307313200,14.983313232421875,-103.77600860595703,23.463001251220703,27.435001373291016
1787734452323446300,14.9994462890625,-103.76900482177734,22.4950008392334,27.121002197265625
1787734452339463000,15.015462890625,-103.32500457763672,23.046001434326172,28.34800148010254
1787734452355719700,15.0317197265625,-103.14600372314453,20.216001510620117,25.06300163269043
1787734452371437600,15.0474375,-105.2560043334961,20.551000595092773,25.88300132751465
1787734452387539000,15.0635390625,-102.69500732421875,19.799001693725586,25.975000381469727
1787734452403746300,15.079746337890626,-103.34800720214844,20.11400032043457,25.46900177001953
1787734452419472000,15.095471923828125,-103.98100280761719,19.03700065612793,24.95100212097168
1787734452436001300,15.112001220703124,-105.25300598144531,18.716001510620117,24.84800148010254
1787734452451756500,15.127756591796874,-103.97700500488281,17.418001174926758,24.12200164794922
1787734452467882200,15.14388232421875,-104.29900360107422,16.98400115966797,23.711000442504883
1787734452484369400,15.160369384765625,-103.95600128173828,15.702000617980957,24.005001068115234
1787734452500318500,15.176318359375,-104.44100189208984,16.09800148010254,21.564001083374023
1787734452515869400,15.191869384765624,-106.63200378417969,15.152000427246094,22.679000854492188
1787734452532141800,15.208141845703125,-106.3320083618164,15.141000747680664,21.86400032043457
1787734452548276700,15.22427685546875,-105.47900390625,14.601000785827637,21.654001235961914
1787734452564481000,15.24048095703125,-108.31100463867188,12.57300090789795,21.946001052856445
1787734452580603000,15.256602783203125,-106.52100372314453,12.021000862121582,20.920000076293945
1787734452596584000,15.272583984375,-107.78900146484375,12.891000747680664,21.744001388549805
1787734452612615000,15.288614990234375,-106.73200225830078,12.887001037597656,21.53900146484375
1787734452628626200,15.304626220703126,-108.81700897216797,10.104000091552734,21.517000198364258
1787734452645125400,15.32112548828125,-107.7350082397461,8.926000595092773,21.709001541137695
1787734452660574000,15.336573974609376,-108.26800537109375,9.574000358581543,22.0210018157959
1787734452676607000,15.35260693359375,-106.16300201416016,8.154000282287598,20.27400016784668
1787734452693055700,15.3690556640625,-108.36800384521484,7.200000286102295,20.77800178527832
1787734452709376000,15.3853759765625,-106.47700500488281,7.293000221252441,19.961000442504883
1787734452725355500,15.40135546875,-107.76000213623047,7.289000511169434,19.55500030517578
1787734452741533200,15.417533203125,-108.03400421142578,6.560000419616699,21.077001571655273
1787734452757246000,15.433245849609374,-108.34400177001953,6.242000102996826,21.279001235961914
1787734452773267500,15.449267333984375,-108.13600158691406,6.887000560760498,21.488000869750977
1787734452789480200,15.465480224609376,-110.26300811767578,5.484000205993652,20.459001541137695
1787734452805738800,15.48173876953125,-106.77600860595703,6.549000263214111,20.363000869750977
1787734452821862400,15.4978623046875,-109.8340072631836,6.999000549316406,21.593000411987305
1787734452837392600,15.513392578125,-110.26300811767578,6.13200044631958,20.873001098632812
1787734452854004000,15.53000390625,-109.84800720214844,5.045000076293945,19.742000579833984
1787734452869720300,15.54572021484375,-110.1570053100586,6.348000526428223,20.976001739501953
1787734452885948200,15.5619482421875,-109.17500305175781,5.6060004234313965,21.6820011138916
1787734452901723400,15.577723388671876,-107.71200561523438,5.805000305175781,20.76500129699707
1787734452917721900,15.593721923828125,-111.41400909423828,5.928000450134277,21.48400115966797
1787734452933975800,15.609975830078126,-107.61600494384766,6.016000270843506,20.461000442504883
1787734452950069000,15.626069091796875,-110.03600311279297,4.627000331878662,20.554000854492188
1787734452966341400,15.64234130859375,-109.57600402832031,3.892000198364258,21.667001724243164
1787734452982101800,15.658101806640625,-108.97200775146484,3.763000249862671,20.137001037597656
1787734452998530300,15.6745302734375,-108.6290054321289,4.857000350952148,21.878000259399414
1787734453014446800,15.69044677734375,-109.47300720214844,4.430000305175781,21.875001907348633
1787734453030552800,15.706552734375,-109.14200592041016,3.681000232696533,21.970001220703125
1787734453046945300,15.7229453125,-108.71300506591797,3.0340001583099365,21.760000228881836
1787734453062281700,15.73828173828125,-111.23600769042969,3.0530002117156982,22.884000778198242
1787734453086932200,15.76293212890625,-108.5820083618164,0.45500001311302185,21.22800064086914
1787734453102392800,15.778392822265625,-108.37400817871094,1.749000072479248,21.850000381469727
1787734453118539300,15.794539306640624,-108.24200439453125,-0.2880000174045563,21.73000144958496
1787734453134700300,15.8107001953125,-108.68000793457031,-0.18700000643730164,21.222000122070312
1787734453151138800,15.827138916015626,-107.71500396728516,-0.831000030040741,21.21500015258789
1787734453166908000,15.842907958984375,-108.98200225830078,-0.7170000076293945,21.626001358032227
1787734453198835500,15.87483544921875,-110.57400512695312,-1.2540000677108765,21.317001342773438
1787734453215068000,15.89106787109375,-110.54500579833984,-1.6690000295639038,22.332000732421875
1787734453230993700,15.90699365234375,-110.19000244140625,-4.133000373840332,22.41200065612793
1787734453247328300,15.923328369140625,-110.031005859375,-2.761000156402588,20.8960018157959
1787734453263123000,15.939123046875,-108.41100311279297,-3.7200002670288086,21.496000289916992
1787734453279216400,15.95521630859375,-110.54700469970703,-3.183000087738037,21.30000114440918
1787734453295557400,15.971557373046876,-108.64200592041016,-1.8930001258850098,21.81800079345703
1787734453311416300,15.987416259765626,-109.16200256347656,-4.047000408172607,20.985000610351562
1787734453327780400,16.0037802734375,-109.5570068359375,-4.029000282287598,22.310001373291016
1787734453343373300,16.019373291015626,-109.90100860595703,-3.827000141143799,21.29400062561035
1787734453359352000,16.03535205078125,-108.5840072631836,-4.452000141143799,22.814001083374023
1787734453375736600,16.051736572265625,-109.54000854492188,-4.235000133514404,22.91900062561035
1787734453391628000,16.0676279296875,-108.25800323486328,-5.853000164031982,22.292001724243164
1787734453408262100,16.08426220703125,-107.72000885009766,-6.822000503540039,21.977001190185547
1787734453423614200,16.0996142578125,-109.37600708007812,-7.442000389099121,23.50200080871582
1787734453440105500,16.11610546875,-110.1570053100586,-6.707000255584717,22.28700065612793
1787734453456478700,16.132478759765625,-110.89300537109375,-7.242000579833984,22.283000946044922
1787734453472246000,16.14824609375,-111.95100402832031,-5.400000095367432,23.625001907348633
1787734453488100400,16.164100341796875,-110.55900573730469,-6.368000507354736,23.51300048828125
1787734453503885300,16.17988525390625,-113.13900756835938,-4.76200008392334,23.123001098632812
1787734453520133000,16.196133056640626,-112.27700805664062,-5.945000171661377,22.908000946044922
1787734453536250000,16.21225,-113.00300598144531,-5.933000087738037,23.724000930786133
1787734453552186000,16.22818603515625,-113.34600830078125,-5.299000263214111,23.017000198364258
1787734453568547800,16.2445478515625,-112.57100677490234,-6.254000186920166,23.82200050354004
1787734453584550100,16.260550048828126,-113.31600189208984,-5.821000099182129,24.031002044677734
1787734453600329700,16.276329833984374,-114.02100372314453,-7.418000221252441,24.731000900268555
1787734453616608500,16.2926083984375,-113.40400695800781,-6.134000301361084,24.639001846313477
1787734453632544500,16.30854443359375,-113.07200622558594,-7.315000534057617,24.527000427246094
1787734453649142300,16.325142333984374,-114.4540023803711,-7.963000297546387,24.01300048828125
1787734453664827000,16.340826904296875,-115.0570068359375,-6.860000133514404,26.26500129699707
1787734453680720100,16.35672021484375,-113.61100769042969,-6.996000289916992,24.326000213623047
1787734453697162200,16.373162353515625,-115.47600555419922,-7.937000274658203,25.84800148010254
1787734453713309200,16.38930908203125,-116.9830093383789,-7.082000255584717,25.450000762939453
1787734453729154800,16.40515478515625,-113.78400421142578,-7.728000164031982,25.644001007080078
1787734453745234700,16.421234619140623,-117.7080078125,-7.070000171661377,26.266000747680664
1787734453761148200,16.437148193359373,-114.7340087890625,-9.776000022888184,24.60900115966797
1787734453777240000,16.453239990234376,-119.6090087890625,-7.817000389099121,26.262001037597656
1787734453793162200,16.469162353515625,-117.79600524902344,-7.27500057220459,26.97800064086914
1787734453809515800,16.485515869140624,-116.36200714111328,-6.229000091552734,25.253000259399414
1787734453825441000,16.50144091796875,-118.04800415039062,-6.218000411987305,25.867000579833984
1787734453841251000,16.5172509765625,-118.24300384521484,-6.964000225067139,26.166000366210938
1787734453857613800,16.53361376953125,-117.9260025024414,-6.641000270843506,26.270000457763672
1787734453873466400,16.54946630859375,-117.39700317382812,-6.535000324249268,26.2710018157959
1787734453889826600,16.56582666015625,-117.41000366210938,-6.110000133514404,25.96900177001953
1787734453905737700,16.58173779296875,-119.50900268554688,-6.525000095367432,26.783000946044922
1787734453921659000,16.597658935546875,-118.2090072631836,-8.24000072479248,26.86800193786621
1787734453937906000,16.613906005859373,-118.48700714111328,-5.470000267028809,25.670001983642578
1787734453953840000,16.629840087890624,-117.93900299072266,-6.217000484466553,25.96900177001953
1787734453970427600,16.646427734375,-118.69000244140625,-6.328000068664551,25.56100082397461
1787734453985832200,16.661832275390626,-118.47100830078125,-6.324000358581543,25.86600112915039
1787734454002040000,16.6780400390625,-118.44400787353516,-6.308000087738037,27.089000701904297
1787734454018190000,16.694190185546876,-119.34100341796875,-4.823000431060791,25.881000518798828
1787734454034179800,16.710179931640624,-119.41900634765625,-4.913000106811523,27.10300064086914
1787734454050576000,16.726575927734373,-119.10200500488281,-5.23900032043457,26.79400062561035
1787734454066182400,16.742182373046877,-120.15000915527344,-6.094000339508057,26.889001846313477
1787734454082237700,16.75823779296875,-120.81500244140625,-5.24500036239624,26.185001373291016
1787734454098439700,16.774439697265624,-118.4830093383789,-5.467000484466553,25.874000549316406
1787734454114417400,16.79041748046875,-119.97100830078125,-4.817000389099121,26.187002182006836
1787734454130653400,16.8066533203125,-119.97600555419922,-4.820000171661377,25.98400115966797
1787734454146500000,16.8225,-119.49700927734375,-7.058000564575195,26.98200035095215
1787734454162576100,16.838576171875,-120.78700256347656,-6.093000411987305,26.89000129699707
1787734454178787000,16.854787109375,-119.09900665283203,-4.805000305175781,27.205001831054688
1787734454194820900,16.87082080078125,-120.79700469970703,-4.261000156402588,27.619001388549805
1787734454210960600,16.886960693359374,-121.4580078125,-3.302000045776367,27.119001388549805
1787734454227266600,16.9032666015625,-119.09500885009766,-3.938000202178955,27.926000595092773
1787734454242795500,16.91879541015625,-119.44400787353516,-4.388000011444092,26.292001724243164
1787734454258995700,16.93499560546875,-118.04800415039062,-3.0840001106262207,27.830001831054688
1787734454275431400,16.951431396484374,-120.9580078125,-2.889000177383423,26.00200080871582
1787734454291319800,16.96731982421875,-119.53700256347656,-4.164000034332275,27.007001876831055
1787734454307188700,16.983188720703126,-119.4310073852539,-4.488000392913818,26.801000595092773
1787734454323084000,16.999083984375,-120.73200225830078,-1.909000039100647,27.233001708984375
1787734454339425000,17.015425048828124,-120.75900268554688,-2.249000072479248,25.803001403808594
1787734454355350300,17.031350341796873,-120.41200256347656,-2.6650002002716064,26.81800079345703
1787734454371624400,17.04762451171875,-120.62800598144531,-2.2350001335144043,26.924001693725586
1787734454387329000,17.0633291015625,-120.11700439453125,-1.815000057220459,26.316001892089844
1787734454403539500,17.07953955078125,-119.58100891113281,-1.4890000820159912,26.726001739501953
1787734454419728000,17.095727783203124,-120.74000549316406,-1.6970000267028809,27.031002044677734
1787734454435543300,17.111543212890624,-120.43700408935547,-2.0320000648498535,26.11100196838379
1787734454451899000,17.12789892578125,-121.27400207519531,-0.6180000305175781,27.55000114440918
1787734454467683800,17.143683837890624,-122.23700714111328,-0.9450000524520874,27.03900146484375
1787734454483858700,17.159858642578126,-120.01200866699219,-1.7080000638961792,26.317001342773438
1787734454500379100,17.176379150390623,-120.02100372314453,-1.3890000581741333,26.11600112915039
1787734454516004400,17.19200439453125,-119.281005859375,-1.5000001192092896,25.910001754760742
1787734454532669200,17.208669189453126,-119.16900634765625,-1.3890000581741333,26.21700096130371
1787734454548225800,17.224225830078126,-120.12400817871094,-3.116000175476074,25.184001922607422
1787734454564356600,17.240356689453126,-119.59700775146484,-2.4710001945495605,25.393001556396484
1787734454580463600,17.256463623046876,-119.04800415039062,-2.7850000858306885,26.000001907348633
1787734454596462600,17.272462646484374,-120.4320068359375,-2.8930001258850098,25.797000885009766
1787734454612833500,17.28883349609375,-118.94300842285156,-4.7310004234313965,24.761001586914062
1787734454628574500,17.304574462890624,-119.13800811767578,-4.613000392913818,25.577001571655273
1787734454644589600,17.320589599609374,-118.1820068359375,-4.50600004196167,25.678001403808594
1787734454660829000,17.336828857421875,-117.77800750732422,-3.9790000915527344,25.071001052856445
1787734454676733400,17.3527333984375,-118.93700408935547,-3.6470000743865967,25.687000274658203
1787734454693080300,17.369080322265624,-119.156005859375,-4.515000343322754,24.865001678466797
1787734454708618000,17.384617919921876,-119.33600616455078,-5.360000133514404,25.774002075195312
1787734454724742100,17.4007421875,-118.0580062866211,-5.7920002937316895,25.667001724243164
1787734454741095200,17.41709521484375,-118.89600372314453,-5.135000228881836,26.591001510620117
1787734454756953300,17.432953369140623,-119.12700653076172,-6.443000316619873,24.94900131225586
1787734454773203500,17.449203369140626,-118.8810043334961,-6.747000217437744,26.2710018157959
1787734454789432600,17.4654326171875,-120.92500305175781,-5.7870001792907715,25.671001434326172
1787734454805092400,17.48109228515625,-119.11800384521484,-6.2220001220703125,25.461000442504883
1787734454821386200,17.49738623046875,-119.31500244140625,-5.563000202178955,26.58700180053711
1787734454837358600,17.513358642578126,-118.02400207519531,-6.636000156402588,26.678001403808594
1787734454853667600,17.52966748046875,-118.09800720214844,-7.805000305175781,27.381000518798828
1787734454869482500,17.545482421875,-119.27800750732422,-7.594000339508057,26.977001190185547
1787734454885620500,17.561620361328124,-121.21000671386719,-8.03600025177002,25.753002166748047
1787734454901967000,17.577967041015626,-119.49600219726562,-8.13800048828125,26.36100196838379
1787734454917737000,17.593737060546875,-118.53800201416016,-8.354000091552734,26.358001708984375
1787734454933977900,17.609977783203124,-116.71000671386719,-9.964000701904297,26.341001510620117
1787734454949874400,17.62587451171875,-118.31100463867188,-8.886000633239746,26.659000396728516
1787734454966022400,17.6420224609375,-119.05400848388672,-9.100000381469727,26.556001663208008
1787734454982096400,17.658096435546874,-118.6300048828125,-9.209000587463379,26.452001571655273
1787734454998118700,17.67411865234375,-121.25800323486328,-10.594000816345215,26.749000549316406
1787734455014330600,17.69033056640625,-119.8860092163086,-8.657000541687012,27.57900047302246
1787734455030023400,17.7060234375,-120.3060073852539,-10.166000366210938,26.854001998901367
1787734455046105900,17.72210595703125,-120.82200622558594,-9.291000366210938,28.084001541137695
1787734455062423800,17.738423828125,-120.31600952148438,-8.010000228881836,27.78900146484375
1787734455078241300,17.7542412109375,-121.0570068359375,-8.980000495910645,27.272001266479492
1787734455094858000,17.77085791015625,-121.56500244140625,-9.290000915527344,28.08500099182129
1787734455110216000,17.7862158203125,-121.78900909423828,-8.324000358581543,28.196001052856445
1787734455126395100,17.80239501953125,-120.62800598144531,-8.76300048828125,27.57900047302246
1787734455142503700,17.818503662109375,-122.78800964355469,-6.944000244140625,27.089000701904297
1787734455158521300,17.834521240234373,-122.10400390625,-8.213000297546387,28.4010009765625
1787734455174820900,17.85082080078125,-120.85700225830078,-6.610000133514404,28.21000099182129
1787734455190728000,17.86672802734375,-121.61100769042969,-7.589000225067139,27.082000732421875
1787734455206634000,17.882634033203125,-122.56800842285156,-6.723000526428223,27.600000381469727
1787734455222965200,17.89896533203125,-120.67200469970703,-5.76300048828125,27.50400161743164
1787734455238846500,17.914846435546874,-122.06700897216797,-5.6620001792907715,26.8960018157959
1787734455255123200,17.931123291015624,-121.00000762939453,-6.092000484466553,26.89000129699707
1787734455270861300,17.946861328125,-120.75800323486328,-5.1020002365112305,28.834001541137695
1787734455287048000,17.9630478515625,-121.75000762939453,-5.879000186920166,26.689001083374023
1787734455303313200,17.979313232421877,-121.42900848388672,-4.4730000495910645,27.720001220703125
1787734455319489000,17.995489013671875,-122.46100616455078,-5.75100040435791,28.220001220703125
1787734455335571500,18.011571533203124,-123.36800384521484,-3.946000099182129,26.810001373291016
1787734455351919900,18.027919921875,-122.30000305175781,-5.025000095367432,26.39200210571289
1787734455367467800,18.0434677734375,-122.1030044555664,-4.38700008392334,26.09200096130371
1787734455383781600,18.05978173828125,-122.7610092163086,-2.561000108718872,26.31300163269043
1787734455399956000,18.0759560546875,-122.63800811767578,-2.767000198364258,26.922000885009766
1787734455415931600,18.091931640625,-122.9830093383789,-0.5130000114440918,27.1460018157959
1787734455431712300,18.107712158203125,-124.14400482177734,-0.39900001883506775,27.556001663208008
1787734455447728600,18.123728759765626,-122.91600799560547,1.2990000247955322,26.551000595092773
1787734455463888600,18.139888671875,-123.31600952148438,1.315000057220459,27.672000885009766
1787734455479823400,18.1558232421875,-122.3790054321289,1.194000005722046,26.753002166748047
1787734455496179500,18.172179443359376,-124.23800659179688,2.13700008392334,24.93000030517578
1787734455511905300,18.1879052734375,-120.09400939941406,4.834000110626221,26.782001495361328
1787734455528060200,18.20406005859375,-123.09100341796875,5.4720001220703125,26.078001022338867
1787734455544289800,18.220289794921875,-121.17100524902344,6.772000312805176,27.310001373291016
1787734455560539600,18.23653955078125,-123.19500732421875,7.4200005531311035,27.420001983642578
1787734455576527600,18.252527587890626,-123.42000579833984,10.330000877380371,28.668001174926758
1787734455592351000,18.26835107421875,-123.16900634765625,9.48900032043457,29.88300132751465
1787734455608895700,18.284895751953126,-125.33000946044922,11.199000358581543,29.290000915527344
1787734455624585200,18.300585205078125,-124.59600830078125,13.35300064086914,30.22500228881836
1787734455640723500,18.316723388671875,-126.16900634765625,13.260000228881836,31.04100227355957
1787734455657118000,18.333117919921875,-125.75000762939453,14.660000801086426,31.66400146484375
1787734455672530200,18.3485302734375,-127.86100769042969,17.373001098632812,33.930999755859375
1787734455688644600,18.36464453125,-126.66000366210938,17.283000946044922,35.355003356933594
1787734455705097200,18.38109716796875,-127.9780044555664,19.961000442504883,35.07500076293945
1787734455720895700,18.396895751953124,-127.76500701904297,22.554000854492188,36.72700119018555
1787734455737219800,18.4132197265625,-126.45600891113281,21.49300193786621,37.63300323486328
1787734455752888600,18.428888671875,-126.53300476074219,23.564001083374023,40.198001861572266
1787734455769184500,18.4451845703125,-127.35700225830078,24.33700180053711,41.836002349853516
1787734455785238800,18.46123876953125,-127.3600082397461,26.821001052856445,43.284000396728516
1787734455801154300,18.477154296875,-124.04200744628906,27.264001846313477,44.71000289916992
1787734455817508600,18.493508544921873,-127.75200653076172,28.78700065612793,45.95000076293945
1787734455833237200,18.5092373046875,-127.49500274658203,26.86800193786621,46.74800109863281
1787734455849381600,18.525381591796876,-126.49600219726562,27.650001525878906,49.19900131225586
1787734455865527800,18.54152783203125,-128.6110076904297,29.171001434326172,50.53900146484375
1787734455881651000,18.55765087890625,-127.3080062866211,28.75400161743164,51.552001953125
1787734455897827800,18.573827880859376,-124.96500396728516,31.240001678466797,53.40500259399414
1787734455914046200,18.590046142578124,-125.60400390625,29.511001586914062,52.27000427246094
1787734455929628200,18.605628173828126,-127.46100616455078,29.76300048828125,54.82100296020508
1787734455945874200,18.621874267578125,-127.24800872802734,30.84400177001953,55.54300308227539
1787734455961784600,18.63778466796875,-125.92100524902344,30.658000946044922,57.781002044677734
1787734455977953800,18.653953857421875,-126.28400421142578,29.83100128173828,60.0150032043457
1787734455993773000,18.66977294921875,-128.29400634765625,30.2710018157959,60.63300323486328
1787734456009876500,18.68587646484375,-126.56900787353516,31.798002243041992,62.78400421142578
1787734456026245600,18.70224560546875,-128.52000427246094,28.815000534057617,63.8800048828125
1787734456042027300,18.71802734375,-126.36300659179688,30.0210018157959,66.1290054321289
1787734456058412000,18.734412109375,-125.37400817871094,29.283000946044922,67.13999938964844
1787734456074097700,18.75009765625,-127.64900970458984,28.13500213623047,69.17000579833984
1787734456090199300,18.76619921875,-128.82901000976562,29.21000099182129,69.28300476074219
1787734456106440700,18.782440673828123,-124.781005859375,28.239002227783203,69.26900482177734
1787734456122280700,18.79828076171875,-127.93500518798828,28.58700180053711,70.906005859375
1787734456138652000,18.81465185546875,-126.41200256347656,27.09400177001953,71.60400390625
1787734456154285000,18.83028515625,-125.7030029296875,27.612001419067383,70.38600158691406
1787734456178759200,18.85475927734375,-126.02200317382812,25.407001495361328,73.7280044555664
1787734456194504400,18.87050439453125,-123.86600494384766,24.559001922607422,74.63500213623047
1787734456210489900,18.88648974609375,-124.34200286865234,24.37700080871582,76.97700500488281
1787734456226759000,18.902759033203125,-124.75300598144531,23.5210018157959,77.07100677490234
1787734456242815500,18.9188154296875,-124.83900451660156,23.101001739501953,77.67900085449219
1787734456259096800,18.935096923828127,-124.30400848388672,24.076000213623047,78.50200653076172
1787734456274967800,18.9509677734375,-123.54300689697266,23.113000869750977,78.69600677490234
1787734456290954200,18.966954345703126,-122.84800720214844,22.282001495361328,80.72500610351562
1787734456307103700,18.983103759765626,-123.531005859375,20.69900131225586,82.44400024414062
1787734456323665400,18.99966552734375,-122.07400512695312,21.6510009765625,81.73700714111328
1787734456339436300,19.015436279296875,-122.85400390625,19.96500015258789,83.76100158691406
1787734456355174700,19.031174560546877,-120.95000457763672,20.60700035095215,83.86600494384766
1787734456371299000,19.047299072265623,-122.71700286865234,19.336000442504883,84.77400207519531
1787734456387439600,19.063439697265625,-122.99300384521484,18.60500144958496,86.19400787353516
1787734456403826700,19.07982666015625,-120.22700500488281,17.415000915527344,85.67000579833984
1787734456419914200,19.095914306640626,-121.24700927734375,15.713000297546387,86.47200775146484
1787734456435651300,19.1116513671875,-121.75800323486328,15.726000785827637,87.38900756835938
1787734456451639000,19.12763916015625,-123.22400665283203,15.416000366210938,88.10100555419922
1787734456467987500,19.143987548828125,-119.16000366210938,14.455000877380371,88.8010025024414
1787734456484092000,19.160091796875,-119.71500396728516,12.928000450134277,86.75100708007812
1787734456500435700,19.176435791015624,-122.2560043334961,12.505001068115234,86.85200500488281
1787734456516162300,19.192162353515624,-119.9780044555664,11.3410005569458,88.26500701904297
1787734456531872000,19.2078720703125,-119.74700927734375,10.488000869750977,88.56300354003906
1787734456548272600,19.224272705078125,-118.36100769042969,9.407999992370605,88.14400482177734
1787734456564235300,19.2402353515625,-118.34300231933594,10.068000793457031,89.37200164794922
1787734456580835000,19.2568349609375,-118.65800476074219,9.205000877380371,88.9580078125
1787734456596338200,19.272338134765626,-118.96400451660156,8.133000373840332,88.84700775146484
1787734456612335000,19.288335205078123,-118.22100830078125,8.780000686645508,89.25900268554688
1787734456628549400,19.30454931640625,-119.13200378417969,7.728000164031982,90.57500457763672
1787734456644732700,19.320732666015626,-118.52300262451172,7.6020002365112305,89.2490005493164
1787734456660864500,19.336864501953126,-119.42800903320312,6.553000450134277,90.87100219726562
1787734456676687400,19.352687255859376,-117.61500549316406,4.177999973297119,89.72700500488281
1787734456692688000,19.36868798828125,-119.73700714111328,6.235000133514404,91.07200622558594
1787734456709137200,19.38513720703125,-116.36400604248047,5.999000072479248,89.84300231933594
1787734456725075500,19.401075439453123,-119.31000518798828,4.7230000495910645,90.24300384521484
1787734456741451500,19.417451416015624,-116.97200775146484,5.045000076293945,90.54900360107422
1787734456757058600,19.43305859375,-116.90400695800781,6.210000514984131,89.54000091552734
1787734456773046000,19.4490458984375,-116.36500549316406,4.593000411987305,88.91400146484375
1787734456789208300,19.465208251953126,-118.9800033569336,5.378000259399414,91.16500091552734
1787734456805412400,19.481412353515626,-115.58800506591797,5.801000118255615,91.16500091552734
1787734456821541400,19.497541259765626,-115.2610092163086,4.401000022888184,90.64300537109375
1787734456837641500,19.513641357421875,-118.3280029296875,3.6570000648498535,90.74200439453125
1787734456853227300,19.529227294921874,-118.13200378417969,3.6470000743865967,90.02800750732422
1787734456869510700,19.5455107421875,-118.99800872802734,4.718000411987305,89.93700408935547
1787734456885964800,19.56196484375,-116.66300201416016,5.255000114440918,90.24400329589844
1787734456901701000,19.577701171875,-116.11800384521484,5.371000289916992,90.9580078125
1787734456917458000,19.5934580078125,-117.63700866699219,6.109000205993652,89.94800567626953
1787734456933475300,19.609475341796873,-118.49600219726562,5.673000335693359,89.23200225830078
1787734456949693700,19.625693603515625,-118.67800903320312,5.259000301361084,90.34900665283203
