time,seconds_elapsed,z,y,x
1787734437464368600,0.14036865234375,9.773131370544434,0.17717093229293823,0.0071826050989329815
1787734437480185000,0.15618505859375,9.639056205749512,0.181959331035614,0.009576806798577309
1787734437496167700,0.172167724609375,9.830592155456543,0.18914192914962769,-0.002394201699644327
1787734437512266500,0.1882666015625,9.971850395202637,0.1173158809542656,-0.09576806426048279
1787734437528367600,0.20436767578125,9.950302124023438,0.13168109953403473,-0.17238251864910126
1787734437544416300,0.220416259765625,9.888052940368652,0.08858546614646912,-0.0694318488240242
1787734437560505000,0.236505126953125,9.840168952941895,0.08140286058187485,-0.1364694982767105
1787734437576514800,0.252514892578125,9.840168952941895,0.09576806426048279,-0.10295066982507706
1787734437592600600,0.2686005859375,9.840168952941895,0.10773907601833344,-0.0933738648891449
1787734437608656100,0.28465625,9.859322547912598,0.14844051003456116,-0.12449848651885986
1787734437624724000,0.300723876953125,9.84495735168457,0.10773907601833344,-0.1149216815829277
1787734437640778000,0.316778076171875,9.854534149169922,0.09816227108240128,-0.16998831927776337
1787734437656799200,0.33279931640625,9.84256362915039,0.14365209639072418,-0.10295066982507706
1787734437672876800,0.348876708984375,9.792284965515137,0.1388636976480484,-0.047884032130241394
1787734437688949000,0.364948974609375,9.691728591918945,0.1364694982767105,-0.035913024097681046
1787734437704981000,0.38098095703125,9.773131370544434,0.1173158809542656,-0.07182604819536209
1787734437721046300,0.39704638671875,9.959878921508789,0.10055647045373917,-0.08140286058187485
1787734437737086700,0.413086669921875,10.153809547424316,0.08858546614646912,-0.06703764945268631
1787734437753186000,0.42918603515625,10.218452453613281,0.08858546614646912,-0.043095629662275314
1787734437769277700,0.445277587890625,10.11789608001709,0.13168109953403473,-0.07422025501728058
1787734437785321200,0.4613212890625,9.981427192687988,0.13407529890537262,-0.0694318488240242
1787734437801394700,0.477394775390625,9.849745750427246,0.19632454216480255,-0.05267243832349777
1787734437817391000,0.49339111328125,9.780313491821289,0.20111294090747833,-0.08858546614646912
1787734437833487600,0.509487548828125,9.830592155456543,0.24420857429504395,-0.090979665517807
1787734437849577500,0.525577392578125,9.923966407775879,0.2059013396501541,-0.016759412363171577
1787734437865635600,0.541635498046875,9.940725326538086,0.1843535304069519,-0.05027823522686958
1787734437881728000,0.55772802734375,9.93593692779541,0.17238251864910126,-0.07661445438861847
1787734437897741800,0.573741943359375,9.955090522766113,0.16998831927776337,-0.13407529890537262
1787734437913814800,0.589814697265625,9.971850395202637,0.15801730751991272,-0.14365209639072418
1787734437929880600,0.605880615234375,9.943120002746582,0.18914192914962769,-0.10773907601833344
1787734437945947100,0.621947021484375,9.914389610290527,0.20350714027881622,-0.05506663769483566
1787734437961995500,0.63799560546875,9.86650562286377,0.26096799969673157,-0.11013327538967133
1787734437978017500,0.654017578125,9.880870819091797,0.31364041566848755,-0.181959331035614
1787734437994092000,0.670092041015625,9.959878921508789,0.28730419278144836,-0.19632454216480255
1787734438010163000,0.686162841796875,9.99339771270752,0.2777273952960968,-0.16759411990642548
1787734438026239000,0.702239013671875,10.019734382629395,0.31842881441116333,-0.0933738648891449
1787734438042296000,0.718296142578125,9.99339771270752,0.2777273952960968,-0.028730420395731926
1787734438058305800,0.734305908203125,9.981427192687988,0.33279404044151306,-0.038307227194309235
1787734438074392000,0.75039208984375,9.832986831665039,0.4357447028160095,-0.1412578970193863
1787734438090462700,0.766462646484375,9.703699111938477,0.6607996821403503,-0.19871874153614044
1787734438106550000,0.782550048828125,9.533711433410645,0.751779317855835,-0.1388636976480484
1787734438122620200,0.7986201171875,9.59596061706543,0.7182605266571045,-0.05027823522686958
1787734438138664700,0.814664794921875,9.794678688049316,0.5841852426528931,-0.038307227194309235
1787734438154758400,0.83075830078125,10.062829971313477,0.5291185975074768,-0.16519992053508759
1787734438170848000,0.846847900390625,10.20887565612793,0.6631938815116882,-0.30885201692581177
1787734438186891300,0.862891357421875,10.158597946166992,0.6631938815116882,-0.38067805767059326
1787734438202974500,0.878974365234375,9.856928825378418,0.8451532125473022,-0.3232172429561615
1787734438219024400,0.8950244140625,9.600749015808105,0.811634361743927,-0.22026655077934265
1787734438235126500,0.91112646484375,9.734824180603027,0.6584054827690125,0.026336219161748886
1787734438251225600,0.9272255859375,10.093954086303711,0.586579442024231,-0.05267243832349777
1787734438267279000,0.943279052734375,10.565611839294434,0.5722141861915588,-0.181959331035614
1787734438283367000,0.959366943359375,10.790667533874512,0.49320554733276367,-0.26096799969673157
1787734438299447000,0.975447021484375,10.54645824432373,0.4644751250743866,-0.2106897532939911
1787734438315552800,0.991552734375,10.280701637268066,0.5195417404174805,-0.2585737705230713
1787734438331658800,1.00765869140625,9.919178009033203,0.6320692300796509,-0.31842881441116333
1787734438347718400,1.023718505859375,9.59835433959961,0.7398083209991455,-0.37828385829925537
1787734438363813400,1.0398134765625,9.430760383605957,0.9026140570640564,-0.42377370595932007
1787734438379831300,1.055831298828125,9.27034854888916,1.0055646896362305,-0.5099649429321289
1787734438395953700,1.07195361328125,9.215282440185547,0.8882488012313843,-0.5003881454467773
1787734438412066800,1.08806689453125,9.516951560974121,0.6991068720817566,-0.49320554733276367
1787734438428133600,1.104133544921875,9.916783332824707,0.47644615173339844,-0.5386953949928284
1787734438444234500,1.120234375,10.247182846069336,0.3447650372982025,-0.5363011956214905
1787734438460256300,1.13625634765625,10.27591323852539,0.26815059781074524,-0.5099649429321289
1787734438476384000,1.152384033203125,10.110713958740234,0.3208230137825012,-0.5027823448181152
1787734438492505600,1.168505615234375,9.746794700622559,0.3232172429561615,-0.45489832758903503
1787734438508587300,1.184587158203125,9.528923034667969,0.49799394607543945,-0.3495534360408783
1787734438524654600,1.200654541015625,9.464279174804688,0.6967126727104187,-0.23702596127986908
1787734438540690200,1.216690185546875,9.600749015808105,0.6512228846549988,0.026336219161748886
1787734438556779500,1.232779541015625,9.727641105651855,0.4405331015586853,0.3423708379268646
1787734438572862500,1.248862548828125,9.830592155456543,0.35434186458587646,0.4381389021873474
1787734438588950000,1.264949951171875,9.976638793945312,0.24420857429504395,0.2944868206977844
1787734438605023000,1.28102294921875,10.228029251098633,0.15322890877723694,0.31842881441116333
1787734438621044000,1.2970439453125,10.335768699645996,0.05027823522686958,0.1867477297782898
1787734438637134800,1.313134765625,10.36449909210205,0.06464344263076782,0.21547815203666687
1787734438653220900,1.329220947265625,10.230423927307129,0.17238251864910126,0.3256114423274994
1787734438669259300,1.34525927734375,10.086771965026855,0.14365209639072418,0.4572925269603729
1787734438685328400,1.361328369140625,10.091560363769531,0.17477671802043915,0.5506663918495178
1787734438701379600,1.377379638671875,10.034099578857422,0.36152446269989014,0.38067805767059326
1787734438717483300,1.393483154296875,9.742006301879883,0.3926490843296051,0.26096799969673157
1787734438733581000,1.4095810546875,9.473855972290039,0.3926490843296051,0.4118026793003082
1787734438749628400,1.42562841796875,9.430760383605957,0.5171475410461426,0.3519476354122162
1787734438765711400,1.44171142578125,9.48343276977539,0.47884035110473633,0.29209262132644653
1787734438781759500,1.457759521484375,9.660603523254395,0.42856210470199585,0.2944868206977844
1787734438797872000,1.4738720703125,9.780313491821289,0.4405331015586853,0.2753331959247589
1787734438813946000,1.489946044921875,9.730035781860352,0.5315127968788147,0.26575639843940735
1787734438830004500,1.50600439453125,9.674968719482422,0.545877993106842,0.2992752194404602
1787734438846097000,1.522096923828125,9.545681953430176,0.6033388376235962,0.3663128614425659
1787734438862112000,1.538112060546875,9.442731857299805,0.6751648783683777,0.35913026332855225
1787734438878187000,1.55418701171875,9.399636268615723,0.7398083209991455,0.3232172429561615
1787734438894257000,1.5702568359375,9.41639518737793,0.6967126727104187,0.3902548849582672
1787734438910326000,1.586325927734375,9.406818389892578,0.7637503147125244,0.3711012601852417
1787734438926380500,1.602380615234375,9.435548782348633,0.790086567401886,0.3734954595565796
1787734438942401000,1.618401123046875,9.569623947143555,0.7996633648872375,0.37828385829925537
1787734438958476500,1.6344765625,9.732429504394531,0.8188169598579407,0.33758243918418884
1787734438974543400,1.65054345703125,9.816226959228516,0.8188169598579407,0.2513911724090576
1787734438990617900,1.666617919921875,9.895236015319824,0.8188169598579407,0.26815059781074524
1787734439006670800,1.6826708984375,10.132261276245117,0.8212111592292786,0.23702596127986908
1787734439022701000,1.698701171875,10.290278434753418,0.849941611289978,0.2561795711517334
1787734439038784800,1.71478466796875,10.369287490844727,0.8547300100326538,0.21787235140800476
1787734439054855200,1.730855224609375,10.314221382141113,0.8379706144332886,0.17956513166427612
1787734439070892500,1.746892578125,10.235212326049805,0.8667010068893433,0.12449848651885986
1787734439086966500,1.762966552734375,10.199298858642578,0.8930372595787048,0.10773907601833344
1787734439103005000,1.7790048828125,10.32858657836914,0.9409212470054626,0.18914192914962769
1787734439119097900,1.795097900390625,10.383652687072754,0.9768342971801758,0.17956513166427612
1787734439135189800,1.811189697265625,10.278307914733887,0.9528923034667969,0.16998831927776337
1787734439151234300,1.827234375,10.235212326049805,0.8738836050033569,0.17238251864910126
1787734439167311600,1.8433115234375,10.17296314239502,0.8379706144332886,0.2777273952960968
1787734439183361000,1.859361083984375,10.096348762512207,0.6847416758537292,0.2992752194404602
1787734439199461600,1.875461669921875,10.108319282531738,0.9744400978088379,0.272938996553421
1787734439215557000,1.89155712890625,10.160991668701172,1.4772224426269531,0.019153613597154617
1787734439231605200,1.907605224609375,10.134655952453613,1.4724340438842773,-0.047884032130241394
1787734439247692800,1.92369287109375,10.031704902648926,1.1659762859344482,0.2346317619085312
1787734439263702800,1.939702880859375,10.113107681274414,0.8188169598579407,0.3016694188117981
1787734439279813000,1.955813232421875,10.311826705932617,0.3256114423274994,0.1867477297782898
1787734439295922000,1.971921875,10.764330863952637,0.0071826050989329815,0.0454898327589035
1787734439311984600,1.987984619140625,11.164162635803223,-0.17238251864910126,-0.13407529890537262
1787734439328084200,2.004084228515625,11.245565414428711,-0.33997663855552673,-0.1843535304069519
1787734439344100900,2.020100830078125,11.135432243347168,-0.38307225704193115,-0.19871874153614044
1787734439360222500,2.036222412109375,10.893617630004883,-0.2849099934101105,-0.3687070608139038
1787734439376322800,2.05232275390625,10.591948509216309,-0.24660277366638184,-0.5363011956214905
1787734439392385300,2.06838525390625,10.189722061157227,-0.14604631066322327,-0.7733271718025208
1787734439408480800,2.084480712890625,9.782708168029785,0.009576806798577309,-0.9074024558067322
1787734439424499000,2.1004990234375,9.39245319366455,0.2753331959247589,-1.0989385843276978
1787734439440622600,2.11662255859375,9.138668060302734,0.45489832758903503,-1.2641384601593018
1787734439456740000,2.132739990234375,9.009381294250488,0.4668693244457245,-1.1899182796478271
1787734439472812500,2.1488125,9.011775016784668,0.2992752194404602,-0.9528923034667969
1787734439488865300,2.164865234375,9.282320022583008,0.0933738648891449,-0.7613561153411865
1787734439504895700,2.180895751953125,9.634267807006836,-0.05985504388809204,-0.6823474764823914
1787734439520978700,2.196978759765625,9.782708168029785,-0.14365209639072418,-0.47884035110473633
1787734439537028600,2.213028564453125,9.706093788146973,-0.10055647045373917,-0.10773907601833344
1787734439553110300,2.2291103515625,9.437943458557129,-0.1173158809542656,0.12210428714752197
1787734439569175800,2.24517578125,9.215282440185547,0.07422025501728058,0.24660277366638184
1787734439585213700,2.261213623046875,9.023746490478516,0.3447650372982025,0.17238251864910126
1787734439601305000,2.27730517578125,8.978256225585938,0.4692635238170624,0.16759411990642548
1787734439617389800,2.293389892578125,8.98543930053711,0.5722141861915588,0.1173158809542656
1787734439633472000,2.309471923828125,9.009381294250488,0.6631938815116882,-0.08379705995321274
1787734439649535500,2.325535400390625,9.074024200439453,0.6416460275650024,-0.1867477297782898
1787734439665576400,2.341576416015625,9.215282440185547,0.6368576288223267,-0.22744916379451752
1787734439681675500,2.357675537109375,9.44991397857666,0.6105214357376099,-0.15322890877723694
1787734439697764400,2.373764404296875,9.658209800720215,0.5889736413955688,-0.06224924325942993
1787734439713813500,2.3898134765625,9.799467086791992,0.5985504388809204,-0.11013327538967133
1787734439729902000,2.405902099609375,9.80904483795166,0.5506663918495178,-0.17956513166427612
1787734439745909800,2.42190966796875,9.837775230407715,0.4405331015586853,-0.13168109953403473
1787734439761989400,2.4379892578125,9.806650161743164,0.4596867263317108,-0.13168109953403473
1787734439778065700,2.454065673828125,9.6989107131958,0.6727706789970398,-0.21547815203666687
1787734439794131500,2.47013134765625,9.459490776062012,0.8643068075180054,-0.12928688526153564
1787734439810223400,2.486223388671875,9.421183586120605,0.8834604024887085,0.2537853717803955
1787734439826239200,2.5022392578125,9.624691009521484,0.9241618514060974,0.3758896589279175
1787734439842316500,2.518316650390625,9.99339771270752,0.7924807667732239,0.27054479718208313
1787734439858386000,2.534385986328125,10.429142951965332,0.5434837937355042,0.24181437492370605
1787734439874458000,2.5504580078125,10.805032730102539,0.4165911078453064,0.1628057211637497
1787734439890516500,2.5665166015625,11.183316230773926,0.3878606855869293,0.07422025501728058
1787734439906550000,2.582550048828125,11.288661003112793,0.7326257228851318,-0.1604115068912506
1787734439922630100,2.598630126953125,10.81700325012207,1.5442601442337036,-0.37828385829925537
1787734439938704400,2.614704345703125,10.204087257385254,1.7741034030914307,0.22744916379451752
1787734439954787300,2.630787353515625,9.849745750427246,1.094150185585022,0.9888052940368652
1787734439970849800,2.646849853515625,10.201693534851074,0.4812345504760742,1.2856862545013428
1787734439986879500,2.66287939453125,11.317391395568848,-0.17956513166427612,0.5578489899635315
1787734440002940700,2.678940673828125,12.322956085205078,-0.8451532125473022,0.047884032130241394
1787734440019020300,2.695020263671875,12.820950508117676,-1.1899182796478271,-0.05985504388809204
1787734440035092500,2.711092529296875,12.406753540039062,-1.091755986213684,0.016759412363171577
1787734440051143400,2.727143310546875,11.396400451660156,-0.7469909191131592,0.19632454216480255
1787734440067165000,2.7431650390625,10.091560363769531,-0.17477671802043915,0.2298433631658554
1787734440083247900,2.759247802734375,8.975862503051758,0.2346317619085312,0.38546648621559143
1787734440099332900,2.775332763671875,8.099584579467773,0.42856210470199585,0.7374141216278076
1787734440115411000,2.791410888671875,7.785943984985352,0.44771572947502136,1.2210428714752197
1787734440131478000,2.80747802734375,8.209717750549316,0.31842881441116333,1.4532804489135742
1787734440147520800,2.823520751953125,9.095572471618652,-0.14365209639072418,1.6424223184585571
1787734440163623200,2.839623046875,9.923966407775879,-0.6631938815116882,1.2210428714752197
1787734440179714600,2.855714599609375,10.335768699645996,-0.9265560507774353,0.8355764150619507
1787734440195758300,2.87175830078125,10.381258964538574,-0.9624691009521484,0.5889736413955688
1787734440211846000,2.887845947265625,9.950302124023438,-0.8236053586006165,0.45489832758903503
1787734440227852800,2.903852783203125,9.198522567749023,-0.5817909836769104,0.22744916379451752
1787734440243961000,2.919961181640625,8.65982723236084,-0.09576806426048279,0.24899697303771973
1787734440260064800,2.936064697265625,8.243236541748047,0.3495534360408783,0.33518823981285095
1787734440276123000,2.952122802734375,8.075642585754395,0.6153098344802856,0.3902548849582672
1787734440292217600,2.968217529296875,8.006210327148438,0.8379706144332886,0.37828385829925537
1787734440308230000,2.98422998046875,8.31985092163086,1.0223240852355957,0.4118026793003082
1787734440324346000,3.00034619140625,8.731653213500977,0.9169792532920837,0.42856210470199585
1787734440340457700,3.016457763671875,9.074024200439453,0.7589619159698486,0.36152446269989014
1787734440356520000,3.03252001953125,9.313444137573242,0.6416460275650024,0.33758243918418884
1787734440372568000,3.048568115234375,9.66539192199707,0.4668693244457245,0.2513911724090576
1787734440388582700,3.064582763671875,10.089165687561035,0.304063618183136,0.2537853717803955
1787734440404703200,3.080703125,10.441113471984863,0.2322375625371933,0.29209262132644653
1787734440420821200,3.0968212890625,10.824186325073242,0.22026655077934265,0.31603461503982544
1787734440436894500,3.11289453125,10.955866813659668,0.38307225704193115,0.15083470940589905
1787734440452950500,3.128950439453125,10.6925048828125,0.6177040338516235,0.043095629662275314
1787734440468990000,3.144989990234375,10.177751541137695,0.9552865028381348,0.15083470940589905
1787734440485073400,3.161073486328125,9.856928825378418,1.1971008777618408,0.23702596127986908
1787734440501148200,3.177148193359375,9.77791976928711,1.316810965538025,0.10773907601833344
1787734440517233000,3.19323291015625,9.742006301879883,1.4508862495422363,-0.22744916379451752
1787734440533303300,3.20930322265625,9.75397777557373,1.4987702369689941,-0.38546648621559143
1787734440549346300,3.22534619140625,9.880870819091797,1.2617442607879639,-0.3447650372982025
1787734440565435000,3.241434814453125,10.15141487121582,0.9720458984375,-0.20111294090747833
1787734440581516500,3.2575166015625,10.486603736877441,0.7469909191131592,-0.181959331035614
1787734440597553000,3.273552978515625,10.900800704956055,0.5626373887062073,-0.26815059781074524
1787734440613620500,3.289620361328125,11.200075149536133,0.47644615173339844,-0.2082955539226532
1787734440629665500,3.30566552734375,11.135432243347168,0.6919242739677429,-0.22505496442317963
1787734440645767400,3.321767333984375,10.826580047607422,1.0295066833496094,-0.09576806426048279
1787734440661862400,3.3378623046875,10.381258964538574,1.094150185585022,0.038307227194309235
1787734440677907500,3.353907470703125,10.213664054870605,0.8930372595787048,0.3016694188117981
1787734440693985000,3.369985107421875,10.342951774597168,0.5985504388809204,0.47644615173339844
1787734440709993500,3.385993408203125,10.769119262695312,0.19632454216480255,0.5147533416748047
1787734440726072000,3.402072021484375,11.473014831542969,-0.05506663769483566,0.40462008118629456
1787734440742142200,3.41814208984375,11.8225679397583,-0.26096799969673157,0.17956513166427612
1787734440758180900,3.434180908203125,11.461043357849121,-0.4884171485900879,-0.033518824726343155
1787734440774240800,3.45024072265625,10.448296546936035,-0.47405192255973816,-0.14844051003456116
1787734440790232000,3.466232177734375,9.397241592407227,-0.2585737705230713,-0.2777273952960968
1787734440806294800,3.482294677734375,8.645462036132812,0.035913024097681046,-0.2585737705230713
1787734440822361000,3.498361083984375,8.037335395812988,0.4908113479614258,-0.40222588181495667
1787734440838413600,3.51441357421875,7.682993412017822,0.7709329724311829,-0.4644751250743866
1787734440854490400,3.530490478515625,7.6111674308776855,0.730231523513794,-0.4357447028160095
1787734440870490000,3.546489990234375,7.85537576675415,0.6392518281936646,-0.2992752194404602
1787734440894552300,3.57055224609375,8.80587387084961,-0.021547814831137657,-0.33758243918418884
1787734440910659000,3.5866591796875,9.615114212036133,-0.5841852426528931,-0.3926490843296051
1787734440926741800,3.60274169921875,10.565611839294434,-0.9768342971801758,-0.5291185975074768
1787734440942785300,3.618785400390625,11.252747535705566,-1.0295066833496094,-0.6200982332229614
1787734440958815000,3.63481494140625,11.468226432800293,-0.8212111592292786,-0.5650315880775452
1787734440974880300,3.65088037109375,10.824186325073242,-0.4596867263317108,-0.49320554733276367
1787734440990950400,3.666950439453125,9.832986831665039,0.014365210197865963,-0.27054479718208313
1787734441007046400,3.68304638671875,8.975862503051758,0.42856210470199585,0.026336219161748886
1787734441023059700,3.699059814453125,8.485051155090332,0.7852981686592102,-0.12449848651885986
1787734441039098400,3.715098388671875,8.212111473083496,0.9983820915222168,-0.22505496442317963
1787734441055174700,3.731174560546875,8.200140953063965,0.9840168952941895,-0.10055647045373917
1787734441071253000,3.7472529296875,8.619126319885254,0.8355764150619507,0.038307227194309235
1787734441087360800,3.76336083984375,9.29189682006836,0.629675030708313,-0.07661445438861847
1787734441103428600,3.7794287109375,10.005369186401367,0.47644615173339844,-0.16759411990642548
1787734441119480800,3.795480712890625,10.503362655639648,0.3423708379268646,-0.18914192914962769
1787734441135556900,3.811556884765625,10.582371711730957,0.19632454216480255,-0.21787235140800476
1787734441151641300,3.827641357421875,10.433931350708008,0.1149216815829277,-0.3064578175544739
1787734441167755500,3.843755615234375,10.326191902160645,0.047884032130241394,-0.3423708379268646
1787734441183775700,3.859775634765625,10.204087257385254,0.09576806426048279,-0.3926490843296051
1787734441199841300,3.87584130859375,9.995792388916016,0.2944868206977844,-0.4357447028160095
1787734441215928800,3.8919287109375,9.813833236694336,0.3734954595565796,-0.3687070608139038
1787734441232021500,3.908021484375,9.780313491821289,0.5291185975074768,-0.3926490843296051
1787734441248146000,3.92414599609375,9.861717224121094,0.646434485912323,-0.47884035110473633
1787734441264177000,3.940177001953125,9.96945571899414,0.6799532771110535,-0.3280056416988373
1787734441280244000,3.956243896484375,10.192116737365723,0.6057330369949341,-0.07900865375995636
1787734441296341800,3.972341796875,10.558429718017578,0.6871358752250671,-0.2059013396501541
1787734441312439000,3.98843896484375,10.673351287841797,1.6065093278884888,-0.5267243981361389
1787734441328512800,4.0045126953125,10.304644584655762,1.7166426181793213,-0.21787235140800476
1787734441344536300,4.020536376953125,10.04846477508545,0.6919242739677429,0.6320692300796509
1787734441360607200,4.036607177734375,10.390835762023926,-0.0694318488240242,0.7805097699165344
1787734441376663800,4.052663818359375,11.401188850402832,-0.7493851184844971,0.6991068720817566
1787734441392756000,4.068755859375,12.88559341430664,-1.4173674583435059,0.3495534360408783
1787734441408822300,4.084822265625,13.891158103942871,-1.5634137392044067,0.20111294090747833
1787734441424872000,4.100871826171875,13.869610786437988,-1.280897855758667,0.21787235140800476
1787734441440894500,4.11689453125,12.660538673400879,-1.05105459690094,0.304063618183136
1787734441456938200,4.132938232421875,11.070788383483887,-0.6560112833976746,0.5027823448181152
1787734441473043200,4.149043212890625,9.476250648498535,-0.12689268589019775,0.6153098344802856
1787734441489128700,4.165128662109375,8.26478385925293,0.31603461503982544,0.7733271718025208
1787734441505187000,4.18118701171875,7.433996200561523,0.4429273009300232,1.192312479019165
1787734441521220000,4.19722021484375,7.168240070343018,0.3016694188117981,1.6065093278884888
1787734441537275100,4.213275146484375,7.55131196975708,0.20111294090747833,1.8267759084701538
1787734441553352400,4.2293525390625,8.44195556640625,-0.090979665517807,1.7501614093780518
1787734441569451500,4.245451416015625,9.23443603515625,-0.42377370595932007,1.6759412288665771
1787734441585517800,4.261517822265625,9.739612579345703,-0.6248866319656372,1.5322890281677246
1787734441601558300,4.277558349609375,9.880870819091797,-0.6584054827690125,1.0773907899856567
1787734441617641500,4.293641357421875,9.93593692779541,-0.5003881454467773,0.49559974670410156
1787734441633729300,4.309729248046875,9.744400978088379,-0.3519476354122162,0.31364041566848755
1787734441649844200,4.32584423828125,9.497797966003418,-0.22744916379451752,0.10295066982507706
1787734441665865000,4.341864990234375,9.351752281188965,0,-0.2059013396501541
1787734441681893600,4.3578935546875,9.224859237670898,0.19871874153614044,-0.4165911078453064
1787734441697945900,4.37394580078125,9.11233139038086,0.5099649429321289,-0.40940847992897034
1787734441714047500,4.390047607421875,9.097966194152832,0.6943184733390808,-0.2585737705230713
1787734441730127400,4.40612744140625,9.081207275390625,0.8236053586006165,-0.1628057211637497
1787734441746166000,4.422166015625,8.832210540771484,0.933738648891449,-0.19153612852096558
1787734441762197500,4.438197509765625,8.520963668823242,0.912190854549408,-0.08619125932455063
1787734441778254600,4.454254638671875,8.365341186523438,0.8834604024887085,-0.031124621629714966
1787734441794363600,4.47036376953125,8.573636054992676,0.9050082564353943,-0.06464344263076782
1787734441810448400,4.486448486328125,9.05247688293457,0.8164227604866028,0.14365209639072418
1787734441826489600,4.502489501953125,9.588777542114258,0.608127236366272,0.3423708379268646
1787734441842519800,4.518519775390625,9.847352027893066,0.5099649429321289,0.2968810200691223
1787734441858572300,4.534572265625,9.952696800231934,0.35913026332855225,0.19393034279346466
1787734441874688300,4.550688232421875,10.163386344909668,0.363918662071228,0.023942016065120697
1787734441890778600,4.566778564453125,10.283096313476562,0.4812345504760742,-0.10295066982507706
1787734441906821400,4.5828212890625,10.405200958251953,0.7493851184844971,-0.13168109953403473
1787734441922857700,4.598857666015625,10.465055465698242,0.8978256583213806,-0.031124621629714966
1787734441938924000,4.614924072265625,10.378864288330078,0.8762778043746948,0.1173158809542656
1787734441955026200,4.631026123046875,10.3549222946167,0.5746083855628967,0.1149216815829277
1787734441971133700,4.6471337890625,10.575188636779785,0.3256114423274994,-0.14844051003456116
1787734441987198200,4.6631982421875,10.83855152130127,0.5937620401382446,-0.629675030708313
1787734442003219000,4.679218994140625,10.833763122558594,1.316810965538025,-0.667982280254364
1787734442019292400,4.69529248046875,10.63504409790039,1.0630255937576294,-0.5578489899635315
1787734442035376000,4.711376220703125,10.132261276245117,0.8188169598579407,-0.6655880808830261
1787734442051487200,4.7274873046875,11.05642318725586,0.17238251864910126,0.15562310814857483
1787734442067552800,4.743552734375,12.820950508117676,-0.35434186458587646,0.038307227194309235
1787734442083598800,4.759598876953125,14.197615623474121,-0.8140285611152649,-0.033518824726343155
1787734442099666000,4.775666015625,14.420276641845703,-0.871489405632019,-0.05506663769483566
1787734442115788500,4.79178857421875,13.445837020874023,-0.7398083209991455,0
1787734442131886000,4.807885986328125,11.690886497497559,-0.9002198576927185,-0.15801730751991272
1787734442147915500,4.82391552734375,10.170568466186523,-0.6536170840263367,-0.23942017555236816
1787734442163963400,4.83996337890625,9.08838939666748,-0.23942017555236816,-0.08379705995321274
1787734442180040700,4.856040771484375,8.271966934204102,0.090979665517807,0.20350714027881622
1787734442196137500,4.872137451171875,7.706935405731201,0.3711012601852417,0.33997663855552673
1787734442212247800,4.888247802734375,7.314286231994629,0.6248866319656372,0.38307225704193115
1787734442228288000,4.9042880859375,7.3023152351379395,0.646434485912323,0.6105214357376099
1787734442244347100,4.92034716796875,7.6782050132751465,0.4644751250743866,0.6536170840263367
1787734442260386600,4.936386474609375,8.305485725402832,0.1388636976480484,0.8020575642585754
1787734442276499000,4.9524990234375,9.004592895507812,-0.4357447028160095,1.115697979927063
1787734442292587800,4.968587890625,9.816226959228516,-1.0414776802062988,1.1755530834197998
1787734442308624100,4.9846240234375,10.465055465698242,-1.2832920551300049,1.0031704902648926
1787734442324650500,5.000650390625,10.975020408630371,-1.2066776752471924,1.039083480834961
1787734442340711000,5.0167109375,10.869675636291504,-0.9648633003234863,0.8044517636299133
1787734442356832500,5.03283251953125,10.053253173828125,-0.6105214357376099,0.5051765441894531
1787734442372923000,5.0489228515625,8.899248123168945,-0.3256114423274994,0.5339069962501526
1787734442388976600,5.0649765625,7.948749542236328,-0.10295066982507706,0.8259995579719543
1787734442405012500,5.081012451171875,7.101202011108398,0.19153612852096558,1.7573440074920654
1787734442421060900,5.097060791015625,6.754043102264404,0.31842881441116333,2.6575639247894287
1787734442437166800,5.113166748046875,6.919242858886719,0.33279404044151306,3.1316158771514893
1787734442453258200,5.12925830078125,7.922413349151611,0.2346317619085312,3.069366693496704
1787734442469320400,5.145320556640625,9.425971984863281,-0.08379705995321274,2.808398485183716
1787734442485357600,5.161357666015625,10.960655212402344,-0.31603461503982544,2.518700122833252
1787734442501428700,5.1774287109375,11.939884185791016,-0.7398083209991455,2.6455929279327393
1787734442517548500,5.193548583984375,12.181697845458984,-1.039083480834961,2.52109432220459
1787734442533642800,5.209642822265625,11.626243591308594,-1.3934253454208374,2.43011474609375
1787734442549663200,5.225663330078125,11.12346076965332,-1.6759412288665771,2.363077163696289
1787734442565717800,5.2417177734375,10.78587818145752,-1.764526605606079,1.9153614044189453
1787734442581803300,5.25780322265625,10.450690269470215,-1.7764976024627686,1.5131354331970215
1787734442597896200,5.273896240234375,10.04846477508545,-1.8507179021835327,1.256955862045288
1787734442614018300,5.290018310546875,9.77791976928711,-1.8914192914962769,1.1803414821624756
1787734442630046000,5.3060458984375,9.75637149810791,-1.98958158493042,1.1563993692398071
1787734442646075400,5.322075439453125,9.926360130310059,-2.1595699787139893,1.0797849893569946
1787734442662127900,5.3381279296875,10.20648193359375,-2.365471363067627,0.7781155705451965
1787734442678225200,5.35422509765625,10.414777755737305,-2.6144683361053467,0.35434186458587646
1787734442694352400,5.370352294921875,10.532093048095703,-2.875436305999756,0.12210428714752197
1787734442710383900,5.3863837890625,10.656591415405273,-2.9688100814819336,0.16998831927776337
1787734442726391000,5.40239111328125,10.793061256408691,-3.1052796840667725,0.31124621629714966
1787734442742443500,5.418443603515625,11.03248119354248,-3.287238836288452,0.4213795065879822
1787734442758549200,5.43454931640625,11.224017143249512,-3.4955344200134277,0.5027823448181152
1787734442774614000,5.450614013671875,11.221623420715332,-3.5194764137268066,0.7110779285430908
1787734442790652400,5.46665234375,10.982203483581543,-3.4380736351013184,0.8595184087753296
1787734442806684000,5.482683837890625,10.623072624206543,-3.4524388313293457,0.7876923680305481
1787734442822738700,5.49873876953125,10.20887565612793,-3.600879430770874,0.6751648783683777
1787734442838851300,5.514851318359375,9.600749015808105,-3.56017804145813,0.44771572947502136
1787734442854942500,5.5309423828125,9.141061782836914,-3.160346269607544,0.22744916379451752
1787734442870989600,5.546989501953125,8.793902397155762,-2.736572504043579,0.2082955539226532
1787734442887027700,5.56302783203125,8.604761123657227,-2.456450939178467,0.35913026332855225
1787734442903092700,5.5790927734375,8.643068313598633,-2.205059766769409,0.16998831927776337
1787734442919165200,5.595165283203125,8.767566680908203,-1.965639591217041,-0.07900865375995636
1787734442935262200,5.61126220703125,9.138668060302734,-1.8555063009262085,-0.19871874153614044
1787734442951318800,5.62731884765625,9.68933391571045,-1.7884687185287476,-0.090979665517807
1787734442967366000,5.643365966796875,10.18493366241455,-1.7980455160140991,-0.0933738648891449
1787734442983433200,5.65943310546875,10.536881446838379,-1.7597382068634033,-0.014365210197865963
1787734442999508700,5.6755087890625,10.673351287841797,-1.5610195398330688,0.24420857429504395
1787734443015614000,5.691614013671875,10.565611839294434,-1.3766659498214722,0.38546648621559143
1787734443031677400,5.707677490234375,10.256759643554688,-1.256955862045288,0.5674257874488831
1787734443047728000,5.72372802734375,9.988609313964844,-1.0103530883789062,0.7709329724311829
1787734443063804400,5.739804443359375,9.923966407775879,-0.8643068075180054,0.6584054827690125
1787734443079889400,5.755889404296875,9.962273597717285,-0.8667010068893433,0.8379706144332886
1787734443096002800,5.7720029296875,10.070012092590332,-0.9696516990661621,0.8571242094039917
1787734443112024800,5.78802490234375,10.050858497619629,-1.1444283723831177,0.7374141216278076
1787734443128086800,5.804086669921875,10.098742485046387,-1.2306196689605713,0.646434485912323
1787734443144176400,5.82017626953125,10.127472877502441,-1.357512354850769,0.33758243918418884
1787734443160274000,5.83627392578125,10.187328338623047,-1.37906014919281,0.10295066982507706
1787734443176391000,5.852390869140625,10.20648193359375,-1.3982137441635132,0.1388636976480484
1787734443192416000,5.868416015625,10.232817649841309,-1.357512354850769,0.12928688526153564
1787734443208484400,5.884484375,10.211270332336426,-1.3287819623947144,-0.031124621629714966
1787734443224582000,5.900581787109375,10.127472877502441,-1.357512354850769,-0.16759411990642548
1787734443240660700,5.91666064453125,9.964667320251465,-1.4221558570861816,-0.26575639843940735
1787734443256743400,5.932743408203125,9.888052940368652,-1.434126853942871,-0.363918662071228
1787734443272788200,5.948788330078125,9.734824180603027,-1.2425906658172607,-0.5291185975074768
1787734443288798000,5.9647978515625,9.59835433959961,-0.9265560507774353,-0.5482721924781799
1787734443304855000,5.98085498046875,9.308655738830566,-0.6943184733390808,-0.7182605266571045
1787734443320966000,5.9969658203125,9.083600997924805,-0.47644615173339844,-0.8236053586006165
1787734443337055500,6.013055419921875,8.860940933227539,-0.2106897532939911,-0.7709329724311829
1787734443353101600,6.0291015625,8.834604263305664,0.08140286058187485,-0.6847416758537292
1787734443369137200,6.04513720703125,8.920795440673828,0.20111294090747833,-0.6033388376235962
1787734443385198000,6.061197998046875,9.08838939666748,0.2537853717803955,-0.6177040338516235
1787734443401267700,6.077267822265625,9.346963882446289,0.2849099934101105,-0.608127236366272
1787734443417359400,6.093359375,9.653421401977539,0.2298433631658554,-0.5434837937355042
1787734443433402000,6.109402099609375,10.000580787658691,0.19393034279346466,-0.44771572947502136
1787734443449439200,6.125439208984375,10.216058731079102,0.14365209639072418,-0.4692635238170624
1787734443465502500,6.14150244140625,10.532093048095703,0.2059013396501541,-0.4572925269603729
1787734443481572900,6.15757275390625,10.642226219177246,0.17956513166427612,-0.4165911078453064
1787734443497675300,6.17367529296875,10.759542465209961,0.16998831927776337,-0.3663128614425659
1787734443513738000,6.189738037109375,10.752359390258789,0.18914192914962769,-0.35913026332855225
1787734443529789400,6.20578955078125,10.536881446838379,0.33039984107017517,-0.3232172429561615
1787734443545840000,6.221840087890625,10.244789123535156,0.40462008118629456,-0.35673606395721436
1787734443561923800,6.237923828125,9.904812812805176,0.09816227108240128,-0.4405331015586853
1787734443578031600,6.254031494140625,9.835380554199219,-0.47644615173339844,-0.3423708379268646
1787734443594053600,6.2700537109375,10.170568466186523,-0.8882488012313843,-0.09816227108240128
1787734443610081300,6.286081298828125,10.912771224975586,-1.1468225717544556,-0.14604631066322327
1787734443626132500,6.302132568359375,11.57596492767334,-1.3479355573654175,-0.7757213711738586
1787734443642212900,6.318212890625,11.566388130187988,-1.5849615335464478,-1.113303780555725
1787734443658335500,6.33433544921875,10.903194427490234,-1.7525556087493896,-0.8140285611152649
1787734443674368300,6.3503681640625,10.232817649841309,-1.6735470294952393,-0.6703764796257019
1787734443690400500,6.366400390625,9.90241813659668,-1.3910311460494995,-0.9145850539207458
1787734443706458600,6.382458740234375,9.940725326538086,-1.1563993692398071,-1.173158884048462
1787734443722567200,6.398567138671875,9.921571731567383,-1.039083480834961,-1.3934253454208374
1787734443738647300,6.414647216796875,9.713275909423828,-0.8619126081466675,-1.455674648284912
1787734443754690600,6.430690673828125,9.402029991149902,-0.7733271718025208,-1.2545616626739502
1787734443770721300,6.44672119140625,9.210494041442871,-0.7709329724311829,-1.0558429956436157
1787734443786780000,6.46277978515625,9.244012832641602,-0.7637503147125244,-1.0462661981582642
1787734443802897400,6.4788974609375,9.440337181091309,-0.7422025203704834,-1.1803414821624756
1787734443818986500,6.494986572265625,9.672574996948242,-0.6320692300796509,-1.2761094570159912
1787734443835035400,6.511035400390625,9.66299819946289,-0.4596867263317108,-1.1875240802764893
1787734443851057700,6.5270576171875,9.476250648498535,-0.33279404044151306,-0.9888052940368652
1787734443867129600,6.543129638671875,9.181763648986816,-0.20111294090747833,-0.9002198576927185
1787734443883207200,6.559207275390625,8.951920509338379,-0.20350714027881622,-0.8858546018600464
1787734443899319300,6.5753193359375,8.939949035644531,-0.24420857429504395,-0.9481038451194763
1787734443915388200,6.59138818359375,9.181763648986816,-0.23702596127986908,-1.0342950820922852
1787734443931436300,6.607436279296875,9.495404243469238,-0.3495534360408783,-0.8906430602073669
1787734443947511000,6.623510986328125,9.715670585632324,-0.40701428055763245,-0.790086567401886
1787734443963591000,6.6395908203125,9.856928825378418,-0.35673606395721436,-0.646434485912323
1787734443979702500,6.65570263671875,9.907206535339355,-0.3711012601852417,-0.4620809257030487
1787734443995730700,6.671730712890625,9.84256362915039,-0.2801215946674347,-0.5051765441894531
1787734444011793700,6.687793701171875,9.758766174316406,-0.08858546614646912,-0.6631938815116882
1787734444027874000,6.7038740234375,9.564835548400879,-0.0071826050989329815,-0.6368576288223267
1787734444043971600,6.7199716796875,9.397241592407227,-0.038307227194309235,-0.5195417404174805
1787734444060091400,6.73609130859375,9.370905876159668,0.038307227194309235,-0.4572925269603729
1787734444076111400,6.752111328125,9.442731857299805,0.15083470940589905,-0.33039984107017517
1787734444092181500,6.768181396484375,9.512163162231445,0.21547815203666687,-0.2561795711517334
1787734444108271600,6.784271728515625,9.5408935546875,0.2322375625371933,-0.2059013396501541
1787734444124375300,6.800375244140625,9.560047149658203,0.18914192914962769,-0.15562310814857483
1787734444140499200,6.816499267578125,9.646238327026367,0.0694318488240242,-0.2322375625371933
1787734444156531700,6.83253173828125,9.90241813659668,0.06224924325942993,-0.2825157940387726
1787734444172561000,6.848560791015625,10.17296314239502,0.023942016065120697,-0.2849099934101105
1787734444188615700,6.86461572265625,10.532093048095703,-0.14844051003456116,-0.33518823981285095
1787734444204722700,6.88072265625,11.037269592285156,-0.2513911724090576,-0.45489832758903503
1787734444220809500,6.8968095703125,11.307814598083496,-0.4429273009300232,-0.6272808313369751
1787734444236852700,6.912852783203125,11.26950740814209,-0.730231523513794,-0.8355764150619507
1787734444252887800,6.9288876953125,11.171344757080078,-0.6272808313369751,-1.1563993692398071
1787734444268945700,6.944945556640625,11.161767959594727,0.16998831927776337,-1.5897499322891235
1787734444285076200,6.961076171875,10.754754066467285,0.31603461503982544,-1.0295066833496094
1787734444301169200,6.977169189453125,10.326191902160645,-0.790086567401886,0.33758243918418884
1787734444317222000,6.993221923828125,10.639832496643066,-1.3766659498214722,0.9624691009521484
1787734444333259800,7.009259765625,12.4785795211792,-1.7334020137786865,0.9002198576927185
1787734444349309000,7.025308837890625,14.06114673614502,-2.2649147510528564,0.45489832758903503
1787734444365411000,7.0414111328125,13.965378761291504,-2.38462495803833,0.3902548849582672
1787734444381491700,7.05749169921875,12.828132629394531,-1.965639591217041,0.38067805767059326
1787734444405532700,7.08153271484375,10.682928085327148,-1.1755530834197998,0.4908113479614258
1787734444421618400,7.097618408203125,9.227252960205078,-0.5793967843055725,0.9169792532920837
1787734444437711600,7.113711669921875,8.123526573181152,-0.24899697303771973,1.1875240802764893
1787734444453782300,7.1297822265625,7.225700855255127,-0.1173158809542656,1.434126853942871
1787734444469833000,7.1458330078125,6.823474884033203,-0.12928688526153564,1.8698714971542358
1787734444485829000,7.1618291015625,7.094019412994385,-0.05027823522686958,2.22660756111145
1787734444501880600,7.177880615234375,7.836222171783447,-0.08858546614646912,2.142810583114624
1787734444517944000,7.193944091796875,8.473079681396484,-0.38067805767059326,2.274491548538208
1787734444533994000,7.209993896484375,8.78193187713623,-0.6584054827690125,2.2577321529388428
1787734444550075600,7.22607568359375,8.942343711853027,-0.8595184087753296,1.7477672100067139
1787734444566076400,7.242076416015625,9.05487060546875,-0.9720458984375,1.161187767982483
1787734444582140700,7.258140625,9.17697525024414,-1.0462661981582642,0.768538773059845
1787734444598199800,7.27419970703125,9.320627212524414,-0.9026140570640564,0.45250412821769714
1787734444614249200,7.290249267578125,9.35893440246582,-0.6536170840263367,0.16519992053508759
1787734444630337500,7.306337646484375,9.26795482635498,-0.42616790533065796,0.009576806798577309
1787734444646354200,7.322354248046875,8.995016098022461,-0.27054479718208313,-0.10295066982507706
1787734444662419200,7.338419189453125,8.789113998413086,-0.24660277366638184,-0.0454898327589035
1787734444678480400,7.35448046875,8.827422142028809,-0.1173158809542656,0.033518824726343155
1787734444694549800,7.3705498046875,8.959102630615234,0.009576806798577309,0.1149216815829277
1787734444710602800,7.386602783203125,9.138668060302734,0.09816227108240128,0.07661445438861847
1787734444726626800,7.402626708984375,9.287108421325684,0.17956513166427612,-0.031124621629714966
1787734444742708000,7.4187080078125,9.390059471130371,0.22744916379451752,-0.019153613597154617
1787734444758780400,7.434780517578125,9.457097053527832,0.26815059781074524,0.031124621629714966
1787734444774857000,7.45085693359375,9.569623947143555,0.26096799969673157,0.10055647045373917
1787734444790919700,7.466919677734375,9.84256362915039,0.2992752194404602,0.1173158809542656
1787734444806959600,7.482959716796875,10.122684478759766,0.28969839215278625,0.08140286058187485
1787734444823053600,7.499053466796875,10.182539939880371,0.2849099934101105,0.021547814831137657
1787734444839137300,7.51513720703125,10.256759643554688,0.3495534360408783,-0.15322890877723694
1787734444855173000,7.531173095703125,10.283096313476562,0.3758896589279175,-0.28969839215278625
1787734444871245000,7.5472451171875,10.278307914733887,0.3758896589279175,-0.29209262132644653
1787734444887293000,7.56329296875,10.216058731079102,0.35434186458587646,-0.26096799969673157
1787734444903391000,7.579390869140625,10.287884712219238,0.2992752194404602,-0.31603461503982544
1787734444919499500,7.59549951171875,10.553641319274902,0.12689268589019775,-0.3878606855869293
1787734444935545300,7.61154541015625,10.994174003601074,-0.12449848651885986,-0.47644615173339844
1787734444951628800,7.62762890625,11.283872604370117,-0.395043283700943,-0.5051765441894531
1787734444967615500,7.643615478515625,11.41555404663086,-0.40222588181495667,-0.6272808313369751
1787734444983726300,7.659726318359375,11.259930610656738,0.5171475410461426,-0.9050082564353943
1787734444999832600,7.67583251953125,10.78348445892334,0.586579442024231,-1.0223240852355957
1787734445015895800,7.691895751953125,10.211270332336426,-0.038307227194309235,-0.8427590131759644
1787734445031997000,7.707996826171875,10.228029251098633,-0.26096799969673157,-0.9002198576927185
1787734445048016600,7.7240166015625,11.195286750793457,-0.8188169598579407,-0.9026140570640564
1787734445064119000,7.740119140625,12.591106414794922,-1.5418659448623657,-0.8331822156906128
1787734445080230100,7.756230224609375,13.134590148925781,-1.7980455160140991,-0.6368576288223267
1787734445096279600,7.772279541015625,12.60307788848877,-1.7334020137786865,-0.5770025849342346
1787734445112318200,7.788318115234375,11.621455192565918,-1.6280571222305298,-0.7326257228851318
1787734445128337700,7.804337646484375,10.740388870239258,-1.256955862045288,-1.0630255937576294
1787734445144451300,7.820451416015625,9.581595420837402,-0.7852981686592102,-1.3766659498214722
1787734445160570600,7.836570556640625,8.592789649963379,-0.4213795065879822,-1.1037269830703735
1787734445176629500,7.85262939453125,8.090007781982422,-0.19632454216480255,-0.6320692300796509
1787734445192681500,7.868681396484375,7.893682956695557,-0.12449848651885986,-0.47644615173339844
1787734445208717800,7.8847177734375,7.903259754180908,-0.17477671802043915,-0.24899697303771973
1787734445224801300,7.90080126953125,8.329427719116211,-0.4213795065879822,0.11971008777618408
1787734445240886800,7.91688671875,9.119514465332031,-0.7326257228851318,0.45250412821769714
1787734445256927500,7.932927490234375,9.919178009033203,-0.9289502501487732,0.667982280254364
1787734445272991500,7.948991455078125,10.51054573059082,-0.9744400978088379,0.790086567401886
1787734445289030400,7.965030517578125,10.599130630493164,-0.9624691009521484,0.9552865028381348
1787734445305118000,7.981117919921875,10.04846477508545,-0.8188169598579407,0.8595184087753296
1787734445321204200,7.997204345703125,9.08838939666748,-0.3902548849582672,0.6512228846549988
1787734445337249800,8.013249755859375,8.13789176940918,0.031124621629714966,0.5961562395095825
1787734445353323000,8.029322998046876,7.546523571014404,0.3256114423274994,0.545877993106842
1787734445369358600,8.045358642578124,7.321468830108643,0.5147533416748047,0.45489832758903503
1787734445385441800,8.06144189453125,7.453149795532227,0.524330198764801,0.38307225704193115
1787734445401538300,8.077538330078125,7.951143741607666,0.524330198764801,0.3064578175544739
1787734445417589200,8.09358935546875,8.389283180236816,0.45489832758903503,0.2082955539226532
1787734445433677800,8.109677734375,8.772355079650879,0.3926490843296051,0.21547815203666687
1787734445449694700,8.12569482421875,9.162610054016113,0.36152446269989014,0.13168109953403473
1787734445465778400,8.1417783203125,9.710882186889648,0.31603461503982544,0.2059013396501541
1787734445481851100,8.15785107421875,10.220847129821777,0.33039984107017517,0.304063618183136
1787734445497919500,8.17391943359375,10.47702693939209,0.12928688526153564,0.43335050344467163
1787734445514023000,8.19002294921875,10.517727851867676,0.028730420395731926,0.3926490843296051
1787734445530042000,8.2060419921875,10.800244331359863,0.11971008777618408,0.2944868206977844
1787734445546124800,8.222124755859374,10.975020408630371,0.12689268589019775,0.37828385829925537
1787734445562218000,8.238218017578125,10.864887237548828,0.08619125932455063,0.545877993106842
1787734445578298400,8.25429833984375,10.579977035522461,-0.028730420395731926,0.6967126727104187
1787734445594361600,8.270361572265625,10.491392135620117,-0.181959331035614,0.6847416758537292
1787734445610399000,8.28639892578125,10.608707427978516,-0.1843535304069519,0.6057330369949341
1787734445626482200,8.302482177734374,10.685321807861328,0.43335050344467163,0.2585737705230713
1787734445642561500,8.3185615234375,10.524910926818848,0.8403648138046265,0.20350714027881622
1787734445658646500,8.334646484375,10.137049674987793,-0.05027823522686958,0.9792284965515137
1787734445674718500,8.350718505859374,10.299856185913086,-1.0103530883789062,1.2976573705673218
1787734445690758700,8.366758544921876,11.640608787536621,-1.680729627609253,0.9433154463768005
1787734445706828800,8.382828857421876,13.189657211303711,-2.190694570541382,0.6224924325942993
1787734445722936800,8.398936767578125,14.12818431854248,-2.3104045391082764,0.5722141861915588
1787734445739011300,8.41501123046875,13.725957870483398,-1.9967641830444336,0.6584054827690125
1787734445755070700,8.43107080078125,12.354081153869629,-1.699883222579956,0.7422025203704834
1787734445771105800,8.447105712890625,10.613495826721191,-1.3407529592514038,0.9169792532920837
1787734445787185000,8.463184814453125,9.378087997436523,-0.933738648891449,1.0965443849563599
1787734445803279400,8.479279296875,8.394071578979492,-0.5363011956214905,1.1827356815338135
1787734445819362600,8.495362548828124,7.687781810760498,-0.33997663855552673,1.1994950771331787
1787734445835424800,8.5114248046875,7.252037048339844,-0.3471592366695404,1.5490485429763794
1787734445851463000,8.527462890625,7.41484260559082,-0.38546648621559143,1.9129672050476074
1787734445867572700,8.54357275390625,8.054094314575195,-0.5267243981361389,1.9512743949890137
1787734445891669200,8.567669189453126,9.368511199951172,-1.1013327836990356,2.451662540435791
1787734445907784400,8.583784423828124,9.72285270690918,-1.4676456451416016,2.1092917919158936
1787734445923806200,8.59980615234375,9.840168952941895,-1.4987702369689941,1.1563993692398071
1787734445939866000,8.6158662109375,9.715670585632324,-1.599326729774475,0.5985504388809204
1787734445955954400,8.631954345703125,9.588777542114258,-1.5634137392044067,0.4692635238170624
1787734445972051000,8.648051025390625,9.526528358459473,-1.2090718746185303,0.17477671802043915
1787734445988166700,8.664166748046876,9.485827445983887,-0.8259995579719543,-0.14604631066322327
1787734446004198700,8.68019873046875,9.339780807495117,-0.6224924325942993,-0.4165911078453064
1787734446020270300,8.696270263671876,9.141061782836914,-0.4189853072166443,-0.524330198764801
1787734446036361200,8.712361328125,8.990227699279785,-0.18914192914962769,-0.5961562395095825
1787734446052464600,8.728464599609374,8.81784439086914,-0.10534487664699554,-0.5793967843055725
1787734446068593400,8.744593505859376,8.698134422302246,-0.07661445438861847,-0.6368576288223267
1787734446084627500,8.76062744140625,8.825027465820312,-0.038307227194309235,-0.7086837291717529
1787734446100708000,8.7767080078125,8.973467826843262,0.043095629662275314,-0.7038952708244324
1787734446116809500,8.7928095703125,9.191340446472168,0.12449848651885986,-0.6655880808830261
1787734446132918000,8.80891796875,9.277531623840332,0.05506663769483566,-0.42377370595932007
1787734446149005800,8.825005859375,9.461885452270508,-0.06464344263076782,-0.23942017555236816
1787734446165052200,8.84105224609375,9.78989028930664,-0.13407529890537262,-0.2322375625371933
1787734446181087500,8.85708740234375,10.0580415725708,-0.11971008777618408,-0.26096799969673157
1787734446197151700,8.87315185546875,10.216058731079102,0.05027823522686958,-0.363918662071228
1787734446213273000,8.889273193359376,10.062829971313477,0.31603461503982544,-0.3878606855869293
1787734446229373000,8.905373046875,9.813833236694336,0.43095630407333374,-0.5602431893348694
1787734446245433300,8.921433349609375,9.612719535827637,0.6033388376235962,-0.569819986820221
1787734446261485600,8.937485595703125,9.454702377319336,0.6847416758537292,-0.36152446269989014
1787734446277560000,8.95356005859375,9.591172218322754,0.5219359993934631,-0.272938996553421
1787734446293636600,8.96963671875,10.105925559997559,0.22744916379451752,-0.3974374830722809
1787734446309740300,8.985740234375,10.673351287841797,-0.09816227108240128,-0.28730419278144836
1787734446325803000,9.001802978515625,11.283872604370117,-0.3208230137825012,-0.2537853717803955
1787734446341854500,9.0178544921875,11.5065336227417,-0.17238251864910126,-0.49320554733276367
1787734446357931500,9.033931640625,11.494562149047852,0.28730419278144836,-0.6153098344802856
1787734446374018000,9.05001806640625,11.386823654174805,0.14604631066322327,-0.7038952708244324
1787734446390133000,9.066133056640625,11.295844078063965,-0.181959331035614,-0.5626373887062073
1787734446406175000,9.082175048828125,11.470620155334473,-0.3687070608139038,-0.2059013396501541
1787734446422202600,9.09820263671875,11.808202743530273,-0.7613561153411865,0.0933738648891449
1787734446438237400,9.114237548828125,12.097901344299316,-1.1563993692398071,0.1628057211637497
1787734446454319900,9.13031982421875,12.22000503540039,-1.0893617868423462,0.33039984107017517
1787734446470380300,9.14638037109375,11.729193687438965,-1.0797849893569946,0.19393034279346466
1787734446486414600,9.16241455078125,10.848128318786621,-1.45806884765625,0.17238251864910126
1787734446502442200,9.178442138671874,9.821015357971191,-1.3000515699386597,0.28969839215278625
1787734446518492000,9.194491943359376,9.153033256530762,-1.0654197931289673,0.4118026793003082
1787734446534594600,9.210594482421875,8.65743350982666,-0.8930372595787048,0.31603461503982544
1787734446550677800,9.226677734375,8.44434928894043,-0.7445967197418213,0.2585737705230713
1787734446566721500,9.242721435546875,8.317456245422363,-0.6607996821403503,0.2346317619085312
1787734446582757600,9.258757568359375,7.63989782333374,-1.2952631711959839,-0.7733271718025208
1787734446598801400,9.274801513671875,7.709329605102539,-0.9481038451194763,-0.37828385829925537
1787734446614923500,9.290923583984375,8.528146743774414,-0.7422025203704834,0.07182604819536209
1787734446631023600,9.307023681640626,9.423578262329102,-0.8020575642585754,0.7541735172271729
1787734446647077400,9.323077392578124,10.27591323852539,-1.0773907899856567,1.3048399686813354
1787734446663112000,9.33911181640625,10.843339920043945,-1.3431471586227417,1.6663644313812256
1787734446679175200,9.355175048828125,11.27190113067627,-1.4915876388549805,1.7166426181793213
1787734446695253500,9.37125341796875,11.372458457946777,-1.3527239561080933,1.2497732639312744
1787734446711354400,9.387354248046876,11.013327598571777,-1.161187767982483,0.5985504388809204
1787734446727416000,9.403416015625,10.268731117248535,-0.993593692779541,0.29209262132644653
1787734446743464200,9.419464111328125,9.548076629638672,-0.7709329724311829,0.38067805767059326
1787734446759538200,9.4355380859375,8.918401718139648,-0.5267243981361389,0.8020575642585754
1787734446775616500,9.451616455078126,8.585607528686523,-0.24899697303771973,1.0558429956436157
1787734446791724800,9.467724853515625,8.494627952575684,0.004788403399288654,1.0797849893569946
1787734446807739000,9.48373876953125,8.506598472595215,0.05746084079146385,0.9265560507774353
1787734446823792000,9.499792236328124,8.69334602355957,0.011971008032560349,0.811634361743927
1787734446839871200,9.515871337890625,8.980650901794434,-0.24181437492370605,0.7733271718025208
1787734446855958000,9.5319580078125,9.244012832641602,-0.47165772318840027,0.828393816947937
1787734446872074000,9.548073974609375,9.627084732055664,-0.6943184733390808,0.9552865028381348
1787734446888096500,9.564096435546874,9.971850395202637,-0.8236053586006165,0.9720458984375
1787734446904157200,9.5801572265625,10.321403503417969,-0.9145850539207458,0.9050082564353943
1787734446920239600,9.596239501953125,10.508151054382324,-1.0007762908935547,0.7589619159698486
1787734446936329000,9.612328857421875,10.402806282043457,-1.0893617868423462,0.7206547260284424
1787734446952420400,9.62842041015625,10.079588890075684,-1.1300631761550903,0.8427590131759644
1787734446968449300,9.64444921875,9.797073364257812,-1.048660397529602,1.0295066833496094
1787734446984521200,9.660521240234376,9.622296333312988,-0.9624691009521484,1.3551181554794312
1787734447000619800,9.676619873046874,9.658209800720215,-0.8690952062606812,1.6280571222305298
1787734447016745000,9.692744873046875,9.727641105651855,-0.8834604024887085,1.7980455160140991
1787734447032823000,9.708822998046875,9.93354320526123,-1.0630255937576294,1.821987509727478
1787734447048855300,9.724855224609374,10.218452453613281,-1.1444283723831177,1.45806884765625
1787734447064930300,9.740930419921876,10.357316970825195,-1.1348515748977661,0.9481038451194763
1787734447080983300,9.7569833984375,10.383652687072754,-1.1827356815338135,0.7661445140838623
1787734447097090800,9.7730908203125,10.340557098388672,-1.316810965538025,0.8571242094039917
1787734447113174000,9.789174072265626,10.398017883300781,-1.4772224426269531,0.9768342971801758
1787734447129218800,9.80521875,10.47942066192627,-1.8411411046981812,1.048660397529602
1787734447145257200,9.82125732421875,10.668562889099121,-2.255337953567505,1.0055646896362305
1787734447161323000,9.837322998046876,10.790667533874512,-2.715024709701538,0.7565677165985107
1787734447177446400,9.8534462890625,10.759542465209961,-3.181894063949585,0.3711012601852417
1787734447193540000,9.8695400390625,10.620678901672363,-3.5266590118408203,0.14365209639072418
1787734447209591600,9.885591552734375,10.438719749450684,-3.780444383621216,0.09816227108240128
1787734447225634000,9.901634033203125,10.24239444732666,-3.8714241981506348,0.05506663769483566
1787734447241708500,9.91770849609375,10.070012092590332,-3.7900211811065674,-0.038307227194309235
1787734447257789200,9.9337890625,9.876082420349121,-3.6176388263702393,0.038307227194309235
1787734447273856800,9.949856689453124,9.651026725769043,-3.2561142444610596,0.2513911724090576
1787734447289919500,9.96591943359375,9.330204010009766,-2.808398485183716,0.646434485912323
1787734447305947600,9.98194775390625,8.99740982055664,-2.4013843536376953,1.113303780555725
1787734447322028500,9.998028564453126,8.851364135742188,-2.1140801906585693,1.4939818382263184
1787734447338115000,10.014114990234376,8.62630844116211,-1.9393033981323242,1.7884687185287476
1787734447354228500,10.030228515625,8.875306129455566,-1.7573440074920654,1.7405846118927002
1787734447370248700,10.046248779296874,9.272743225097656,-1.8387469053268433,1.5418659448623657
1787734447386273000,10.06227294921875,9.576807022094727,-2.2409727573394775,1.558625340461731
1787734447402321000,10.07832080078125,9.847352027893066,-2.492363929748535,1.4101848602294922
1787734447418412800,10.094412841796874,9.967061996459961,-2.626439332962036,1.235408067703247
1787734447434529500,10.110529541015625,9.96945571899414,-2.7317841053009033,1.1635819673538208
1787734447450560300,10.126560302734376,9.940725326538086,-2.7557260990142822,1.0582371950149536
1787734447466585000,10.142585205078126,9.926360130310059,-2.7437551021575928,0.8547300100326538
1787734447482639400,10.158639404296874,9.938331604003906,-2.6671407222747803,0.4572925269603729
1787734447498743000,10.174742919921876,9.847352027893066,-2.564189910888672,0.19871874153614044
1787734447514830300,10.190830322265626,9.627084732055664,-2.5115175247192383,0.2513911724090576
1787734447530872800,10.206872802734376,9.485827445983887,-2.4157495498657227,0.40462008118629456
1787734447546909000,10.222908935546876,9.476250648498535,-2.3056161403656006,0.6177040338516235
1787734447562970400,10.238970458984374,9.512163162231445,-2.3247697353363037,0.7254431247711182
1787734447579090400,10.25509033203125,9.617507934570312,-2.233790159225464,0.6344634294509888
1787734447595191000,10.27119091796875,9.591172218322754,-2.070984363555908,0.395043283700943
1787734447611247000,10.2872470703125,9.485827445983887,-1.922544002532959,0.21308395266532898
1787734447627268000,10.30326806640625,9.423578262329102,-1.9752163887023926,0.16759411990642548
1787734447643339800,10.31933984375,9.423578262329102,-2.0853497982025146,0.1412578970193863
1787734447659405600,10.335405517578126,9.545681953430176,-2.188300371170044,0.13407529890537262
1787734447675506400,10.35150634765625,9.670180320739746,-2.188300371170044,0.0071826050989329815
1787734447691562500,10.3675625,9.68694019317627,-2.2577321529388428,-0.023942016065120697
1787734447707609300,10.383609375,9.655815124511719,-2.279279947280884,-0.05506663769483566
1787734447723678500,10.399678466796875,9.825803756713867,-2.2385785579681396,-0.2322375625371933
1787734447739754800,10.415754638671874,10.038887977600098,-2.205059766769409,-0.3471592366695404
1787734447755860000,10.43185986328125,10.266336441040039,-2.2673089504241943,-0.2753331959247589
1787734447771924000,10.447924072265625,10.42195987701416,-2.2194249629974365,-0.2968810200691223
1787734447787979000,10.46397900390625,10.36449909210205,-2.032677173614502,-0.2825157940387726
1787734447804057300,10.480057373046876,10.302249908447266,-1.8267759084701538,-0.23942017555236816
1787734447820141800,10.496141845703125,10.17296314239502,-1.6400281190872192,-0.304063618183136
1787734447836254200,10.512254150390625,9.959878921508789,-1.4891934394836426,-0.3878606855869293
1787734447852275000,10.52827490234375,9.773131370544434,-1.278503656387329,-0.49559974670410156
1787734447868336400,10.54433642578125,9.718064308166504,-1.1013327836990356,-0.5434837937355042
1787734447884423400,10.56042333984375,9.720458984375,-0.9169792532920837,-0.7469909191131592
1787734447900514800,10.576514892578125,9.78989028930664,-0.7541735172271729,-0.9193734526634216
1787734447916634600,10.592634521484374,9.80904483795166,-0.5841852426528931,-1.094150185585022
1787734447932657700,10.60865771484375,9.93354320526123,-0.45250412821769714,-1.194706678390503
1787734447948723500,10.624723388671875,10.072406768798828,-0.2753331959247589,-1.3431471586227417
1787734447964819500,10.6408193359375,10.160991668701172,-0.10534487664699554,-1.4197616577148438
1787734447980916500,10.65691650390625,10.072406768798828,-0.11013327538967133,-1.3838485479354858
1787734447996994000,10.672994140625,10.014945983886719,-0.040701430290937424,-1.5658079385757446
1787734448013032700,10.68903271484375,10.036493301391602,0.07422025501728058,-1.6184803247451782
1787734448029066500,10.70506640625,10.019734382629395,0.12689268589019775,-1.3934253454208374
1787734448045122800,10.721122802734374,10.036493301391602,0.14604631066322327,-1.2090718746185303
1787734448061233200,10.737233154296876,10.134655952453613,0.07422025501728058,-1.015141487121582
1787734448077321000,10.753321044921876,10.247182846069336,-0.09576806426048279,-1.0079588890075684
1787734448093360400,10.7693603515625,10.316615104675293,-0.2849099934101105,-1.0678139925003052
1787734448109398300,10.785398193359375,10.342951774597168,-0.395043283700943,-1.3000515699386597
1787734448125459000,10.801458984375,10.158597946166992,-0.5626373887062073,-1.3646949529647827
1787734448141577200,10.8175771484375,10.038887977600098,-0.5793967843055725,-1.434126853942871
1787734448157673000,10.8336728515625,9.758766174316406,-0.4668693244457245,-1.6855180263519287
1787734448173724700,10.849724609375,9.502586364746094,-0.08140286058187485,-1.9033904075622559
1787734448189795000,10.865795166015625,9.299078941345215,0.07422025501728058,-1.5753847360610962
1787734448205872000,10.8818720703125,9.337387084960938,-0.11013327538967133,-0.7733271718025208
1787734448221949200,10.89794921875,9.78989028930664,-0.2944868206977844,-0.3208230137825012
1787734448238048500,10.914048583984375,10.47702693939209,-0.4381389021873474,-0.26336219906806946
1787734448254110700,10.93011083984375,10.821791648864746,-0.6177040338516235,-0.19871874153614044
1787734448270166500,10.94616650390625,10.943896293640137,-0.6655880808830261,-0.28730419278144836
1787734448286220500,10.962220458984374,10.78348445892334,-0.6248866319656372,-0.4357447028160095
1787734448302317600,10.978317626953125,10.431536674499512,-0.6512228846549988,-0.4620809257030487
1787734448318439400,10.994439453125,9.962273597717285,-0.6536170840263367,-0.5482721924781799
1787734448334466600,11.010466552734375,9.59596061706543,-0.47884035110473633,-0.8427590131759644
1787734448350496300,11.026496337890626,9.279925346374512,-0.33039984107017517,-0.9026140570640564
1787734448366549200,11.04254931640625,9.02135181427002,-0.07661445438861847,-0.6847416758537292
1787734448382656800,11.05865673828125,9.009381294250488,0.13168109953403473,-0.40222588181495667
1787734448398740000,11.074739990234375,9.17936897277832,0.2825157940387726,-0.29209262132644653
1787734448414774500,11.0907744140625,9.44752025604248,0.28730419278144836,-0.21308395266532898
1787734448430805500,11.106805419921875,9.77791976928711,0.023942016065120697,-0.15801730751991272
1787734448446861300,11.122861328125,10.031704902648926,-0.3064578175544739,-0.3519476354122162
1787734448462977500,11.1389775390625,10.160991668701172,-0.47884035110473633,-0.8307880163192749
1787734448479068000,11.15506787109375,9.99339771270752,-0.5722141861915588,-1.3718775510787964
1787734448495112700,11.17111279296875,9.528923034667969,-0.6799532771110535,-1.6663644313812256
1787734448511130600,11.187130615234375,8.925583839416504,-0.5913678407669067,-1.8339585065841675
1787734448527190500,11.2031904296875,8.580819129943848,-0.37828385829925537,-1.8315643072128296
1787734448543311600,11.2193115234375,8.556877136230469,-0.1628057211637497,-1.522712230682373
1787734448559406600,11.235406494140625,8.760383605957031,0.08379705995321274,-1.1563993692398071
1787734448575460400,11.25146044921875,9.05247688293457,0.20350714027881622,-0.9289502501487732
1787734448591504100,11.267504150390625,9.366117477416992,0.24420857429504395,-0.7254431247711182
1787734448607579100,11.2835791015625,9.615114212036133,0.1388636976480484,-0.6560112833976746
1787734448623658200,11.299658203125,9.782708168029785,0.06464344263076782,-0.6871358752250671
1787734448639769300,11.315769287109376,9.890447616577148,-0.002394201699644327,-0.7398083209991455
1787734448655836200,11.331836181640625,9.940725326538086,-0.05985504388809204,-0.768538773059845
1787734448671898400,11.3478984375,9.821015357971191,-0.0933738648891449,-0.7829039692878723
1787734448687980800,11.363980712890625,9.940725326538086,-0.05027823522686958,-0.790086567401886
1787734448704066300,11.38006640625,9.931148529052734,-0.035913024097681046,-0.7086837291717529
1787734448720183000,11.39618310546875,10.038887977600098,-0.028730420395731926,-0.5363011956214905
1787734448736206600,11.41220654296875,10.043676376342773,0.08619125932455063,-0.5027823448181152
1787734448752278300,11.4282783203125,10.02452278137207,0.05746084079146385,-0.36152446269989014
1787734448768371500,11.444371337890624,10.031704902648926,0.033518824726343155,-0.35434186458587646
1787734448784469200,11.46046923828125,10.093954086303711,0.07661445438861847,-0.3711012601852417
1787734448800599800,11.476599853515625,10.134655952453613,0.043095629662275314,-0.33758243918418884
1787734448816633600,11.492633544921874,10.223240852355957,0.035913024097681046,-0.4405331015586853
1787734448832703700,11.508703857421875,10.340557098388672,0.014365210197865963,-0.507570743560791
1787734448848803300,11.52480322265625,10.45547866821289,-0.05506663769483566,-0.608127236366272
1787734448864904400,11.540904541015625,10.733205795288086,-0.2968810200691223,-0.49799394607543945
1787734448880983800,11.55698388671875,11.063606262207031,-0.4572925269603729,-0.49559974670410156
1787734448897017300,11.573017333984374,11.413159370422363,-0.3878606855869293,-0.8834604024887085
1787734448913099000,11.58909912109375,11.312602996826172,0.05746084079146385,-1.3551181554794312
1787734448929204500,11.60520458984375,10.74996566772461,0.13407529890537262,-0.912190854549408
1787734448945319700,11.621319580078126,10.290278434753418,-0.2585737705230713,-0.2059013396501541
1787734448961411800,11.637411865234375,10.383652687072754,-0.2346317619085312,-0.5626373887062073
1787734448977462800,11.653462890625,10.802638053894043,-0.33518823981285095,-0.849941611289978
1787734448993497900,11.669497802734375,11.133037567138672,-0.7445967197418213,-0.6153098344802856
1787734449009557500,11.6855576171875,11.401188850402832,-1.0749965906143188,-0.7015010714530945
1787734449025674500,11.701674560546875,11.60948371887207,-1.2018892765045166,-0.7637503147125244
1787734449041775400,11.717775390625,11.628637313842773,-1.2114660739898682,-0.6248866319656372
1787734449057835000,11.7338349609375,11.319786071777344,-1.048660397529602,-0.31603461503982544
1787734449073856500,11.7498564453125,10.723628997802734,-0.7589619159698486,0.009576806798577309
1787734449089924600,11.765924560546875,9.979032516479492,-0.6009446382522583,0.45489832758903503
1787734449105995800,11.781995849609375,9.435548782348633,-0.6057330369949341,0.8690952062606812
1787734449122091300,11.79809130859375,9.20091724395752,-0.5746083855628967,1.070208191871643
1787734449138146800,11.814146728515626,9.296685218811035,-0.5554547905921936,1.2425906658172607
1787734449154194200,11.830194091796875,9.220070838928223,-0.6871358752250671,1.4628572463989258
1787734449170267400,11.846267333984375,9.006986618041992,-0.7924807667732239,1.4532804489135742
1787734449186342400,11.86234228515625,8.75080680847168,-0.7709329724311829,1.0821791887283325
1787734449202445000,11.878445068359374,8.456320762634277,-0.7613561153411865,0.7110779285430908
1787734449218497300,11.894497314453124,8.202534675598145,-0.6751648783683777,0.35913026332855225
1787734449234525200,11.910525146484375,7.979874134063721,-0.49320554733276367,0.019153613597154617
1787734449250578400,11.926578369140625,7.800309181213379,-0.36152446269989014,-0.08858546614646912
1787734449266649900,11.94264990234375,7.539340972900391,-0.20111294090747833,-0.12210428714752197
1787734449282749700,11.958749755859374,7.527369976043701,-0.0454898327589035,0.0694318488240242
1787734449298772200,11.974772216796875,7.716512203216553,0.14604631066322327,0.15322890877723694
1787734449314786600,11.99078662109375,8.092401504516602,0.2849099934101105,0.17956513166427612
1787734449330840300,12.00684033203125,8.688557624816895,0.3280056416988373,0.17477671802043915
1787734449346940400,12.0229404296875,9.14585018157959,0.3280056416988373,-0.016759412363171577
1787734449363019500,12.03901953125,9.41639518737793,0.4692635238170624,-0.38546648621559143
1787734449379057700,12.0550576171875,9.390059471130371,0.49320554733276367,-0.5410895943641663
1787734449395084300,12.071084228515625,9.272743225097656,0.4213795065879822,-0.5770025849342346
1787734449411133000,12.0871328125,9.464279174804688,0.40701428055763245,-0.8092401623725891
1787734449427208000,12.1032080078125,9.86650562286377,0.38067805767059326,-0.9600749015808105
1787734449443288800,12.119288818359376,10.393229484558105,0.3926490843296051,-1.1492167711257935
1787734449459330800,12.135330810546876,10.805032730102539,0.3256114423274994,-1.455674648284912
1787734449475365000,12.151365234375,11.061211585998535,0.2777273952960968,-1.7932571172714233
1787734449491423200,12.16742333984375,11.274295806884766,0.3423708379268646,-2.0925323963165283
1787734449507495200,12.1834951171875,11.33654499053955,0.35434186458587646,-2.1811177730560303
1787734449523595000,12.199594970703124,11.202469825744629,0.2992752194404602,-2.0398597717285156
1787734449539646000,12.21564599609375,11.176133155822754,0.16998831927776337,-1.656787633895874
1787734449555691500,12.23169140625,11.33654499053955,0.0071826050989329815,-1.2497732639312744
1787734449571762000,12.247761962890625,11.439496040344238,-0.043095629662275314,-0.9888052940368652
1787734449587836000,12.2638359375,11.341333389282227,-0.019153613597154617,-1.0582371950149536
1787734449603940900,12.27994091796875,10.852916717529297,0.2777273952960968,-1.6136919260025024
1787734449620009000,12.296009033203125,10.33098030090332,0.6248866319656372,-1.9776105880737305
1787734449636047000,12.312047119140624,10.072406768798828,0.5195417404174805,-1.5873557329177856
1787734449652123000,12.328122802734375,10.426748275756836,0.3447650372982025,-1.1683704853057861
1787734449668215000,12.344215087890625,11.417947769165039,0.1388636976480484,-1.0821791887283325
1787734449684310300,12.360310302734375,12.425907135009766,-0.40701428055763245,-0.8595184087753296
1787734449700327000,12.376326904296874,12.88559341430664,-0.9576807022094727,-0.9552865028381348
1787734449716366600,12.39236669921875,12.734758377075195,-1.1204863786697388,-1.5658079385757446
1787734449732436200,12.408436279296875,11.707646369934082,-1.2856862545013428,-1.8794482946395874
1787734449748512800,12.4245126953125,10.412383079528809,-1.256955862045288,-1.9560627937316895
1787734449764627200,12.440627197265625,9.198522567749023,-0.7805097699165344,-1.922544002532959
1787734449780672800,12.4566728515625,8.561665534973145,-0.3878606855869293,-1.5394717454910278
1787734449796735000,12.47273486328125,8.286332130432129,-0.10534487664699554,-1.1252747774124146
1787734449812821800,12.48882177734375,8.219294548034668,0.07900865375995636,-0.7230489253997803
1787734449828912600,12.50491259765625,8.453926086425781,0.19393034279346466,-0.49320554733276367
1787734449845038000,12.5210380859375,8.827422142028809,0.20350714027881622,-0.31364041566848755
1787734449861068800,12.53706884765625,9.217676162719727,0.07661445438861847,-0.2992752194404602
1787734449877140700,12.553140625,9.57201862335205,-0.13168109953403473,-0.6248866319656372
1787734449893192400,12.5691923828125,9.749189376831055,-0.2944868206977844,-0.9481038451194763
1787734449909301200,12.58530126953125,9.775525093078613,-0.3471592366695404,-1.070208191871643
1787734449925384000,12.601384033203125,9.622296333312988,-0.3734954595565796,-0.8259995579719543
1787734449941427500,12.617427490234375,9.442731857299805,-0.3687070608139038,-0.7374141216278076
1787734449957463000,12.633463134765625,9.081207275390625,-0.23942017555236816,-0.9313444495201111
1787734449973522700,12.649522705078125,8.671798706054688,-0.13168109953403473,-0.9241618514060974
1787734449989593300,12.66559326171875,8.29830265045166,-0.10773907601833344,-0.8523358106613159
1787734450005689000,12.681689208984375,8.044517517089844,0.014365210197865963,-0.6799532771110535
1787734450021739000,12.697739013671875,8.097189903259277,0.18914192914962769,-0.48602294921875
1787734450037783000,12.713782958984375,8.341399192810059,0.2849099934101105,-0.18914192914962769
1787734450053855000,12.72985498046875,8.786720275878906,0.4405331015586853,-0.2106897532939911
1787734450069931500,12.745931640625,9.169792175292969,0.5315127968788147,-0.24420857429504395
1787734450086032100,12.7620322265625,9.32302188873291,0.5171475410461426,-0.07900865375995636
1787734450102088700,12.778088623046875,9.294290542602539,0.4884171485900879,0.09576806426048279
1787734450118138000,12.79413818359375,9.265560150146484,0.4836287498474121,0.15801730751991272
1787734450134211600,12.810211669921875,9.282320022583008,0.49799394607543945,0.06224924325942993
1787734450150290400,12.82629052734375,9.390059471130371,0.49320554733276367,-0.0454898327589035
1787734450166403300,12.8424033203125,9.706093788146973,0.5123591423034668,-0.17477671802043915
1787734450182425900,12.85842578125,10.038887977600098,0.5291185975074768,-0.13407529890537262
1787734450198436600,12.8744365234375,10.433931350708008,0.5315127968788147,0.023942016065120697
1787734450214494700,12.89049462890625,10.541669845581055,0.524330198764801,0.1173158809542656
1787734450230612500,12.906612548828125,10.41956615447998,0.6320692300796509,-0.014365210197865963
1787734450246697700,12.92269775390625,10.15141487121582,0.7422025203704834,-0.4429273009300232
1787734450262736600,12.938736572265626,9.682151794433594,1.0055646896362305,-1.2066776752471924
1787734450278767600,12.954767578125,9.284713745117188,1.1037269830703735,-1.359906554222107
1787734450294815500,12.9708154296875,9.066842079162598,0.7733271718025208,-1.0534487962722778
1787734450310917600,12.986917724609375,9.634267807006836,0.507570743560791,-1.0654197931289673
1787734450327003400,13.00300341796875,10.903194427490234,0.07900865375995636,-0.7829039692878723
1787734450343040000,13.0190400390625,12.358869552612305,-0.5315127968788147,-0.4405331015586853
1787734450359057400,13.035057373046875,13.783419609069824,-0.7852981686592102,-0.9193734526634216
1787734450375100200,13.05110009765625,14.18803882598877,-0.7996633648872375,-1.0773907899856567
1787734450391201000,13.067200927734374,13.453019142150879,-0.9552865028381348,-0.11971008777618408
1787734450407281200,13.08328125,12.107478141784668,-0.7493851184844971,0.7182605266571045
1787734450423334100,13.099334228515625,10.843339920043945,-0.35913026332855225,0.9768342971801758
1787734450439358700,13.115358642578125,9.799467086791992,-0.08379705995321274,1.0342950820922852
1787734450455420000,13.131419921875,9.275136947631836,0.038307227194309235,1.259350061416626
1787734450471538000,13.147537841796876,9.05247688293457,0.05027823522686958,1.8602946996688843
1787734450487642600,13.163642578125,9.062053680419922,-0.023942016065120697,2.604891538619995
1787734450503706000,13.1797060546875,9.320627212524414,-0.14365209639072418,3.361459255218506
1787734450519741400,13.195741455078124,9.648633003234863,-0.3998316824436188,3.5027170181274414
1787734450535804200,13.21180419921875,9.864110946655273,-0.7589619159698486,2.9448680877685547
1787734450551883500,13.227883544921875,9.780313491821289,-1.1109095811843872,2.0853497982025146
1787734450567988500,13.243988525390625,9.44991397857666,-1.2449848651885986,1.1252747774124146
1787734450584053500,13.260053466796874,8.851364135742188,-1.0821791887283325,0.38067805767059326
1787734450600108500,13.276108642578125,8.216899871826172,-0.8786720037460327,0.14844051003456116
1787734450616187000,13.292186767578125,7.728483200073242,-0.5291185975074768,0.17717093229293823
1787734450632264000,13.308263916015624,7.3669586181640625,-0.16998831927776337,0.12689268589019775
1787734450648372700,13.324372802734375,7.326257228851318,0.05746084079146385,0.07422025501728058
1787734450664362800,13.34036279296875,7.510610580444336,0.22026655077934265,-0.09576806426048279
1787734450680411600,13.35641162109375,7.766790390014648,0.3495534360408783,-0.27054479718208313
1787734450696482300,13.372482421875,8.216899871826172,0.43335050344467163,-0.4381389021873474
1787734450712571600,13.388571533203125,8.75080680847168,0.44532153010368347,-0.5746083855628967
1787734450728693200,13.404693359375,9.107542991638184,0.40462008118629456,-0.7469909191131592
1787734450744725200,13.420725341796874,9.330204010009766,0.31603461503982544,-0.9289502501487732
1787734450760768800,13.436768798828124,9.409213066101074,0.10055647045373917,-1.115697979927063
1787734450776868600,13.45286865234375,9.425971984863281,-0.17238251864910126,-1.3239935636520386
1787734450792970000,13.468969970703125,9.59835433959961,-0.4644751250743866,-1.678335428237915
1787734450809048000,13.485048095703124,9.885659217834473,-0.6200982332229614,-2.0590133666992188
1787734450825096000,13.501095947265625,10.06043529510498,-0.545877993106842,-2.4588451385498047
1787734450841123800,13.517123779296876,9.998186111450195,-0.2968810200691223,-2.6815059185028076
1787734450857175300,13.53317529296875,9.93354320526123,0.011971008032560349,-2.6384103298187256
1787734450873288700,13.549288818359376,9.914389610290527,0.35434186458587646,-2.1787235736846924
1787734450889383400,13.565383544921875,10.199298858642578,0.6607996821403503,-1.6735470294952393
1787734450905438500,13.5814384765625,10.776301383972168,0.8427590131759644,-0.9241618514060974
1787734450921466600,13.597466552734375,11.372458457946777,0.8978256583213806,-0.2513911724090576
1787734450937523200,13.613523193359375,11.801020622253418,0.7661445140838623,0.2849099934101105
1787734450953627000,13.629626953125,12.133813858032227,0.6631938815116882,0.33758243918418884
1787734450969700900,13.645700927734374,12.318167686462402,0.8834604024887085,-0.12689268589019775
1787734450985748700,13.661748779296875,12.538434028625488,1.158793568611145,-0.3495534360408783
1787734451001776000,13.677776123046876,12.48815631866455,1.1228805780410767,-0.13407529890537262
1787734451017829600,13.69382958984375,12.4785795211792,0.8188169598579407,0.23702596127986908
1787734451033940000,13.70993994140625,12.428300857543945,0.12689268589019775,0.7110779285430908
1787734451058048500,13.734048583984375,12.725181579589844,-0.8690952062606812,-0.038307227194309235
1787734451074087000,13.7500869140625,12.691662788391113,-1.5298948287963867,-0.8571242094039917
1787734451090180000,13.76618017578125,12.215216636657715,-2.056619167327881,-1.3311761617660522
1787734451106276600,13.782276611328125,11.425130844116211,-2.1308395862579346,-1.7166426181793213
1787734451122321000,13.79832080078125,10.225635528564453,-1.9321208000183105,-1.5059528350830078
1787734451138401300,13.8144013671875,9.251194953918457,-1.5682021379470825,-0.7469909191131592
1787734451154394400,13.830394287109375,8.51138687133789,-1.170764684677124,0.08379705995321274
1787734451170457300,13.846457275390625,8.26239013671875,-0.9481038451194763,0.8379706144332886
1787734451186526500,13.8625263671875,8.406042098999023,-0.811634361743927,1.414973258972168
1787734451202583000,13.8785830078125,8.851364135742188,-0.8547300100326538,1.944091796875
1787734451218634200,13.89463427734375,9.17936897277832,-1.015141487121582,2.140416383743286
1787734451234655000,13.910655029296874,9.461885452270508,-1.292868971824646,2.056619167327881
1787734451250733600,13.926733642578125,9.636661529541016,-1.5059528350830078,2.118868589401245
1787734451266808000,13.94280810546875,9.792284965515137,-1.5418659448623657,2.0159177780151367
1787734451282888700,13.958888671875,9.742006301879883,-1.434126853942871,1.721431016921997
1787734451298948900,13.974948974609376,9.627084732055664,-1.2665326595306396,1.4413094520568848
1787734451314964000,13.9909638671875,9.469067573547363,-1.05105459690094,1.0606313943862915
1787734451331043000,14.00704296875,9.2033109664917,-0.7637503147125244,0.689530074596405
1787734451347113200,14.02311328125,8.951920509338379,-0.45010992884635925,0.49559974670410156
1787734451363188500,14.0391884765625,8.710105895996094,-0.16519992053508759,0.6344634294509888
1787734451379250200,14.055250244140625,8.698134422302246,-0.019153613597154617,1.0773907899856567
1787734451395291600,14.071291748046875,9.011775016784668,0.1628057211637497,1.5490485429763794
1787734451411381200,14.08738134765625,9.502586364746094,0.2968810200691223,1.8698714971542358
1787734451427461000,14.103461181640625,10.06043529510498,0.2059013396501541,2.142810583114624
1787734451443502600,14.119502685546875,10.302249908447266,-0.21308395266532898,2.5474305152893066
1787734451459576800,14.135576904296874,10.093954086303711,-0.5315127968788147,2.7892448902130127
1787734451475622400,14.151622314453125,9.801861763000488,-0.7996633648872375,2.628833532333374
1787734451491718000,14.1677177734375,9.57201862335205,-1.0893617868423462,2.1930887699127197
1787734451507809500,14.1838095703125,9.3828763961792,-1.4413094520568848,1.824381709098816
1787734451523855000,14.199855224609376,9.17936897277832,-1.778891921043396,1.5705963373184204
1787734451539932700,14.2159326171875,9.20091724395752,-2.030282974243164,1.400607943534851
1787734451555979000,14.23197900390625,9.653421401977539,-2.3726539611816406,1.5753847360610962
1787734451572080000,14.248080078125,10.213664054870605,-2.7557260990142822,2.118868589401245
1787734451588171000,14.2641708984375,10.596736907958984,-3.1004912853240967,2.6455929279327393
1787734451604237800,14.28023779296875,10.457873344421387,-3.4093432426452637,2.7748796939849854
1787734451620332800,14.296332763671876,10.070012092590332,-3.600879430770874,2.6360161304473877
1787734451636348700,14.3123486328125,9.370905876159668,-3.663128614425659,2.4420857429504395
1787734451652463900,14.3284638671875,9.05247688293457,-3.7421371936798096,2.3343467712402344
1787734451668562400,14.3445625,9.17936897277832,-4.000710964202881,2.1547815799713135
1787734451684623000,14.360623046875,9.84256362915039,-4.400542736053467,1.9249382019042969
1787734451700723000,14.376722900390625,10.848128318786621,-4.821922302246094,1.6352397203445435
1787734451716724200,14.39272412109375,11.8225679397583,-5.202600479125977,1.256955862045288
1787734451732821000,14.408821044921876,12.205639839172363,-5.578489780426025,0.7589619159698486
1787734451748929800,14.4249296875,11.975796699523926,-5.868188381195068,0.2537853717803955
1787734451764980700,14.440980712890624,11.408370971679688,-5.851428985595703,-0.42856210470199585
1787734451781016000,14.45701611328125,10.843339920043945,-5.585672378540039,-1.2425906658172607
1787734451797028400,14.4730283203125,10.51054573059082,-5.147533416748047,-1.843535304069519
1787734451813159400,14.489159423828125,10.362105369567871,-4.632780075073242,-2.1284453868865967
1787734451829278000,14.50527783203125,10.424354553222656,-3.9839515686035156,-1.987187385559082
1787734451845360000,14.521360107421875,10.41956615447998,-3.4763808250427246,-1.6903064250946045
1787734451861423600,14.537423583984374,10.465055465698242,-3.069366693496704,-1.3527239561080933
1787734451877438000,14.55343798828125,10.565611839294434,-2.765302896499634,-1.1468225717544556
1787734451893484000,14.569484130859376,10.656591415405273,-2.4636335372924805,-1.0606313943862915
1787734451909568500,14.585568603515625,10.714052200317383,-2.161964178085327,-0.933738648891449
1787734451925616400,14.601616455078124,10.699687004089355,-1.8148049116134644,-0.7829039692878723
1787734451941688800,14.617688720703125,10.520122528076172,-1.4748282432556152,-0.6153098344802856
1787734451957732900,14.63373291015625,10.204087257385254,-1.1204863786697388,-0.4692635238170624
1787734451973820400,14.6498203125,9.861717224121094,-0.8212111592292786,-0.1867477297782898
1787734451989903600,14.665903564453124,9.59835433959961,-0.646434485912323,0.3878606855869293
1787734452005945900,14.68194580078125,9.488221168518066,-0.5530605912208557,0.9050082564353943
1787734452022026800,14.69802685546875,9.452308654785156,-0.4644751250743866,1.0630255937576294
1787734452038094000,14.714093994140624,9.493009567260742,-0.35673606395721436,0.9624691009521484
1787734452054194200,14.730194091796875,9.490615844726562,-0.304063618183136,0.828393816947937
1787734452070290700,14.746290771484375,9.47146224975586,-0.14844051003456116,0.6631938815116882
1787734452086349300,14.762349365234375,9.433155059814453,0.033518824726343155,0.6368576288223267
1787734452102434800,14.778434814453124,9.370905876159668,0.1364694982767105,0.849941611289978
1787734452118444000,14.794444091796874,9.457097053527832,0.13168109953403473,1.0295066833496094
1787734452134519000,14.81051904296875,9.658209800720215,0.05267243832349777,0.9983820915222168
1787734452150591700,14.826591796875,9.787496566772461,-0.05746084079146385,0.7230489253997803
1787734452166655700,14.84265576171875,9.823410034179688,-0.1628057211637497,0.40701428055763245
1787734452182749700,14.858749755859375,9.765948295593262,-0.272938996553421,0.21547815203666687
1787734452198773500,14.8747734375,9.658209800720215,-0.181959331035614,-0.07900865375995636
1787734452214852600,14.8908525390625,9.600749015808105,-0.0071826050989329815,-0.33039984107017517
1787734452230922000,14.906921875,9.44991397857666,0.2585737705230713,-0.48602294921875
1787734452246989800,14.92298974609375,9.282320022583008,0.524330198764801,-0.48602294921875
1787734452263042800,14.939042724609376,9.131484985351562,0.7829039692878723,-0.43335050344467163
1787734452279074300,14.95507421875,9.141061782836914,0.9265560507774353,-0.3926490843296051
1787734452295157000,14.971156982421874,9.272743225097656,1.036689281463623,-0.33279404044151306
1787734452311235000,14.987235107421874,9.459490776062012,1.192312479019165,-0.35673606395721436
1787734452327314700,15.003314697265624,9.718064308166504,1.2425906658172607,-0.3495534360408783
1787734452343381500,15.019381591796876,9.821015357971191,1.2425906658172607,-0.5195417404174805
1787734452359424000,15.035424072265625,9.911994934082031,1.2186486721038818,-0.7613561153411865
1787734452375517000,15.051516845703125,10.04846477508545,1.2952631711959839,-0.9481038451194763
1787734452391602400,15.0676025390625,10.196905136108398,1.37906014919281,-0.8738836050033569
1787734452407645400,15.0836455078125,10.098742485046387,1.4508862495422363,-0.7733271718025208
1787734452423716600,15.099716552734375,9.876082420349121,1.3838485479354858,-0.26096799969673157
1787734452439758000,15.115758056640624,9.75397777557373,1.434126853942871,0.2059013396501541
1787734452455850500,15.1318505859375,9.636661529541016,1.3838485479354858,0.6368576288223267
1787734452471941400,15.14794140625,9.569623947143555,1.2042834758758545,0.7829039692878723
1787734452487992600,15.16399267578125,9.653421401977539,0.9050082564353943,0.44771572947502136
1787734452504074200,15.18007421875,9.732429504394531,0.6272808313369751,-0.1628057211637497
1787734452520126700,15.196126708984375,10.04846477508545,0.48602294921875,-0.7589619159698486
1787734452536225800,15.212225830078125,10.347740173339844,0.4405331015586853,-1.3623007535934448
1787734452552325000,15.2283251953125,10.560823440551758,0.6272808313369751,-2.0470423698425293
1787734452568379100,15.244379150390625,10.596736907958984,0.667982280254364,-2.3080103397369385
1787734452584459800,15.260459716796875,10.805032730102539,0.19393034279346466,-1.7621324062347412
1787734452600470800,15.276470703125,11.441889762878418,-0.8571242094039917,-0.5434837937355042
1787734452616569900,15.29256982421875,12.557587623596191,-1.7477672100067139,0.05506663769483566
1787734452632700400,15.308700439453125,13.651738166809082,-1.9536685943603516,-0.7158663272857666
1787734452648751400,15.32475146484375,14.032416343688965,-2.207453966140747,-1.558625340461731
1787734452664839000,15.3408388671875,13.28063678741455,-2.6647465229034424,-1.7381904125213623
1787734452680849000,15.356848876953125,11.872846603393555,-2.7700912952423096,-1.8722656965255737
1787734452696971800,15.3729716796875,10.350133895874023,-2.2409727573394775,-2.1116859912872314
1787734452713097200,15.38909716796875,9.263166427612305,-1.6352397203445435,-2.070984363555908
1787734452729159200,15.4051591796875,8.53293514251709,-1.2042834758758545,-1.479616641998291
1787734452745215500,15.421215576171875,8.192957878112793,-0.9433154463768005,-0.912190854549408
1787734452761243400,15.437243408203125,8.097189903259277,-0.6943184733390808,-0.5123591423034668
1787734452777333200,15.453333251953126,8.133103370666504,-0.5530605912208557,-0.2968810200691223
1787734452793419000,15.4694189453125,8.315062522888184,-0.45010992884635925,-0.22266076505184174
1787734452809502700,15.485502685546875,8.516175270080566,-0.42377370595932007,-0.40701428055763245
1787734452825573000,15.501572998046875,8.650250434875488,-0.43335050344467163,-0.6655880808830261
1787734452841617400,15.517617431640625,8.633491516113281,-0.42856210470199585,-0.7110779285430908
1787734452857708800,15.533708740234376,8.549694061279297,-0.3519476354122162,-0.545877993106842
1787734452873798100,15.549798095703125,8.422801971435547,-0.2561795711517334,-0.19153612852096558
1787734452889840000,15.565840087890624,8.501810073852539,-0.10773907601833344,0.07661445438861847
1787734452905918700,15.581918701171874,8.619126319885254,-0.047884032130241394,0.30885201692581177
1787734452921970000,15.597969970703126,8.650250434875488,-0.014365210197865963,0.3711012601852417
1787734452938076400,15.614076416015624,8.647856712341309,0.014365210197865963,0.363918662071228
1787734452954172400,15.63017236328125,8.571242332458496,0.06703764945268631,0.1628057211637497
1787734452970218000,15.646218017578125,8.394071578979492,0.12449848651885986,-0.12689268589019775
1787734452986302200,15.66230224609375,8.226476669311523,0.16759411990642548,-0.31364041566848755
1787734453002313500,15.6783134765625,8.226476669311523,0.1604115068912506,-0.3687070608139038
1787734453018425600,15.694425537109375,8.585607528686523,0.17477671802043915,-0.3926490843296051
1787734453034501000,15.710501220703126,9.277531623840332,0.13407529890537262,-0.33039984107017517
1787734453050569500,15.726569580078126,9.986215591430664,-0.026336219161748886,-0.24420857429504395
1787734453082691800,15.75869189453125,11.049241065979004,-0.507570743560791,-0.2777273952960968
1787734453098772200,15.774772216796874,11.36048698425293,-0.6200982332229614,-0.6129156351089478
1787734453114859300,15.790859375,11.566388130187988,-0.7038952708244324,-0.9193734526634216
1787734453130892300,15.806892333984376,11.686098098754883,-0.6009446382522583,-1.158793568611145
1787734453146943700,15.82294384765625,11.731588363647461,-0.5626373887062073,-1.192312479019165
1787734453162948600,15.838948486328125,11.66694450378418,-0.47644615173339844,-1.1204863786697388
1787734453179028000,15.855028076171875,11.571176528930664,-0.35913026332855225,-0.9720458984375
1787734453195100200,15.87110009765625,11.39400577545166,-0.19632454216480255,-0.9576807022094727
1787734453211178800,15.8871787109375,11.116278648376465,-0.1149216815829277,-0.9888052940368652
1787734453227237400,15.9032373046875,10.81460952758789,0.0454898327589035,-1.0103530883789062
1787734453243262700,15.9192626953125,10.563218116760254,0.16759411990642548,-0.9744400978088379
1787734453259336400,15.93533642578125,10.333374977111816,0.2777273952960968,-0.9026140570640564
1787734453275406300,15.95140625,10.218452453613281,0.7876923680305481,-1.6304513216018677
1787734453291478000,15.96747802734375,10.232817649841309,1.259350061416626,-1.9560627937316895
1787734453307535000,15.98353515625,10.254365921020508,0.9361328482627869,-0.8667010068893433
1787734453323561000,15.99956103515625,10.852916717529297,0.24420857429504395,0.22744916379451752
1787734453339637800,16.0156376953125,11.908759117126465,-0.33758243918418884,0.11971008777618408
1787734453355719400,16.031719482421874,13.168108940124512,-1.3311761617660522,-0.08379705995321274
1787734453371782400,16.047782470703126,14.015656471252441,-2.1811177730560303,-0.7158663272857666
1787734453387827700,16.06382763671875,14.159308433532715,-2.7557260990142822,-1.5275006294250488
1787734453403849500,16.079849365234374,13.314155578613281,-3.0119056701660156,-1.968033790588379
1787734453419917300,16.095917236328123,11.915942192077637,-2.851494312286377,-1.8291701078414917
1787734453435999200,16.111999267578124,10.299856185913086,-2.315192937850952,-1.1109095811843872
1787734453452069000,16.128069091796874,9.023746490478516,-1.7525556087493896,-0.3471592366695404
1787734453468125400,16.14412548828125,8.17141056060791,-1.3551181554794312,0.9050082564353943
1787734453484112100,16.160112060546876,8.044517517089844,-0.8307880163192749,1.8411411046981812
1787734453500198000,16.176197998046874,8.336610794067383,-0.33997663855552673,2.3104045391082764
1787734453516286700,16.19228662109375,8.71728801727295,-0.16519992053508759,2.408566951751709
1787734453532322600,16.208322509765626,8.87051773071289,-0.2082955539226532,2.183511972427368
1787734453548404700,16.22440478515625,8.621520042419434,-0.35434186458587646,1.4772224426269531
1787734453564412700,16.24041259765625,8.305485725402832,-0.4596867263317108,0.6248866319656372
1787734453580514300,16.256514404296876,7.898471355438232,-0.49320554733276367,0.11252748221158981
1787734453596619800,16.272619873046875,7.544129371643066,-0.5027823448181152,0.15801730751991272
1787734453612659000,16.288658935546874,7.378929615020752,-0.33758243918418884,0.2298433631658554
1787734453628732000,16.30473193359375,7.402871608734131,-0.031124621629714966,0.08619125932455063
1787734453644731100,16.320731201171874,7.395689010620117,0.10773907601833344,-0.023942016065120697
1787734453660831200,16.336831298828123,7.422025203704834,0.24660277366638184,-0.07661445438861847
1787734453676946000,16.35294580078125,7.433996200561523,0.3926490843296051,-0.22505496442317963
1787734453693006300,16.36900634765625,7.496245384216309,0.6440402865409851,-0.45250412821769714
1787734453709037300,16.385037353515624,7.618350028991699,0.871489405632019,-0.5386953949928284
1787734453725043700,16.401043701171876,7.934384346008301,1.0582371950149536,-0.6129156351089478
1787734453741123600,16.41712353515625,8.33182144165039,1.2066776752471924,-0.646434485912323
1787734453757198800,16.43319873046875,8.815450668334961,1.2114660739898682,-0.5027823448181152
1787734453773277200,16.449277099609375,9.385271072387695,1.1683704853057861,-0.4812345504760742
1787734453789337000,16.465337158203123,9.895236015319824,1.0462661981582642,-0.6129156351089478
1787734453805372700,16.48137255859375,10.137049674987793,0.9145850539207458,-0.790086567401886
1787734453821455400,16.497455322265626,10.299856185913086,0.9097966551780701,-1.115697979927063
1787734453837537800,16.513537841796875,10.522516250610352,0.9074024558067322,-1.3886369466781616
1787734453853575400,16.529575439453126,10.826580047607422,0.8595184087753296,-1.5394717454910278
1787734453869650400,16.545650390625,11.164162635803223,0.8643068075180054,-1.4891934394836426
1787734453885692200,16.561692138671877,11.45146656036377,0.8810662031173706,-1.2976573705673218
1787734453901790200,16.577790283203125,11.726799964904785,0.751779317855835,-0.9911994934082031
1787734453917887700,16.5938876953125,11.87763500213623,0.4189853072166443,-0.5339069962501526
1787734453933968000,16.6099677734375,12.014103889465332,0.16519992053508759,-0.1843535304069519
1787734453950038300,16.626038330078124,12.071564674377441,0.028730420395731926,-0.3016694188117981
1787734453966033700,16.64203369140625,11.980585098266602,0.22505496442317963,-1.036689281463623
1787734453982094800,16.6580947265625,11.741165161132812,0.4812345504760742,-1.601720929145813
1787734453998167800,16.674167724609376,11.422736167907715,0.395043283700943,-1.5610195398330688
1787734454014233900,16.69023388671875,11.432312965393066,0.33518823981285095,-1.501164436340332
1787734454030336500,16.70633642578125,11.805809020996094,0.2106897532939911,-1.2976573705673218
1787734454046340000,16.722340087890625,12.234370231628418,-0.15562310814857483,-1.1492167711257935
1787734454062400000,16.73839990234375,12.492944717407227,-0.5746083855628967,-1.3096283674240112
1787734454078473200,16.75447314453125,12.447454452514648,-1.0630255937576294,-1.6136919260025024
1787734454094528000,16.770528076171875,12.210428237915039,-1.3455413579940796,-2.1811177730560303
1787734454110568700,16.786568603515626,11.566388130187988,-1.4652514457702637,-2.6216509342193604
1787734454126593300,16.80259326171875,10.632649421691895,-1.3862427473068237,-2.7126305103302
1787734454142665000,16.8186650390625,9.75397777557373,-1.173158884048462,-2.319981336593628
1787734454158736400,16.834736328125,8.904036521911621,-0.8858546018600464,-1.6950948238372803
1787734454174808300,16.850808349609373,8.310274124145508,-0.6392518281936646,-1.015141487121582
1787734454190857200,16.866857177734374,7.99184513092041,-0.4405331015586853,-0.38067805767059326
1787734454206884400,16.88288427734375,8.001421928405762,-0.31124621629714966,0.12928688526153564
1787734454222952400,16.898952392578124,8.224082946777344,-0.3974374830722809,0.5363011956214905
1787734454239028000,16.915028076171875,8.516175270080566,-0.6967126727104187,0.6033388376235962
1787734454255061500,16.9310615234375,8.765172004699707,-0.8379706144332886,0.3902548849582672
1787734454271127300,16.947127197265626,9.165003776550293,-0.9313444495201111,-0.15322890877723694
1787734454287173000,16.963173095703127,9.32541561126709,-0.8930372595787048,-0.6631938815116882
1787734454303266600,16.9792666015625,9.150638580322266,-0.8834604024887085,-0.8978256583213806
1787734454319351000,16.99535107421875,8.767566680908203,-0.6344634294509888,-0.7781155705451965
1787734454335392000,17.01139208984375,8.169015884399414,-0.23702596127986908,-0.4405331015586853
1787734454351464200,17.027464111328126,7.7428483963012695,0.272938996553421,-0.10534487664699554
1787734454367521000,17.04352099609375,7.587224960327148,0.6560112833976746,0.05985504388809204
1787734454383602000,17.059601806640625,7.553706169128418,0.8762778043746948,0.24181437492370605
1787734454399694000,17.075694091796876,7.850587368011475,0.9983820915222168,0.3256114423274994
1787734454415745300,17.091745361328126,8.22887134552002,1.1228805780410767,0.2298433631658554
1787734454431829000,17.1078291015625,8.7268648147583,1.2234370708465576,-0.0071826050989329815
1787734454447852300,17.123852294921875,9.066842079162598,1.2449848651885986,-0.05985504388809204
1787734454463959000,17.139958984375,9.251194953918457,1.2234370708465576,0.05267243832349777
1787734454480061700,17.156061767578127,9.337387084960938,1.2832920551300049,0.014365210197865963
1787734454496119600,17.17211962890625,9.318233489990234,1.213860273361206,0.11252748221158981
1787734454512213500,17.188213623046874,9.653421401977539,1.036689281463623,0.3064578175544739
1787734454528232400,17.204232421875,9.976638793945312,0.9959878921508789,0.11971008777618408
1787734454544351000,17.22035107421875,10.350133895874023,0.9552865028381348,-0.181959331035614
1787734454560492500,17.236492431640624,10.60391902923584,0.8403648138046265,-0.4118026793003082
1787734454576555300,17.25255517578125,10.623072624206543,0.7589619159698486,-0.6248866319656372
1787734454592603000,17.268602783203125,10.682928085327148,0.6823474764823914,-0.5746083855628967
1787734454608627000,17.284626953125,10.948684692382812,0.5219359993934631,-0.42856210470199585
1787734454624745200,17.3007451171875,11.520898818969727,0.38067805767059326,-0.5147533416748047
1787734454640854300,17.316854248046877,12.133813858032227,0.3687070608139038,-0.8786720037460327
1787734454656908800,17.33290869140625,12.753912925720215,0.5386953949928284,-1.37906014919281
1787734454672951300,17.348951416015623,13.077129364013672,0.43095630407333374,-1.1300631761550903
1787734454688960500,17.36496044921875,13.103466033935547,0.26815059781074524,-0.6943184733390808
1787734454705025500,17.381025634765624,13.024456977844238,0.3280056416988373,-0.6129156351089478
1787734454721106000,17.39710595703125,13.057975769042969,0.14365209639072418,-0.586579442024231
1787734454737167000,17.4131669921875,12.921506881713867,-0.16998831927776337,-0.6105214357376099
1787734454753216000,17.429216064453126,12.54801082611084,-0.3471592366695404,-0.7996633648872375
1787734454769236000,17.445236083984376,11.91354751586914,-0.31603461503982544,-1.0773907899856567
1787734454785327600,17.46132763671875,10.924742698669434,-0.3734954595565796,-1.0558429956436157
1787734454801417000,17.4774169921875,9.859322547912598,-0.28969839215278625,-0.9169792532920837
1787734454817493800,17.49349365234375,8.681375503540039,-0.07422025501728058,-0.751779317855835
1787734454833564400,17.509564453125,7.63989782333374,0.16998831927776337,-0.363918662071228
1787734454849593600,17.525593505859376,6.897695064544678,0.24660277366638184,0.3256114423274994
1787734454865675500,17.541675537109374,6.675034523010254,0.19393034279346466,1.2545616626739502
1787734454881768700,17.557768798828125,7.079654216766357,0.040701430290937424,1.8291701078414917
1787734454897842000,17.573842041015624,7.9176249504089355,-0.3495534360408783,1.7741034030914307
1787734454913914000,17.5899140625,8.729259490966797,-0.9169792532920837,1.5658079385757446
1787734454929933300,17.605933349609376,9.150638580322266,-1.3862427473068237,0.9289502501487732
1787734454946006500,17.622006591796875,9.255983352661133,-1.556231141090393,-0.10534487664699554
1787734454962072800,17.63807275390625,9.038111686706543,-1.4269442558288574,-0.8451532125473022
1787734454978126300,17.654126220703127,8.501810073852539,-1.1061211824417114,-0.9481038451194763
1787734454994218500,17.670218505859374,8.034940719604492,-0.5770025849342346,-0.7254431247711182
1787734455010226000,17.686225830078126,7.6997528076171875,0.0694318488240242,-0.7326257228851318
1787734455026283500,17.702283447265625,7.582436561584473,0.5770025849342346,-0.6200982332229614
1787734455042345700,17.718345703125,7.702147006988525,0.9193734526634216,-0.42856210470199585
1787734455058393600,17.7343935546875,8.006210327148438,1.2258312702178955,-0.24660277366638184
1787734455074442800,17.75044287109375,8.427590370178223,1.359906554222107,-0.2106897532939911
1787734455090464500,17.766464599609375,8.841787338256836,1.3862427473068237,-0.26575639843940735
1787734455106540300,17.782540283203126,9.246406555175781,1.3527239561080933,-0.31603461503982544
1787734455122610000,17.79860986328125,9.59596061706543,1.3024457693099976,-0.2059013396501541
1787734455138687200,17.814687255859376,9.950302124023438,1.235408067703247,-0.08140286058187485
1787734455154747100,17.8307470703125,10.213664054870605,1.1516109704971313,-0.08619125932455063
1787734455170776600,17.846776611328124,10.575188636779785,1.0582371950149536,-0.2968810200691223
1787734455186851800,17.862851806640624,11.049241065979004,0.9840168952941895,-0.6440402865409851
1787734455202954000,17.8789541015625,11.30302619934082,0.849941611289978,-0.7805097699165344
1787734455219035600,17.89503564453125,11.350910186767578,0.6224924325942993,-0.9097966551780701
1787734455235105000,17.91110498046875,11.250353813171387,0.5770025849342346,-1.3670891523361206
1787734455251146800,17.927146728515623,11.101913452148438,0.7398083209991455,-2.097320795059204
1787734455267241200,17.9432412109375,10.912771224975586,0.9265560507774353,-2.6791117191314697
1787734455283330300,17.959330322265625,10.63743782043457,1.1085153818130493,-2.983175277709961
1787734455299373000,17.975373046875,10.338163375854492,1.2689268589019775,-2.999934673309326
1787734455315447000,17.991447021484376,10.225635528564453,1.3886369466781616,-2.9759926795959473
1787734455331495000,18.007494873046873,10.333374977111816,1.335964560508728,-3.224989652633667
1787734455347591400,18.02359130859375,10.771512985229492,1.1563993692398071,-3.6296098232269287
1787734455363690000,18.03968994140625,11.386823654174805,0.8140285611152649,-4.4077253341674805
1787734455379726000,18.05572607421875,12.038045883178711,0.5674257874488831,-5.592854976654053
1787734455395792600,18.071792724609374,12.447454452514648,0.4118026793003082,-6.787561893463135
1787734455411777300,18.08777734375,12.677297592163086,-0.22505496442317963,-6.909666061401367
1787734455427865900,18.103865966796874,12.648567199707031,-1.3311761617660522,-5.793968200683594
1787734455443971000,18.11997119140625,12.986149787902832,-2.2385785579681396,-4.946420669555664
1787734455460013000,18.136012939453124,13.524845123291016,-2.7030537128448486,-4.9368438720703125
1787734455476088600,18.152088623046875,13.57751750946045,-3.265691041946411,-5.044582843780518
1787734455492092200,18.168092041015626,13.005303382873535,-4.046200752258301,-5.085284233093262
1787734455508199400,18.184199462890625,12.148179054260254,-4.537012100219727,-5.149928092956543
1787734455524313300,18.200313232421873,11.08994197845459,-4.7405195236206055,-5.049371242523193
1787734455540363300,18.21636328125,10.105925559997559,-4.6734819412231445,-4.620809078216553
1787734455556397300,18.232397216796876,9.17936897277832,-4.422090530395508,-3.885789394378662
1787734455572426000,18.248426025390625,8.470685958862305,-4.163516521453857,-3.0837318897247314
1787734455588543500,18.26454345703125,8.068459510803223,-3.971980571746826,-2.4803929328918457
1787734455604590000,18.280590087890626,7.860164165496826,-3.847482204437256,-2.2888567447662354
1787734455620658000,18.296657958984376,7.785943984985352,-3.689464807510376,-2.233790159225464
1787734455636709600,18.312709716796874,7.864952564239502,-3.5218706130981445,-2.209848165512085
1787734455652720000,18.32872021484375,8.221688270568848,-3.5649664402008057,-2.190694570541382
1787734455668812000,18.34481201171875,8.616731643676758,-3.734954595565796,-2.126051187515259
1787734455684886800,18.36088671875,9.02135181427002,-3.8953661918640137,-2.188300371170044
1787734455700970800,18.376970703125,9.378087997436523,-3.9480385780334473,-2.4396915435791016
1787734455717039000,18.3930390625,9.921571731567383,-4.0294413566589355,-2.6144683361053467
1787734455733083000,18.409082763671876,10.326191902160645,-4.1156325340271,-2.7054479122161865
1787734455749176300,18.42517626953125,10.558429718017578,-4.101267337799072,-2.7246015071868896
1787734455765260000,18.441260009765625,10.56800651550293,-3.885789394378662,-2.341529369354248
1787734455781299000,18.457298828125,10.453084945678711,-3.7014358043670654,-1.4700398445129395
1787734455797378000,18.4733779296875,10.589553833007812,-3.423708438873291,-0.768538773059845
1787734455813385500,18.489385498046875,10.833763122558594,-3.222595453262329,-0.1149216815829277
1787734455829483800,18.50548388671875,11.24795913696289,-3.270479440689087,0.45250412821769714
1787734455845577200,18.5215771484375,11.717223167419434,-3.751713991165161,1.316810965538025
1787734455861661000,18.537660888671876,12.356474876403809,-3.9863457679748535,1.4891934394836426
1787734455877728300,18.553728271484374,12.816162109375,-3.8810009956359863,1.0247182846069336
1787734455893719300,18.56971923828125,12.521675109863281,-3.773261785507202,0.667982280254364
1787734455909780200,18.5857802734375,11.738770484924316,-3.134010076522827,-0.043095629662275314
1787734455925851000,18.601850830078124,10.043676376342773,-3.4356794357299805,0.7326257228851318
1787734455941895200,18.617895263671876,9.258378028869629,-2.9975404739379883,1.2282254695892334
1787734455957978000,18.63397802734375,9.002198219299316,-2.185906171798706,0.9385270476341248
1787734455973973000,18.649972900390626,9.162610054016113,-1.292868971824646,0.5554547905921936
1787734455990041900,18.666041748046876,9.17936897277832,-0.6177040338516235,0.4596867263317108
1787734456006113000,18.682113037109374,9.0859956741333,-0.2777273952960968,0.608127236366272
1787734456022173400,18.69817333984375,8.789113998413086,-0.15801730751991272,0.7182605266571045
1787734456038223000,18.71422314453125,8.461109161376953,-0.08140286058187485,0.730231523513794
1787734456054250200,18.730250244140624,8.465897560119629,0.12689268589019775,0.43335050344467163
1787734456070321400,18.7463212890625,8.520963668823242,0.20111294090747833,0.17717093229293823
1787734456086386700,18.76238671875,8.631096839904785,-0.13407529890537262,0.38307225704193115
1787734456102460400,18.77846044921875,8.939949035644531,-0.44532153010368347,0.5410895943641663
1787734456118516700,18.794516845703125,9.186552047729492,-0.5674257874488831,0.5195417404174805
1787734456134547000,18.810546875,9.399636268615723,-0.42856210470199585,0.3016694188117981
1787734456150630100,18.826630126953123,9.646238327026367,-0.2346317619085312,0.07900865375995636
1787734456174703600,18.85070361328125,9.320627212524414,-0.004788403399288654,0.37828385829925537
1787734456190795300,18.866795166015624,9.378087997436523,0.14365209639072418,0.7398083209991455
1787734456206839800,18.88283984375,9.830592155456543,0.27054479718208313,0.8906430602073669
1787734456222869200,18.898869140625,10.618284225463867,0.090979665517807,1.1180921792984009
1787734456238926800,18.9149267578125,11.080365180969238,-0.2849099934101105,1.2832920551300049
1787734456254976500,18.9309765625,11.396400451660156,-0.3902548849582672,1.1971008777618408
1787734456271069200,18.947069091796877,11.458649635314941,-0.33997663855552673,0.730231523513794
1787734456287123000,18.963123046875,11.082759857177734,-0.28730419278144836,0.5291185975074768
1787734456303160600,18.97916064453125,10.481815338134766,-0.3064578175544739,0.993593692779541
1787734456319227100,18.99522705078125,10.228029251098633,0.011971008032560349,1.4484920501708984
1787734456335300400,19.01130029296875,10.402806282043457,0.4189853072166443,1.9321208000183105
1787734456351396900,19.02739697265625,10.6925048828125,0.7038952708244324,2.406172752380371
1787734456367402800,19.04340283203125,10.90558910369873,0.8834604024887085,2.5043349266052246
1787734456383457500,19.05945751953125,10.769119262695312,0.9624691009521484,2.470816135406494
1787734456399537400,19.075537353515625,10.649409294128418,1.0342950820922852,2.4181437492370605
1787734456415626000,19.0916259765625,10.498574256896973,1.1180921792984009,2.497152328491211
1787734456431744300,19.107744140625,10.699687004089355,1.1085153818130493,2.652775526046753
1787734456447767300,19.123767333984375,10.78587818145752,1.0199298858642578,2.609679937362671
1787734456463827200,19.1398271484375,10.524910926818848,0.8427590131759644,2.315192937850952
1787734456479912700,19.15591259765625,10.194510459899902,0.751779317855835,1.8411411046981812
1787734456496011000,19.172010986328125,9.727641105651855,0.730231523513794,1.460463047027588
1787734456512131000,19.188131103515627,9.318233489990234,0.7757213711738586,1.2641384601593018
1787734456528164400,19.204164306640624,9.160215377807617,0.871489405632019,1.3479355573654175
1787734456544212500,19.22021240234375,9.133879661560059,1.039083480834961,1.455674648284912
1787734456560305700,19.2363056640625,9.205705642700195,1.1779472827911377,1.3479355573654175
1787734456576410000,19.25241015625,9.38048267364502,1.2306196689605713,1.1468225717544556
1787734456592489200,19.2684892578125,9.583989143371582,1.235408067703247,1.01753568649292
1787734456608527000,19.284527099609374,9.854534149169922,1.2042834758758545,0.9241618514060974
1787734456624554200,19.30055419921875,9.967061996459961,1.1803414821624756,0.9074024558067322
1787734456640606200,19.316606201171876,9.96945571899414,1.235408067703247,1.0295066833496094
1787734456656674000,19.332674072265625,9.821015357971191,1.357512354850769,1.137245774269104
1787734456672771000,19.34877099609375,9.696516990661621,1.3982137441635132,1.290474772453308
1787734456688841700,19.364841796875,9.63187313079834,1.482010841369629,1.259350061416626
1787734456704887300,19.38088720703125,9.59835433959961,1.4269442558288574,1.278503656387329
1787734456720954000,19.3969541015625,9.605537414550781,1.2449848651885986,1.173158884048462
1787734456737026600,19.413026611328124,9.799467086791992,1.192312479019165,0.689530074596405
1787734456753129700,19.429129638671874,9.888052940368652,1.1635819673538208,0.3734954595565796
1787734456769190400,19.4451904296875,9.876082420349121,1.1971008777618408,0.2944868206977844
1787734456785244700,19.46124462890625,9.780313491821289,1.414973258972168,0.33518823981285095
1787734456801320700,19.47732080078125,9.634267807006836,1.5873557329177856,0.3471592366695404
1787734456817407200,19.4934072265625,9.44991397857666,1.6496049165725708,0.40222588181495667
1787734456833500000,19.5095,9.41639518737793,1.6041151285171509,0.2992752194404602
1787734456849523000,19.52552294921875,9.981427192687988,1.4748282432556152,0.09816227108240128
1787734456865547300,19.54154736328125,10.000580787658691,1.4413094520568848,-0.26336219906806946
1787734456881593000,19.557593017578125,10.108319282531738,1.2186486721038818,-0.0694318488240242
1787734456897686800,19.573686767578124,10.244789123535156,1.1851298809051514,0.19632454216480255
1787734456913766700,19.5897666015625,10.500968933105469,1.335964560508728,0.19871874153614044
1787734456929798000,19.6057978515625,10.536881446838379,1.278503656387329,0.2537853717803955
1787734456945827800,19.621827880859374,10.247182846069336,1.158793568611145,0.09576806426048279
1787734456961875200,19.637875244140623,9.782708168029785,1.1444283723831177,-0.23942017555236816
