time,seconds_elapsed,z,y,x
1788675186504405000,0.261405029296875,0.021991148591041565,0.8002334833145142,-0.4178318381309509
1788675186520365600,0.277365478515625,0.021991148591041565,0.8002334833145142,-0.4178318381309509
1788675186536234800,0.29323486328125,0.021991148591041565,0.8002334833145142,-0.4178318381309509
1788675186552104000,0.30910400390625,0.021991148591041565,0.8002334833145142,-0.4178318381309509
1788675186567942700,0.324942626953125,0.021991148591041565,0.8002334833145142,-0.4178318381309509
1788675186583781000,0.340781005859375,0.021991148591041565,0.8002334833145142,-0.4178318381309509
1788675186599650300,0.356650390625,0.021991148591041565,0.8002334833145142,-0.4178318381309509
1788675186615611000,0.37261083984375,0.021991148591041565,0.8002334833145142,-0.4178318381309509
1788675186631449600,0.38844970703125,0.021991148591041565,-0.01710422709584236,-0.004886921960860491
1788675186647318800,0.40431884765625,0.030543262138962746,-0.025656340643763542,-0.02076941914856434
1788675186663157200,0.4201572265625,0.04153883829712868,-0.08124507963657379,-0.031154127791523933
1788675186679026400,0.4360263671875,0.059864792972803116,-0.10323622822761536,-0.010995574295520782
1788675186694987300,0.4519873046875,0.07330382615327835,-0.09529497474431992,0.02626720629632473
1788675186710825700,0.46782568359375,0.06902777403593063,-0.09651670604944229,0.045204028487205505
1788675186726695000,0.48369482421875,0.056810468435287476,-0.10262536257505417,0.04459316283464432
1788675186742533600,0.49953369140625,0.048258353024721146,-0.12522737681865692,0.033597588539123535
1788675186758433300,0.515433349609375,0.05192354694008827,-0.17898350954055786,0.033597588539123535
1788675186774363400,0.53136328125,0.04703662544488907,-0.23640485107898712,0.07024950534105301
1788675186790202000,0.5472021484375,0.03298672288656235,-0.2675589919090271,0.1264491081237793
1788675186806040600,0.56304052734375,0.02015855349600315,-0.2987131178379059,0.1869247704744339
1788675186821909800,0.57890966796875,0.012828170321881771,-0.28099802136421204,0.2272418737411499
1788675186837779000,0.594779052734375,0.001832595793530345,-0.2370157092809677,0.23945917189121246
1788675186853709000,0.610708984375,-0.01710422709584236,-0.21868975460529327,0.20402899384498596
1788675186869547800,0.6265478515625,-0.0403171069920063,-0.20525072515010834,0.11911872029304504
1788675186885447400,0.642447509765625,-0.060475658625364304,-0.2028072625398636,0.028099801391363144
1788675186901347000,0.65834716796875,-0.08368854224681854,-0.15760323405265808,-0.0910189226269722
1788675186917246700,0.674246826171875,-0.10690141469240189,-0.10262536257505417,-0.19792033731937408
1788675186933176800,0.6901767578125,-0.1466076523065567,-0.0012217304902151227,-0.2736676335334778
1788675186949015600,0.706015625,-0.22357667982578278,0.08735372871160507,-0.182648703455925
1788675186964884700,0.721884765625,-0.15271630883216858,0.048258353024721146,-0.09040805697441101
1788675186980784400,0.737784423828125,0.03237585723400116,0.036651913076639175,-0.06841690838336945
1788675186996653600,0.753653564453125,0.24190263450145721,-0.02626720629632473,-0.15271630883216858
1788675187012522500,0.7695224609375,0.3695734739303589,-0.0806342139840126,-0.3280346393585205
1788675187028391700,0.7853916015625,0.3396410644054413,0.1014036312699318,-0.3017674386501312
1788675187044291300,0.801291259765625,0.13439035415649414,0.20586158335208893,-0.1007927656173706
1788675187060160500,0.817160400390625,-0.0555887371301651,0.1411098688840866,0.06352998316287994
1788675187076060200,0.83306005859375,-0.10812314599752426,0.11667526513338089,0.0910189226269722
1788675187091990300,0.848990234375,-0.16798794269561768,0.09773843735456467,0.03237585723400116
1788675187107829000,0.8648291015625,-0.23640485107898712,0.06536258012056351,0.01160643994808197
1788675187123728600,0.880728759765625,-0.1966986060142517,-0.07452555745840073,-0.12095131725072861
1788675187139628300,0.896628173828125,-0.08429940044879913,-0.045204028487205505,-0.2565633952617645
1788675187155497500,0.91249755859375,0.048258353024721146,0.03298672288656235,-0.24007004499435425
1788675187171458000,0.9284580078125,0.05925392732024193,0.09651670604944229,-0.18020524084568024
1788675187187296800,0.944296875,-0.04214970022439957,0.20036379992961884,-0.033597588539123535
1788675187203166000,0.960166015625,-0.15027284622192383,0.1667662113904953,0.2632829248905182
1788675187219035100,0.97603515625,-0.16371189057826996,-0.0024434609804302454,0.513737678527832
1788675187234904300,0.991904296875,-0.12095131725072861,-0.251676470041275,0.6866125464439392
1788675187250865000,1.007864990234375,-0.17104226350784302,-0.4337143301963806,0.7257078886032104
1788675187266703600,1.02370361328125,-0.31031954288482666,-0.543059229850769,0.7464773058891296
1788675187282572500,1.039572509765625,-0.45814892649650574,-0.5754350423812866,0.8142833709716797
1788675187298441700,1.055441650390625,-0.2889392673969269,-0.48319441080093384,0.5009095072746277
1788675187314311000,1.071310791015625,-0.31581732630729675,-0.242513507604599,-0.036651913076639175
1788675187330210600,1.08721044921875,-0.39645153284072876,0.08979719132184982,-0.5864306092262268
1788675187346049300,1.10304931640625,-0.1258382350206375,0.503963828086853,-0.5149593949317932
1788675187361949000,1.118948974609375,0.42699480056762695,0.6352998614311218,-0.10323622822761536
1788675187377818000,1.134818115234375,0.6707300543785095,0.5833762884140015,0.24007004499435425
1788675187393717800,1.1507177734375,0.5406157374382019,0.26083946228027344,0.45631635189056396
1788675187409678300,1.16667822265625,0.36713001132011414,-0.025656340643763542,0.46364670991897583
1788675187425547500,1.182547607421875,0.23518311977386475,-0.20463985204696655,0.3530801236629486
1788675187441416700,1.198416748046875,0.28527405858039856,-0.17776179313659668,0.24617868661880493
1788675187457286000,1.214285888671875,0.42638394236564636,-0.016493361443281174,0.37262779474258423
1788675187473124400,1.230124267578125,0.44715335965156555,-0.06108652427792549,0.5766568183898926
1788675187488993500,1.24599365234375,0.35185837745666504,-0.22663100063800812,0.6609562039375305
1788675187504832300,1.261832275390625,0.26450464129447937,-0.2767219543457031,0.6383541822433472
1788675187520670700,1.277670654296875,0.23273965716362,-0.28955012559890747,0.5247332453727722
1788675187536509400,1.293509521484375,0.16493362188339233,-0.29016098380088806,0.3488040566444397
1788675187552378600,1.309378662109375,0.04337143152952194,-0.23579397797584534,0.08735372871160507
1788675187568339200,1.325339111328125,-0.024434609338641167,-0.10018189996480942,-0.07391469180583954
1788675187584178000,1.341177978515625,-0.13011430203914642,0.0006108652451075613,-0.17348572611808777
1788675187600047000,1.357047119140625,-0.16554448008537292,0.06719517707824707,-0.23029619455337524
1788675187615916300,1.372916259765625,-0.1111774742603302,0.03848451003432274,-0.31642818450927734
1788675187631816000,1.38881591796875,-0.02076941914856434,0.04764748737215996,-0.6059783101081848
1788675187647776500,1.404776611328125,0.03787364438176155,0.1368338167667389,-0.5326744914054871
1788675187663645700,1.420645751953125,0.04703662544488907,0.0708603709936142,-0.3854559659957886
1788675187679545300,1.43654541015625,-0.039095375686883926,0.045204028487205505,-0.22113321721553802
1788675187695414500,1.45241455078125,-0.17592918872833252,0.08124507963657379,0.07513642311096191
1788675187711283700,1.46828369140625,-0.29565876722335815,-0.007941247895359993,0.31520646810531616
1788675187727244300,1.484244384765625,-0.46364670991897583,-0.0861319974064827,0.4440990388393402
1788675187743083000,1.5000830078125,-0.5809328556060791,-0.2064724564552307,0.242513507604599
1788675187766978300,1.523978271484375,-0.4911356568336487,-0.027488935738801956,-0.4550946056842804
1788675187782878000,1.5398779296875,-0.2889392673969269,0.27061331272125244,-0.8509352803230286
1788675187798716400,1.55571630859375,-0.24678955972194672,0.40256020426750183,-0.988990843296051
1788675187814616000,1.571615966796875,-0.22907446324825287,0.5021312236785889,-0.9199630618095398
1788675187838389200,1.59538916015625,-0.23396138846874237,0.46853363513946533,-0.588874101638794
1788675187854258400,1.611258544921875,-0.2681698501110077,0.2669481039047241,-0.2669481039047241
1788675187870158000,1.627157958984375,-0.24373523890972137,0.12034045159816742,0.028099801391363144
1788675187886088200,1.643088134765625,-0.11545353382825851,0.051312681287527084,0.32498031854629517
1788675187901927000,1.658927001953125,0.04581489413976669,0.1313360333442688,0.4948008358478546
1788675187917796000,1.674796142578125,0.2272418737411499,0.2168571650981903,0.5662720799446106
1788675187933665300,1.690665283203125,0.598647952079773,0.3927863538265228,0.5705481171607971
1788675187949534200,1.7065341796875,0.9450085163116455,0.32009339332580566,0.5497786998748779
1788675187965464600,1.722464599609375,0.3292563557624817,0.49724429845809937,0.13988813757896423
1788675187981303000,1.738302978515625,0.23579397797584534,0.46731191873550415,-0.1362229436635971
1788675187997202700,1.75420263671875,0.11423180252313614,0.646906316280365,-0.19486601650714874
1788675188013072000,1.77007177734375,0.05375614017248154,0.8875871896743774,-0.05925392732024193
1788675188028910600,1.78591064453125,0.32681289315223694,1.7739527225494385,0.21074850857257843
1788675188044840700,1.8018408203125,0.6188064813613892,1.7482963800430298,0.08246681094169617
1788675188060710000,1.8177099609375,0.5259549617767334,1.3738359212875366,0.06780604273080826
1788675188076579000,1.8335791015625,0.37629300355911255,1.073290228843689,0.03481931984424591
1788675188092448300,1.8494482421875,0.34758231043815613,0.5803219676017761,-0.16065755486488342
1788675188108348000,1.865347900390625,0.31093040108680725,0.24678955972194672,-0.19120082259178162
1788675188124278000,1.881278076171875,0.18997909128665924,-0.637132465839386,-0.18814650177955627
1788675188140116500,1.897116455078125,-0.06963863968849182,-1.3658946752548218,-0.048258353024721146
1788675188155955200,1.912955078125,-0.19792033731937408,-1.474017858505249,0.08552113175392151
1788675188171824400,1.928824462890625,-0.06291911751031876,-0.9969320893287659,-0.19547687470912933
1788675188187663000,1.9446630859375,-0.1319468915462494,-0.6218608021736145,-0.35552358627319336
1788675188203623700,1.960623779296875,-0.3445279896259308,-0.4239404797554016,-0.38667771220207214
1788675188219462400,1.97646240234375,-0.4764748811721802,-0.4043927788734436,-0.37629300355911255
1788675188235331300,1.992331298828125,-0.5522221922874451,-0.47708576917648315,-0.31093040108680725
1788675188251200500,2.008200439453125,-0.5277875661849976,-0.494189977645874,-0.16371189057826996
1788675188267039200,2.024039306640625,-0.2278527319431305,-0.11545353382825851,0.01771509274840355
1788675188282969300,2.03996923828125,0.11850785464048386,-0.10751228034496307,0.19914206862449646
1788675188298838500,2.055838623046875,0.2021963894367218,-0.10262536257505417,0.30970868468284607
1788675188314707700,2.071707763671875,0.2577851414680481,-0.08918632566928864,0.4196644127368927
1788675188330577000,2.087576904296875,0.32009339332580566,-0.042760565876960754,0.4349360466003418
1788675188346445800,2.10344580078125,0.27488934993743896,-0.1514945775270462,0.47219884395599365
1788675188362345700,2.119345703125,0.3982841372489929,-0.42088615894317627,0.3176499307155609
1788675188378245400,2.135245361328125,0.2987131178379059,-0.30054569244384766,0.05619960278272629
1788675188394114300,2.1511142578125,-0.08552113175392151,-0.19120082259178162,-0.17837265133857727
1788675188410014000,2.167013916015625,-0.19792033731937408,-0.15271630883216858,-0.3292563557624817
1788675188425883100,2.182883056640625,-0.0708603709936142,-0.07208210229873657,-0.3897320330142975
1788675188441782800,2.19878271484375,-0.021380282938480377,0.08429940044879913,-0.41722095012664795
1788675188457621500,2.21462158203125,-0.09834930300712585,0.2021963894367218,-0.33108896017074585
1788675188473551600,2.230551513671875,-0.12461651116609573,0.22968533635139465,-0.24007004499435425
1788675188489420800,2.2464208984375,-0.12095131725072861,0.2571742534637451,-0.22968533635139465
1788675188505290000,2.2622900390625,-0.1007927656173706,0.1508837193250656,-0.2767219543457031
1788675188521220000,2.27822021484375,-0.06780604273080826,0.16493362188339233,-0.3176499307155609
1788675188537089300,2.29408935546875,-0.04337143152952194,0.10262536257505417,-0.23945917189121246
1788675188552989000,2.309989013671875,-0.04703662544488907,0.025045474991202354,-0.06719517707824707
1788675188568858000,2.325858154296875,-0.0861319974064827,-0.1612684279680252,0.10934487730264664
1788675188584727300,2.341727294921875,-0.1508837193250656,-0.2791654169559479,0.3084869384765625
1788675188600627000,2.357626953125,-0.17104226350784302,-0.23518311977386475,0.37690386176109314
1788675188616526600,2.373526611328125,-0.12400564551353455,-0.1875356286764145,0.25106561183929443
1788675188632395800,2.389395751953125,-0.09529497474431992,-0.18936823308467865,0.14844025671482086
1788675188648264700,2.4052646484375,-0.08124507963657379,-0.17409659922122955,0.08857546001672745
1788675188664134000,2.4211337890625,-0.03481931984424591,-0.11301007121801376,0.05192354694008827
1788675188680064000,2.43706396484375,0.01160643994808197,-0.012828170321881771,0.00427605677396059
1788675188695902700,2.45290283203125,-0.025656340643763542,0.07269296050071716,-0.01160643994808197
1788675188711772000,2.46877197265625,-0.16004669666290283,0.19975294172763824,-0.018936822190880775
1788675188727641000,2.48464111328125,-0.2076941877603531,0.2687807083129883,0.009162978269159794
1788675188743571200,2.5005712890625,-0.1362229436635971,-0.12889257073402405,-0.06352998316287994
1788675188759501300,2.516501220703125,-0.06169738993048668,-0.20097467303276062,-0.12461651116609573
1788675188775340000,2.532340087890625,-0.051312681287527084,0.03787364438176155,-0.13072516024112701
1788675188791239700,2.54823974609375,-0.04459316283464432,0.20097467303276062,-0.11239920556545258
1788675188807108900,2.56410888671875,0.005497787147760391,0.18020524084568024,-0.08674286305904388
1788675188822978000,2.57997802734375,0.060475658625364304,0.036041051149368286,-0.04153883829712868
1788675188838938600,2.595938720703125,0.08918632566928864,-0.09040805697441101,0.024434609338641167
1788675188854777300,2.61177734375,0.07208210229873657,-0.14049901068210602,0.09651670604944229
1788675188870677000,2.627677001953125,0.07880161702632904,-0.1508837193250656,0.10384709388017654
1788675188886576600,2.64357666015625,0.13377949595451355,-0.19853121042251587,0.029932396486401558
1788675188902445800,2.65944580078125,0.18631389737129211,-0.13927727937698364,-0.06291911751031876
1788675188918376000,2.6753759765625,0.20402899384498596,-0.0354301854968071,-0.11239920556545258
1788675188934214400,2.69121435546875,0.10812314599752426,-0.08857546001672745,-0.1007927656173706
1788675188950114000,2.707114013671875,-0.01771509274840355,-0.3378084897994995,-0.04153883829712868
1788675188966013700,2.723013671875,-0.04214970022439957,-0.6322455406188965,0.00855211354792118
1788675188981913600,2.73891357421875,0.02932153269648552,-0.9767735004425049,0.051312681287527084
1788675188997813200,2.754813232421875,0.10506882518529892,-1.0335839986801147,0.045204028487205505
1788675189013651700,2.770651611328125,0.1820378452539444,-0.8399397134780884,0.0861319974064827
1788675189029551400,2.78655126953125,0.1875356286764145,-0.637132465839386,0.12889257073402405
1788675189045451000,2.802450927734375,0.11423180252313614,-0.31520646810531616,0.0403171069920063
1788675189061320200,2.8183203125,0.01771509274840355,0.02932153269648552,-0.10262536257505417
1788675189077250300,2.834250244140625,-0.012217304669320583,0.17776179313659668,-0.20097467303276062
1788675189093119500,2.850119384765625,-0.04948008432984352,0.4758640229701996,-0.2987131178379059
1788675189108958200,2.865958251953125,-0.09468411654233932,0.6780604124069214,-0.3604104816913605
1788675189124857900,2.88185791015625,-0.14844025671482086,0.6615670323371887,-0.37751471996307373
1788675189140727000,2.89772705078125,-0.19853121042251587,0.5485569834709167,-0.3683517575263977
1788675189156687600,2.9136875,-0.23029619455337524,0.42088615894317627,-0.33658674359321594
1788675189172526300,2.9295263671875,-0.1472185254096985,0.2626720666885376,-0.3121521472930908
1788675189188395500,2.9453955078125,0.04642575979232788,0.12767083942890167,-0.30054569244384766
1788675189204264400,2.961264404296875,0.20525072515010834,0.048258353024721146,-0.33108896017074585
1788675189220164000,2.9771640625,0.3078760802745819,-0.00427605677396059,-0.36651915311813354
1788675189236063700,2.993063720703125,0.22540926933288574,-0.6780604124069214,-0.5516113042831421
1788675189251902500,3.00890234375,0.16432274878025055,-0.30115658044815063,-0.12034045159816742
1788675189267741200,3.0247412109375,0.1258382350206375,-0.10995574295520782,0.11423180252313614
1788675189283579600,3.04057958984375,0.060475658625364304,-0.192422553896904,0.29077184200286865
1788675189299479300,3.056479248046875,-0.07269296050071716,-0.2889392673969269,0.36163222789764404
1788675189315409700,3.07240966796875,-0.11972958594560623,-0.3170390725135803,0.3640756905078888
1788675189331248000,3.088248046875,-0.13255776464939117,-0.28588494658470154,0.42760565876960754
1788675189347086800,3.1040869140625,-0.12828169763088226,-0.3323107063770294,0.48380526900291443
1788675189362925600,3.119925537109375,-0.16004669666290283,-0.29504790902137756,0.46364670991897583
1788675189378825200,3.1358251953125,-0.19425514340400696,-0.1258382350206375,0.32681289315223694
1788675189394755300,3.15175537109375,-0.16982053220272064,0.12217304855585098,0.20036379992961884
1788675189410593800,3.16759375,-0.06352998316287994,0.455705463886261,0.13866640627384186
1788675189426463000,3.183462890625,0.012828170321881771,0.66584312915802,0.15760323405265808
1788675189442301700,3.1993017578125,0.01466076634824276,0.7269296646118164,0.22052235901355743
1788675189458171000,3.2151708984375,-0.06108652427792549,0.59803706407547,0.2571742534637451
1788675189474101000,3.23110107421875,-0.16798794269561768,0.2718350291252136,0.21991148591041565
1788675189489939700,3.246939697265625,-0.19914206862449646,0.039706241339445114,0.14477506279945374
1788675189505808600,3.26280859375,-0.18387043476104736,-0.12095131725072861,0.036651913076639175
1788675189521677800,3.278677734375,-0.1612684279680252,-0.18020524084568024,-0.05742133408784866
1788675189537516500,3.2945166015625,-0.14477506279945374,-0.1820378452539444,-0.17409659922122955
1788675189553385700,3.3103857421875,-0.1472185254096985,-0.16432274878025055,-0.2370157092809677
1788675189569255000,3.3262548828125,-0.1466076523065567,-0.11423180252313614,-0.24373523890972137
1788675189585123800,3.342123779296875,-0.1258382350206375,-0.06291911751031876,-0.20036379992961884
1788675189601023500,3.3580234375,-0.0861319974064827,-0.08796459436416626,-0.1563815027475357
1788675189616892700,3.373892578125,-0.018325956538319588,-0.12278391420841217,-0.10995574295520782
1788675189632853500,3.389853515625,0.05803219974040985,-0.12339477986097336,-0.031154127791523933
1788675189648692000,3.40569189453125,0.11301007121801376,-0.021991148591041565,0.06841690838336945
1788675189664591600,3.421591552734375,0.12461651116609573,0.07452555745840073,0.152105450630188
1788675189680491300,3.4374912109375,0.10995574295520782,0.10934487730264664,0.2125810980796814
1788675189696360400,3.4533603515625,0.07941248267889023,0.09529497474431992,0.20341812074184418
1788675189712290600,3.46929052734375,-0.004886921960860491,0.006719517521560192,0.15027284622192383
1788675189728098800,3.485098876953125,-0.08002334833145142,-0.05314527451992035,0.08491026610136032
1788675189743968000,3.500968017578125,-0.11911872029304504,-0.0507018156349659,-0.02321287989616394
1788675189759837200,3.516837158203125,-0.10506882518529892,-0.07391469180583954,-0.0861319974064827
1788675189775736800,3.53273681640625,-0.07269296050071716,-0.11972958594560623,-0.12095131725072861
1788675189791605800,3.548605712890625,-0.08185594528913498,-0.14966198801994324,-0.14416420459747314
1788675189807475000,3.564474853515625,-0.10995574295520782,-0.11728613078594208,-0.16982053220272064
1788675189823344000,3.58034423828125,-0.08918632566928864,-0.0659734457731247,-0.17776179313659668
1788675189839243800,3.596243896484375,-0.02076941914856434,0.02932153269648552,-0.1722639948129654
1788675189855113000,3.612113037109375,0.036651913076639175,0.048258353024721146,-0.1459967941045761
1788675189871073500,3.628073486328125,0.05803219974040985,-0.010995574295520782,-0.09651670604944229
1788675189886912300,3.643912353515625,0.05253441259264946,-0.06475171446800232,-0.05314527451992035
1788675189902812000,3.65981201171875,0.025045474991202354,-0.17776179313659668,-0.036041051149368286
1788675189918711600,3.675711669921875,-0.03298672288656235,-0.29504790902137756,-0.04092797264456749
1788675189934611200,3.691611083984375,0.1014036312699318,-0.04886921867728233,-0.06108652427792549
1788675189958445600,3.715445556640625,0.19792033731937408,0.24923302233219147,-0.018936822190880775
1788675189974345200,3.73134521484375,0.12522737681865692,0.16432274878025055,-0.0024434609804302454
1788675189990275300,3.747275390625,0.05925392732024193,0.23029619455337524,0.025656340643763542
1788675190006113800,3.76311376953125,0.04337143152952194,0.303600013256073,0.0708603709936142
1788675190022013700,3.779013671875,0.04764748737215996,0.34147366881370544,0.14416420459747314
1788675190037913300,3.794913330078125,0.07452555745840073,0.3836233615875244,0.18081611394882202
1788675190053782300,3.8107822265625,0.10201449692249298,0.423329621553421,0.21502456068992615
1788675190069682000,3.826681884765625,0.1514945775270462,0.4447098970413208,0.2626720666885376
1788675190085490200,3.842490234375,0.23090706765651703,0.4080579876899719,0.2926044464111328
1788675190101328600,3.85832861328125,0.2681698501110077,0.1966986060142517,0.29626965522766113
1788675190117197800,3.87419775390625,0.3072652220726013,-0.15332718193531036,0.24923302233219147
1788675190133036500,3.89003662109375,0.36529740691185,-0.3396410644054413,0.16371189057826996
1788675190148936200,3.905936279296875,0.3830125033855438,-0.40072759985923767,0.07147123664617538
1788675190164805400,3.921805419921875,0.3219259977340698,-0.37140607833862305,0.01710422709584236
1788675190180705000,3.937705078125,0.20952677726745605,-0.30543261766433716,-0.05314527451992035
1788675190196574200,3.95357421875,0.09040805697441101,-0.2070833146572113,-0.12217304855585098
1788675190212443100,3.969443115234375,0.0012217304902151227,-0.13255776464939117,-0.14905111491680145
1788675190228373500,3.98537353515625,-0.08674286305904388,-0.0708603709936142,-0.14294247329235077
1788675190244212000,4.0012119140625,-0.1313360333442688,0.001832595793530345,-0.12461651116609573
1788675190260081200,4.0170810546875,-0.12095131725072861,0.07452555745840073,-0.06963863968849182
1788675190275950300,4.032950439453125,-0.08552113175392151,0.05009094998240471,0.018936822190880775
1788675190291850000,4.04885009765625,-0.00366519158706069,0.02626720629632473,0.1215621829032898
1788675190307780000,4.064780029296875,0.05314527451992035,0.05192354694008827,0.16004669666290283
1788675190323558000,4.080557861328125,0.07024950534105301,0.030543262138962746,0.17776179313659668
1788675190339426800,4.0964267578125,0.06169738993048668,-0.006719517521560192,0.16310101747512817
1788675190355296000,4.1122958984375,0.04398229718208313,-0.03726277872920036,0.10812314599752426
1788675190371134700,4.128134765625,0.009162978269159794,-0.06475171446800232,0.04398229718208313
1788675190387004000,4.14400390625,-0.03298672288656235,-0.03420845419168472,-0.05925392732024193
1788675190402903600,4.159903564453125,-0.051312681287527084,0.07269296050071716,-0.15577064454555511
1788675190418742000,4.175741943359375,-0.0507018156349659,0.13988813757896423,-0.2064724564552307
1788675190434611200,4.191611083984375,-0.018325956538319588,0.1411098688840866,-0.21319197118282318
1788675190450480400,4.20748046875,0.02871066704392433,0.1270599663257599,-0.19547687470912933
1788675190466410500,4.223410400390625,0.059864792972803116,0.12339477986097336,-0.15760323405265808
1788675190482249200,4.239249267578125,0.07330382615327835,0.08918632566928864,-0.07024950534105301
1788675190498118400,4.255118408203125,0.06475171446800232,0.027488935738801956,0.033597588539123535
1788675190514018000,4.27101806640625,0.030543262138962746,-0.0354301854968071,0.11728613078594208
1788675190529856500,4.2868564453125,-0.00427605677396059,-0.04153883829712868,0.13866640627384186
1788675190545787000,4.302786865234375,-0.010995574295520782,0.025656340643763542,0.10445795953273773
1788675190561625300,4.318625244140625,0.027488935738801956,0.10873401165008545,0.039706241339445114
1788675190577525000,4.33452490234375,0.07024950534105301,0.17104226350784302,-0.02626720629632473
1788675190593424600,4.350424560546875,0.0861319974064827,0.12095131725072861,-0.059864792972803116
1788675190609293800,4.3662939453125,0.08796459436416626,-0.01466076634824276,-0.05925392732024193
1788675190625254700,4.382254638671875,0.07208210229873657,-0.16004669666290283,-0.012217304669320583
1788675190641093000,4.398093017578125,0.03848451003432274,-0.23396138846874237,0.05009094998240471
1788675190656992800,4.41399267578125,0.0012217304902151227,-0.2528982162475586,0.11301007121801376
1788675190672892400,4.429892333984375,-0.010995574295520782,-0.19120082259178162,0.15454891324043274
1788675190688761600,4.44576171875,0.01771509274840355,-0.07635815441608429,0.16982053220272064
1788675190704661200,4.4616611328125,0.06230825558304787,0.006719517521560192,0.14049901068210602
1788675190720500000,4.4775,0.11484266817569733,0.06841690838336945,0.07635815441608429
1788675190736369200,4.493369140625,0.1472185254096985,0.08307767659425735,0.003054326167330146
1788675190752238000,4.509238037109375,0.15271630883216858,0.0555887371301651,-0.0757472887635231
1788675190768107300,4.525107177734375,0.10690141469240189,-0.0024434609804302454,-0.11667526513338089
1788675190784007000,4.5410068359375,0.01771509274840355,-0.0959058403968811,-0.14049901068210602
1788675190799815200,4.556815185546875,-0.05253441259264946,-0.12217304855585098,-0.13316862285137177
1788675190815684400,4.572684326171875,-0.08857546001672745,-0.09040805697441101,-0.09407325088977814
1788675190831553300,4.58855322265625,-0.08552113175392151,-0.021380282938480377,-0.02932153269648552
1788675190847453000,4.604452880859375,-0.07696902006864548,-0.02687807008624077,0.05192354694008827
1788675190863383300,4.62038330078125,-0.08674286305904388,-0.08307767659425735,0.09407325088977814
1788675190879252200,4.636252197265625,-0.10201449692249298,-0.14905111491680145,0.09529497474431992
1788675190895121400,4.652121337890625,-0.11239920556545258,-0.1569923609495163,0.07147123664617538
1788675190911021000,4.66802099609375,-0.1508837193250656,-0.14905111491680145,0.07452555745840073
1788675190926859800,4.68385986328125,-0.2021963894367218,-0.14477506279945374,0.1062905490398407
1788675190942790000,4.699789794921875,-0.2675589919090271,-0.23090706765651703,0.14233160018920898
1788675190958628600,4.715628662109375,-0.3072652220726013,-0.3225368559360504,0.1472185254096985
1788675190974497800,4.731497802734375,-0.3390302062034607,-0.37629300355911255,0.12522737681865692
1788675190990366700,4.74736669921875,-0.31154128909111023,-0.3585779070854187,0.09407325088977814
1788675191006236000,4.76323583984375,-0.24007004499435425,-0.28466320037841797,0.06963863968849182
1788675191022135600,4.779135498046875,-0.17837265133857727,-0.2015855312347412,0.08552113175392151
1788675191038004700,4.795004638671875,-0.11423180252313614,-0.10690141469240189,0.10812314599752426
1788675191053874000,4.8108740234375,-0.07513642311096191,-0.02626720629632473,0.12889257073402405
1788675191069773600,4.826773681640625,-0.04337143152952194,0.013439035043120384,0.1368338167667389
1788675191085612300,4.8426123046875,-0.024434609338641167,0.016493361443281174,0.1258382350206375
1788675191101542400,4.85854248046875,-0.02382374368607998,0.015882495790719986,0.07452555745840073
1788675191117411600,4.87441162109375,-0.03848451003432274,0.003054326167330146,-0.03726277872920036
1788675191133250000,4.89025,-0.05192354694008827,0,-0.14233160018920898
1788675191149119200,4.906119140625,-0.04703662544488907,0.025045474991202354,-0.22296582162380219
1788675191164988400,4.921988525390625,-0.01038470957428217,0.06475171446800232,-0.24495697021484375
1788675191180918500,4.93791845703125,0.04703662544488907,0.10873401165008545,-0.2015855312347412
1788675191196787700,4.95378759765625,0.0806342139840126,0.1569923609495163,-0.13500121235847473
1788675191212626400,4.96962646484375,0.08674286305904388,0.1820378452539444,-0.06230825558304787
1788675191228495600,4.98549560546875,0.08002334833145142,0.16859880089759827,-0.039095375686883926
1788675191244395300,5.001395263671875,0.06169738993048668,0.11056660860776901,-0.05375614017248154
1788675191260355800,5.01735595703125,0.05314527451992035,0.06536258012056351,-0.09773843735456467
1788675191276255500,5.03325537109375,0.042760565876960754,0.07208210229873657,-0.15454891324043274
1788675191292155100,5.049155029296875,0.02382374368607998,0.08979719132184982,-0.18020524084568024
1788675191308024300,5.0650244140625,-0.00366519158706069,0.0806342139840126,-0.18081611394882202
1788675191323924000,5.080924072265625,-0.021991148591041565,0.08246681094169617,-0.13011430203914642
1788675191339854000,5.09685400390625,-0.033597588539123535,0.03481931984424591,-0.009162978269159794
1788675191355692800,5.11269287109375,-0.039095375686883926,-0.036041051149368286,0.1014036312699318
1788675191371562000,5.12856201171875,-0.05619960278272629,-0.0861319974064827,0.18325957655906677
1788675191387431200,5.14443115234375,-0.04581489413976669,-0.09224065393209457,0.18936823308467865
1788675191403300000,5.160300048828125,0.02076941914856434,-0.06841690838336945,0.13072516024112701
1788675191419199700,5.17619970703125,0.08552113175392151,-0.009773843921720982,0.05192354694008827
1788675191435069000,5.19206884765625,0.13988813757896423,0.0708603709936142,-0.04459316283464432
1788675191450968600,5.207968505859375,0.16310101747512817,0.14966198801994324,-0.10201449692249298
1788675191466837800,5.223837646484375,0.15943582355976105,0.22907446324825287,-0.11423180252313614
1788675191482707000,5.23970703125,0.13561208546161652,0.2125810980796814,-0.0757472887635231
1788675191498667500,5.25566748046875,0.11911872029304504,0.16004669666290283,-0.001832595793530345
1788675191514506200,5.27150634765625,0.10018189996480942,0.09834930300712585,0.09834930300712585
1788675191530406000,5.287406005859375,0.08246681094169617,0.060475658625364304,0.14782938361167908
1788675191546305500,5.303305419921875,0.054367005825042725,0.06352998316287994,0.13927727937698364
1788675191562174700,5.3191748046875,0.03420845419168472,0.08796459436416626,0.0708603709936142
1788675191578044000,5.3350439453125,0.01771509274840355,0.13927727937698364,-0.05742133408784866
1788675191593913000,5.3509130859375,-0.0012217304902151227,0.16432274878025055,-0.1661553531885147
1788675191609782000,5.366781982421875,-0.04398229718208313,0.15454891324043274,-0.2431243658065796
1788675191625651200,5.382651123046875,-0.08429940044879913,0.11850785464048386,-0.24678955972194672
1788675191641520400,5.398520263671875,-0.1160643994808197,0.05314527451992035,-0.16798794269561768
1788675191657450500,5.414450439453125,-0.12461651116609573,-0.022602014243602753,-0.059864792972803116
1788675191673289200,5.430289306640625,-0.09529497474431992,-0.042760565876960754,0.04337143152952194
1788675191689188900,5.44618896484375,-0.06108652427792549,-0.025045474991202354,0.09529497474431992
1788675191705088500,5.462088623046875,-0.033597588539123535,-0.0403171069920063,0.12217304855585098
1788675191720927200,5.47792724609375,-0.021380282938480377,-0.06230825558304787,0.1270599663257599
1788675191736857300,5.493857421875,-0.00427605677396059,-0.08491026610136032,0.09529497474431992
1788675191752671200,5.509671142578125,0.006108652334660292,-0.11728613078594208,0.06475171446800232
1788675191768510000,5.525510009765625,0.00855211354792118,-0.1313360333442688,0.028099801391363144
1788675191784379100,5.541379150390625,0.025656340643763542,-0.11301007121801376,-0.004886921960860491
1788675191800248000,5.557248046875,0.05803219974040985,-0.06475171446800232,-0.018325956538319588
1788675191816209000,5.573208984375,0.0959058403968811,0.0024434609804302454,-0.015882495790719986
1788675191832047600,5.589047607421875,0.11239920556545258,0.02321287989616394,-0.016493361443281174
1788675191847947300,5.604947265625,0.10751228034496307,0.018936822190880775,-0.018325956538319588
1788675191863847000,5.620846923828125,0.0910189226269722,0.027488935738801956,-0.02932153269648552
1788675191879715800,5.6367158203125,0.05864306539297104,0.0354301854968071,-0.048258353024721146
1788675191903550200,5.66055029296875,0.030543262138962746,0.01160643994808197,-0.0861319974064827
1788675191919419400,5.67641943359375,0.06658431142568588,0.006719517521560192,-0.1007927656173706
1788675191935319000,5.692319091796875,0.09285151958465576,0.012217304669320583,-0.0806342139840126
1788675191951157500,5.708157470703125,0.07757988572120667,-0.02321287989616394,-0.029932396486401558
1788675191967026700,5.724026611328125,0.02871066704392433,-0.07819075137376785,0.02687807008624077
1788675191982895900,5.739895751953125,-0.036041051149368286,-0.08674286305904388,0.08124507963657379
1788675191998795500,5.75579541015625,-0.07330382615327835,-0.060475658625364304,0.1007927656173706
1788675192014725600,5.7717255859375,-0.09651670604944229,-0.03848451003432274,0.08368854224681854
1788675192030564400,5.787564453125,-0.08979719132184982,-0.01038470957428217,0.033597588539123535
1788675192046433500,5.80343359375,-0.0555887371301651,0.03298672288656235,-0.02687807008624077
1788675192062302700,5.819302734375,-0.022602014243602753,0.07941248267889023,-0.10873401165008545
1788675192078171600,5.835171630859375,-0.005497787147760391,0.1111774742603302,-0.1459967941045761
1788675192094071300,5.8510712890625,-0.01038470957428217,0.0708603709936142,-0.12034045159816742
1788675192109910000,5.866909912109375,-0.02871066704392433,-0.02687807008624077,-0.06963863968849182
1788675192125809700,5.8828095703125,-0.04886921867728233,-0.08246681094169617,-0.018936822190880775
1788675192141709300,5.898709228515625,-0.05314527451992035,-0.08552113175392151,-0.009162978269159794
1788675192157578500,5.91457861328125,-0.048258353024721146,-0.11789698898792267,-0.006108652334660292
1788675192173539000,5.9305390625,-0.04092797264456749,-0.13744467496871948,0.00733038317412138
1788675192189377800,5.946377685546875,-0.01160643994808197,-0.17409659922122955,0.019547687843441963
1788675192205216500,5.962216552734375,0.04948008432984352,-0.22479841113090515,-0.006108652334660292
1788675192221085700,5.978085693359375,0.13316862285137177,-0.23579397797584534,-0.07208210229873657
1788675192236924200,5.993924072265625,0.17592918872833252,-0.22296582162380219,-0.13316862285137177
1788675192252823800,6.00982373046875,0.16982053220272064,-0.1814269721508026,-0.17531833052635193
1788675192268662500,6.02566259765625,0.10690141469240189,-0.10506882518529892,-0.1563815027475357
1788675192284562200,6.041562255859375,0.03298672288656235,0.048258353024721146,-0.09224065393209457
1788675192300492300,6.0574921875,-0.012217304669320583,0.20891591906547546,-0.09896016865968704
1788675192316361500,6.073361572265625,-0.00855211354792118,0.3927863538265228,-0.1869247704744339
1788675192332261000,6.08926123046875,0.05864306539297104,0.5241223573684692,-0.26633724570274353
1788675192348130300,6.10513037109375,0.19486601650714874,0.6200281977653503,-0.28527405858039856
1788675192364030000,6.121030029296875,0.3689626157283783,0.41233405470848083,-0.13866640627384186
1788675192379960000,6.1369599609375,0.38667771220207214,0.3530801236629486,0.00733038317412138
1788675192395829200,6.152829345703125,0.26145032048225403,0.3090978264808655,0.06108652427792549
1788675192411729000,6.16872900390625,0.1569923609495163,0.11484266817569733,0.03298672288656235
1788675192427598000,6.18459814453125,0.11789698898792267,-0.11667526513338089,-0.045204028487205505
1788675192443497700,6.200497802734375,0.03787364438176155,-0.28038713335990906,-0.1258382350206375
1788675192459397400,6.2163974609375,-0.09407325088977814,-0.28466320037841797,-0.2480112910270691
1788675192475266600,6.2322666015625,-0.1661553531885147,-0.1417207419872284,-0.35246923565864563
1788675192491166200,6.248166259765625,-0.2070833146572113,0.03848451003432274,-0.3854559659957886
1788675192507035400,6.264035400390625,-0.21930062770843506,0.1661553531885147,-0.3280346393585205
1788675192522965500,6.279965576171875,-0.2217440903186798,0.21502456068992615,-0.17104226350784302
1788675192538834700,6.295834716796875,-0.2119702398777008,0.192422553896904,-0.0024434609804302454
1788675192554704000,6.311703857421875,-0.1814269721508026,0.19547687470912933,0.16065755486488342
1788675192570603500,6.327603515625,-0.07391469180583954,0.18814650177955627,0.17776179313659668
1788675192586503200,6.343503173828125,-0.01160643994808197,0.2370157092809677,-0.01038470957428217
1788675192602341600,6.359341552734375,0.012828170321881771,0.10506882518529892,-0.16310101747512817
1788675192618241300,6.3752412109375,0.10873401165008545,0.009162978269159794,-0.2626720666885376
1788675192634110500,6.3911103515625,0.152105450630188,0.10751228034496307,-0.3335324227809906
1788675192650010000,6.407010009765625,0.10018189996480942,0.01771509274840355,-0.3536909818649292
1788675192665848800,6.422848876953125,0.0403171069920063,-0.03420845419168472,-0.32620203495025635
1788675192681748500,6.43874853515625,0.018936822190880775,0.021991148591041565,-0.23945917189121246
1788675192697648000,6.454648193359375,-0.022602014243602753,-0.3090978264808655,-0.12339477986097336
1788675192713517300,6.470517333984375,-0.06169738993048668,-0.46242499351501465,0.03848451003432274
1788675192729417000,6.4864169921875,-0.02871066704392433,-0.3689626157283783,0.06780604273080826
1788675192745286100,6.5022861328125,0.05864306539297104,-0.22296582162380219,0.05803219974040985
1788675192761155000,6.518155029296875,0.14416420459747314,-0.04398229718208313,0.027488935738801956
1788675192777024300,6.534024169921875,0.19975294172763824,0.13561208546161652,-0.03787364438176155
1788675192792893400,6.5498935546875,0.22418753802776337,0.24007004499435425,-0.09468411654233932
1788675192808762600,6.5657626953125,0.20463985204696655,0.28527405858039856,-0.13255776464939117
1788675192824631800,6.5816318359375,0.056810468435287476,0.15332718193531036,-0.10812314599752426
1788675192840501000,6.5975009765625,-0.11911872029304504,0.04214970022439957,-0.09529497474431992
1788675192856400600,6.613400634765625,-0.23579397797584534,-0.06536258012056351,-0.12034045159816742
1788675192872269600,6.62926953125,-0.1869247704744339,-0.03726277872920036,-0.1716531366109848
1788675192888200000,6.645199951171875,-0.056810468435287476,-0.00733038317412138,-0.22113321721553802
1788675192904038400,6.661038330078125,0.0507018156349659,0.013439035043120384,-0.2278527319431305
1788675192919907600,6.676907470703125,0.18325957655906677,0.08368854224681854,-0.21502456068992615
1788675192935776800,6.69277685546875,0.2675589919090271,0.15271630883216858,-0.17348572611808777
1788675192951646000,6.70864599609375,0.30054569244384766,0.2370157092809677,-0.03420845419168472
1788675192967515100,6.72451513671875,0.25961771607398987,0.2669481039047241,0.1472185254096985
1788675192983353600,6.740353515625,0.18875735998153687,0.15515977144241333,0.33536502718925476
1788675192999192300,6.7561923828125,0.15393804013729095,0.0659734457731247,0.37629300355911255
1788675193015061500,6.7720615234375,0.12461651116609573,-0.012828170321881771,0.28649580478668213
1788675193030930400,6.787930419921875,0.02626720629632473,-0.12095131725072861,0.14782938361167908
1788675193046891300,6.803891357421875,-0.1014036312699318,-0.1508837193250656,-0.0354301854968071
1788675193062760400,6.819760498046875,-0.11728613078594208,-0.09468411654233932,-0.12828169763088226
1788675193078568400,6.835568359375,-0.00733038317412138,-0.0403171069920063,-0.09346238523721695
1788675193094407200,6.8514072265625,0.09651670604944229,-0.1007927656173706,0.04886921867728233
1788675193110306800,6.867306884765625,0.14844025671482086,-0.24556782841682434,0.2590068578720093
1788675193126237000,6.88323681640625,0.1563815027475357,-0.4086688458919525,0.40744712948799133
1788675193142075600,6.89907568359375,0.16982053220272064,-0.5809328556060791,0.4740314185619354
1788675193157944800,6.91494482421875,0.23029619455337524,-0.6096435189247131,0.42638394236564636
1788675193173844500,6.930844482421875,0.30604347586631775,-0.4691445231437683,0.30543261766433716
1788675193189713400,6.94671337890625,0.303600013256073,-0.2632829248905182,0.1563815027475357
1788675193205674200,6.96267431640625,0.26633724570274353,-0.0507018156349659,-0.04459316283464432
1788675193221512700,6.9785126953125,0.2376265823841095,0.024434609338641167,-0.18570303916931152
1788675193237351400,6.994351318359375,0.2376265823841095,0.027488935738801956,-0.25961771607398987
1788675193253251000,7.0102509765625,0.24434609711170197,-0.010995574295520782,-0.2174680233001709
1788675193269150700,7.026150634765625,0.23518311977386475,-0.054367005825042725,-0.08002334833145142
1788675193285050400,7.04205029296875,0.2217440903186798,-0.0861319974064827,0.07391469180583954
1788675193300919600,7.05791943359375,0.22540926933288574,-0.11789698898792267,0.16554448008537292
1788675193316819200,7.073819091796875,0.19120082259178162,-0.1368338167667389,0.15393804013729095
1788675193332688400,7.0896884765625,0.1368338167667389,-0.09957103431224823,0.05619960278272629
1788675193348618500,7.105618408203125,0.0806342139840126,-0.001832595793530345,-0.08002334833145142
1788675193364579300,7.121579345703125,0.06475171446800232,0.10445795953273773,-0.16859880089759827
1788675193380448300,7.1374482421875,0.07819075137376785,0.21013765037059784,-0.24129177629947662
1788675193396348200,7.15334814453125,0.10201449692249298,0.27122417092323303,-0.2871066629886627
1788675193412247800,7.169247802734375,0.13988813757896423,0.2620611786842346,-0.2871066629886627
1788675193444047000,7.201047119140625,0.09957103431224823,0.12095131725072861,-0.08246681094169617
1788675193459885600,7.216885498046875,0.019547687843441963,0.05314527451992035,0.04092797264456749
1788675193475724300,7.232724365234375,-0.06780604273080826,0.001832595793530345,0.16065755486488342
1788675193491562800,7.248562744140625,-0.1264491081237793,-0.02321287989616394,0.22357667982578278
1788675193507432000,7.264431884765625,-0.17837265133857727,-0.039095375686883926,0.2565633952617645
1788675193523362300,7.2803623046875,-0.21319197118282318,-0.0024434609804302454,0.26511552929878235
1788675193539231200,7.296231201171875,-0.22052235901355743,0.08185594528913498,0.23273965716362
1788675193555131000,7.312130859375,-0.2174680233001709,0.13927727937698364,0.18387043476104736
1788675193571000000,7.328,-0.2223549485206604,0.17348572611808777,0.16310101747512817
1788675193586869200,7.343869140625,-0.23884831368923187,0.15943582355976105,0.18997909128665924
1788675193602830000,7.359830078125,-0.3078760802745819,0.030543262138962746,0.25961771607398987
1788675193618668500,7.37566845703125,-0.4386012554168701,-0.1508837193250656,0.26450464129447937
1788675193634537700,7.391537841796875,-0.5564982295036316,-0.2638937830924988,0.19120082259178162
1788675193650407000,7.407406982421875,-0.6316346526145935,-0.192422553896904,-0.00366519158706069
1788675193666245400,7.423245361328125,-0.5760459303855896,0.08735372871160507,-0.23273965716362
1788675193682145300,7.439145263671875,-0.33719760179519653,0.47830748558044434,-0.46303585171699524
1788675193698014200,7.45501416015625,-0.1160643994808197,0.5717698931694031,-0.503963828086853
1788675193713913900,7.470913818359375,-0.033597588539123535,0.2834414839744568,-0.3225368559360504
1788675193729783000,7.486782958984375,-0.12950342893600464,-0.13805554807186127,-0.07819075137376785
1788675193745621800,7.502621826171875,-0.36590829491615295,-0.48197266459465027,0.15821409225463867
1788675193761521400,7.518521484375,-0.5571091175079346,-0.503963828086853,0.24984388053417206
1788675193777421000,7.534421142578125,-0.6896668672561646,-0.2730567753314972,0.22296582162380219
1788675193793290200,7.550290283203125,-0.7483099102973938,0.04214970022439957,0.09773843735456467
1788675193809159400,7.566159423828125,-0.7446447610855103,0.41661009192466736,-0.11972958594560623
1788675193825028400,7.5820283203125,-0.5748242139816284,0.06841690838336945,-0.1569923609495163
1788675193840928000,7.597927978515625,-0.39767327904701233,-0.18631389737129211,-0.29077184200286865
1788675193856736300,7.613736328125,-0.1459967941045761,-0.028099801391363144,-0.3500257730484009
1788675193872636000,7.629635986328125,0.05314527451992035,-0.2889392673969269,-0.3017674386501312
1788675193888505000,7.645505126953125,0.0555887371301651,-0.1966986060142517,-0.27488934993743896
1788675193904404700,7.66140478515625,-0.03237585723400116,-0.08979719132184982,-0.17043140530586243
1788675193920334800,7.6773349609375,-0.08429940044879913,0.12767083942890167,-0.05009094998240471
1788675193936173600,7.693173583984375,-0.16737708449363708,0.3017674386501312,0.0757472887635231
1788675193952042500,7.70904248046875,-0.2816088795661926,0.2919935882091522,0.16065755486488342
1788675193967911700,7.72491162109375,-0.35246923565864563,0.2217440903186798,0.16859880089759827
1788675193983780900,7.74078076171875,-0.26633724570274353,0.08857546001672745,0.06475171446800232
1788675193999711000,7.7567109375,-0.08918632566928864,-0.004886921960860491,-0.14233160018920898
1788675194015580200,7.772580078125,0.030543262138962746,-0.09224065393209457,-0.3176499307155609
1788675194031449300,7.788449462890625,0.05314527451992035,-0.17409659922122955,-0.4386012554168701
1788675194047318500,7.804318603515625,0.00366519158706069,-0.18814650177955627,-0.4648684561252594
1788675194063187700,7.820187744140625,-0.021991148591041565,-0.16737708449363708,-0.4001167416572571
1788675194079087400,7.83608740234375,-0.014049900695681572,-0.1264491081237793,-0.19975294172763824
1788675194094925800,7.85192578125,0.024434609338641167,-0.030543262138962746,0.024434609338641167
1788675194110795000,7.867794921875,0.11728613078594208,0.18875735998153687,0.23273965716362
1788675194126664200,7.883664306640625,0.1508837193250656,0.3274237811565399,0.27488934993743896
1788675194142563800,7.899563720703125,0.2370157092809677,0.44593164324760437,0.1612684279680252
1788675194158433000,7.91543310546875,0.2742784917354584,0.35124751925468445,0.03848451003432274
1788675194174363100,7.931363037109375,0.2974913716316223,0.15027284622192383,-0.08552113175392151
1788675194190262800,7.9472626953125,0.3488040566444397,-0.02015855349600315,-0.09773843735456467
1788675194206132000,7.963132080078125,0.3995058834552765,-0.19425514340400696,0.08124507963657379
1788675194222001200,7.979001220703125,0.3695734739303589,-0.2370157092809677,0.3335324227809906
1788675194237870300,7.994870361328125,0.34086281061172485,-0.1820378452539444,0.5345070958137512
1788675194253708800,8.010708740234374,0.3701843321323395,-0.11239920556545258,0.4948008358478546
1788675194269608400,8.0266083984375,0.40072759985923767,-0.09346238523721695,0.20952677726745605
1788675194285508000,8.042508056640624,0.3903428912162781,-0.16920967400074005,-0.12522737681865692
1788675194301407700,8.05840771484375,0.29504790902137756,-0.342695415019989,-0.37751471996307373
1788675194317338000,8.074338134765625,0.19425514340400696,-0.3885102868080139,-0.3017674386501312
1788675194333207000,8.09020703125,0.16004669666290283,-0.23396138846874237,0.08002334833145142
1788675194349045800,8.106045654296874,0.21991148591041565,-0.004886921960860491,0.4190535545349121
1788675194364854000,8.12185400390625,0.24495697021484375,0.19914206862449646,0.6212499737739563
1788675194380784000,8.1377841796875,0.18509216606616974,0.2785545587539673,0.5674937963485718
1788675194396683800,8.153683837890625,0.11484266817569733,0.29138273000717163,0.23945917189121246
1788675194412553000,8.169552978515625,0.0708603709936142,0.20097467303276062,-0.14355333149433136
1788675194428391400,8.185391357421874,0.006108652334660292,0.051312681287527084,-0.4813618063926697
1788675194444260600,8.201260498046874,-0.012217304669320583,-0.04764748737215996,-0.6065891981124878
1788675194460160300,8.21716015625,0.004886921960860491,-0.06902777403593063,-0.5577199459075928
1788675194476029400,8.233029541015625,0.03787364438176155,-0.029932396486401558,-0.3579670190811157
1788675194499772200,8.256772216796875,0.03848451003432274,-0.06475171446800232,-0.05925392732024193
1788675194515732700,8.272732666015624,-0.01466076634824276,-0.14905111491680145,0.07880161702632904
1788675194531571500,8.288571533203125,-0.08124507963657379,-0.23396138846874237,0.11789698898792267
1788675194547440600,8.304440673828125,-0.10751228034496307,-0.24129177629947662,0.1313360333442688
1788675194563309800,8.320309814453125,-0.07941248267889023,-0.15393804013729095,0.16982053220272064
1788675194579240000,8.336239990234375,-0.02382374368607998,-0.00733038317412138,0.23029619455337524
1788675194595139600,8.3521396484375,-0.013439035043120384,0.06536258012056351,0.2321287989616394
1788675194618912800,8.375912841796875,-0.10201449692249298,0.07024950534105301,0.1258382350206375
1788675194634873300,8.391873291015624,-0.1612684279680252,0.04581489413976669,0.0024434609804302454
1788675194650712000,8.407712158203125,-0.16554448008537292,0.02626720629632473,-0.09834930300712585
1788675194666550800,8.42355078125,-0.12339477986097336,0.039095375686883926,-0.13072516024112701
1788675194682419700,8.439419677734374,-0.10262536257505417,0.04337143152952194,-0.05192354694008827
1788675194706284500,8.463284423828124,-0.13744467496871948,-0.01710422709584236,0.1563815027475357
1788675194722153700,8.47915380859375,-0.14416420459747314,-0.09407325088977814,0.23029619455337524
1788675194737992400,8.494992431640625,-0.17104226350784302,-0.1472185254096985,0.24190263450145721
1788675194753892000,8.51089208984375,-0.23151792585849762,-0.17776179313659668,0.2779437005519867
1788675194769761000,8.526760986328124,-0.25961771607398987,-0.15821409225463867,0.3640756905078888
1788675194785630200,8.542630126953124,-0.2669481039047241,-0.09651670604944229,0.4801400899887085
1788675194809433900,8.566433837890624,-0.30115658044815063,-0.06414084881544113,0.43127086758613586
1788675194825303000,8.582302978515624,-0.35613444447517395,-0.00733038317412138,0.16310101747512817
1788675194841172200,8.598172119140624,-0.375071257352829,0.21380282938480377,-0.20891591906547546
1788675194857041400,8.61404150390625,-0.3689626157283783,0.4349360466003418,-0.6530149579048157
1788675194873002000,8.630001953125,-0.38606682419776917,0.3628539443016052,-0.799011766910553
1788675194888871200,8.64587109375,-0.4105014503002167,0.14905111491680145,-0.53328537940979
1788675194904740400,8.661740234375,-0.4190535545349121,-0.06475171446800232,0.010995574295520782
1788675194920609500,8.677609619140625,-0.37629300355911255,-0.1270599663257599,0.40683624148368835
1788675194936509200,8.69350927734375,-0.294437050819397,0.01771509274840355,0.5791002511978149
1788675194952469800,8.7094697265625,-0.242513507604599,0.16065755486488342,0.5210680365562439
1788675194968339000,8.7253388671875,-0.20402899384498596,0.29077184200286865,0.2840523421764374
1788675194984208100,8.7412080078125,-0.17470745742321014,0.33047810196876526,0.022602014243602753
1788675195000046800,8.757046875,-0.13316862285137177,0.31031954288482666,-0.2480112910270691
1788675195015916000,8.772916015625,-0.12400564551353455,0.14966198801994324,-0.4178318381309509
1788675195031846100,8.78884619140625,-0.1368338167667389,-0.07941248267889023,-0.5290092825889587
1788675195047684600,8.8046845703125,-0.14477506279945374,-0.252287358045578,-0.48197266459465027
1788675195063553800,8.8205537109375,-0.11423180252313614,-0.2932153046131134,-0.2223549485206604
1788675195079423000,8.836423095703125,-0.05864306539297104,-0.23090706765651703,0.07757988572120667
1788675195095322600,8.852322509765624,0.025656340643763542,-0.1466076523065567,0.29138273000717163
1788675195111222300,8.86822216796875,0.0659734457731247,-0.07147123664617538,0.2919935882091522
1788675195127091500,8.884091552734375,0.06352998316287994,-0.009162978269159794,0.12767083942890167
1788675195142960600,8.899960693359375,0.06658431142568588,0.05864306539297104,-0.04398229718208313
1788675195158799000,8.915799072265624,0.07635815441608429,0.11484266817569733,-0.182648703455925
1788675195174698800,8.93169873046875,0.08246681094169617,0.07941248267889023,-0.1814269721508026
1788675195190598400,8.947598388671874,0.12278391420841217,0.04581489413976669,-0.12034045159816742
1788675195206467600,8.963467529296874,0.16004669666290283,0.00733038317412138,-0.05192354694008827
1788675195222367200,8.9793671875,0.22968533635139465,-0.0012217304902151227,0.0006108652451075613
1788675195238236400,8.995236328125,0.29077184200286865,0.003054326167330146,0.001832595793530345
1788675195254105600,9.011105712890625,0.3591887652873993,0.02871066704392433,-0.006108652334660292
1788675195270035700,9.02703564453125,0.40683624148368835,-0.00427605677396059,0.07024950534105301
1788675195285874400,9.04287451171875,0.4355469346046448,-0.027488935738801956,0.06536258012056351
1788675195301743600,9.05874365234375,0.4092797040939331,-0.13866640627384186,-0.06475171446800232
1788675195317673700,9.074673828125,0.3646865487098694,-0.3390302062034607,-0.07452555745840073
1788675195333543000,9.09054296875,0.5296201705932617,-0.4331034719944,0.2480112910270691
1788675195349442600,9.106442626953125,0.5723807215690613,-0.1612684279680252,0.182648703455925
1788675195365311700,9.122311767578125,0.4453207552433014,-0.1563815027475357,0.04153883829712868
1788675195381180700,9.1381806640625,0.42271876335144043,-0.45142942667007446,0.13866640627384186
1788675195397080600,9.15408056640625,0.607810914516449,-0.3701843321323395,0.2626720666885376
1788675195412949500,9.169949462890624,0.6860016584396362,-0.27061331272125244,0.17959438264369965
1788675195422562600,9.1795625,0.6579018831253052,-0.2583959996700287,-0.010995574295520782
1788675195436967000,9.193966796875,0.5290092825889587,-0.29016098380088806,-0.34636059403419495
1788675195452958200,9.209958251953125,0.4300491213798523,-0.14844025671482086,-0.5729916095733643
1788675195468918800,9.225918701171874,0.4386012554168701,0.01466076634824276,-0.48808133602142334
1788675195484940500,9.2419404296875,0.42149701714515686,0.10262536257505417,-0.23273965716362
1788675195500840200,9.257840087890624,0.39095374941825867,0.09468411654233932,-0.013439035043120384
1788675195516801000,9.273801025390625,0.3854559659957886,-0.00855211354792118,0.1820378452539444
1788675195532761600,9.28976171875,0.31031954288482666,-0.06963863968849182,0.20463985204696655
1788675195548661200,9.3056611328125,0.19914206862449646,0.001832595793530345,0.06536258012056351
1788675195564530400,9.321530517578125,0.192422553896904,0.09407325088977814,-0.0757472887635231
1788675195580430000,9.33743017578125,0.23090706765651703,0.17104226350784302,-0.20036379992961884
1788675195596390700,9.353390625,0.19914206862449646,0.16798794269561768,-0.25045475363731384
1788675195612351500,9.3693515625,0.13561208546161652,0.13011430203914642,-0.2565633952617645
1788675195628373200,9.385373291015625,0.08735372871160507,0.0507018156349659,-0.14538592100143433
1788675195644364300,9.4013642578125,0.06841690838336945,-0.006108652334660292,0.018325956538319588
1788675195660264000,9.417263916015624,0.048258353024721146,0.021991148591041565,0.18997909128665924
1788675195676224800,9.433224853515625,0.04581489413976669,0.11056660860776901,0.21319197118282318
1788675195692185300,9.449185302734374,0.05253441259264946,0.23640485107898712,0.08857546001672745
1788675195708176600,9.4651767578125,0.04153883829712868,0.3072652220726013,-0.03420845419168472
1788675195724076300,9.481076171875,0.012217304669320583,0.3194825351238251,-0.0861319974064827
1788675195740037000,9.497037109375,-0.031154127791523933,0.32070425152778625,-0.05253441259264946
1788675195756028200,9.513028076171874,-0.10201449692249298,0.2974913716316223,-0.00855211354792118
1788675195771897300,9.5288974609375,-0.17531833052635193,0.20830504596233368,-0.030543262138962746
1788675195787888600,9.544888671875,-0.20097467303276062,0.11850785464048386,-0.0861319974064827
1788675195803818800,9.56081884765625,-0.2070833146572113,0.11178833991289139,-0.08307767659425735
1788675195819810000,9.57681005859375,-0.21624629199504852,0.14905111491680145,-0.039095375686883926
1788675195835679000,9.592678955078124,-0.21319197118282318,0.19853121042251587,-0.02015855349600315
1788675195851609300,9.608609375,-0.23640485107898712,0.18020524084568024,-0.006108652334660292
1788675195867539500,9.62453955078125,-0.28955012559890747,0.15454891324043274,0.0757472887635231
1788675195883439000,9.640439208984375,-0.3280346393585205,0.19914206862449646,0.22479841113090515
1788675195899369200,9.656369140625,-0.3738495409488678,0.14782938361167908,0.50335294008255
1788675195915299300,9.67229931640625,-0.3738495409488678,0.059864792972803116,0.6963863968849182
1788675195931229700,9.688229736328125,-0.32009339332580566,0.04642575979232788,0.6401867866516113
1788675195947190300,9.704190185546874,-0.29077184200286865,0.14233160018920898,0.3139847218990326
1788675195963120400,9.720120361328124,-0.34086281061172485,0.25045475363731384,0.01710422709584236
1788675195979050800,9.73605078125,-0.3695734739303589,0.36224308609962463,-0.251676470041275
1788675195994950400,9.751950439453125,-0.2926044464111328,0.3182607889175415,-0.4917465150356293
1788675196010850000,9.76785009765625,-0.25961771607398987,-0.013439035043120384,-0.504574716091156
1788675196026841000,9.783841064453124,-0.3029891550540924,-0.3017674386501312,-0.21135938167572021
1788675196042740700,9.79974072265625,-0.33108896017074585,-0.46792277693748474,0.2431243658065796
1788675196058671000,9.815671142578125,-0.28955012559890747,-0.40194934606552124,0.5308418869972229
1788675196074631700,9.831631591796874,-0.22418753802776337,-0.1618792861700058,0.5931501388549805
1788675196090531300,9.84753125,-0.23579397797584534,0.1111774742603302,0.39095374941825867
1788675196106492200,9.8634921875,-0.2626720666885376,0.31581732630729675,-0.10445795953273773
1788675196122483200,9.879483154296874,-0.2620611786842346,0.33169981837272644,-0.5485569834709167
1788675196138382800,9.8953828125,-0.22663100063800812,0.2321287989616394,-0.8460483551025391
1788675196154343700,9.91134375,-0.1716531366109848,0.0507018156349659,-0.8197811841964722
1788675196170335000,9.9273349609375,-0.1062905490398407,-0.11850785464048386,-0.5791002511978149
1788675196186295600,9.943295654296875,-0.013439035043120384,-0.18936823308467865,-0.16920967400074005
1788675196202225700,9.9592255859375,0.0659734457731247,-0.14294247329235077,0.12950342893600464
1788675196218186500,9.9751865234375,0.1014036312699318,-0.04459316283464432,0.3084869384765625
1788675196234147000,9.99114697265625,0.07452555745840073,0.015271631069481373,0.2565633952617645
1788675196250046700,10.007046630859374,0.02687807008624077,0.06291911751031876,0.012217304669320583
1788675196265976800,10.022976806640624,-0.012217304669320583,0.021380282938480377,-0.2125810980796814
1788675196281846000,10.038845947265624,-0.024434609338641167,0.0006108652451075613,-0.3597996234893799
1788675196297715200,10.054715087890624,0.007941247895359993,-0.001832595793530345,-0.38240164518356323
1788675196313645300,10.070645263671874,0.0403171069920063,-0.056810468435287476,-0.26633724570274353
1788675196329606100,10.086606201171875,0.07147123664617538,-0.02382374368607998,-0.05803219974040985
1788675196345536300,10.102536376953125,0.11362093687057495,-0.0006108652451075613,0.10873401165008545
1788675196361527600,10.118527587890625,0.19120082259178162,-0.001832595793530345,0.18936823308467865
1788675196377396700,10.134396728515625,0.25534167885780334,0.00366519158706069,0.16798794269561768
1788675196393326800,10.150326904296875,0.29993483424186707,0.015271631069481373,0.0757472887635231
1788675196409257000,10.166257080078125,0.3194825351238251,-0.006108652334660292,-0.03298672288656235
1788675196425156600,10.182156494140624,0.35063666105270386,-0.0910189226269722,-0.11789698898792267
1788675196441086700,10.198086669921874,0.37568211555480957,-0.19120082259178162,-0.0708603709936142
1788675196457108500,10.2141083984375,0.40194934606552124,-0.21868975460529327,0.11545353382825851
1788675196473099800,10.230099853515625,0.4386012554168701,-0.18448130786418915,0.29626965522766113
1788675196489091000,10.246091064453125,0.4709770977497101,-0.04398229718208313,0.4050036668777466
1788675196504990700,10.26199072265625,0.5002986192703247,0.11789698898792267,0.37262779474258423
1788675196520859600,10.277859619140624,0.5167919993400574,0.152105450630188,0.28649580478668213
1788675196536759300,10.29375927734375,0.5070181488990784,0.1264491081237793,0.18936823308467865
1788675196552628500,10.30962841796875,0.5076290369033813,0.05253441259264946,0.06108652427792549
1788675196568497700,10.32549755859375,0.4599815309047699,-0.182648703455925,-0.1612684279680252
1788675196584519400,10.34151953125,0.3781255781650543,-0.3439171314239502,-0.26450464129447937
1788675196600388600,10.357388671875,0.33536502718925476,-0.36163222789764404,-0.08491026610136032
1788675196616288300,10.373288330078125,0.37201693654060364,-0.3445279896259308,0.24617868661880493
1788675196632248800,10.389248779296874,0.43188172578811646,-0.2278527319431305,0.5497786998748779
1788675196648209700,10.405209716796875,0.38117989897727966,-0.1771509200334549,0.6407976150512695
1788675196664139800,10.421139892578125,0.2773328125476837,-0.24190263450145721,0.47219884395599365
1788675196680039400,10.437039306640624,0.24129177629947662,-0.2779437005519867,0.13072516024112701
1788675196695908600,10.45290869140625,0.24129177629947662,-0.26145032048225403,-0.3194825351238251
1788675196719712300,10.476712158203124,0.18570303916931152,-0.08674286305904388,-0.6951646208763123
1788675196735612000,10.49261181640625,0.16982053220272064,0.01160643994808197,-0.6982190012931824
1788675196751572700,10.50857275390625,0.1472185254096985,0.07024950534105301,-0.5308418869972229
1788675196767563800,10.524563720703124,0.10262536257505417,0.05375614017248154,-0.33658674359321594
1788675196783555000,10.54055517578125,0.054367005825042725,-0.03237585723400116,-0.10873401165008545
1788675196799454700,10.556454833984375,0.028099801391363144,-0.0806342139840126,0.03848451003432274
1788675196815354400,10.572354248046874,-0.00733038317412138,-0.0861319974064827,0.0659734457731247
1788675196831284500,10.588284423828124,-0.056810468435287476,-0.09896016865968704,0.01160643994808197
1788675196847153700,10.604153564453124,-0.0959058403968811,-0.05619960278272629,-0.06169738993048668
1788675196863053300,10.62005322265625,-0.09529497474431992,0.021380282938480377,-0.10201449692249298
1788675196878922500,10.635922607421875,-0.09529497474431992,0.07391469180583954,-0.09896016865968704
1788675196894822100,10.651822265625,-0.1007927656173706,0.1313360333442688,-0.11239920556545258
1788675196910752300,10.667752197265624,-0.1062905490398407,0.18020524084568024,-0.15882496535778046
1788675196926682600,10.6836826171875,-0.10323622822761536,0.14294247329235077,-0.21135938167572021
1788675196942612700,10.69961279296875,-0.09712757170200348,0.09224065393209457,-0.22113321721553802
1788675196958603800,10.715603759765624,-0.10323622822761536,0.054367005825042725,-0.1514945775270462
1788675196974442500,10.7314423828125,-0.13072516024112701,0.04459316283464432,-0.029932396486401558
1788675196990281200,10.74728125,-0.13561208546161652,0.06108652427792549,0.05864306539297104
1788675197006150400,10.763150390625,-0.14905111491680145,0.059864792972803116,0.0403171069920063
1788675197022050000,10.779050048828125,-0.21807889640331268,0.09834930300712585,-0.028099801391363144
1788675197037949700,10.79494970703125,-0.26633724570274353,0.16737708449363708,-0.06108652427792549
1788675197053971200,10.81097119140625,-0.2974913716316223,0.26022860407829285,-0.039095375686883926
1788675197069840400,10.82684033203125,-0.3341432809829712,0.24068090319633484,0.05803219974040985
1788675197085679000,10.84267919921875,-0.38240164518356323,0.12461651116609573,0.23273965716362
1788675197101578800,10.858578857421875,-0.37751471996307373,0.05742133408784866,0.30970868468284607
1788675197117600500,10.8746005859375,-0.36529740691185,0.13377949595451355,0.2028072625398636
1788675197141465300,10.89846533203125,-0.30970868468284607,0.503963828086853,-0.3194825351238251
1788675197157334300,10.914334228515624,-0.2675589919090271,0.5100724697113037,-0.5106833577156067
1788675197173264600,10.9302646484375,-0.304210901260376,0.20402899384498596,-0.24495697021484375
1788675197189225200,10.94622509765625,-0.3787364661693573,-0.10323622822761536,0.29993483424186707
1788675197205124900,10.962124755859374,-0.37568211555480957,-0.33719760179519653,0.8381071090698242
1788675197221024500,10.9780244140625,-0.34636059403419495,-0.4245513379573822,0.9443976879119873
1788675197236924200,10.993924072265624,-0.2974913716316223,-0.33536502718925476,0.694553792476654
1788675197252763000,11.009762939453125,-0.2834414839744568,-0.06841690838336945,0.2675589919090271
1788675197268693000,11.02569287109375,-0.2974913716316223,0.17104226350784302,-0.09407325088977814
1788675197284623000,11.041623046875,-0.2687807083129883,0.38606682419776917,-0.4306600093841553
1788675197300553500,11.057553466796875,-0.22602014243602753,0.4593706727027893,-0.5937610268592834
1788675197316544500,11.07354443359375,-0.20586158335208893,0.40133845806121826,-0.6621779203414917
1788675197332413700,11.08941357421875,-0.2174680233001709,0.20830504596233368,-0.656069278717041
1788675197348374500,11.10537451171875,-0.2168571650981903,-0.06230825558304787,-0.5314527750015259
1788675197364304600,11.1213046875,-0.20097467303276062,-0.2223549485206604,-0.3243694305419922
1788675197380295700,11.137295654296874,-0.13988813757896423,-0.2272418737411499,-0.1111774742603302
1788675197396226000,11.15322607421875,-0.05742133408784866,-0.11911872029304504,-0.01160643994808197
1788675197412156200,11.16915625,-0.05375614017248154,-0.05619960278272629,0.04153883829712868
1788675197428116700,11.18511669921875,-0.10201449692249298,-0.04764748737215996,0.00733038317412138
1788675197459977200,11.216977294921875,-0.01771509274840355,-0.03481931984424591,-0.17409659922122955
1788675197475937800,11.232937744140624,0.024434609338641167,0.006719517521560192,-0.18325957655906677
1788675197491776500,11.248776611328125,0.07452555745840073,0.06108652427792549,-0.1411098688840866
1788675197507645700,11.264645751953125,0.11545353382825851,0.05375614017248154,-0.08185594528913498
1788675197523545300,11.28054541015625,0.11728613078594208,-0.0354301854968071,-0.00855211354792118
1788675197539475500,11.296475341796874,0.1007927656173706,-0.14355333149433136,0.014049900695681572
1788675197555497200,11.312497314453125,0.10934487730264664,-0.2583959996700287,0.0012217304902151227
1788675197587357400,11.344357421875,0.2168571650981903,-0.15515977144241333,-0.0024434609804302454
1788675197603318300,11.360318359375,0.30604347586631775,0.009162978269159794,-0.05009094998240471
1788675197619340000,11.376340087890625,0.3805690407752991,0.12889257073402405,-0.12461651116609573
1788675197635300600,11.392300537109374,0.3646865487098694,0.15027284622192383,-0.13377949595451355
1788675197651261400,11.408261474609375,0.2742784917354584,0.12095131725072861,0.01038470957428217
1788675197667222000,11.424221923828124,0.192422553896904,0.10690141469240189,0.3787364661693573
1788675197683182800,11.440182861328125,0.2541199326515198,0.10262536257505417,0.6432411074638367
1788675197699143400,11.456143310546874,0.4153883755207062,0.09407325088977814,0.6432411074638367
1788675197715134700,11.472134765625,0.5345070958137512,-0.016493361443281174,0.32498031854629517
1788675197731034400,11.488034423828125,0.5723807215690613,-0.2675589919090271,-0.2822197377681732
1788675197746964500,11.503964599609375,0.4917465150356293,-0.4697553813457489,-0.6713408827781677
1788675197762925000,11.519925048828124,0.3640756905078888,-0.4331034719944,-0.5809328556060791
1788675197778916400,11.535916259765624,0.3677408695220947,-0.20463985204696655,-0.039706241339445114
1788675197794846500,11.551846435546874,0.43127086758613586,-0.02321287989616394,0.39706242084503174
1788675197818772200,11.575772216796874,0.44287729263305664,0.11362093687057495,0.48869219422340393
1788675197834641400,11.591641357421874,0.3640756905078888,0.04764748737215996,0.20525072515010834
1788675197850510600,11.607510498046874,0.24373523890972137,-0.08491026610136032,-0.1411098688840866
1788675197866440700,11.623440673828124,0.16798794269561768,-0.18936823308467865,-0.30482175946235657
1788675197882401500,11.639401611328125,0.11789698898792267,-0.16737708449363708,-0.32986724376678467
1788675197898331600,11.65533154296875,0.08857546001672745,-0.0959058403968811,-0.2577851414680481
1788675197914231300,11.671231201171874,0.07757988572120667,-0.02626720629632473,-0.21563543379306793
1788675197930161400,11.687161376953124,0.08124507963657379,0.01466076634824276,-0.1875356286764145
1788675197946122200,11.703122314453125,0.07208210229873657,0.00855211354792118,-0.14355333149433136
1788675197961960700,11.718960693359374,0.04642575979232788,-0.02932153269648552,-0.022602014243602753
1788675197977891000,11.73489111328125,0.02015855349600315,-0.07757988572120667,0.12400564551353455
1788675197993760300,11.75076025390625,-0.006719517521560192,-0.0757472887635231,0.27611109614372253
1788675198009660000,11.766659912109375,-0.02076941914856434,-0.03298672288656235,0.3023782968521118
1788675198025559600,11.7825595703125,-0.028099801391363144,0.021380282938480377,0.2064724564552307
1788675198041459200,11.798459228515625,-0.04214970022439957,0.06230825558304787,0.05803219974040985
1788675198057419800,11.814419677734374,-0.07696902006864548,0.11850785464048386,-0.11056660860776901
1788675198073319400,11.8303193359375,-0.11789698898792267,0.1459967941045761,-0.16004669666290283
1788675198089249500,11.84624951171875,-0.1661553531885147,0.192422553896904,-0.09040805697441101
1788675198105240800,11.86224072265625,-0.18509216606616974,0.18936823308467865,0.0555887371301651
1788675198121079600,11.87807958984375,-0.16493362188339233,0.15515977144241333,0.15882496535778046
1788675198136979200,11.893979248046875,-0.16493362188339233,0.12339477986097336,0.23579397797584534
1788675198152848400,11.909848388671875,-0.17837265133857727,0.1062905490398407,0.24190263450145721
1788675198168717300,11.92571728515625,-0.18631389737129211,0.09957103431224823,0.23090706765651703
1788675198184586500,11.94158642578125,-0.21380282938480377,0.11972958594560623,0.29565876722335815
1788675198200486100,11.957486083984374,-0.2431243658065796,0.16065755486488342,0.44837507605552673
1788675198216385800,11.9733857421875,-0.22907446324825287,0.1618792861700058,0.6114761233329773
1788675198232346600,11.9893466796875,-0.16920967400074005,0.17287486791610718,0.6872233748435974
1788675198248276700,12.00527685546875,-0.15454891324043274,0.1771509200334549,0.6065891981124878
1788675198264206800,12.021206787109374,-0.20036379992961884,0.26633724570274353,0.32559117674827576
1788675198280106500,12.0371064453125,-0.3066543638706207,0.33658674359321594,0.03481931984424591
1788675198296036900,12.053036865234375,-0.3787364661693573,0.36224308609962463,-0.24007004499435425
1788675198311997400,12.06899755859375,-0.35552358627319336,0.2541199326515198,-0.3292563557624817
1788675198327897000,12.08489697265625,-0.3274237811565399,-0.025045474991202354,-0.13377949595451355
1788675198343796700,12.100796630859374,-0.303600013256073,-0.2168571650981903,0.19975294172763824
1788675198359696400,12.1166962890625,-0.2840523421764374,-0.22907446324825287,0.47769662737846375
1788675198375626500,12.13262646484375,-0.26633724570274353,-0.03298672288656235,0.4202753007411957
1788675198391587300,12.14858740234375,-0.2577851414680481,0.0910189226269722,0.16554448008537292
1788675198407487000,12.164487060546875,-0.2321287989616394,0.19792033731937408,-0.2076941877603531
1788675198423417000,12.1804169921875,-0.21135938167572021,0.21624629199504852,-0.455705463886261
1788675198439408400,12.196408447265625,-0.20891591906547546,0.10567969083786011,-0.5925393104553223
1788675198455308000,12.21230810546875,-0.23518311977386475,-0.04153883829712868,-0.5674937963485718
1788675198471177200,12.22817724609375,-0.20402899384498596,-0.19792033731937408,-0.4080579876899719
1788675198487107300,12.244107421875,-0.13072516024112701,-0.28466320037841797,-0.2174680233001709
1788675198503068000,12.26006787109375,-0.08979719132184982,-0.2932153046131134,0.02687807008624077
1788675198519028700,12.27602880859375,-0.08491026610136032,-0.21013765037059784,0.17898350954055786
1788675198535050500,12.292050537109375,-0.10262536257505417,-0.12339477986097336,0.2382374405860901
1788675198550919700,12.307919677734375,-0.1368338167667389,-0.059864792972803116,0.18509216606616974
1788675198566849800,12.323849853515625,-0.16554448008537292,-0.06230825558304787,0.07330382615327835
1788675198582780000,12.33977978515625,-0.16554448008537292,-0.09773843735456467,-0.08796459436416626
1788675198598710000,12.3557099609375,-0.1313360333442688,-0.10934487730264664,-0.19120082259178162
1788675198614640400,12.371640380859375,-0.09529497474431992,-0.11056660860776901,-0.20952677726745605
1788675198630631400,12.38763134765625,-0.05619960278272629,-0.07513642311096191,-0.13744467496871948
1788675198646561500,12.4035615234375,0.00855211354792118,-0.03176499158143997,0.0024434609804302454
1788675198662492000,12.419491943359375,0.06230825558304787,-0.01710422709584236,0.11545353382825851
1788675198678483000,12.43548291015625,0.0959058403968811,-0.02076941914856434,0.21380282938480377
1788675198694382600,12.451382568359374,0.13072516024112701,-0.025656340643763542,0.22907446324825287
1788675198710221300,12.46722119140625,0.1820378452539444,-0.009162978269159794,0.19486601650714874
1788675198726151400,12.4831513671875,0.23273965716362,-0.012217304669320583,0.12278391420841217
1788675198742112300,12.4991123046875,0.23396138846874237,-0.10323622822761536,0.07208210229873657
1788675198758012000,12.515011962890625,0.19303341209888458,-0.23457226157188416,0.14844025671482086
1788675198773942000,12.53094189453125,0.18509216606616974,-0.26939156651496887,0.35674530267715454
1788675198789841700,12.546841552734374,0.2632829248905182,-0.2028072625398636,0.6023131608963013
1788675198805771800,12.562771728515624,0.3439171314239502,-0.12461651116609573,0.6517932415008545
1788675198821702100,12.5787021484375,0.342695415019989,-0.09162978827953339,0.5174028873443604
1788675198837693200,12.594693115234374,0.2981022298336029,-0.1459967941045761,0.3127630054950714
1788675198853684500,12.6106845703125,0.25473082065582275,-0.26022860407829285,-0.0012217304902151227
1788675198869645000,12.62664501953125,0.19914206862449646,-0.23640485107898712,-0.22113321721553802
1788675198885483800,12.64248388671875,0.14966198801994324,-0.08307767659425735,-0.23945917189121246
1788675198901414000,12.658413818359374,0.16249015927314758,0.07391469180583954,-0.1014036312699318
1788675198917405200,12.6744052734375,0.23945917189121246,0.16004669666290283,0.054367005825042725
1788675198933335300,12.690335205078124,0.31581732630729675,0.10812314599752426,0.022602014243602753
1788675198949204500,12.70620458984375,0.2785545587539673,0.00366519158706069,-0.13377949595451355
1788675198973069300,12.7300693359375,0.15393804013729095,-0.12034045159816742,-0.3445279896259308
1788675199036637400,12.793637451171875,0.036651913076639175,0.039095375686883926,-0.2626720666885376
1788675199052598000,12.809597900390624,-0.012217304669320583,-0.030543262138962746,-0.2669481039047241
1788675199068528000,12.825528076171874,-0.02626720629632473,-0.13927727937698364,-0.18875735998153687
1788675199084489000,12.841489013671875,0.0006108652451075613,-0.16493362188339233,-0.08307767659425735
1788675199100419000,12.857419189453125,0.025656340643763542,-0.11728613078594208,-0.03848451003432274
1788675199116288300,12.873288330078125,0.01466076634824276,-0.03481931984424591,-0.0757472887635231
1788675199132310000,12.88931005859375,-0.01038470957428217,0.022602014243602753,-0.1667662113904953
1788675199148179200,12.90517919921875,-0.027488935738801956,0.03420845419168472,-0.2718350291252136
1788675199164078800,12.921078857421875,-0.051312681287527084,0.030543262138962746,-0.2987131178379059
1788675199180039400,12.937039306640624,-0.07941248267889023,0.08246681094169617,-0.2828305959701538
1788675199196030700,12.95303076171875,-0.10690141469240189,0.15882496535778046,-0.21441370248794556
1788675199211960800,12.9689609375,-0.1459967941045761,0.20952677726745605,-0.12339477986097336
1788675199227860500,12.984860595703125,-0.19608774781227112,0.18081611394882202,-0.06841690838336945
1788675199243790600,13.00079052734375,-0.24556782841682434,0.13377949595451355,-0.04337143152952194
1788675199259721000,13.016720947265625,-0.23396138846874237,0.15943582355976105,-0.045204028487205505
1788675199275620600,13.03262060546875,-0.18936823308467865,0.22602014243602753,-0.025656340643763542
1788675199291611600,13.048611572265624,-0.15760323405265808,0.3280346393585205,0.06108652427792549
1788675199307480800,13.064480712890624,-0.15882496535778046,0.3885102868080139,0.1875356286764145
1788675199323380500,13.08038037109375,-0.1966986060142517,0.3634648323059082,0.4056145250797272
1788675199339341300,13.09634130859375,-0.21563543379306793,0.2620611786842346,0.5717698931694031
1788675199355302000,13.112302001953125,-0.20830504596233368,0.09529497474431992,0.6017022728919983
1788675199371232000,13.12823193359375,-0.19792033731937408,0.013439035043120384,0.4398229718208313
1788675199387101200,13.14410107421875,-0.22296582162380219,-0.015271631069481373,0.09040805697441101
1788675199403062000,13.16006201171875,-0.28466320037841797,0.018325956538319588,-0.1875356286764145
1788675199418992000,13.1759921875,-0.3274237811565399,0.07330382615327835,-0.3396410644054413
1788675199434861300,13.191861328125,-0.3323107063770294,0.014049900695681572,-0.22357667982578278
1788675199450791400,13.20779150390625,-0.32498031854629517,-0.11789698898792267,0.18020524084568024
1788675199466691000,13.223691162109375,-0.2981022298336029,-0.13255776464939117,0.5522221922874451
1788675199482651600,13.239651611328124,-0.22113321721553802,0.02321287989616394,0.7018841505050659
1788675199498612500,13.255612548828125,-0.18631389737129211,0.1508837193250656,0.45814892649650574
1788675199514573000,13.271572998046874,-0.19975294172763824,0.2773328125476837,0.02626720629632473
1788675199530594800,13.2875947265625,-0.22418753802776337,0.32559117674827576,-0.4489859640598297
1788675199546647000,13.30364697265625,-0.21624629199504852,0.27000242471694946,-0.7244861721992493
1788675199562516200,13.31951611328125,-0.21563543379306793,0.08979719132184982,-0.8136724829673767
1788675199578477000,13.33547705078125,-0.19975294172763824,-0.11239920556545258,-0.6829473376274109
1788675199594437600,13.351437744140625,-0.12828169763088226,-0.23335053026676178,-0.4190535545349121
1788675199610367700,13.36736767578125,-0.036041051149368286,-0.2070833146572113,-0.192422553896904
1788675199626328600,13.38332861328125,0.04764748737215996,-0.06475171446800232,-0.02015855349600315
1788675199642258700,13.3992587890625,0.056810468435287476,0.03848451003432274,-0.00427605677396059
1788675199666184400,13.423184326171874,-0.015271631069481373,0.04642575979232788,-0.06963863968849182
1788675199682084000,13.439083984375,-0.036041051149368286,-0.007941247895359993,-0.07269296050071716
1788675199698014200,13.45501416015625,-0.01771509274840355,-0.09407325088977814,-0.03298672288656235
1788675199714005500,13.471005615234375,0.036651913076639175,-0.1264491081237793,0.025045474991202354
1788675199730027300,13.48702734375,0.10567969083786011,-0.10567969083786011,0.0708603709936142
1788675199745896400,13.502896484375,0.14966198801994324,-0.0757472887635231,0.10567969083786011
1788675199761796000,13.518796142578125,0.17043140530586243,-0.04948008432984352,0.14477506279945374
1788675199777756700,13.534756591796874,0.19975294172763824,-0.016493361443281174,0.13072516024112701
1788675199793748000,13.550748046875,0.2376265823841095,0.012828170321881771,0.12400564551353455
1788675199809678000,13.566677978515624,0.26939156651496887,0.00733038317412138,0.14233160018920898
1788675199825547300,13.58254736328125,0.30115658044815063,-0.01160643994808197,0.20036379992961884
1788675199841416400,13.59841650390625,0.3640756905078888,0.012828170321881771,0.20952677726745605
1788675199857377000,13.614376953125,0.4502076804637909,-0.029932396486401558,0.1319468915462494
1788675199873368300,13.630368408203125,0.48319441080093384,-0.11545353382825851,0.02687807008624077
1788675199889298400,13.64629833984375,0.48258355259895325,-0.14477506279945374,0.031154127791523933
1788675199905320200,13.6623203125,0.45265114307403564,-0.10995574295520782,0.2223549485206604
1788675199921189400,13.678189453125,0.42210787534713745,-0.007941247895359993,0.4092797040939331
1788675199937119500,13.694119384765624,0.4404338300228119,0.06658431142568588,0.4948008358478546
1788675199953080300,13.710080322265625,0.4489859640598297,0.056810468435287476,0.3536909818649292
1788675199969101800,13.726101806640624,0.4966334402561188,0.0659734457731247,-0.04642575979232788
1788675199985062700,13.742062744140625,0.5149593949317932,-0.048258353024721146,-0.32070425152778625
1788675200001054000,13.758053955078125,0.4202753007411957,-0.1569923609495163,-0.3084869384765625
1788675200017014500,13.7740146484375,0.3335324227809906,-0.1111774742603302,-0.015271631069481373
1788675200032975000,13.78997509765625,0.29565876722335815,-0.025656340643763542,0.40744712948799133
1788675200048996900,13.805996826171874,0.28955012559890747,-0.04581489413976669,0.6059783101081848
1788675200064988200,13.82198828125,0.29077184200286865,-0.11178833991289139,0.4911356568336487
1788675200080857300,13.837857421875,0.2724458873271942,-0.1417207419872284,0.13377949595451355
1788675200096787500,13.853787353515624,0.21624629199504852,-0.14905111491680145,-0.1771509200334549
1788675200112748300,13.869748291015625,0.09651670604944229,-0.17592918872833252,-0.39095374941825867
1788675200128708900,13.885708984375,0.005497787147760391,-0.1667662113904953,-0.4343251883983612
1788675200144548600,13.901548583984376,-0.030543262138962746,-0.10018189996480942,-0.394618958234787
1788675200160448300,13.9174482421875,-0.021991148591041565,-0.03848451003432274,-0.34574973583221436
1788675200176286700,13.93328662109375,-0.028099801391363144,0.012828170321881771,-0.31581732630729675
1788675200192247600,13.94924755859375,-0.04092797264456749,0.015271631069481373,-0.3182607889175415
1788675200208238800,13.96523876953125,-0.05253441259264946,-0.042760565876960754,-0.28527405858039856
1788675200224107800,13.981107666015625,-0.07024950534105301,-0.11423180252313614,-0.182648703455925
1788675200239977000,13.99697705078125,-0.09285151958465576,-0.1514945775270462,-0.036041051149368286
1788675200255937800,14.012937744140626,-0.1264491081237793,-0.13805554807186127,0.1459967941045761
1788675200271868000,14.028867919921876,-0.15882496535778046,-0.06352998316287994,0.24434609711170197
1788675200287859200,14.044859130859376,-0.182648703455925,0.059864792972803116,0.21930062770843506
1788675200303758800,14.0607587890625,-0.1973094791173935,0.1270599663257599,0.08368854224681854
1788675200319750000,14.07675,-0.21563543379306793,0.17959438264369965,-0.09773843735456467
1788675200335710700,14.092710693359376,-0.23640485107898712,0.18814650177955627,-0.1771509200334549
1788675200351671300,14.10867138671875,-0.24129177629947662,0.13988813757896423,-0.19303341209888458
1788675200367693000,14.124693115234376,-0.2376265823841095,0.09651670604944229,-0.1716531366109848
1788675200383623200,14.140623046875,-0.23945917189121246,0.02871066704392433,-0.12095131725072861
1788675200399614500,14.156614501953126,-0.22663100063800812,-0.02932153269648552,-0.08002334833145142
1788675200415544600,14.172544677734376,-0.22907446324825287,-0.0861319974064827,-0.007941247895359993
1788675200431535900,14.188535888671876,-0.2480112910270691,-0.11728613078594208,0.12095131725072861
1788675200447527200,14.204527099609376,-0.24373523890972137,-0.05619960278272629,0.2174680233001709
1788675200463457300,14.220457275390626,-0.2590068578720093,-0.004886921960860491,0.33597588539123535
1788675200479417900,14.23641796875,-0.2816088795661926,0.00855211354792118,0.4440990388393402
1788675200495317500,14.2523173828125,-0.27977627515792847,0.05253441259264946,0.48747047781944275
1788675200511248000,14.268247802734376,-0.29016098380088806,0.06169738993048668,0.413555771112442
1788675200527147500,14.2841474609375,-0.33475416898727417,0.18448130786418915,0.16004669666290283
1788675200543108000,14.300108154296876,-0.34758231043815613,0.3695734739303589,-0.2015855312347412
1788675200559007700,14.3160078125,-0.35185837745666504,0.33658674359321594,-0.5204572081565857
1788675200574877000,14.331876953125,-0.3836233615875244,0.0861319974064827,-0.36529740691185
1788675200590776600,14.347776611328126,-0.46547931432724,-0.13377949595451355,0.13500121235847473
1788675200606737200,14.363737060546875,-0.49296826124191284,-0.22052235901355743,0.7287622094154358
1788675200622728400,14.379728515625,-0.44837507605552673,-0.14538592100143433,0.9578366875648499
1788675200638597600,14.39559765625,-0.37262779474258423,0.01160643994808197,0.8161159753799438
1788675200654558200,14.41155810546875,-0.3170390725135803,0.20341812074184418,0.42638394236564636
1788675200670519000,14.42751904296875,-0.27488934993743896,0.4288274049758911,-0.1612684279680252
1788675200686479600,14.443479736328126,-0.2382374405860901,0.4660901725292206,-0.6108652353286743
1788675200702471000,14.459470947265626,-0.18509216606616974,0.4349360466003418,-0.921184778213501
1788675200726335700,14.483335693359376,-0.11972958594560623,0.0659734457731247,-0.9199630618095398
1788675200742296300,14.49929638671875,-0.11239920556545258,-0.1514945775270462,-0.6811147332191467
1788675200758226400,14.515226318359375,-0.08796459436416626,-0.3194825351238251,-0.28466320037841797
1788675200774187300,14.531187255859376,-0.0708603709936142,-0.32498031854629517,0.02626720629632473
1788675200790117400,14.547117431640626,-0.07513642311096191,-0.2382374405860901,0.2535090744495392
1788675200806017000,14.56301708984375,-0.08185594528913498,-0.20036379992961884,0.3243694305419922
1788675200821916700,14.578916748046876,-0.08979719132184982,-0.22540926933288574,0.24434609711170197
1788675200837816300,14.59481640625,-0.0757472887635231,-0.22296582162380219,0.06902777403593063
1788675200853716000,14.610716064453126,-0.028099801391363144,-0.16004669666290283,-0.18448130786418915
1788675200893541400,14.650541259765625,0.022602014243602753,-0.013439035043120384,-0.12889257073402405
1788675200909471700,14.6664716796875,0.09285151958465576,0.02321287989616394,0.02871066704392433
1788675200925401900,14.68240185546875,0.16310101747512817,-0.02687807008624077,0.02321287989616394
1788675200941393200,14.69839306640625,0.20463985204696655,-0.11056660860776901,-0.06230825558304787
1788675200957292800,14.714292724609376,0.18448130786418915,-0.12339477986097336,-0.0757472887635231
1788675200973161700,14.73016162109375,0.12889257073402405,-0.09285151958465576,-0.03420845419168472
1788675200989061400,14.746061279296875,0.11728613078594208,-0.1508837193250656,0.060475658625364304
1788675201004961000,14.7619609375,0.18020524084568024,-0.2064724564552307,0.14294247329235077
1788675201020952300,14.777952392578126,0.2767219543457031,-0.18814650177955627,0.21502456068992615
1788675201036852000,14.79385205078125,0.33597588539123535,-0.11239920556545258,0.24068090319633484
1788675201052812800,14.809812744140626,0.323147714138031,-0.06352998316287994,0.2583959996700287
1788675201068681700,14.825681640625,0.27061331272125244,-0.01771509274840355,0.2877175211906433
1788675201084581600,14.84158154296875,0.28038713335990906,-0.01038470957428217,0.27611109614372253
1788675201100542200,14.857542236328126,0.36713001132011414,-0.021991148591041565,0.26145032048225403
1788675201116533500,14.873533447265626,0.5051855444908142,-0.18325957655906677,0.16982053220272064
1788675201132402400,14.88940234375,0.5345070958137512,-0.3842342495918274,0.01466076634824276
1788675201148271600,14.905271728515626,0.4392121136188507,-0.38179078698158264,-0.02932153269648552
1788675201164171300,14.921171142578125,0.34147366881370544,-0.21074850857257843,0.1661553531885147
1788675201180071000,14.93707080078125,0.2724458873271942,0.012828170321881771,0.4593706727027893
1788675201195970600,14.952970458984375,0.2119702398777008,0.09468411654233932,0.6536257863044739
1788675201211931400,14.968931396484376,0.13988813757896423,0.042760565876960754,0.6707300543785095
1788675201227892000,14.98489208984375,0.042760565876960754,-0.018325956538319588,0.47342056035995483
1788675201243913700,15.000913818359376,0.012217304669320583,-0.04398229718208313,0.15943582355976105
1788675201259874600,15.01687451171875,0.04642575979232788,-0.04948008432984352,-0.23945917189121246
1788675201275865600,15.032865478515625,0.11789698898792267,-0.02382374368607998,-0.5119050741195679
1788675201291826400,15.048826416015626,0.20586158335208893,0.04703662544488907,-0.6933320760726929
1788675201307756500,15.064756591796876,0.24068090319633484,0.12339477986097336,-0.7367035150527954
1788675201323717400,15.08071728515625,0.1973094791173935,0.11423180252313614,-0.6407976150512695
1788675201339678000,15.096677978515626,0.16798794269561768,0.0012217304902151227,-0.3952298164367676
1788675201355608000,15.112608154296876,0.18020524084568024,-0.13011430203914642,-0.13377949595451355
1788675201371538200,15.1285380859375,0.17898350954055786,-0.21868975460529327,0.1612684279680252
1788675201387438000,15.14443798828125,0.1716531366109848,-0.16554448008537292,0.32009339332580566
1788675201419451000,15.176450927734376,0.06291911751031876,0.09346238523721695,0.14844025671482086
1788675201459306800,15.216306640625,-0.24923302233219147,0.11362093687057495,-0.4648684561252594
1788675201475176000,15.232176025390626,-0.17837265133857727,0.32681289315223694,-0.4538728892803192
1788675201491167200,15.248167236328126,-0.004886921960860491,0.47769662737846375,-0.32681289315223694
1788675201507158500,15.264158447265626,0.08979719132184982,0.44104471802711487,-0.1514945775270462
1788675201523119000,15.280119140625,-0.036651913076639175,0.1814269721508026,0.02015855349600315
1788675201539079700,15.29607958984375,-0.15027284622192383,-0.0024434609804302454,0.08002334833145142
1788675201555010000,15.312010009765626,-0.20036379992961884,-0.10262536257505417,0.11728613078594208
1788675201570909700,15.32790966796875,-0.1472185254096985,-0.1215621829032898,0.1765400618314743
1788675201586809300,15.343809326171876,-0.1466076523065567,-0.06291911751031876,0.2669481039047241
1788675201602739500,15.359739501953126,-0.2981022298336029,0.07208210229873657,0.3897320330142975
1788675201618639000,15.37563916015625,-0.45142942667007446,0.10751228034496307,0.5357288122177124
1788675201634538800,15.391538818359376,-0.5467243790626526,0.11484266817569733,0.7336491346359253
1788675201650499600,15.40749951171875,-0.5302310585975647,0.11728613078594208,0.8820894360542297
1788675201666460200,15.423460205078126,-0.4612032473087311,0.15943582355976105,0.8784242272377014
1788675201682482000,15.43948193359375,-0.4453207552433014,0.2028072625398636,0.636521577835083
1788675201698412000,15.455412109375,-0.4550946056842804,0.2742784917354584,0.09162978827953339
1788675201714372900,15.471372802734376,-0.45204028487205505,0.14538592100143433,-0.3500257730484009
1788675201730364000,15.487364013671876,-0.46242499351501465,-0.13988813757896423,-0.3842342495918274
1788675201746324700,15.50332470703125,-0.5149593949317932,-0.3732386529445648,0.018936822190880775
1788675201762285300,15.519285400390626,-0.5345070958137512,-0.38667771220207214,0.5931501388549805
1788675201778276600,15.535276611328126,-0.44837507605552673,-0.09773843735456467,0.7800748944282532
1788675201794176300,15.55117626953125,-0.35063666105270386,0.182648703455925,0.5510004758834839
1788675201810136800,15.56713671875,-0.2590068578720093,0.41172316670417786,0.022602014243602753
1788675201826036500,15.583036376953125,-0.17898350954055786,0.4538728892803192,-0.44226643443107605
1788675201841997300,15.598997314453126,-0.05864306539297104,0.38667771220207214,-0.8808676600456238
1788675201858019000,15.61501904296875,-0.006719517521560192,0.19975294172763824,-1.0598511695861816
1788675201873888300,15.63088818359375,-0.024434609338641167,0.022602014243602753,-0.9682214260101318
1788675201889848800,15.646848876953126,-0.03420845419168472,-0.10995574295520782,-0.6860016584396362
1788675201905779000,15.662779052734376,-0.021991148591041565,-0.25473082065582275,-0.2565633952617645
1788675201921800700,15.67880078125,-0.04642575979232788,-0.28038713335990906,0.07819075137376785
1788675201937730800,15.694730712890625,-0.05253441259264946,-0.14782938361167908,0.20525072515010834
1788675201953691600,15.710691650390626,0.03481931984424591,0.0910189226269722,0.13927727937698364
1788675201969652200,15.72665234375,0.02871066704392433,0.21013765037059784,0.02382374368607998
1788675201985613000,15.742613037109376,-0.048258353024721146,0.04581489413976669,-0.0861319974064827
1788675202001634800,15.758634765625,-0.06841690838336945,-0.03176499158143997,-0.2015855312347412
1788675202017565000,15.77456494140625,-0.06719517707824707,-0.10323622822761536,-0.2675589919090271
1788675202033525500,15.790525390625,-0.05925392732024193,-0.16065755486488342,-0.22113321721553802
1788675202049455900,15.806455810546876,-0.025656340643763542,-0.09712757170200348,-0.04886921867728233
1788675202065386000,15.822385986328126,-0.00855211354792118,-0.04337143152952194,0.15821409225463867
1788675202081346600,15.8383466796875,0.025656340643763542,0.018325956538319588,0.2669481039047241
1788675202097368300,15.854368408203126,0.10690141469240189,0.11056660860776901,0.1417207419872284
1788675202113268000,15.87026806640625,0.18387043476104736,0.1508837193250656,-0.05192354694008827
1788675202129167600,15.886167724609376,0.25595253705978394,0.15515977144241333,-0.2028072625398636
1788675202145036800,15.902036865234376,0.2919935882091522,0.13316862285137177,-0.16737708449363708
1788675202160997600,15.91799755859375,0.2718350291252136,0.04948008432984352,0.09285151958465576
1788675202176897300,15.933897216796876,0.23151792585849762,0.0012217304902151227,0.4434881806373596
1788675202192857900,15.94985791015625,0.24862214922904968,0.006719517521560192,0.7953465580940247
1788675202208849200,15.96584912109375,0.3854559659957886,0.07269296050071716,0.8527678847312927
1788675202224809700,15.981809814453126,0.5497786998748779,0.05192354694008827,0.59803706407547
1788675202240770600,15.9977705078125,0.5742133259773254,-0.1368338167667389,0.12950342893600464
1788675202256731100,16.013731201171876,0.485027015209198,-0.42760565876960754,-0.5564982295036316
1788675202272661200,16.0296611328125,0.3188716471195221,-0.40622538328170776,-0.7916813492774963
1788675202288622000,16.0456220703125,0.2828305959701538,-0.17959438264369965,-0.503963828086853
1788675202304582700,16.061582763671876,0.3219259977340698,0.07330382615327835,0.04948008432984352
1788675202320543500,16.07754345703125,0.34697145223617554,0.09773843735456467,0.36224308609962463
1788675202336504000,16.093504150390626,0.32131510972976685,-0.005497787147760391,0.30543261766433716
1788675202352434200,16.10943408203125,0.27000242471694946,-0.08491026610136032,0.021380282938480377
1788675202368334000,16.125333984375,0.182648703455925,-0.1716531366109848,-0.29565876722335815
1788675202384233700,16.141233642578126,0.13072516024112701,-0.19120082259178162,-0.42760565876960754
1788675202400133400,16.15713330078125,0.09834930300712585,-0.18325957655906677,-0.4447098970413208
1788675202416002300,16.173002197265625,0.06536258012056351,-0.1820378452539444,-0.4105014503002167
1788675202431902000,16.18890185546875,0.04764748737215996,-0.1618792861700058,-0.40744712948799133
1788675202447893200,16.204893310546876,0.060475658625364304,-0.14233160018920898,-0.4196644127368927
1788675202463854000,16.22085400390625,0.059864792972803116,-0.14233160018920898,-0.3481931984424591
1788675202479753700,16.236753662109376,0.02871066704392433,-0.16982053220272064,-0.15454891324043274
1788675202495622700,16.25262255859375,0.01466076634824276,-0.1411098688840866,0.02076941914856434
1788675202511491800,16.268491943359376,0.02015855349600315,-0.02687807008624077,0.11545353382825851
1788675202527452700,16.28445263671875,0.005497787147760391,0.07880161702632904,0.07269296050071716
1788675202543443700,16.300443603515625,-0.06658431142568588,0.13377949595451355,-0.07269296050071716
1788675202559343400,16.31634326171875,-0.12461651116609573,0.10018189996480942,-0.21624629199504852
1788675202575212500,16.332212646484376,-0.17898350954055786,0.18997909128665924,-0.3335324227809906
1788675202591112200,16.3481123046875,-0.20036379992961884,0.23396138846874237,-0.35185837745666504
1788675202607073000,16.364072998046876,-0.1618792861700058,0.33475416898727417,-0.23945917189121246
1788675202623033600,16.38003369140625,-0.0959058403968811,0.40133845806121826,-0.0555887371301651
1788675202639055400,16.396055419921876,-0.048258353024721146,0.36590829491615295,0.2028072625398636
1788675202655016200,16.41201611328125,-0.12217304855585098,0.20097467303276062,0.42699480056762695
1788675202670946300,16.4279462890625,-0.25106561183929443,0.06780604273080826,0.485027015209198
1788675202686907000,16.443906982421876,-0.37079519033432007,-0.01710422709584236,0.4147774875164032
1788675202702867700,16.45986767578125,-0.3854559659957886,0.028099801391363144,0.3445279896259308
1788675202718858800,16.475858642578125,-0.3494149148464203,0.12217304855585098,0.3604104816913605
1788675202734819600,16.491819580078126,-0.3494149148464203,0.152105450630188,0.5009095072746277
1788675202750780200,16.5077802734375,-0.36590829491615295,0.13011430203914642,0.6304129362106323
1788675202766741000,16.523740966796876,-0.3628539443016052,0.12767083942890167,0.5736024379730225
1788675202782732000,16.53973193359375,-0.4086688458919525,0.17592918872833252,0.3243694305419922
1788675202798631700,16.555631591796875,-0.42271876335144043,0.3182607889175415,-0.1771509200334549
1788675202814562000,16.57156201171875,-0.39095374941825867,0.1966986060142517,-0.5436700582504272
1788675202830583800,16.587583740234376,-0.4086688458919525,-0.15821409225463867,-0.4349360466003418
1788675202846544400,16.60354443359375,-0.4495968222618103,-0.39095374941825867,0.022602014243602753
1788675202862505200,16.619505126953126,-0.43737950921058655,-0.4605923891067505,0.5528330206871033
1788675202878526700,16.635526611328125,-0.3732386529445648,-0.32131510972976685,0.6811147332191467
1788675202894548500,16.651548583984376,-0.3390302062034607,-0.07147123664617538,0.4398229718208313
1788675202910448000,16.6674482421875,-0.32986724376678467,0.12828169763088226,0.0012217304902151227
1788675202926409000,16.683408935546876,-0.29016098380088806,0.22907446324825287,-0.5277875661849976
1788675202942400000,16.69939990234375,-0.22357667982578278,0.1814269721508026,-0.8210029006004333
1788675202958391300,16.715391357421876,-0.1563815027475357,0.12095131725072861,-0.8362745046615601
1788675202974260500,16.731260498046876,-0.11239920556545258,0.0659734457731247,-0.646906316280365
1788675202990160100,16.74716015625,-0.08185594528913498,0.042760565876960754,-0.37629300355911255
1788675203006120700,16.76312060546875,-0.027488935738801956,0.05009094998240471,-0.039095375686883926
1788675203022051000,16.779051025390626,0.025656340643763542,0.00855211354792118,0.20097467303276062
1788675203037950700,16.79495068359375,0.05742133408784866,-0.05253441259264946,0.3225368559360504
1788675203053820000,16.81081982421875,0.0757472887635231,-0.06352998316287994,0.2718350291252136
1788675203069719600,16.826719482421876,0.09651670604944229,-0.06352998316287994,0.08124507963657379
1788675203085680000,16.84268017578125,0.09712757170200348,-0.06169738993048668,-0.0910189226269722
1788675203101671400,16.85867138671875,0.11484266817569733,-0.054367005825042725,-0.1716531366109848
1788675203117601500,16.8746015625,0.152105450630188,-0.05619960278272629,-0.12889257073402405
1788675203133562000,16.89056201171875,0.16798794269561768,-0.03176499158143997,-0.03726277872920036
1788675203149431300,16.906431396484376,0.16493362188339233,-0.003054326167330146,0.016493361443281174
1788675203165300500,16.922300537109376,0.1618792861700058,-0.02687807008624077,0.06414084881544113
1788675203181200100,16.9382001953125,0.16371189057826996,-0.08124507963657379,0.1820378452539444
1788675203197161000,16.954160888671876,0.19425514340400696,-0.04703662544488907,0.27977627515792847
1788675203213091000,16.970091064453126,0.24617868661880493,-0.010995574295520782,0.32559117674827576
1788675203229112800,16.98611279296875,0.30970868468284607,0.02321287989616394,0.2791654169559479
1788675203245073400,17.002073486328126,0.3830125033855438,0.0757472887635231,0.17409659922122955
1788675203261034200,17.0180341796875,0.4355469346046448,0.13744467496871948,0.1368338167667389
1788675203277056000,17.034055908203126,0.484416127204895,0.23335053026676178,0.19792033731937408
1788675203292925000,17.049925048828126,0.4862487316131592,0.2174680233001709,0.27977627515792847
1788675203308824600,17.065824462890625,0.5296201705932617,0.19792033731937408,0.2785545587539673
1788675203324755000,17.0817548828125,0.5943718552589417,0.23029619455337524,0.0507018156349659
1788675203340715500,17.097715576171876,0.5931501388549805,0.14966198801994324,-0.35124751925468445
1788675203356737300,17.1137373046875,0.4807509481906891,-0.10690141469240189,-0.8008443117141724
1788675203372606500,17.1296064453125,0.3286454975605011,-0.23640485107898712,-0.8509352803230286
1788675203388567000,17.145567138671876,0.20463985204696655,-0.1667662113904953,-0.33475416898727417
1788675203404466700,17.161466796875,0.2168571650981903,-0.05925392732024193,0.37751471996307373
1788675203420366300,17.177366455078126,0.32009339332580566,0.019547687843441963,0.9779952764511108
1788675203436296700,17.193296630859376,0.41172316670417786,0.07941248267889023,1.0305296182632446
1788675203452165600,17.20916552734375,0.4202753007411957,0.07330382615327835,0.6432411074638367
1788675203468065300,17.225065185546875,0.3481931984424591,0.059864792972803116,0.1661553531885147
1788675203484026000,17.241026123046876,0.24068090319633484,0.06780604273080826,-0.29138273000717163
1788675203499986700,17.256986572265625,0.17898350954055786,0.10384709388017654,-0.42149701714515686
1788675203516008400,17.273008544921876,0.16554448008537292,0.08002334833145142,-0.2382374405860901
1788675203531969300,17.28896923828125,0.07880161702632904,-0.016493361443281174,-0.2376265823841095
1788675203547929900,17.304929931640626,-0.004886921960860491,-0.0012217304902151227,-0.3219259977340698
1788675203563799000,17.320799072265626,-0.05742133408784866,-0.051312681287527084,-0.4031710624694824
1788675203579698700,17.33669873046875,-0.0006108652451075613,0.06780604273080826,-0.32009339332580566
1788675203595659300,17.3526591796875,0.04214970022439957,0.13377949595451355,-0.13255776464939117
1788675203611650600,17.368650634765626,0.00855211354792118,0.1569923609495163,-0.012217304669320583
1788675203627519700,17.384519775390626,-0.03787364438176155,0.16920967400074005,0.05619960278272629
1788675203643389000,17.400388916015626,-0.060475658625364304,0.18081611394882202,0.04398229718208313
1788675203659258000,17.416258056640626,-0.08918632566928864,0.19975294172763824,0.006108652334660292
1788675203675249200,17.432249267578126,-0.0910189226269722,0.2028072625398636,0.00366519158706069
1788675203691148800,17.448148681640625,-0.08857546001672745,0.19120082259178162,0.030543262138962746
1788675203707140000,17.46414013671875,-0.1313360333442688,0.11667526513338089,0.04764748737215996
1788675203723070200,17.4800703125,-0.18936823308467865,0.04459316283464432,0.04886921867728233
1788675203739000600,17.49600048828125,-0.21380282938480377,-0.006108652334660292,0.059864792972803116
1788675203754900200,17.511900146484376,-0.21074850857257843,0.015882495790719986,0.0555887371301651
1788675203770799900,17.5277998046875,-0.22418753802776337,0.028099801391363144,-0.007941247895359993
1788675203786730000,17.54372998046875,-0.25473082065582275,-0.04153883829712868,-0.10690141469240189
1788675203802690600,17.559690673828126,-0.2791654169559479,-0.10934487730264664,-0.18448130786418915
1788675203818681900,17.575681884765626,-0.28038713335990906,-0.05314527451992035,-0.16798794269561768
1788675203834612000,17.591612060546876,-0.26511552929878235,0.06780604273080826,0.036041051149368286
1788675203850572800,17.60757275390625,-0.22113321721553802,0.17470745742321014,0.3536909818649292
1788675203866503000,17.6235029296875,-0.07880161702632904,0.33108896017074585,0.7342600226402283
1788675203882463500,17.63946337890625,0.0555887371301651,0.484416127204895,0.79840087890625
1788675203898393900,17.655393798828126,0.09468411654233932,0.5204572081565857,0.4092797040939331
1788675203914385000,17.671385009765626,-0.04398229718208313,0.4807509481906891,-0.24495697021484375
1788675203930376200,17.687376220703126,-0.1918116807937622,0.42149701714515686,-0.7483099102973938
1788675203946275800,17.70327587890625,-0.34025195240974426,0.6866125464439392,-0.3597996234893799
1788675203962236400,17.719236328125,-0.252287358045578,0.22418753802776337,0.11789698898792267
1788675203978197200,17.735197265625,-0.42088615894317627,-0.3139847218990326,0.41661009192466736
1788675203994157800,17.75115771484375,-0.5907067060470581,-0.41111230850219727,0.31031954288482666
1788675204018114300,17.7751142578125,-0.5552765130996704,-0.01771509274840355,0.13744467496871948
1788675204034105300,17.791105224609375,-0.3646865487098694,0.323147714138031,0.11423180252313614
1788675204065874200,17.822874267578126,-0.32620203495025635,0.18448130786418915,-0.32131510972976685
1788675204081804300,17.83880419921875,-0.31459560990333557,-0.08857546001672745,-0.5650503635406494
1788675204097643000,17.85464306640625,-0.2724458873271942,-0.3286454975605011,-0.6359107494354248
1788675204113542700,17.870542724609376,-0.17837265133857727,-0.44715335965156555,-0.5009095072746277
1788675204129381400,17.88638134765625,-0.10018189996480942,-0.36529740691185,-0.18448130786418915
1788675204145281000,17.902281005859376,-0.11667526513338089,-0.22052235901355743,0.09896016865968704
1788675204161180700,17.9181806640625,-0.1264491081237793,-0.022602014243602753,0.2321287989616394
1788675204177080300,17.934080322265626,-0.12950342893600464,0.0757472887635231,0.13500121235847473
1788675204192980000,17.94997998046875,-0.12400564551353455,0.11667526513338089,-0.10323622822761536
1788675204208818700,17.965818603515626,-0.07513642311096191,0.09224065393209457,-0.29077184200286865
1788675204224718300,17.98171826171875,-0.019547687843441963,-0.015882495790719986,-0.40072759985923767
1788675204240587300,17.997587158203125,0.0012217304902151227,-0.10567969083786011,-0.37690386176109314
1788675204256426000,18.013426025390626,0.028099801391363144,-0.09285151958465576,-0.26083946228027344
1788675204272325600,18.02932568359375,0.06230825558304787,-0.09162978827953339,-0.039095375686883926
1788675204288164400,18.045164306640626,0.10384709388017654,-0.07391469180583954,0.13988813757896423
1788675204304002800,18.0610029296875,0.13744467496871948,-0.08185594528913498,0.22540926933288574
1788675204319841500,18.076841552734376,0.15271630883216858,-0.10751228034496307,0.17531833052635193
1788675204335741200,18.0927412109375,0.17531833052635193,-0.14416420459747314,0.036651913076639175
1788675204351671300,18.10867138671875,0.21013765037059784,-0.16920967400074005,-0.10506882518529892
1788675204367601400,18.124601318359375,0.24373523890972137,-0.17959438264369965,-0.22113321721553802
1788675204383501300,18.140501220703126,0.2583959996700287,-0.22907446324825287,-0.21319197118282318
1788675204423174100,18.180174072265626,0.3323107063770294,-0.23396138846874237,0.018936822190880775
1788675204439012600,18.1960126953125,0.35735616087913513,-0.21563543379306793,0.11972958594560623
1788675204454881800,18.2118818359375,0.43737950921058655,-0.07635815441608429,0.152105450630188
1788675204470812000,18.22781201171875,0.475253164768219,0.029932396486401558,0.07208210229873657
1788675204486650600,18.243650634765626,0.4306600093841553,0.016493361443281174,-0.0959058403968811
1788675204502489300,18.2594892578125,0.4147774875164032,-0.059864792972803116,-0.2583959996700287
1788675204518358300,18.275358154296875,0.4153883755207062,-0.2174680233001709,-0.4599815309047699
1788675204534197000,18.291197021484376,0.3384193480014801,-0.33597588539123535,-0.5503895878791809
1788675204550096600,18.3070966796875,0.2272418737411499,-0.29138273000717163,-0.3390302062034607
1788675204565965800,18.3229658203125,0.19853121042251587,-0.10995574295520782,0.08185594528913498
1788675204581835000,18.3388349609375,0.28099802136421204,0.07208210229873657,0.4355469346046448
1788675204597704200,18.3547041015625,0.323147714138031,0.09224065393209457,0.5027421116828918
1788675204613542700,18.370542724609376,0.2779437005519867,-0.013439035043120384,0.34697145223617554
1788675204629472800,18.38647265625,0.23945917189121246,-0.060475658625364304,0.08491026610136032
1788675204645311500,18.4023115234375,0.2480112910270691,-0.04581489413976669,-0.2675589919090271
1788675204661211100,18.418211181640626,0.24556782841682434,0.016493361443281174,-0.5186246037483215
1788675204677080300,18.434080322265626,0.17043140530586243,0.0024434609804302454,-0.6585127115249634
1788675204692949500,18.449949462890626,0.07147123664617538,-0.051312681287527084,-0.6352998614311218
1788675204708849200,18.46584912109375,-0.006108652334660292,-0.10995574295520782,-0.4795292317867279
1788675204724718300,18.48171826171875,-0.015882495790719986,-0.13439035415649414,-0.2687807083129883
1788675204740618000,18.497617919921876,0.005497787147760391,-0.1563815027475357,-0.004886921960860491
1788675204756487000,18.51348681640625,0.012217304669320583,-0.15332718193531036,0.13866640627384186
1788675204772356000,18.529356201171876,0.00427605677396059,-0.12767083942890167,0.17592918872833252
1788675204788286500,18.545286376953126,0.01771509274840355,-0.07819075137376785,0.13011430203914642
1788675204804125000,18.561125,0.04214970022439957,-0.030543262138962746,0.0708603709936142
1788675204819994000,18.576994140625,0.03298672288656235,0.00427605677396059,0.07208210229873657
1788675204835893800,18.592893798828126,-0.012828170321881771,-0.0024434609804302454,0.11423180252313614
1788675204851793400,18.60879345703125,-0.05192354694008827,-0.0006108652451075613,0.12828169763088226
1788675204867723500,18.6247236328125,-0.09651670604944229,-0.02932153269648552,0.09773843735456467
1788675204883592700,18.6405927734375,-0.11423180252313614,-0.07147123664617538,0.03726277872920036
1788675204899431400,18.656431396484376,-0.11972958594560623,-0.06108652427792549,0.025656340643763542
1788675204915300600,18.672300537109376,-0.1160643994808197,-0.01160643994808197,0.07696902006864548
1788675204931200300,18.6882001953125,-0.12522737681865692,0.02076941914856434,0.18509216606616974
1788675204947100000,18.704099853515626,-0.16554448008537292,0.00427605677396059,0.2779437005519867
1788675204962938400,18.7199384765625,-0.19303341209888458,-0.015882495790719986,0.2773328125476837
1788675204978868700,18.73586865234375,-0.20036379992961884,0.07330382615327835,0.20097467303276062
1788675204994737700,18.751737548828125,-0.2272418737411499,0.16859880089759827,0.12400564551353455
1788675205010637300,18.76763720703125,-0.28038713335990906,0.17898350954055786,0.16310101747512817
1788675205026567700,18.783567626953126,-0.3335324227809906,0.0910189226269722,0.3854559659957886
1788675205042406100,18.79940625,-0.36163222789764404,-0.0012217304902151227,0.6548475623130798
1788675205058275300,18.815275390625,-0.36713001132011414,0.03848451003432274,0.6524040699005127
1788675205074144500,18.83114453125,-0.38728857040405273,0.1973094791173935,0.3683517575263977
1788675205090044200,18.847044189453126,-0.4538728892803192,0.413555771112442,-0.01038470957428217
1788675205113847800,18.870847900390626,-0.4801400899887085,0.3836233615875244,-0.7721336483955383
1788675205129747500,18.88674755859375,-0.5406157374382019,-0.025656340643763542,-0.7104362845420837
1788675205145647000,18.902647216796876,-0.5424483418464661,-0.3225368559360504,-0.14477506279945374
1788675205161485800,18.91848583984375,-0.4801400899887085,-0.42638394236564636,0.5742133259773254
1788675205177324500,18.934324462890626,-0.45142942667007446,-0.41172316670417786,0.9004153609275818
1788675205193193500,18.950193359375,-0.3799581825733185,-0.25106561183929443,0.7513642311096191
1788675205209123800,18.966123779296876,-0.323147714138031,-0.05009094998240471,0.3188716471195221
1788675205225054000,18.982053955078126,-0.2926044464111328,0.07635815441608429,-0.1612684279680252
1788675205240892700,18.997892578125,-0.2632829248905182,0.12767083942890167,-0.4056145250797272
1788675205256792300,19.013792236328126,-0.24495697021484375,0.039706241339445114,-0.4899139404296875
1788675205272630800,19.029630859375,-0.26022860407829285,-0.025656340643763542,-0.47769662737846375
1788675205288500000,19.0455,-0.2840523421764374,-0.1062905490398407,-0.31093040108680725
1788675205304399600,19.061399658203126,-0.2021963894367218,-0.10934487730264664,-0.013439035043120384
1788675205320238300,19.07723828125,-0.08368854224681854,-0.07147123664617538,0.2376265823841095
1788675205336138000,19.093137939453126,-0.042760565876960754,-0.025656340643763542,0.28466320037841797
1788675205351976400,19.1089765625,-0.001832595793530345,0.029932396486401558,0.18814650177955627
1788675205367876000,19.1248759765625,0.004886921960860491,0.08735372871160507,0.015271631069481373
1788675205383806500,19.140806396484376,-0.005497787147760391,0.13377949595451355,-0.1765400618314743
1788675205399645000,19.15664501953125,-0.0012217304902151227,0.1411098688840866,-0.2785545587539673
1788675205415544600,19.172544677734376,0.027488935738801956,0.08368854224681854,-0.3335324227809906
1788675205431444200,19.1884443359375,0.036041051149368286,0.05253441259264946,-0.33597588539123535
1788675205447313400,19.2043134765625,0.03848451003432274,-0.08368854224681854,-0.23640485107898712
1788675205463213000,19.220213134765626,0.10262536257505417,-0.12889257073402405,-0.04703662544488907
1788675205478990600,19.235990478515625,0.19914206862449646,-0.09896016865968704,0.15760323405265808
1788675205494921000,19.2519208984375,0.32620203495025635,-0.2168571650981903,0.4153883755207062
1788675205518755000,19.275755126953126,0.3323107063770294,0.07696902006864548,0.04092797264456749
1788675205534624300,19.291624267578126,0.24007004499435425,0.022602014243602753,-0.2883284091949463
1788675205550463000,19.307462890625,0.21380282938480377,-0.13011430203914642,-0.31031954288482666
1788675205566362600,19.323362548828126,0.2638937830924988,-0.1466076523065567,-0.18020524084568024
1788675205590138400,19.347138427734375,0.49296826124191284,0.12461651116609573,0.07635815441608429
1788675205614033700,19.37103369140625,0.47830748558044434,0.18020524084568024,0.22968533635139465
1788675205637898200,19.394898193359374,0.4764748811721802,0.14416420459747314,0.02871066704392433
1788675205653798000,19.4107978515625,0.5968153476715088,0.051312681287527084,-0.05192354694008827
1788675205669697500,19.426697509765624,0.6340781450271606,-0.06536258012056351,-0.2382374405860901
1788675205685597200,19.44259716796875,0.5638286471366882,-0.2834414839744568,-0.5931501388549805
1788675205701527600,19.458527587890625,0.4447098970413208,-0.3323107063770294,-0.7006624341011047
1788675205717366000,19.474365966796874,0.3579670190811157,-0.1820378452539444,-0.42760565876960754
1788675205733265700,19.490265625,0.32986724376678467,0.03176499158143997,0.0024434609804302454
1788675205749134800,19.506134765625,0.31154128909111023,0.16065755486488342,0.4080579876899719
1788675205764973600,19.5219736328125,0.304210901260376,0.11239920556545258,0.5338962078094482
1788675205780903700,19.537903564453124,0.2626720666885376,0.028099801391363144,0.46364670991897583
1788675205796772900,19.55377294921875,0.23029619455337524,-0.018936822190880775,0.2528982162475586
1788675205812672500,19.569672607421875,0.21624629199504852,-0.02871066704392433,-0.054367005825042725
1788675205828572200,19.585572265625,0.21502456068992615,0.045204028487205505,-0.2974913716316223
1788675205876240600,19.63324072265625,0.14477506279945374,0.06291911751031876,-0.41233405470848083
1788675205892109800,19.64910986328125,0.1062905490398407,-0.010995574295520782,-0.24862214922904968
1788675205907978800,19.664978759765624,0.12767083942890167,-0.051312681287527084,-0.10201449692249298
1788675205923848000,19.680847900390624,0.14049901068210602,-0.08124507963657379,0.04581489413976669
1788675205947651800,19.70465185546875,0.09712757170200348,-0.1007927656173706,0.09712757170200348
1788675205963520800,19.720520751953124,0.04886921867728233,-0.07330382615327835,0.028099801391363144
1788675205979451100,19.736451171875,0.01710422709584236,-0.030543262138962746,-0.03176499158143997
1788675205995289600,19.75228955078125,0.010995574295520782,0.015271631069481373,-0.07452555745840073
1788675206011158800,19.76815869140625,0.015271631069481373,0.05314527451992035,-0.09285151958465576
1788675206027028000,19.784028076171875,0.012217304669320583,0.11362093687057495,-0.11545353382825851
1788675206042897200,19.799897216796875,-0.004886921960860491,0.17898350954055786,-0.14905111491680145
1788675206058827300,19.8158271484375,-0.015882495790719986,0.14844025671482086,-0.14782938361167908
1788675206090626600,19.84762646484375,-0.09040805697441101,0.10018189996480942,0.1319468915462494
1788675206106526200,19.863526123046874,-0.1111774742603302,0.11423180252313614,0.2583959996700287
1788675206130421500,19.88742138671875,-0.11545353382825851,0.20586158335208893,0.2932153046131134
1788675206146321200,19.903321044921874,-0.11484266817569733,0.25595253705978394,0.24678955972194672
1788675206162159900,19.919159912109375,-0.10812314599752426,0.2565633952617645,0.2736676335334778
1788675206178090000,19.935090087890625,-0.12400564551353455,0.182648703455925,0.45142942667007446
1788675206193959200,19.950959228515625,-0.1264491081237793,0.12767083942890167,0.6120869517326355
1788675206209889300,19.96688916015625,-0.11484266817569733,0.1264491081237793,0.5381723046302795
1788675206225789000,19.982788818359374,-0.1466076523065567,0.13255776464939117,0.19364428520202637
1788675206241688600,19.9986884765625,-0.1215621829032898,0.31093040108680725,-0.33047810196876526
1788675206257588200,20.014588134765624,-0.07208210229873657,0.2687807083129883,-0.7428121566772461
1788675206273427000,20.030427001953125,-0.09651670604944229,0.0708603709936142,-0.5375614166259766
1788675206289265400,20.046265380859374,-0.22663100063800812,-0.24129177629947662,0.26572638750076294
1788675206305165000,20.0621650390625,-0.28038713335990906,-0.3744603991508484,0.8943067193031311
