time,seconds_elapsed,z,y,x
1788673481811613000,0.114613037109375,-92.41700744628906,47.836002349853516,-15.453001022338867
1788673481827867000,0.130866943359375,-89.08600616455078,17.086000442504883,-14.710000991821289
1788673481843974000,0.146973876953125,-91.17500305175781,14.200000762939453,-14.427000999450684
1788673481860154000,0.163154052734375,-90.65300750732422,15.057001113891602,-14.420001029968262
1788673481876389600,0.1793896484375,-92.68800354003906,14.840001106262207,-14.827000617980957
1788673481892500700,0.195500732421875,-92.58600616455078,16.0260009765625,-14.307001113891602
1788673481908772000,0.211772216796875,-92.06600189208984,15.692000389099121,-15.12600040435791
1788673481924832300,0.227832275390625,-91.0060043334961,16.118000030517578,-15.225000381469727
1788673481941024800,0.244024658203125,-92.27200317382812,14.617000579833984,-15.441000938415527
1788673481957280300,0.2602802734375,-90.23400115966797,15.592000961303711,-14.416000366210938
1788673481973394400,0.27639453125,-90.31600189208984,13.986001014709473,-14.328001022338867
1788673481989671700,0.292671630859375,-90.8800048828125,14.724000930786133,-15.238000869750977
1788673482005738200,0.30873828125,-91.43600463867188,15.469000816345215,-15.74000072479248
1788673482021929000,0.324928955078125,-90.52900695800781,15.607000350952148,-13.295001029968262
1788673482038197500,0.341197509765625,-93.41700744628906,16.14900016784668,-13.1850004196167
1788673482054325000,0.357324951171875,-92.38800811767578,15.80000114440918,-15.125000953674316
1788673482070610000,0.37360986328125,-92.91000366210938,16.131999969482422,-14.408000946044922
1788673482086689500,0.389689453125,-89.5830078125,16.029001235961914,-13.700000762939453
1788673482102829800,0.405829833984375,-92.46100616455078,15.821001052856445,-13.596000671386719
1788673482119057700,0.4220576171875,-91.82600402832031,15.2760009765625,-14.213000297546387
1788673482135140600,0.438140625,-91.61300659179688,16.138999938964844,-13.696001052856445
1788673482151436000,0.45443603515625,-91.38500213623047,15.7160005569458,-13.293000221252441
1788673482167526000,0.47052587890625,-91.0840072631836,16.46000099182129,-13.694000244140625
1788673482183718100,0.48671826171875,-91.9280014038086,15.60300064086914,-13.803000450134277
1788673482199953000,0.502952880859375,-92.68600463867188,15.49000072479248,-14.312000274658203
1788673482216044300,0.519044189453125,-92.89500427246094,16.033000946044922,-13.79800033569336
1788673482232337700,0.535337646484375,-90.90200805664062,17.30500030517578,-14.60400104522705
1788673482248433200,0.55143310546875,-91.1050033569336,16.339000701904297,-14.714000701904297
1788673482264619500,0.56761962890625,-92.16200256347656,15.051000595092773,-15.030000686645508
1788673482280861400,0.583861328125,-91.85600280761719,14.609001159667969,-15.951001167297363
1788673482296959000,0.599958984375,-91.32500457763672,16.011001586914062,-15.226000785827637
1788673482313223700,0.6162236328125,-92.79600524902344,14.29900074005127,-15.23900032043457
1788673482329272600,0.6322724609375,-91.19000244140625,15.920001029968262,-14.004000663757324
1788673482345464000,0.648464111328125,-91.4320068359375,14.499000549316406,-16.1560001373291
1788673482361712600,0.664712646484375,-90.25300598144531,13.851000785827637,-16.367000579833984
1788673482377826800,0.680826904296875,-91.85700225830078,15.689001083374023,-15.330000877380371
1788673482394086400,0.69708642578125,-92.30000305175781,15.680000305175781,-16.043001174926758
1788673482410142500,0.713142578125,-91.24100494384766,15.67300033569336,-16.451000213623047
1788673482426337500,0.729337646484375,-92.10800170898438,16.42300033569336,-16.546001434326172
1788673482442570000,0.745570068359375,-91.89400482177734,15.883000373840332,-16.856000900268555
1788673482458695200,0.761695068359375,-91.16500091552734,15.762001037597656,-17.775001525878906
1788673482474952000,0.777951904296875,-91.8740005493164,15.13800048828125,-16.454999923706055
1788673482491029200,0.794029296875,-90.59200286865234,15.029000282287598,-16.45800018310547
1788673482507223800,0.810223876953125,-90.89600372314453,14.715001106262207,-15.951001167297363
1788673482523455700,0.826455810546875,-90.5770034790039,14.17300033569336,-16.36400032043457
1788673482539540000,0.8425400390625,-91.44400787353516,14.27500057220459,-16.871000289916992
1788673482555805400,0.858805419921875,-92.2040023803711,13.836000442504883,-17.689001083374023
1788673482571892700,0.874892822265625,-91.25000762939453,15.668001174926758,-16.85900115966797
1788673482588084200,0.891084228515625,-91.68900299072266,15.337000846862793,-17.57400131225586
1788673482604315600,0.907315673828125,-91.04400634765625,14.690000534057617,-17.785001754760742
1788673482620403700,0.92340380859375,-91.06400299072266,15.00200080871582,-18.4950008392334
1788673482636669400,0.93966943359375,-92.31700134277344,14.589000701904297,-17.47800064086914
1788673482652767200,0.955767333984375,-92.17900085449219,14.500000953674316,-16.155000686645508
1788673482668959700,0.971959716796875,-91.37000274658203,14.471000671386719,-18.194000244140625
1788673482685195000,0.988195068359375,-91.88200378417969,15.350000381469727,-16.657001495361328
1788673482701289000,1.0042890625,-92.87200164794922,15.118000984191895,-18.084001541137695
1788673482717550300,1.02055029296875,-92.0300064086914,15.217000961303711,-18.59400177001953
1788673482733650200,1.036650146484375,-93.48200225830078,15.570000648498535,-16.44900131225586
1788673482749839400,1.05283935546875,-92.55900573730469,15.220000267028809,-18.388999938964844
1788673482766078000,1.069077880859375,-93.63400268554688,17.37900161743164,-17.350000381469727
1788673482782178800,1.0851787109375,-93.10800170898438,15.320000648498535,-18.999000549316406
1788673482798441700,1.101441650390625,-93.81700134277344,15.020000457763672,-17.47300148010254
1788673482814496000,1.11749609375,-93.54200744628906,15.965001106262207,-18.891000747680664
1788673482830687200,1.133687255859375,-92.12500762939453,15.872000694274902,-17.671001434326172
1788673482846941200,1.149941162109375,-92.58700561523438,16.06800079345703,-19.095001220703125
1788673482863056400,1.166056396484375,-92.8530044555664,13.940000534057617,-17.993000030517578
1788673482879283700,1.18228369140625,-91.78800201416016,16.638999938964844,-16.442001342773438
1788673482895344400,1.198344482421875,-94.39000701904297,15.322000503540039,-18.99700164794922
1788673482911533800,1.214533935546875,-93.61800384521484,15.22800064086914,-17.98000144958496
1788673482927794700,1.230794677734375,-94.06800079345703,14.890000343322754,-19.205001831054688
1788673482943910400,1.246910400390625,-93.1050033569336,14.890000343322754,-19.104000091552734
1788673482960197000,1.263197021484375,-92.98400115966797,15.223000526428223,-18.28700065612793
1788673482976268300,1.279268310546875,-92.13300323486328,14.571001052856445,-18.803001403808594
1788673482992459800,1.295459716796875,-90.08800506591797,14.578001022338867,-18.09200096130371
1788673483008728800,1.311728759765625,-91.29200744628906,15.210000991821289,-19.00200080871582
1788673483024857300,1.327857421875,-91.71700286865234,14.779000282287598,-19.209001541137695
1788673483041148700,1.344148681640625,-92.33200073242188,14.36400032043457,-18.295000076293945
1788673483057228800,1.360228759765625,-91.06000518798828,13.92400074005127,-19.014001846313477
1788673483073344800,1.3763447265625,-94.17900085449219,15.861001014709473,-18.78900146484375
1788673483089624000,1.3926240234375,-91.35800170898438,13.289000511169434,-18.408000946044922
1788673483105706800,1.408706787109375,-92.1300048828125,13.708000183105469,-19.218000411987305
1788673483122009000,1.425009033203125,-91.70700073242188,14.35400104522705,-19.009000778198242
1788673483138098200,1.44109814453125,-92.8550033569336,13.61500072479248,-18.301000595092773
1788673483154287900,1.457287841796875,-92.52300262451172,13.081000328063965,-18.10300064086914
1788673483170520300,1.473520263671875,-92.63900756835938,14.04900074005127,-17.89000129699707
1788673483186613200,1.48961328125,-93.08200073242188,13.715001106262207,-18.80900001525879
1788673483202918100,1.505918212890625,-91.2560043334961,15.124000549316406,-17.475000381469727
1788673483219013000,1.52201318359375,-92.5320053100586,14.697000503540039,-17.477001190185547
1788673483235201000,1.538200927734375,-91.87800598144531,13.731000900268555,-17.486000061035156
1788673483251446000,1.554446044921875,-92.87300109863281,14.25200080871582,-18.703001022338867
1788673483267545600,1.570545654296875,-91.76800537109375,12.544000625610352,-18.108001708984375
1788673483283855400,1.58685546875,-91.9590072631836,11.370000839233398,-17.81300163269043
1788673483299906300,1.60290625,-92.86600494384766,12.744000434875488,-19.327001571655273
1788673483316095500,1.619095458984375,-91.0250015258789,12.000000953674316,-18.623001098632812
1788673483332345600,1.635345703125,-91.11600494384766,12.334000587463379,-17.703001022338867
1788673483348454100,1.6514541015625,-90.9330062866211,13.720000267028809,-18.201000213623047
1788673483364731100,1.667731201171875,-90.59100341796875,13.516000747680664,-17.38800048828125
1788673483380782600,1.683782470703125,-92.36900329589844,11.488000869750977,-16.996000289916992
1788673483396920600,1.699920654296875,-90.91400146484375,12.543000221252441,-18.10900115966797
1788673483413154600,1.716154541015625,-91.13700103759766,12.53800106048584,-18.517000198364258
1788673483429278500,1.732278564453125,-92.62400817871094,11.680000305175781,-18.726001739501953
1788673483445540400,1.748540283203125,-92.51400756835938,11.574000358581543,-18.625
1788673483461589800,1.76458984375,-92.43500518798828,12.961000442504883,-19.0210018157959
1788673483477782800,1.78078271484375,-90.51700592041016,13.38800048828125,-18.917001724243164
1788673483494012700,1.7970126953125,-91.39200592041016,12.620000839233398,-20.349000930786133
1788673483510099000,1.813098876953125,-92.33600616455078,12.52400016784668,-19.636001586914062
1788673483526365200,1.829365234375,-92.01100158691406,12.527000427246094,-19.4320011138916
1788673483542455300,1.845455322265625,-90.82000732421875,11.670001029968262,-19.238000869750977
1788673483558648600,1.861648681640625,-93.08500671386719,12.308000564575195,-19.84000015258789
1788673483574876700,1.877876708984375,-91.06400299072266,11.868000984191895,-20.45800018310547
1788673483590996200,1.893996337890625,-92.32000732421875,10.697000503540039,-20.05900001525879
1788673483607242200,1.9102421875,-91.08500671386719,11.747000694274902,-21.47800064086914
1788673483623335400,1.92633544921875,-89.87000274658203,11.986001014709473,-19.542001724243164
1788673483639527200,1.942527099609375,-90.53300476074219,11.109000205993652,-21.077001571655273
1788673483655748900,1.958748779296875,-89.88900756835938,10.029000282287598,-21.59600067138672
1788673483671875000,1.974875,-91.07100677490234,11.540000915527344,-20.970001220703125
1788673483688122400,1.991122314453125,-89.6810073852539,10.458000183105469,-21.593000411987305
1788673483704215300,2.00721533203125,-90.9590072631836,11.327000617980957,-20.8700008392334
1788673483720406800,2.02340673828125,-91.71400451660156,11.21500015258789,-21.27800178527832
1788673483736637200,2.03963720703125,-92.46800231933594,11.53700065612793,-21.376001358032227
1788673483752733000,2.05573291015625,-91.71300506591797,11.324000358581543,-21.17500114440918
1788673483768980000,2.07197998046875,-89.89700317382812,9.808000564575195,-22.108001708984375
1788673483785036000,2.0880361328125,-90.01300048828125,10.12700080871582,-22.308000564575195
1788673483801225500,2.1042255859375,-89.35000610351562,10.356000900268555,-21.187000274658203
1788673483817460500,2.12046044921875,-92.26500701904297,10.665000915527344,-22.40300178527832
1788673483833558300,2.136558349609375,-88.39000701904297,10.570000648498535,-21.084001541137695
1788673483849820000,2.15281982421875,-87.94700622558594,9.930000305175781,-20.785001754760742
1788673483865881600,2.168881591796875,-91.48900604248047,10.57300090789795,-21.1820011138916
1788673483882075000,2.185074951171875,-89.9780044555664,9.608000755310059,-21.091001510620117
1788673483898328600,2.20132861328125,-90.0830078125,9.934000015258789,-20.782001495361328
1788673483914440700,2.217440673828125,-90.9540023803711,10.790000915527344,-20.977001190185547
1788673483930711000,2.2337109375,-89.88400268554688,10.356000900268555,-21.18600082397461
1788673483946752800,2.249752685546875,-92.21800231933594,9.937000274658203,-20.779001235961914
1788673483962945800,2.26594580078125,-88.99200439453125,9.081000328063965,-20.282001495361328
1788673483979220200,2.28222021484375,-88.57600402832031,8.75,-20.998001098632812
1788673483995327200,2.2983271484375,-88.15900421142578,9.282999992370605,-21.09600067138672
1788673484011621600,2.31462158203125,-88.8060073852539,9.38900089263916,-21.29800033569336
1788673484027704800,2.330704833984375,-88.37500762939453,9.498000144958496,-21.09400177001953
1788673484043897000,2.34689697265625,-90.79000091552734,9.31100082397461,-19.360000610351562
1788673484060174300,2.36317431640625,-88.04800415039062,9.28600025177002,-20.892000198364258
1788673484076259800,2.379259765625,-89.63700103759766,8.755000114440918,-20.691001892089844
1788673484092556000,2.39555615234375,-89.01500701904297,9.282999992370605,-21.19700050354004
1788673484108646000,2.41164599609375,-87.90900421142578,7.7920002937316895,-20.3960018157959
1788673484124835300,2.42783544921875,-89.6290054321289,6.707000255584717,-21.626001358032227
1788673484141070300,2.4440703125,-88.4580078125,6.919000148773193,-21.626001358032227
1788673484157161000,2.460160888671875,-87.37600708007812,7.683000564575195,-20.500001907348633
1788673484173427200,2.47642724609375,-88.55400085449219,6.169000148773193,-21.632001876831055
1788673484189520000,2.492519775390625,-88.21200561523438,6.398000240325928,-20.510000228881836
1788673484205712100,2.508712158203125,-90.2280044555664,6.301000118255615,-19.999000549316406
1788673484221956600,2.52495654296875,-88.2030029296875,5.431000232696533,-20.722000122070312
1788673484238056700,2.541056640625,-88.06300354003906,5.6670002937316895,-19.09000015258789
1788673484254368800,2.55736865234375,-87.23100280761719,6.409000396728516,-19.59400177001953
1788673484270418700,2.573418701171875,-87.26400756835938,6.821000099182129,-20.81300163269043
1788673484286609000,2.58960888671875,-87.59300231933594,5.843000411987305,-21.84000015258789
1788673484302857500,2.605857421875,-86.3800048828125,5.9730000495910645,-20.007001876831055
1788673484318965800,2.6219658203125,-85.31300354003906,5.215000152587891,-20.52400016784668
1788673484335231700,2.638231689453125,-88.18500518798828,4.793000221252441,-20.32000160217285
1788673484351296000,2.6542958984375,-88.10700225830078,5.208000183105469,-21.336000442504883
1788673484367481900,2.67048193359375,-87.58500671386719,5.0920000076293945,-21.948001861572266
1788673484383708700,2.686708740234375,-85.75000762939453,5.1010003089904785,-21.034000396728516
1788673484399824000,2.702823974609375,-84.56900024414062,3.806000232696533,-21.556001663208008
1788673484416014000,2.71901416015625,-87.0580062866211,4.763000011444092,-22.461000442504883
1788673484432093400,2.735093505859375,-86.62300109863281,5.523000240325928,-21.64000129699707
1788673484448286000,2.751285888671875,-86.60900115966797,5.640000343322754,-20.926000595092773
1788673484464516000,2.76751611328125,-87.35000610351562,5.969000339508057,-20.413000106811523
1788673484480605000,2.78360498046875,-87.98100280761719,4.463000297546387,-20.935001373291016
1788673484496868400,2.799868408203125,-85.98600769042969,5.628000259399414,-21.742000579833984
1788673484512956400,2.815956298828125,-84.4800033569336,5.4170002937316895,-21.338001251220703
1788673484529147000,2.83214697265625,-84.86800384521484,4.252000331878662,-20.32900047302246
1788673484545368800,2.848368896484375,-85.95000457763672,4.785000324249268,-20.62900161743164
1788673484561489200,2.8644892578125,-86.47100067138672,4.686000347137451,-20.1200008392334
1788673484577744600,2.88074462890625,-87.23300170898438,4.895000457763672,-20.626001358032227
1788673484593798000,2.8967978515625,-87.64200592041016,4.906000137329102,-19.81100082397461
1788673484609990400,2.912990478515625,-85.85800170898438,3.696000099182129,-21.963001251220703
1788673484626219800,2.9292197265625,-84.5510025024414,5.00600004196167,-20.018001556396484
1788673484642313200,2.945313232421875,-87.85600280761719,4.150000095367432,-20.327001571655273
1788673484658573600,2.961573486328125,-86.19600677490234,4.874000072479248,-22.054000854492188
1788673484674666200,2.977666259765625,-88.0040054321289,4.6650004386901855,-21.850000381469727
1788673484690857200,2.993857177734375,-83.93400573730469,4.883000373840332,-21.14000129699707
1788673484707103200,3.010103271484375,-85.97100067138672,3.692000150680542,-22.268001556396484
1788673484723207000,3.02620703125,-84.99100494384766,4.134000301361084,-21.145000457763672
1788673484739472100,3.04247216796875,-84.4580078125,3.052000045776367,-21.869001388549805
1788673484755530200,3.0585302734375,-85.51900482177734,3.7060000896453857,-21.148000717163086
1788673484771672300,3.07467236328125,-83.63200378417969,4.11400032043457,-22.47100067138672
1788673484787902200,3.090902099609375,-82.1290054321289,3.4690001010894775,-22.479001998901367
1788673484803993900,3.106993896484375,-83.63400268554688,2.9240000247955322,-23.297000885009766
1788673484820246500,3.12324658203125,-84.56800079345703,4.23900032043457,-21.24700164794922
1788673484836312800,3.139312744140625,-84.48400115966797,4.765000343322754,-21.955001831054688
1788673484852504800,3.1555048828125,-83.2090072631836,3.0310001373291016,-23.296001434326172
1788673484868748300,3.171748291015625,-84.46000671386719,4.672000408172607,-20.937000274658203
1788673484884859600,3.187859619140625,-82.43600463867188,2.180000066757202,-22.694000244140625
1788673484901134300,3.20413427734375,-84.05000305175781,3.9050002098083496,-22.167001724243164
1788673484917205800,3.220205810546875,-83.12500762939453,4.205000400543213,-23.59200096130371
1788673484933344800,3.2363447265625,-82.34000396728516,3.1460001468658447,-22.58300018310547
1788673484949610800,3.25261083984375,-82.56400299072266,4.545000076293945,-22.163000106811523
1788673484965730600,3.26873046875,-82.8790054321289,2.1710000038146973,-23.406002044677734
1788673484982014700,3.2850146484375,-83.21300506591797,3.0280001163482666,-23.500001907348633
1788673484998093800,3.30109375,-82.76800537109375,3.0380001068115234,-22.68600082397461
1788673485014281700,3.31728173828125,-84.14900207519531,3.0450000762939453,-22.378000259399414
1788673485030554000,3.33355419921875,-84.39800262451172,2.5920000076293945,-24.216001510620117
1788673485046686200,3.349686279296875,-84.45500183105469,2.513000011444092,-22.077001571655273
1788673485062983200,3.365983154296875,-83.85000610351562,3.57200026512146,-22.985000610351562
1788673485079068700,3.382068603515625,-81.70800018310547,2.6000001430511475,-23.302001953125
1788673485095257000,3.398257080078125,-84.2550048828125,1.6400001049041748,-23.20600128173828
1788673485111489500,3.414489501953125,-82.36900329589844,3.2370002269744873,-23.80500030517578
1788673485127583700,3.430583740234375,-83.41700744628906,4.006999969482422,-22.47300148010254
1788673485143884300,3.44688427734375,-83.8290023803711,2.3960001468658447,-22.792001724243164
1788673485159977700,3.462977783203125,-83.00000762939453,2.703000068664551,-23.707000732421875
1788673485176166000,3.479165771484375,-82.97500610351562,2.070000171661377,-23.000001907348633
1788673485192411400,3.495411376953125,-81.04500579833984,2.6120002269744873,-22.284000396728516
1788673485208510000,3.511510009765625,-82.95800018310547,1.8640000820159912,-22.39000129699707
1788673485224775000,3.52777490234375,-81.68800354003906,2.828000068664551,-22.282001495361328
1788673485240824000,3.543823974609375,-82.64600372314453,2.939000129699707,-22.076000213623047
1788673485256977000,3.559976806640625,-81.33900451660156,2.7360000610351562,-21.060001373291016
1788673485273231400,3.5762314453125,-81.9000015258789,3.0450000762939453,-22.076000213623047
1788673485289341000,3.5923408203125,-80.60100555419922,2.0810000896453857,-21.882001876831055
1788673485305601500,3.6086015625,-81.45700073242188,2.4050002098083496,-21.7760009765625
1788673485321668000,3.624668212890625,-82.32200622558594,1.5360000133514404,-22.801000595092773
1788673485337805300,3.640805419921875,-82.56600189208984,2.383000135421753,-23.60900115966797
1788673485354032000,3.6570322265625,-81.26700592041016,1.7430000305175781,-23.20800018310547
1788673485370155500,3.673155517578125,-80.8070068359375,1.5460001230239868,-21.886001586914062
1788673485386402600,3.689402587890625,-81.04300689697266,1.8570001125335693,-22.698001861572266
1788673485402476800,3.705476806640625,-81.25700378417969,2.180999994277954,-22.49100112915039
1788673485418615800,3.72161572265625,-80.99700164794922,1.4530000686645508,-20.86800193786621
1788673485434833700,3.737833740234375,-82.09700012207031,1.8670001029968262,-22.086000442504883
1788673485450939600,3.753939697265625,-83.37100219726562,1.3330000638961792,-22.089000701904297
1788673485467188000,3.77018798828125,-81.8550033569336,2.1000001430511475,-20.658000946044922
1788673485483265500,3.786265625,-84.12800598144531,1.977000117301941,-22.082000732421875
1788673485499452400,3.802452392578125,-83.35900115966797,1.7720000743865967,-21.270000457763672
1788673485515680500,3.818680419921875,-83.10000610351562,1.7990001440048218,-19.233001708984375
1788673485531768600,3.8347685546875,-82.82100677490234,1.7740000486373901,-21.067001342773438
1788673485548031000,3.851031005859375,-81.51500701904297,1.6790001392364502,-20.051000595092773
1788673485564120300,3.867120361328125,-84.2820053100586,2.013000011444092,-19.433000564575195
1788673485580309200,3.883309326171875,-82.34500122070312,1.371000051498413,-19.136001586914062
1788673485596523000,3.89952294921875,-82.66500091552734,0.831000030040741,-19.446001052856445
1788673485612605200,3.915605224609375,-83.18900299072266,0.8380000591278076,-19.03700065612793
1788673485628864000,3.931864013671875,-80.49700164794922,0.3070000112056732,-18.332000732421875
1788673485644957200,3.947957275390625,-82.63900756835938,0.6310000419616699,-18.429000854492188
1788673485661141200,3.964141357421875,-83.58900451660156,0.6390000581741333,-17.918001174926758
1788673485677372400,3.980372314453125,-81.7490005493164,0.21800000965595245,-17.10900115966797
1788673485693460500,3.99646044921875,-81.66300201416016,2.1510000228881836,-16.78700065612793
1788673485709714400,4.01271435546875,-82.802001953125,0.7700000405311584,-16.084001541137695
1788673485725767200,4.02876708984375,-80.03300476074219,0.7610000371932983,-16.394001007080078
1788673485741956400,4.044956298828125,-82.69800567626953,0.4440000355243683,-16.393001556396484
1788673485758228000,4.06122802734375,-82.47100067138672,-0.6290000081062317,-16.505001068115234
1788673485774318300,4.077318359375,-81.09600067138672,0.11700000613927841,-16.602001190185547
1788673485790589000,4.0935888671875,-82.62300109863281,0.10000000149011612,-18.0260009765625
1788673485806664200,4.109664306640625,-81.9530029296875,-0.3150000274181366,-17.012001037597656
1788673485822854700,4.125854736328125,-83.46500396728516,-0.10600000619888306,-17.619001388549805
1788673485839097300,4.142097412109375,-82.60100555419922,-0.10200000554323196,-17.213001251220703
1788673485855193900,4.15819384765625,-79.62800598144531,-0.11600000411272049,-17.93000030517578
1788673485871462400,4.17446240234375,-82.52300262451172,1.284000039100647,-17.608001708984375
1788673485887531000,4.190531005859375,-81.76600646972656,-1.7360000610351562,-19.062000274658203
1788673485903718700,4.20671875,-81.23700714111328,-0.22700001299381256,-18.336000442504883
1788673485919980000,4.22297998046875,-78.78800201416016,0.30400002002716064,-18.33500099182129
1788673485936063000,4.23906298828125,-80.49000549316406,-1.2010000944137573,-18.957000732421875
1788673485952326400,4.255326416015625,-79.63900756835938,-0.4480000138282776,-18.6460018157959
1788673485968413400,4.271413330078125,-81.8270034790039,1.3600000143051147,-19.849000930786133
1788673485984555800,4.2875556640625,-80.21200561523438,0.0690000057220459,-20.067001342773438
1788673486000773000,4.303773193359375,-79.01300048828125,0.9460000395774841,-18.431001663208008
1788673486016898000,4.31989794921875,-79.4320068359375,-0.4520000219345093,-18.952001571655273
1788673486033192200,4.336192138671875,-78.89300537109375,-0.34200000762939453,-18.6460018157959
1788673486049285000,4.35228515625,-79.13700103759766,0.18000000715255737,-19.660001754760742
1788673486065426200,4.36842626953125,-79.63400268554688,-0.7690000534057617,-18.64900016784668
1788673486081662700,4.384662841796875,-79.95700073242188,-0.7700000405311584,-18.75
1788673486097758200,4.40075830078125,-79.99600219726562,0.7190000414848328,-19.552000045776367
1788673486114057500,4.417057373046875,-78.93400573730469,-0.04200000315904617,-20.273000717163086
1788673486130157000,4.433156982421875,-80.3290023803711,-0.15200001001358032,-20.68000030517578
1788673486146344700,4.4493447265625,-82.43000030517578,0.30300000309944153,-18.839000701904297
1788673486162594600,4.465594482421875,-79.44300079345703,0.8370000123977661,-18.635000228881836
1788673486178702000,4.4817021484375,-80.47900390625,-0.9780000448226929,-18.34400177001953
1788673486194974500,4.497974365234375,-82.21200561523438,-0.34200000762939453,-19.049001693725586
1788673486211029200,4.514029296875,-80.31300354003906,-0.14300000667572021,-19.96700096130371
1788673486227226000,4.53022607421875,-81.1520004272461,0.08300000429153442,-19.14900016784668
1788673486243485400,4.5464853515625,-80.5300064086914,0.7190000414848328,-19.551000595092773
1788673486259598800,4.562598876953125,-79.46100616455078,0.5020000338554382,-19.6560001373291
1788673486275859700,4.578859619140625,-79.15400695800781,-0.3700000047683716,-20.785001754760742
1788673486291922200,4.594922119140625,-81.14800262451172,0.0860000029206276,-18.94500160217285
1788673486308110600,4.611110595703125,-81.33700561523438,-1.8440001010894775,-19.06300163269043
1788673486324334800,4.6273349609375,-79.5570068359375,-1.1110000610351562,-20.18000030517578
1788673486340455400,4.643455322265625,-79.1510009765625,0.38700002431869507,-20.167001724243164
1788673486356718300,4.65971826171875,-78.37300109863281,-1.3230000734329224,-19.878000259399414
1788673486372801300,4.67580126953125,-82.04700469970703,1.0320000648498535,-20.361000061035156
1788673486388991000,4.691990966796875,-79.99400329589844,-0.25200000405311584,-20.07000160217285
1788673486405220900,4.708220947265625,-80.63700103759766,0.28700000047683716,-19.860000610351562
1788673486421307100,4.72430712890625,-81.40400695800781,0.4930000305175781,-20.571001052856445
1788673486437541000,4.740541015625,-80.21600341796875,0.39100003242492676,-20.064001083374023
1788673486453628700,4.756628662109375,-79.97400665283203,-0.24000000953674316,-19.15300178527832
1788673486469767400,4.772767333984375,-80.656005859375,-0.15600000321865082,-20.985000610351562
1788673486485999400,4.788999267578125,-78.3060073852539,0.7050000429153442,-20.369001388549805
1788673486502089500,4.80508935546875,-81.45800018310547,-1.312000036239624,-19.36400032043457
1788673486518350800,4.821350830078125,-81.62300109863281,0.058000002056360245,-21.084001541137695
1788673486534446800,4.83744677734375,-81.39300537109375,-0.796000063419342,-20.88800048828125
1788673486550636800,4.85363671875,-80.95000457763672,-0.7880000472068787,-20.17500114440918
1788673486566876400,4.86987646484375,-82.4590072631836,0.07000000029802322,-20.268001556396484
1788673486582975500,4.8859755859375,-82.22400665283203,-0.9970000386238098,-19.972000122070312
1788673486599239200,4.9022392578125,-81.7020034790039,-0.4650000333786011,-20.171001434326172
1788673486615341600,4.918341552734375,-82.5510025024414,-1.3250000476837158,-20.483001708984375
1788673486631530500,4.934530517578125,-80.7560043334961,-0.15200001001358032,-20.679000854492188
1788673486647771000,4.95077099609375,-80.89500427246094,-0.32200002670288086,-17.421001434326172
1788673486663873800,4.966873779296875,-82.65900421142578,0.2939999997615814,-19.552000045776367
1788673486680141000,4.98314111328125,-82.6500015258789,-0.34800001978874207,-19.558000564575195
1788673486696201200,4.999201171875,-81.47300720214844,0.08300000429153442,-19.148000717163086
1788673486712388900,5.015388916015625,-81.27800750732422,-0.03500000014901161,-20.066001892089844
1788673486728645600,5.031645751953125,-81.04300689697266,0.08400000631809235,-19.047000885009766
1788673486744758300,5.04775830078125,-81.23600006103516,-1.0910000801086426,-18.85300064086914
1788673486761030700,5.06403076171875,-81.5530014038086,-0.9800000190734863,-18.648000717163086
1788673486777089500,5.080089599609375,-78.90400695800781,-0.34800001978874207,-19.155000686645508
1788673486793225200,5.09622509765625,-80.47300720214844,-1.0820000171661377,-18.141000747680664
1788673486809483000,5.11248291015625,-80.09400177001953,-0.24800001084804535,-19.764001846313477
1788673486825610200,5.1286103515625,-79.76400756835938,0.08100000023841858,-19.150001525878906
1788673486841909500,5.144909423828125,-81.10400390625,0.3290000259876251,-16.803001403808594
1788673486857982500,5.160982421875,-80.50000762939453,-0.12600000202655792,-18.744001388549805
1788673486874168000,5.17716796875,-78.82100677490234,0.7170000076293945,-19.553001403808594
1788673486890436400,5.193436279296875,-81.57200622558594,0.19600000977516174,-18.740001678466797
1788673486906511400,5.209511474609375,-80.73600006103516,-0.13900001347064972,-19.762001037597656
1788673486922802200,5.22580224609375,-81.27800750732422,1.2610000371932983,-19.240001678466797
1788673486938881000,5.241881103515625,-81.69000244140625,-0.6740000247955322,-19.766000747680664
1788673486955017500,5.258017578125,-81.0790023803711,1.1430000066757202,-19.95400047302246
1788673486971242000,5.274241943359375,-80.32600402832031,0.281000018119812,-20.268001556396484
1788673486987320000,5.290320068359375,-78.63700103759766,2.8600001335144043,-19.535001754760742
1788673487003609600,5.306609619140625,-80.66600036621094,1.5660001039505005,-20.358001708984375
1788673487019655000,5.322655029296875,-80.22900390625,1.1390000581741333,-20.159000396728516
1788673487035802400,5.33880224609375,-80.52900695800781,0.17900000512599945,-19.862001419067383
1788673487052039200,5.3550390625,-82.24300384521484,-0.5770000219345093,-20.57900047302246
1788673487068137500,5.371137451171875,-81.28900146484375,-0.367000013589859,-20.782001495361328
1788673487084429600,5.3874296875,-80.24700164794922,0.8040000200271606,-21.181001663208008
1788673487100479500,5.4034794921875,-81.09900665283203,0.15800000727176666,-21.49100112915039
1788673487116636700,5.41963671875,-80.37700653076172,0.03400000184774399,-22.71500015258789
1788673487132870400,5.435870361328125,-81.64500427246094,0.6920000314712524,-21.689001083374023
1788673487148963300,5.45196337890625,-81.44000244140625,1.3350000381469727,-21.684001922607422
1788673487165229600,5.4682294921875,-80.99200439453125,0.4820000231266022,-21.284000396728516
1788673487181282000,5.484281982421875,-81.24300384521484,0.6770000457763672,-22.810001373291016
1788673487197478100,5.50047802734375,-78.552001953125,0.14500001072883606,-22.207000732421875
1788673487213705700,5.516705810546875,-79.427001953125,1.755000114440918,-22.09000015258789
1788673487229823000,5.532822998046875,-81.33200073242188,-0.2840000092983246,-22.615001678466797
1788673487246085600,5.549085693359375,-80.82100677490234,2.186000108718872,-22.08500099182129
1788673487262153000,5.565153076171875,-83.33100128173828,-0.5870000123977661,-21.4950008392334
1788673487278343000,5.581343017578125,-80.84700012207031,1.9540001153945923,-23.411001205444336
1788673487294569000,5.59756884765625,-81.47400665283203,1.315000057220459,-23.21200180053711
1788673487310688000,5.61368798828125,-79.77800750732422,1.8450000286102295,-23.413002014160156
1788673487326950700,5.62995068359375,-80.57600402832031,0.2590000033378601,-21.898000717163086
1788673487343019000,5.64601904296875,-79.44100189208984,0.6660000085830688,-23.424001693725586
1788673487359156700,5.66215673828125,-81.13300323486328,0.4620000123977661,-22.812000274658203
1788673487375385000,5.678385009765625,-82.43800354003906,0.8820000290870667,-23.62200164794922
1788673487391513900,5.694513916015625,-81.0840072631836,2.4810001850128174,-24.119001388549805
1788673487407776500,5.710776611328125,-79.34800720214844,1.630000114440918,-23.416000366210938
1788673487423863600,5.726863525390625,-80.28800201416016,0.45500001311302185,-23.22100067138672
1788673487440002000,5.743001953125,-80.21200561523438,1.193000078201294,-24.131000518798828
1788673487456233500,5.7592333984375,-80.65900421142578,0.5330000519752502,-25.461000442504883
1788673487472319200,5.7753193359375,-78.0840072631836,1.6170001029968262,-24.23200035095215
1788673487488581600,5.79158154296875,-79.87200164794922,1.4210001230239868,-23.11100196838379
1788673487504681500,5.807681396484375,-80.42100524902344,1.7360000610351562,-23.617000579833984
1788673487520824000,5.823823974609375,-80.10400390625,0.6530000567436218,-24.442001342773438
1788673487537063700,5.840063720703125,-80.6520004272461,1.186000108718872,-24.742000579833984
1788673487553161500,5.856161376953125,-80.22100067138672,1.1880000829696655,-24.53900146484375
1788673487569399800,5.87239990234375,-81.74000549316406,1.283000111579895,-25.55500030517578
1788673487585491200,5.8884912109375,-79.58200073242188,1.2940000295639038,-24.53900146484375
1788673487601629200,5.904629150390625,-80.12100219726562,1.183000087738037,-24.845001220703125
1788673487617877800,5.920877685546875,-81.4050064086914,0.7510000467300415,-25.25400161743164
1788673487633964500,5.936964599609375,-79.46000671386719,1.4100000858306885,-23.825000762939453
1788673487650227500,5.9532275390625,-79.7820053100586,0.9780000448226929,-24.134000778198242
1788673487666287000,5.969287109375,-80.63700103759766,0.5470000505447388,-24.442001342773438
1788673487682475800,5.985475830078125,-80.45800018310547,1.0660001039505005,-25.660001754760742
1788673487698730500,6.00173046875,-79.2750015258789,1.2850000858306885,-25.150001525878906
1788673487714847000,6.017846923828125,-80.93000030517578,1.2120000123977661,-22.806001663208008
1788673487731127000,6.034126953125,-81.04800415039062,1.2050000429153442,-23.315000534057617
1788673487747201800,6.050201904296875,-81.39200592041016,1.2990000247955322,-24.3330020904541
1788673487763345700,6.066345703125,-78.47900390625,0.5570000410079956,-23.426000595092773
1788673487779612700,6.08261279296875,-80.70600128173828,0.4610000252723694,-22.81300163269043
1788673487795733200,6.098733154296875,-80.81500244140625,1.1090000867843628,-22.50200080871582
1788673487812025300,6.115025390625,-80.17900085449219,-0.19100001454353333,-23.532001495361328
1788673487828101600,6.1311015625,-80.07300567626953,0.6720000505447388,-23.016000747680664
1788673487844291000,6.147291015625,-82.63400268554688,1.8660000562667847,-22.187000274658203
1788673487860557600,6.1635576171875,-81.87600708007812,2.3030002117156982,-21.47100067138672
1788673487876685300,6.179685302734375,-80.59800720214844,1.5430001020431519,-22.09000015258789
1788673487892980700,6.195980712890625,-80.5780029296875,1.8790000677108765,-20.96700096130371
1788673487909065500,6.2120654296875,-81.25200653076172,0.6710000038146973,-23.218000411987305
1788673487925253000,6.228253173828125,-81.64200592041016,-0.7090000510215759,-22.415000915527344
1788673487941489200,6.2444892578125,-80.47900390625,0.7940000295639038,-21.9950008392334
1788673487957579500,6.26057958984375,-82.54100036621094,2.073000192642212,-22.69500160217285
1788673487973874700,6.276874755859375,-82.4310073852539,1.319000005722046,-23.007001876831055
1788673487989963800,6.2929638671875,-80.27300262451172,0.03200000151991844,-22.817001342773438
1788673488006151000,6.30915087890625,-80.92500305175781,1.5390000343322754,-22.3960018157959
1788673488022392800,6.325392822265625,-80.69600677490234,1.5480000972747803,-21.683000564575195
1788673488038489600,6.341489501953125,-81.16000366210938,1.9580000638961792,-23.10500144958496
1788673488054736400,6.357736328125,-81.99500274658203,0.5670000314712524,-23.11600112915039
1788673488070785800,6.373785888671875,-79.66900634765625,1.7380000352859497,-23.41400146484375
1788673488086923300,6.38992333984375,-81.1290054321289,0.6810000538825989,-22.505001068115234
1788673488103156000,6.406156005859375,-80.40900421142578,0.6630000472068787,-23.72800064086914
1788673488119265000,6.42226513671875,-79.10900115966797,1.1050000190734863,-22.606000900268555
1788673488135539200,6.438539306640625,-80.31800079345703,1.6260000467300415,-23.82200050354004
1788673488151589400,6.45458935546875,-79.3790054321289,1.3950001001358032,-24.946001052856445
1788673488167731000,6.47073095703125,-80.54500579833984,1.942000150680542,-24.226001739501953
1788673488183960600,6.486960693359375,-80.41900634765625,0.76500004529953,-24.135000228881836
1788673488200074500,6.503074462890625,-80.47700500488281,3.1070001125335693,-25.235000610351562
1788673488216335600,6.519335693359375,-79.59700012207031,0.9600000381469727,-25.459001541137695
1788673488232400400,6.535400390625,-78.96800231933594,2.7890000343322754,-24.832000732421875
1788673488248587300,6.551587158203125,-80.97100067138672,1.727000117301941,-24.32900047302246
1788673488264799500,6.567799560546875,-78.93000030517578,0.8670000433921814,-24.340002059936523
1788673488280910300,6.583910400390625,-80.46000671386719,2.686000108718872,-24.729001998901367
1788673488297153000,6.600153076171875,-80.67900085449219,2.142000198364258,-25.345001220703125
1788673488313230300,6.616230224609375,-80.46000671386719,2.0370001792907715,-25.14200210571289
1788673488329418000,6.63241796875,-80.04600524902344,2.3519999980926514,-25.54800033569336
1788673488345638000,6.648637939453125,-83.11200714111328,1.2950000762939453,-24.840002059936523
1788673488361721000,6.66472119140625,-80.89200592041016,2.251000165939331,-25.242000579833984
1788673488377983200,6.680983154296875,-81.97400665283203,3.433000087738037,-25.128000259399414
1788673488394068500,6.697068359375,-80.26300048828125,2.567000150680542,-25.545001983642578
1788673488410255400,6.71325537109375,-79.39400482177734,1.061000108718872,-25.865001678466797
1788673488426482700,6.729482666015625,-82.0780029296875,3.1100001335144043,-25.233001708984375
1788673488442575400,6.745575439453125,-80.35900115966797,2.4660000801086426,-25.139001846313477
1788673488458758400,6.76175830078125,-80.76900482177734,1.0720000267028809,-25.25200080871582
1788673488474855400,6.77785546875,-80.677001953125,3.440000057220459,-24.417001724243164
1788673488490993000,6.793992919921875,-81.34000396728516,3.752000093460083,-25.22800064086914
1788673488507227100,6.81022705078125,-80.14700317382812,1.600000023841858,-25.75800132751465
1788673488523324000,6.826323974609375,-81.01200103759766,2.3510000705718994,-25.750001907348633
1788673488539584000,6.842583984375,-79.4000015258789,2.138000011444092,-25.448001861572266
1788673488555636500,6.858636474609375,-81.71300506591797,1.3000000715255737,-24.332000732421875
1788673488571821800,6.87482177734375,-80.10600280761719,0.7600000500679016,-24.441001892089844
1788673488588072700,6.89107275390625,-81.99300384521484,2.3400001525878906,-26.666000366210938
1788673488604180000,6.907179931640625,-79.57300567626953,0.9750000238418579,-24.338001251220703
1788673488620447500,6.923447509765625,-79.8030014038086,1.50600004196167,-24.740001678466797
1788673488636507600,6.939507568359375,-80.0270004272461,2.25600004196167,-24.733001708984375
1788673488652696000,6.955696044921875,-79.7040023803711,1.6090000867843628,-25.045001983642578
1788673488668955400,6.971955322265625,-77.22600555419922,0.6460000276565552,-24.649002075195312
1788673488685071000,6.988071044921875,-79.052001953125,1.0740000009536743,-24.847002029418945
1788673488701345500,7.004345458984375,-80.77400207519531,0.42000001668930054,-25.869001388549805
1788673488717415000,7.020414794921875,-81.41700744628906,2.257000207901001,-24.834001541137695
1788673488733552000,7.03655224609375,-81.6570053100586,1.7010000944137573,-26.36600112915039
1788673488749819100,7.052819091796875,-79.91200256347656,2.1530001163482666,-24.429000854492188
1788673488765946600,7.068946533203125,-81.07200622558594,0.9750000238418579,-24.540000915527344
1788673488782235000,7.08523486328125,-79.9050064086914,1.184000015258789,-24.74300193786621
1788673488798308600,7.10130859375,-81.52000427246094,1.8270001411437988,-24.939001083374023
1788673488814498000,7.117498046875,-81.73600769042969,2.366000175476074,-24.73000144958496
1788673488830754000,7.133754150390625,-82.68000030517578,0.9730000495910645,-24.843000411987305
1788673488846882000,7.149882080078125,-81.08500671386719,3.2360000610351562,-23.705001831054688
1788673488863174000,7.166173828125,-81.39000701904297,0.6520000100135803,-24.644001007080078
1788673488879257600,7.182257568359375,-81.88700103759766,0.7830000519752502,-22.910001754760742
1788673488895446800,7.19844677734375,-80.6240005493164,-0.20100000500679016,-24.347002029418945
1788673488911722200,7.21472216796875,-81.68900299072266,1.2060000896453857,-23.314001083374023
1788673488927808000,7.23080810546875,-79.77300262451172,1.1990000009536743,-23.623001098632812
1788673488944111000,7.247111083984375,-79.39700317382812,0.47600001096725464,-21.59200096130371
1788673488960198700,7.26319873046875,-81.87800598144531,0.14000000059604645,-22.916000366210938
1788673488976386300,7.27938623046875,-82.59700012207031,1.0240000486373901,-21.07400131225586
1788673488992625700,7.295625732421875,-83.6830062866211,1.5540000200271606,-21.577001571655273
1788673489008724200,7.31172412109375,-82.08100128173828,1.0120000839233398,-21.89000129699707
1788673489025034800,7.32803466796875,-82.60000610351562,1.2380000352859497,-21.07200050354004
1788673489041085000,7.3440849609375,-83.89100646972656,1.4500000476837158,-21.374000549316406
1788673489057275600,7.360275634765625,-82.91500091552734,1.0260000228881836,-20.972000122070312
1788673489073525000,7.37652490234375,-82.84400177001953,2.3000001907348633,-21.775001525878906
1788673489089627600,7.392627685546875,-82.74700164794922,2.511000156402588,-22.07900047302246
1788673489105897000,7.40889697265625,-83.69500732421875,1.2230000495910645,-22.293001174926758
1788673489121962200,7.424962158203125,-80.90900421142578,1.3330000638961792,-21.786001205444336
1788673489138153000,7.441153076171875,-83.80400085449219,1.7620000839233398,-22.084001541137695
1788673489154379000,7.45737890625,-82.72000122070312,2.5270001888275146,-20.85700035095215
1788673489170495700,7.473495849609375,-81.4330062866211,1.1230000257492065,-21.48200035095215
1788673489186759200,7.48975927734375,-83.2490005493164,1.0180000066757202,-21.582000732421875
1788673489202834700,7.505834716796875,-81.86700439453125,1.1200000047683716,-21.78700065612793
1788673489219001000,7.5220009765625,-83.68900299072266,1.0099999904632568,-22.19300079345703
1788673489235229200,7.538229248046875,-83.83500671386719,1.8510000705718994,-23.408000946044922
1788673489251359000,7.55435888671875,-82.86200714111328,1.9650001525878906,-22.797000885009766
1788673489267622700,7.57062255859375,-81.04200744628906,2.074000120162964,-22.49300193786621
1788673489283709400,7.58670947265625,-82.11300659179688,1.3170000314712524,-23.10900115966797
1788673489299900000,7.60289990234375,-81.92500305175781,1.0840001106262207,-24.43600082397461
1788673489316130300,7.61913037109375,-83.26900482177734,1.3300000429153442,-22.293001174926758
1788673489332216000,7.635216064453125,-81.50900268554688,3.0230002403259277,-23.70600128173828
1788673489348461300,7.65146142578125,-82.23900604248047,1.7380000352859497,-23.71700096130371
1788673489364551700,7.6675517578125,-80.67300415039062,1.7130000591278076,-25.349000930786133
1788673489380694500,7.683694580078125,-83.64500427246094,3.3500001430511475,-23.49700164794922
1788673489396911600,7.69991162109375,-81.51400756835938,2.371000051498413,-24.323001861572266
1788673489413002500,7.71600244140625,-82.78300476074219,2.1640000343322754,-23.916000366210938
1788673489429260500,7.732260498046875,-83.20700073242188,1.3020000457763672,-24.330001831054688
1788673489445359400,7.748359375,-82.58900451660156,2.9090001583099365,-24.317001342773438
1788673489461499400,7.76449951171875,-82.15300750732422,2.265000104904175,-24.323001861572266
1788673489477740500,7.780740478515625,-82.67400360107422,1.3010001182556152,-24.33100128173828
1788673489493839600,7.796839599609375,-82.60400390625,1.7110000848770142,-25.75400161743164
1788673489510108200,7.813108154296875,-82.38700103759766,3.2260000705718994,-24.6200008392334
1788673489526164200,7.829164306640625,-82.07000732421875,1.818000078201294,-25.652000427246094
1788673489542354400,7.8453544921875,-83.24400329589844,2.7930002212524414,-25.030000686645508
1788673489558605800,7.861605712890625,-83.9800033569336,1.937000036239624,-25.03700065612793
1788673489574713600,7.877713623046875,-83.44300079345703,1.937000036239624,-24.93600082397461
1788673489590981600,7.893981689453125,-83.79900360107422,2.997000217437744,-25.843000411987305
1788673489607042300,7.910042236328125,-85.6290054321289,5.045000076293945,-25.211000442504883
1788673489623230700,7.926230712890625,-85.41000366210938,3.2100000381469727,-26.144001007080078
1788673489639483600,7.942483642578125,-84.67200469970703,3.5280001163482666,-26.34600067138672
1788673489655598800,7.958598876953125,-83.45000457763672,1.069000005722046,-25.75800132751465
1788673489671838000,7.974837890625,-81.76200103759766,3.2150001525878906,-25.334001541137695
1788673489687907600,7.990907470703125,-83.26200103759766,2.134000062942505,-26.25800132751465
1788673489704095200,8.00709521484375,-83.19400024414062,4.5960001945495605,-26.441001892089844
1788673489720360700,8.023360595703124,-82.64200592041016,3.633000135421753,-26.246002197265625
1788673489736482000,8.03948193359375,-81.15300750732422,3.8440001010894775,-26.34800148010254
1788673489752769500,8.05576953125,-82.00300598144531,3.0910000801086426,-26.659000396728516
1788673489768843500,8.071843505859375,-80.94100189208984,3.302000045776367,-26.76000213623047
1788673489785033200,8.088033203125,-82.54700469970703,3.626000165939331,-26.756000518798828
1788673489801325600,8.10432568359375,-81.48200225830078,4.163000106811523,-26.54800033569336
1788673489817424000,8.120423828125,-83.80900573730469,3.5320000648498535,-25.940000534057617
1788673489833702700,8.13670263671875,-82.46000671386719,3.7220001220703125,-27.57000160217285
1788673489849794000,8.1527939453125,-83.31000518798828,4.266000270843506,-27.054000854492188
1788673489865934600,8.1689345703125,-82.44200134277344,4.5970001220703125,-26.238000869750977
1788673489882213400,8.18521337890625,-81.39600372314453,4.366000175476074,-27.362001419067383
1788673489898304800,8.2013046875,-83.01100158691406,3.821000099182129,-28.281002044677734
1788673489914592500,8.217592529296875,-80.96500396728516,4.044000148773193,-27.365001678466797
1788673489930686700,8.233686767578124,-84.9800033569336,2.995000123977661,-26.147001266479492
1788673489946826800,8.24982666015625,-81.6570053100586,2.998000144958496,-25.540000915527344
1788673489963057000,8.266056884765625,-83.47500610351562,3.5400002002716064,-25.32900047302246
1788673489979154400,8.282154541015625,-83.89000701904297,2.3590002059936523,-25.543001174926758
1788673489995420400,8.29842041015625,-83.31200408935547,3.7250001430511475,-27.46700096130371
1788673490011468000,8.314468017578125,-82.22700500488281,3.517000198364258,-26.85900115966797
1788673490027658000,8.330657958984375,-83.50300598144531,3.4150002002716064,-26.654001235961914
1788673490043909600,8.34690966796875,-81.13900756835938,2.015000104904175,-26.873001098632812
1788673490060018400,8.363018310546876,-82.4010009765625,3.1090002059936523,-25.334001541137695
1788673490076279300,8.379279296875,-84.29300689697266,2.5900001525878906,-24.31800079345703
1788673490092343000,8.395343017578124,-82.7040023803711,2.0390000343322754,-25.24100112915039
1788673490108527400,8.41152734375,-83.45800018310547,2.4690001010894775,-25.237001419067383
1788673490124752100,8.427752197265624,-83.84200286865234,4.593000411987305,-26.7450008392334
1788673490140870100,8.4438701171875,-82.1760025024414,2.7910001277923584,-25.032001495361328
1788673490157127400,8.46012744140625,-82.31300354003906,3.314000129699707,-26.045001983642578
1788673490173199600,8.47619970703125,-81.9010009765625,4.925000190734863,-25.726001739501953
1788673490189387800,8.4923876953125,-83.71800231933594,4.711000442504883,-25.93000030517578
1788673490205617000,8.508616943359375,-81.79800415039062,3.8420002460479736,-26.551000595092773
1788673490221746000,8.524745849609374,-83.81700134277344,3.311000108718872,-26.45100212097168
1788673490238011600,8.54101171875,-82.8270034790039,3.5430002212524414,-25.024002075195312
1788673490254092000,8.557092041015625,-84.58100128173828,4.706000328063965,-26.336000442504883
1788673490270275800,8.57327587890625,-82.64600372314453,4.712000370025635,-25.727001190185547
1788673490286499300,8.589499267578125,-85.06700134277344,3.6560001373291016,-24.817001342773438
1788673490302581500,8.60558154296875,-84.5560073852539,2.885000228881836,-26.352001190185547
1788673490318842000,8.621842041015626,-84.99100494384766,4.285000324249268,-25.830001831054688
1788673490334929200,8.63792919921875,-83.74600219726562,4.586000442504883,-27.255001068115234
1788673490351069400,8.6540693359375,-84.37300109863281,3.622000217437744,-27.26300048828125
1788673490367300600,8.670300537109375,-82.5570068359375,4.37600040435791,-26.749000549316406
1788673490383391700,8.686391845703126,-81.84300231933594,5.327000141143799,-27.658000946044922
1788673490399653600,8.702653564453126,-84.38400268554688,4.697000026702881,-27.049001693725586
1788673490415700700,8.71870068359375,-82.1520004272461,4.146000385284424,-27.87200164794922
1788673490431889000,8.734888916015626,-82.62300109863281,6.498000144958496,-28.360000610351562
1788673490448130800,8.751130859375,-83.55400085449219,5.329000473022461,-27.75800132751465
1788673490464231200,8.767231201171874,-83.54000091552734,4.148000240325928,-27.8700008392334
1788673490480450300,8.7834501953125,-83.22300720214844,5.335000038146973,-27.249000549316406
1788673490496501500,8.79950146484375,-82.41300201416016,6.063000202178955,-28.7710018157959
1788673490512691500,8.81569140625,-82.9070053100586,5.2230000495910645,-27.556001663208008
1788673490528936000,8.83193603515625,-83.8030014038086,6.064000129699707,-28.87200164794922
1788673490545044000,8.8480439453125,-82.5300064086914,5.841000080108643,-29.38500213623047
1788673490561313500,8.8643134765625,-84.20600128173828,6.2960004806518555,-27.647001266479492
1788673490577375500,8.88037548828125,-84.5320053100586,5.861000061035156,-28.159000396728516
1788673490593564000,8.89656396484375,-84.19700622558594,5.004000186920166,-28.066001892089844
1788673490609819000,8.91281884765625,-84.4020004272461,4.0370001792907715,-28.27800178527832
1788673490625939200,8.928939208984374,-83.58300018310547,5.959000110626221,-28.66900062561035
1788673490642222600,8.94522265625,-85.04800415039062,4.4670000076293945,-28.273000717163086
1788673490658298000,8.961298095703125,-84.3280029296875,5.422000408172607,-28.87700080871582
1788673490674440000,8.97743994140625,-83.14400482177734,5.750000476837158,-28.264001846313477
1788673490690707700,8.993707763671875,-83.88400268554688,5.215000152587891,-28.268001556396484
1788673490706786800,9.009786865234375,-82.72400665283203,6.39400053024292,-28.157001495361328
1788673490723082200,9.026082275390625,-83.80000305175781,5.201000213623047,-29.28700065612793
1788673490739169500,9.04216943359375,-82.59200286865234,5.111000061035156,-27.863000869750977
1788673490755310600,9.058310546875,-80.99200439453125,4.3520002365112305,-28.381000518798828
1788673490771585000,9.0745849609375,-81.76800537109375,4.984000205993652,-29.29100227355957
1788673490787669200,9.090669189453125,-81.22300720214844,5.314000129699707,-28.57600212097168
1788673490803967000,9.106967041015626,-79.41200256347656,6.066000461578369,-28.266000747680664
1788673490820058000,9.12305810546875,-81.86700439453125,4.88100004196167,-28.98600196838379
1788673490836251600,9.139251708984375,-81.84900665283203,4.568000316619873,-28.378002166748047
1788673490852494300,9.155494384765625,-80.89300537109375,4.779000282287598,-28.479001998901367
1788673490868592600,9.171592529296875,-81.20700073242188,4.135000228881836,-28.586000442504883
1788673490884897500,9.1878974609375,-83.7820053100586,6.185000419616699,-27.852001190185547
1788673490900947200,9.203947265625,-81.19600677490234,4.142000198364258,-28.077001571655273
1788673490917136000,9.220135986328126,-80.56500244140625,5.5400004386901855,-27.658000946044922
1788673490933381600,9.236381591796874,-83.73200225830078,4.594000339508057,-26.644001007080078
1788673490949465900,9.2524658203125,-81.91100311279297,5.784000396728516,-25.617000579833984
1788673490965711000,9.268711181640626,-83.34300231933594,5.867000102996826,-27.55000114440918
1788673490981759500,9.284759521484375,-83.09700775146484,4.482000350952148,-26.95100212097168
1788673490997900300,9.300900390625,-83.69000244140625,4.187000274658203,-25.01700210571289
1788673491014130000,9.3171298828125,-84.1510009765625,5.140000343322754,-25.92500114440918
1788673491030221600,9.3332216796875,-83.70500183105469,4.719000339508057,-25.31800079345703
1788673491046466600,9.349466552734375,-82.4010009765625,4.082000255584717,-24.714000701904297
1788673491062537000,9.365536865234375,-81.56600189208984,4.825000286102295,-25.11600112915039
1788673491078678000,9.381677978515626,-80.99500274658203,3.9820001125335693,-24.00400161743164
1788673491094905300,9.3979052734375,-80.89800262451172,3.9770002365112305,-24.41200065612793
1788673491111024000,9.414024169921875,-81.85800170898438,4.4110002517700195,-24.101001739501953
1788673491127283500,9.430283447265625,-81.98100280761719,3.753000259399414,-25.227001190185547
1788673491143351600,9.4463515625,-81.0050048828125,3.328000068664551,-24.825000762939453
1788673491159464200,9.462464111328124,-80.39300537109375,4.6060004234313965,-25.323001861572266
1788673491175693000,9.478693115234375,-80.2800064086914,4.826000213623047,-24.91400146484375
1788673491191815000,9.49481494140625,-82.17000579833984,2.4710001945495605,-24.933000564575195
1788673491208073500,9.511073486328126,-80.9020004272461,5.271000385284424,-23.78900146484375
1788673491224152000,9.527152099609374,-80.87000274658203,3.7770001888275146,-23.293001174926758
1788673491240290000,9.5432900390625,-79.4020004272461,4.083000183105469,-24.31100082397461
1788673491256517600,9.559517578125,-81.21900177001953,3.8680002689361572,-24.514001846313477
1788673491272607200,9.575607177734375,-84.08500671386719,3.6670000553131104,-23.9010009765625
1788673491288870700,9.59187060546875,-83.2090072631836,3.0310001373291016,-23.296001434326172
1788673491304968200,9.60796826171875,-79.08800506591797,5.375000476837158,-23.790000915527344
1788673491321159700,9.62415966796875,-81.73800659179688,5.283000469207764,-22.97300148010254
1788673491337389000,9.64038916015625,-81.96400451660156,4.519999980926514,-23.998001098632812
1788673491353479700,9.656479736328125,-82.40300750732422,6.566000461578369,-23.266000747680664
1788673491369734000,9.67273388671875,-81.7770004272461,4.611000061035156,-25.11800193786621
1788673491385813800,9.688813720703125,-81.5510025024414,6.23900032043457,-23.576000213623047
1788673491401953300,9.704953369140625,-81.6570053100586,6.02400016784668,-23.679000854492188
1788673491418195700,9.72119580078125,-81.90900421142578,6.325000286102295,-25.20400047302246
1788673491434284800,9.737284912109375,-82.54400634765625,6.87000036239624,-24.588001251220703
1788673491450533400,9.753533447265625,-82.74800109863281,6.87600040435791,-24.18000030517578
1788673491466589700,9.769589599609375,-81.27200317382812,6.214000225067139,-25.410001754760742
1788673491482752300,9.785752197265625,-82.35600280761719,7.070000171661377,-25.60500144958496
1788673491499004000,9.80200390625,-81.62700653076172,7.058000564575195,-26.421001434326172
1788673491515097300,9.818097412109376,-81.94600677490234,8.140000343322754,-25.698001861572266
1788673491531356000,9.83435595703125,-82.42400360107422,6.554000377655029,-24.183000564575195
1788673491547423700,9.850423828125,-81.4780044555664,7.300000190734863,-24.381000518798828
1788673491563613700,9.86661376953125,-81.25800323486328,7.195000171661377,-24.179000854492188
1788673491579874300,9.882874267578124,-82.35200500488281,8.586000442504883,-24.47100067138672
1788673491595994000,9.898994140625,-80.99400329589844,8.457000732421875,-25.900001525878906
1788673491612276200,9.915276123046874,-81.51000213623047,8.469000816345215,-25.084001541137695
1788673491628348000,9.931347900390625,-82.3550033569336,7.827000141143799,-25.089000701904297
1788673491644536000,9.9475361328125,-82.68800354003906,10.09000015258789,-24.253000259399414
1788673491660809000,9.96380908203125,-81.93800354003906,7.928000450134277,-25.496000289916992
1788673491676891100,9.97989111328125,-82.58300018310547,7.711000442504883,-25.803001403808594
1788673491693186800,9.996186767578125,-82.49500274658203,9.104000091552734,-25.790000915527344
1788673491709273000,10.012273193359375,-82.8010025024414,9.330000877380371,-24.97300148010254
1788673491725465600,10.028465576171875,-80.13600158691406,8.999000549316406,-25.387001037597656
1788673491741699000,10.044698974609375,-83.23700714111328,9.541000366210938,-25.2760009765625
1788673491757784800,10.060784912109375,-85.27200317382812,9.64900016784668,-25.476001739501953
1788673491774089000,10.0770888671875,-82.38500213623047,9.538000106811523,-25.37900161743164
1788673491790182000,10.093181884765626,-82.9050064086914,9.331000328063965,-24.871000289916992
1788673491806370800,10.109370849609375,-83.24200439453125,10.187000274658203,-25.067001342773438
1788673491822604800,10.125604736328125,-82.91400146484375,10.947000503540039,-24.246000289916992
1788673491838696200,10.1416962890625,-83.25200653076172,10.397000312805176,-25.371000289916992
1788673491855002000,10.158002197265626,-81.33300018310547,10.175000190734863,-25.681001663208008
1788673491871096800,10.174096923828126,-85.56300354003906,9.991000175476074,-23.94500160217285
1788673491887284500,10.190284423828125,-81.00200653076172,10.830000877380371,-24.75800132751465
1788673491903529500,10.206529541015625,-83.1510009765625,10.50100040435791,-25.573001861572266
1788673491919632000,10.2226318359375,-80.89800262451172,11.260000228881836,-24.65300178527832
1788673491935898600,10.238898681640626,-83.13300323486328,11.052000999450684,-24.448001861572266
1788673491951947800,10.25494775390625,-83.85400390625,11.070000648498535,-23.225000381469727
1788673491968139800,10.271139892578125,-83.21600341796875,9.446000099182129,-24.360000610351562
1788673491984368600,10.28736865234375,-83.08800506591797,10.107000350952148,-23.030000686645508
1788673492000475100,10.30347509765625,-83.3340072631836,10.952000617980957,-23.939001083374023
1788673492016738600,10.319738525390624,-80.99500274658203,11.374000549316406,-24.142000198364258
1788673492032806700,10.335806640625,-80.75200653076172,10.528000831604004,-23.33500099182129
1788673492048945700,10.351945556640626,-83.1820068359375,9.791000366210938,-22.626001358032227
1788673492065174800,10.3681748046875,-81.38600158691406,10.533000946044922,-23.029001235961914
1788673492081300000,10.384300048828125,-83.93700408935547,11.192000389099121,-22.10300064086914
1788673492097558500,10.40055859375,-84.26000213623047,12.055000305175781,-21.687000274658203
1788673492113633800,10.4166337890625,-81.60200500488281,11.396000862121582,-22.613000869750977
1788673492129823000,10.432822998046875,-84.66400146484375,10.666000366210938,-21.4950008392334
1788673492146050300,10.44905029296875,-81.76800537109375,11.749000549316406,-20.267000198364258
1788673492162165200,10.465165283203126,-81.04300689697266,12.491000175476074,-20.7710018157959
1788673492178425900,10.48142578125,-83.906005859375,10.238000869750977,-21.296001434326172
1788673492194509800,10.497509765625,-83.08000183105469,10.976000785827637,-22.106000900268555
1788673492210696700,10.51369677734375,-81.5530014038086,11.10200023651123,-20.57900047302246
1788673492226924300,10.52992431640625,-81.9020004272461,12.057000160217285,-21.283000946044922
1788673492243010600,10.546010498046876,-80.70600128173828,9.690999984741211,-21.815000534057617
1788673492259270000,10.562269775390625,-82.3290023803711,11.734000205993652,-21.48900032043457
1788673492275363300,10.57836328125,-83.26500701904297,9.913000106811523,-21.50400161743164
1788673492291550000,10.594550048828125,-82.8070068359375,11.444000244140625,-19.148000717163086
1788673492307786200,10.6107861328125,-82.75000762939453,11.09000015258789,-21.59600067138672
1788673492323879200,10.626879150390625,-83.48400115966797,11.964000701904297,-20.46700096130371
1788673492340141600,10.6431416015625,-82.85900115966797,12.926000595092773,-20.56100082397461
1788673492356189200,10.659189208984374,-85.29400634765625,11.753000259399414,-20.365001678466797
1788673492372377300,10.67537744140625,-83.8080062866211,11.530000686645508,-20.878000259399414
1788673492388619500,10.69161962890625,-83.69200134277344,12.075000762939453,-20.160001754760742
1788673492404726000,10.70772607421875,-81.20700073242188,11.873000144958496,-18.94300079345703
1788673492420994800,10.723994873046875,-83.78800201416016,12.406000137329102,-19.444000244140625
1788673492437049600,10.740049560546876,-84.45000457763672,12.50200080871582,-20.35900115966797
1788673492453238800,10.75623876953125,-82.62300109863281,11.9660005569458,-20.16200065612793
1788673492469493800,10.77249365234375,-83.26800537109375,12.289000511169434,-20.159000396728516
1788673492485609200,10.788609130859374,-84.9070053100586,13.134000778198242,-21.270000457763672
1788673492501808000,10.80480810546875,-84.22000122070312,12.080000877380371,-19.854000091552734
1788673492517874000,10.8208740234375,-82.53800201416016,13.034000396728516,-20.459001541137695
1788673492534037800,10.837037841796874,-85.3280029296875,12.706000328063965,-21.273000717163086
1788673492550302000,10.853302001953125,-84.12300109863281,12.182000160217285,-20.260000228881836
1788673492566425600,10.869425537109375,-83.0770034790039,12.27500057220459,-21.178001403808594
1788673492582713300,10.88571337890625,-83.59300231933594,11.962000846862793,-20.569000244140625
1788673492598791000,10.901791015625,-84.78400421142578,11.955000877380371,-21.280000686645508
1788673492614981400,10.9179814453125,-84.34300231933594,12.9350004196167,-20.05000114440918
1788673492631227400,10.934227294921875,-84.76600646972656,12.830000877380371,-19.948001861572266
1788673492647341600,10.950341552734375,-86.17000579833984,13.147000312805176,-20.453001022338867
1788673492663636200,10.96663623046875,-85.73800659179688,12.933000564575195,-20.354000091552734
1788673492679718400,10.982718505859374,-82.73600769042969,13.584000587463379,-19.435001373291016
1788673492695906600,10.998906494140625,-85.4530029296875,12.91100025177002,-21.98400115966797
1788673492712184300,11.015184326171875,-84.9010009765625,13.569000244140625,-20.756000518798828
1788673492728270800,11.031270751953125,-83.07300567626953,13.575000762939453,-20.148000717163086
1788673492744570400,11.0475703125,-85.59500122070312,12.630001068115234,-18.93000030517578
1788673492760659700,11.06365966796875,-84.45000457763672,12.827000617980957,-20.152000427246094
1788673492776799500,11.079799560546874,-85.51500701904297,12.61400032043457,-20.15300178527832
1788673492793031000,11.096031005859375,-84.94800567626953,13.17400074005127,-18.315000534057617
1788673492809122800,11.112122802734374,-87.0050048828125,12.72800064086914,-19.84400177001953
1788673492825428700,11.1284287109375,-86.04200744628906,13.267000198364258,-19.433000564575195
1788673492841479400,11.1444794921875,-86.58900451660156,12.396000862121582,-20.56100082397461
1788673492857669600,11.160669677734376,-85.28300476074219,14.246000289916992,-18.30500030517578
1788673492873915400,11.176915283203124,-85.60400390625,12.8410005569458,-19.23400115966797
1788673492890027000,11.193027099609376,-84.78300476074219,13.576000213623047,-20.24700164794922
1788673492906301000,11.209301025390625,-84.86800384521484,12.617000579833984,-19.84800148010254
1788673492922354700,11.225354736328125,-86.37800598144531,12.394001007080078,-20.663000106811523
1788673492938550000,11.241550048828126,-83.49100494384766,12.284000396728516,-20.566001892089844
1788673492954782000,11.257781982421875,-85.40400695800781,12.941000938415527,-19.743000030517578
1788673492970908200,11.273908203125,-83.82000732421875,12.063000679016113,-21.077001571655273
1788673492987148800,11.290148681640625,-83.91300201416016,12.611001014709473,-20.155000686645508
1788673493003225000,11.30622509765625,-85.05900573730469,11.334000587463379,-19.655000686645508
1788673493019419000,11.3224189453125,-85.84000396728516,14.233000755310059,-19.323001861572266
1788673493035648000,11.33864794921875,-84.4070053100586,11.988000869750977,-18.73400115966797
1788673493051774700,11.354774658203125,-83.04400634765625,11.32300090789795,-20.269001007080078
1788673493068041200,11.371041259765626,-86.99000549316406,11.980000495910645,-19.647001266479492
1788673493084095200,11.38709521484375,-82.64600372314453,12.925000190734863,-20.56100082397461
1788673493100266500,11.4032666015625,-86.35100555419922,11.76200008392334,-19.854000091552734
1788673493116497700,11.41949755859375,-83.17500305175781,12.605000495910645,-20.56300163269043
1788673493132583000,11.4355830078125,-85.91300201416016,12.848000526428223,-18.724000930786133
1788673493148841200,11.45184130859375,-83.89200592041016,12.516000747680664,-19.23900032043457
1788673493164939300,11.467939208984374,-86.16600036621094,13.689001083374023,-19.939001083374023
1788673493181084700,11.484084716796875,-84.76200103759766,12.833000183105469,-19.744001388549805
1788673493197305300,11.500305419921874,-86.05400085449219,12.503000259399414,-20.459001541137695
1788673493213395500,11.5163955078125,-85.74600219726562,13.6850004196167,-20.2450008392334
1788673493229659100,11.5326591796875,-85.62500762939453,14.017000198364258,-19.427000045776367
1788673493245759700,11.548759765625,-84.26500701904297,11.253000259399414,-17.6200008392334
1788673493261953500,11.56495361328125,-86.9800033569336,12.418000221252441,-18.93000030517578
1788673493278180400,11.581180419921875,-85.15300750732422,12.422000885009766,-18.42300033569336
1788673493294273000,11.59727294921875,-84.6500015258789,13.808000564575195,-18.921001434326172
1788673493310540800,11.613540771484375,-85.70500183105469,12.521000862121582,-19.135000228881836
1788673493326595800,11.629595947265624,-86.54500579833984,13.503000259399414,-17.90300178527832
1788673493342774000,11.64577392578125,-85.90800476074219,12.419000625610352,-18.72800064086914
1788673493359022000,11.66202197265625,-87.07500457763672,11.777000427246094,-18.834001541137695
1788673493375125200,11.678125244140626,-88.03800201416016,13.074000358581543,-18.108001708984375
1788673493391389700,11.6943896484375,-87.91100311279297,13.735000610351562,-16.777999877929688
1788673493407447800,11.71044775390625,-87.71200561523438,12.969000816345215,-17.9060001373291
1788673493423636700,11.72663671875,-88.17100524902344,13.815000534057617,-18.815000534057617
1788673493439888400,11.742888427734375,-85.97700500488281,13.19800090789795,-16.582000732421875
1788673493456005400,11.75900537109375,-87.0300064086914,11.913000106811523,-16.694000244140625
1788673493472287500,11.77528759765625,-86.31100463867188,13.191000938415527,-17.19300079345703
1788673493488361000,11.79136083984375,-87.6810073852539,11.907000541687012,-17.202001571655273
1788673493504500000,11.8075,-88.00200653076172,12.447000503540039,-16.891000747680664
1788673493520767000,11.82376708984375,-85.55000305175781,11.6850004196167,-17.51300048828125
1788673493536891400,11.839891357421875,-87.65300750732422,11.168000221252441,-16.394001007080078
1788673493553181000,11.856180908203125,-85.8800048828125,11.572000503540039,-18.022001266479492
1788673493569263600,11.872263671875,-86.83000183105469,11.796000480651855,-17.408000946044922
1788673493585404400,11.888404296875,-85.33100128173828,12.120000839233398,-17
1788673493601682400,11.904682373046874,-87.03900146484375,12.771000862121582,-16.584001541137695
1788673493617770200,11.920770263671875,-86.76100158691406,11.556000709533691,-19.244001388549805
1788673493634073000,11.937072998046874,-87.44600677490234,10.29900074005127,-17.21700096130371
1788673493650160600,11.95316064453125,-86.62100219726562,11.253000259399414,-17.922000885009766
1788673493666297600,11.969297607421876,-87.46900177001953,11.474000930786133,-17.512001037597656
1788673493682522600,11.985522705078125,-88.31500244140625,11.372000694274902,-17.20600128173828
1788673493698610400,12.0016103515625,-86.60700225830078,10.288000106811523,-17.931001663208008
1788673493714898700,12.017898681640625,-86.50700378417969,10.932000160217285,-17.82400131225586
1788673493730995700,12.03399560546875,-85.44200134277344,10.929000854492188,-17.927000045776367
1788673493747185200,12.05018505859375,-86.84300231933594,12.544000625610352,-17.503000259399414
1788673493763423000,12.066423095703126,-86.51300048828125,12.658000946044922,-16.993000030517578
1788673493779521300,12.082521240234374,-86.31100463867188,11.354000091552734,-18.32900047302246
1788673493795783000,12.098782958984375,-86.0770034790039,10.717000961303711,-17.826000213623047
1788673493811830000,12.114830078125,-86.3060073852539,10.708000183105469,-18.53900146484375
1788673493828019700,12.131019775390625,-88.677001953125,11.779000282287598,-18.832000732421875
1788673493844283100,12.147283203125,-87.14300537109375,10.396000862121582,-17.929000854492188
1788673493860371000,12.163370849609375,-86.96600341796875,12.211000442504883,-18.42300033569336
1788673493876636400,12.179636474609374,-87.26500701904297,11.684000968933105,-17.81599998474121
1788673493892699000,12.195698974609375,-88.13900756835938,11.781000137329102,-18.62900161743164
1788673493908886800,12.21188671875,-86.94700622558594,10.0600004196167,-18.951000213623047
1788673493925112000,12.228112060546875,-85.03800201416016,11.995000839233398,-18.325000762939453
1788673493941228300,12.244228271484374,-84.48900604248047,10.382000923156738,-18.6460018157959
1788673493957488000,12.260488037109376,-88.86000061035156,11.366000175476074,-17.71500015258789
1788673493973561600,12.2765615234375,-87.69200134277344,10.38700008392334,-18.642000198364258
1788673493989753600,12.292753662109375,-87.61000061035156,11.345000267028809,-19.143001556396484
1788673494005982700,12.308982666015625,-87.07300567626953,10.805000305175781,-19.352001190185547
1788673494022114300,12.3251142578125,-87.5260009765625,11.655000686645508,-19.955001831054688
1788673494038377200,12.341377197265626,-86.41600036621094,10.598000526428223,-18.743000030517578
1788673494054461700,12.357461669921875,-86.21500396728516,11.671000480651855,-18.631999969482422
1788673494070651100,12.373651123046875,-86.41200256347656,10.277000427246094,-18.746000289916992
1788673494086877400,12.38987744140625,-84.92400360107422,10.270000457763672,-19.054000854492188
1788673494102971600,12.4059716796875,-86.62700653076172,11.033000946044922,-18.332000732421875
1788673494119235800,12.42223583984375,-86.64600372314453,11.45300006866455,-18.939001083374023
1788673494135333000,12.4383330078125,-87.91300201416016,11.248000144958496,-18.43000030517578
1788673494151498000,12.454498046875,-85.23800659179688,11.679000854492188,-17.920000076293945
1788673494167736000,12.470736083984375,-86.74000549316406,10.165000915527344,-19.154001235961914
1788673494183829800,12.486829833984375,-85.88200378417969,10.057000160217285,-19.054000854492188
1788673494200090600,12.503090576171875,-86.8550033569336,10.592000961303711,-19.25200080871582
1788673494216192800,12.51919287109375,-85.8810043334961,10.49000072479248,-18.7450008392334
1788673494232386600,12.535386474609375,-86.09500122070312,10.382000923156738,-18.84800148010254
1788673494248636200,12.55163623046875,-86.96400451660156,10.807000160217285,-19.25
1788673494264738800,12.56773876953125,-85.76500701904297,10.171000480651855,-18.54400062561035
1788673494281006800,12.5840068359375,-86.35000610351562,12.519001007080078,-19.338001251220703
1788673494297065000,12.60006494140625,-85.37800598144531,11.552000999450684,-19.44900131225586
1788673494313254400,12.61625439453125,-83.86300659179688,11.237000465393066,-18.74100112915039
1788673494329493200,12.6324931640625,-88.23900604248047,11.785000801086426,-18.322999954223633
1788673494345604000,12.64860400390625,-85.3530044555664,10.594000816345215,-18.94900131225586
1788673494361879800,12.6648798828125,-85.5830078125,12.097000122070312,-18.731000900268555
1788673494377951200,12.680951171875,-85.80900573730469,12.19800090789795,-19.23900032043457
1788673494394140200,12.69714013671875,-85.99500274658203,11.999000549316406,-18.1200008392334
1788673494410400800,12.71340087890625,-86.11600494384766,10.910000801086426,-19.45400047302246
1788673494426525400,12.729525390625,-88.18900299072266,12.61500072479248,-20.35300064086914
1788673494442808800,12.745808837890625,-84.71800231933594,12.643000602722168,-17.913000106811523
1788673494458887200,12.76188720703125,-88.1300048828125,11.678000450134277,-18.32400131225586
1788673494475029000,12.778029052734375,-86.37100219726562,12.398000717163086,-20.35700035095215
1788673494491303000,12.794302978515624,-86.99300384521484,12.519001007080078,-19.439001083374023
1788673494507386600,12.81038671875,-87.6310043334961,12.845000267028809,-19.12900161743164
1788673494523631000,12.826631103515625,-84.64600372314453,13.378000259399414,-19.027000427246094
1788673494539713000,12.842713134765624,-85.82100677490234,13.704000473022461,-18.819000244140625
1788673494555902200,12.858902099609375,-85.91700744628906,13.60200023651123,-18.41200065612793
1788673494572128000,12.8751279296875,-85.2760009765625,12.41300106048584,-19.136001586914062
1788673494588210700,12.891210693359374,-86.03400421142578,13.380001068115234,-19.025001525878906
1788673494604510500,12.907510498046875,-85.3790054321289,12.956000328063965,-18.62200164794922
1788673494620600300,12.923600341796876,-87.96800231933594,13.700000762939453,-19.325000762939453
1788673494636788700,12.939788818359375,-86.02100372314453,13.38800048828125,-18.41400146484375
1788673494653024300,12.956024169921875,-84.93600463867188,12.96500015258789,-17.909000396728516
1788673494669117400,12.972117431640624,-87.19800567626953,14.03700065612793,-18.101001739501953
1788673494685424600,12.988424560546875,-87.41500091552734,14.468000411987305,-17.9950008392334
1788673494701524200,13.004524169921876,-85.5040054321289,13.594000816345215,-19.02400016784668
1788673494717711400,13.02071142578125,-84.96400451660156,13.380001068115234,-18.924001693725586
1788673494733952000,13.036951904296876,-84.99800109863281,15.305000305175781,-19.213001251220703
1788673494750054100,13.05305419921875,-86.35200500488281,13.49000072479248,-18.82000160217285
1788673494766318800,13.06931884765625,-83.59200286865234,14.016000747680664,-19.226001739501953
1788673494782369800,13.085369873046876,-84.77300262451172,14.123001098632812,-19.427000045776367
1788673494798525200,13.101525146484375,-86.177001953125,15.62800121307373,-19.209001541137695
1788673494814782000,13.117781982421874,-86.48700714111328,14.878000259399414,-19.21500015258789
1788673494830888400,13.133888427734375,-85.7560043334961,14.4350004196167,-20.238000869750977
1788673494847134200,13.15013427734375,-84.59200286865234,14.859001159667969,-20.440000534057617
1788673494863200500,13.166200439453124,-86.41400146484375,16.155000686645508,-19.917001724243164
1788673494879392000,13.18239208984375,-86.49000549316406,14.444000244140625,-19.626001358032227
1788673494895623700,13.198623779296875,-85.4320068359375,14.97700023651123,-19.725000381469727
1788673494911746600,13.21474658203125,-86.40300750732422,15.189001083374023,-20.027000427246094
1788673494928000300,13.231000244140626,-86.74800109863281,15.499000549316406,-20.941001892089844
1788673494944074800,13.24707470703125,-86.32600402832031,15.711000442504883,-21.041000366210938
1788673494960213200,13.263213134765625,-86.41100311279297,14.968000411987305,-20.538000106811523
1788673494976424400,13.279424560546875,-87.08600616455078,15.812000274658203,-21.549001693725586
1788673494992540000,13.295539794921876,-87.06700134277344,15.068000793457031,-21.148000717163086
1788673495008802600,13.311802490234374,-87.6550064086914,16.873001098632812,-22.45600128173828
1788673495024886000,13.327885986328125,-88.35700225830078,17.010000228881836,-20.314001083374023
1788673495041074000,13.344073974609374,-86.54700469970703,16.571001052856445,-20.830001831054688
1788673495057305000,13.36030517578125,-86.74000549316406,14.963000297546387,-20.946001052856445
1788673495073394700,13.376394775390626,-86.96300506591797,15.498001098632812,-21.042001724243164
1788673495089658000,13.392658203125,-87.36800384521484,15.512001037597656,-20.023000717163086
1788673495105749500,13.40874951171875,-89.41900634765625,15.50100040435791,-21.03900146484375
1788673495121890600,13.424890625,-86.18000030517578,14.870000839233398,-19.827001571655273
1788673495138110200,13.441110107421874,-87.82100677490234,16.03700065612793,-20.83300018310547
1788673495154207700,13.457207763671875,-88.99500274658203,15.715001106262207,-21.038000106811523
1788673495170455000,13.473455078125,-88.79400634765625,15.92400074005127,-21.444000244140625
1788673495186509600,13.489509521484376,-87.79700469970703,15.835000991821289,-19.918001174926758
1788673495202673200,13.505673095703125,-87.82400512695312,16.792001724243164,-20.5210018157959
1788673495218912500,13.52191259765625,-88.25100708007812,16.25200080871582,-20.830001831054688
1788673495235015000,13.538014892578126,-88.81300354003906,15.696001052856445,-22.464000701904297
1788673495251286800,13.554286865234374,-87.35800170898438,15.086000442504883,-19.823001861572266
1788673495267351300,13.570351318359375,-86.33200073242188,17.328001022338867,-20.314001083374023
1788673495283518700,13.586518798828125,-86.5580062866211,16.888999938964844,-21.132001876831055
1788673495299780400,13.6027802734375,-88.35800170898438,15.60400104522705,-21.24300193786621
1788673495315894800,13.618894775390626,-89.54600524902344,16.461999893188477,-21.336000442504883
1788673495332153600,13.635153564453125,-88.6570053100586,14.428000450134277,-21.05000114440918
1788673495348221000,13.651220947265625,-88.87300109863281,15.076001167297363,-20.738000869750977
1788673495364408800,13.667408935546876,-90.06600189208984,15.607000350952148,-21.24100112915039
1788673495380671200,13.683671142578126,-88.35400390625,15.498001098632812,-21.142000198364258
1788673495396792800,13.699792724609376,-88.8800048828125,14.963000297546387,-21.147001266479492
1788673495413055000,13.716054931640626,-88.60600280761719,16.124000549316406,-22.461000442504883
1788673495429124600,13.73212451171875,-91.03500366210938,16.360000610351562,-21.131000518798828
1788673495445311200,13.748311279296875,-90.4800033569336,15.183000564575195,-20.939001083374023
1788673495461559800,13.764559814453126,-89.89900207519531,14.238000869750977,-19.420000076293945
1788673495477696300,13.7806962890625,-88.86100769042969,15.731000900268555,-19.816001892089844
1788673495493976800,13.796976806640625,-92.08200073242188,15.510001182556152,-20.73000144958496
1788673495510060000,13.81306005859375,-91.08900451660156,13.366000175476074,-20.64900016784668
1788673495526198000,13.829197998046874,-90.76100158691406,14.451000213623047,-19.621000289916992
1788673495542468400,13.84546826171875,-89.66300201416016,13.387001037597656,-18.918001174926758
1788673495558547000,13.861546875,-90.00200653076172,14.132000923156738,-19.319000244140625
1788673495574839300,13.87783935546875,-89.78500366210938,13.702000617980957,-19.42500114440918
1788673495590923800,13.893923828125,-91.07300567626953,13.484000205993652,-19.83300018310547
1788673495607110700,13.910110595703125,-93.62700653076172,13.709000587463379,-19.31800079345703
1788673495623345000,13.926344970703125,-92.97700500488281,13.065000534057617,-19.32400131225586
1788673495639432400,13.942432373046875,-92.0300064086914,14.244000434875488,-19.213001251220703
1788673495655740700,13.95874072265625,-93.64000701904297,14.67400074005127,-19.30900001525879
1788673495671833000,13.9748330078125,-93.39200592041016,13.506000518798828,-18.505001068115234
1788673495687969500,13.990969482421875,-93.50000762939453,12.749000549316406,-19.0210018157959
1788673495704210000,14.0072099609375,-92.52000427246094,12.218000411987305,-18.518001556396484
1788673495720312600,14.0233125,-94.9050064086914,12.200000762939453,-20.145000457763672
1788673495736579000,14.0395791015625,-92.4580078125,13.16300106048584,-19.935001373291016
1788673495752629800,14.055629638671874,-93.3010025024414,12.523000717163086,-19.838001251220703
1788673495768768500,14.0717685546875,-92.44600677490234,12.955000877380371,-19.530000686645508
1788673495785028600,14.088028564453126,-91.82500457763672,12.834000587463379,-20.44900131225586
1788673495801139000,14.104138916015625,-93.50000762939453,12.100000381469727,-19.43400001525879
1788673495817400300,14.120400390625,-93.0560073852539,11.029000282287598,-19.34200096130371
1788673495833497300,14.136497314453125,-94.97900390625,10.491000175476074,-19.75200080871582
1788673495849636000,14.152635986328125,-95.6550064086914,11.22700023651123,-20.865001678466797
1788673495865864200,14.1688642578125,-92.44800567626953,11.116000175476074,-20.769001007080078
1788673495881977300,14.184977294921875,-93.75000762939453,11.430000305175781,-21.477001190185547
1788673495898234600,14.201234619140624,-94.81400299072266,11.326000213623047,-21.375001907348633
1788673495914311000,14.217310791015626,-92.66900634765625,11.437000274658203,-20.867000579833984
1788673495930450700,14.23345068359375,-94.17300415039062,11.325000762939453,-21.376001358032227
1788673495946681000,14.24968115234375,-94.62100219726562,10.665000915527344,-22.705001831054688
1788673495962766000,14.26576611328125,-93.4070053100586,11.768000602722168,-20.25200080871582
1788673495979027500,14.28202734375,-95.88300323486328,11.111000061035156,-21.57900047302246
1788673495995112400,14.298112548828126,-94.59400177001953,11.006000518798828,-21.2760009765625
1788673496011253200,14.314253173828124,-95.23600769042969,9.817000389099121,-22.101001739501953
1788673496027480600,14.33048046875,-96.72600555419922,10.795000076293945,-21.275001525878906
1788673496043567400,14.3465673828125,-96.54400634765625,10.77500057220459,-22.702001571655273
1788673496059826700,14.36282666015625,-94.40900421142578,11.096000671386719,-22.498001098632812
1788673496075922000,14.378921875,-95.25300598144531,10.023000717163086,-22.71000099182129
1788673496092110300,14.3951103515625,-95.54900360107422,9.606000900268555,-21.898000717163086
1788673496108346000,14.41134619140625,-94.156005859375,9.606000900268555,-21.696001052856445
1788673496124437800,14.427437744140626,-95.25200653076172,10.671000480651855,-22.297000885009766
1788673496140699400,14.443699462890624,-95.45500183105469,10.354000091552734,-21.994001388549805
1788673496156749000,14.4597490234375,-95.88200378417969,9.058000564575195,-22.82000160217285
1788673496172939000,14.47593896484375,-94.56300354003906,7.998000144958496,-21.812000274658203
1788673496189180700,14.4921806640625,-97.24400329589844,8.319000244140625,-22.11100196838379
1788673496205268500,14.5082685546875,-94.92100524902344,8.192000389099121,-23.338001251220703
1788673496221532200,14.5245322265625,-94.97500610351562,7.360000133514404,-21.512001037597656
1788673496237584400,14.54058447265625,-94.67900085449219,7.453000545501709,-22.530000686645508
1788673496253771000,14.55677099609375,-96.73200225830078,7.116000175476074,-23.854001998901367
1788673496270027300,14.57302734375,-95.11800384521484,7.9860005378723145,-22.72800064086914
1788673496286142200,14.58914208984375,-95.53900146484375,7.234000205993652,-22.93800163269043
1788673496302409500,14.605409423828124,-95.8330078125,4.9810004234313965,-23.161001205444336
1788673496318473500,14.621473388671875,-93.06700134277344,6.591000080108643,-22.641000747680664
1788673496334661000,14.6376611328125,-95.32000732421875,6.156000137329102,-23.35500144958496
1788673496350925600,14.653925537109375,-94.69100189208984,7.01300048828125,-23.349000930786133
1788673496367050500,14.670050537109375,-93.82100677490234,6.048000335693359,-23.256000518798828
1788673496383337700,14.686337646484375,-93.39900207519531,6.909000396728516,-22.944000244140625
1788673496399415600,14.70241552734375,-94.43900299072266,5.414000034332275,-22.650001525878906
1788673496415554800,14.718554931640625,-95.0050048828125,6.585000514984131,-23.352001190185547
1788673496431826700,14.73482666015625,-95.50000762939453,4.880000114440918,-22.65300178527832
1788673496447958300,14.750958251953126,-94.65400695800781,4.333000183105469,-23.37200164794922
1788673496464252400,14.76725244140625,-96.677001953125,4.772000312805176,-22.856000900268555
1788673496480331000,14.7833310546875,-96.29000091552734,5.180000305175781,-24.381000518798828
1788673496496520400,14.7995205078125,-97.86800384521484,5.305000305175781,-23.25800132751465
1788673496512734200,14.815734130859376,-95.07600402832031,4.985000133514404,-22.755001068115234
1788673496528861200,14.831861083984375,-95.61600494384766,4.766000270843506,-23.163002014160156
1788673496545073200,14.8480732421875,-95.48300170898438,3.0530002117156982,-23.077001571655273
1788673496561170200,14.864170166015626,-93.26300811767578,4.117000102996826,-23.376001358032227
1788673496577363200,14.88036328125,-93.89600372314453,4.2310004234313965,-22.96700096130371
1788673496593604600,14.8966044921875,-95.4310073852539,5.505000114440918,-23.972002029418945
1788673496609707300,14.912707275390625,-93.2750015258789,4.974000453948975,-23.36800193786621
1788673496625975600,14.9289755859375,-95.38900756835938,4.12600040435791,-22.966001510620117
1788673496642030600,14.945030517578125,-93.72400665283203,4.961000442504883,-24.387001037597656
1788673496658224000,14.96122412109375,-92.61300659179688,3.4730000495910645,-23.382001876831055
1788673496674472400,14.977472412109375,-94.85000610351562,3.9120001792907715,-22.86600112915039
1788673496690583600,14.99358349609375,-95.07400512695312,3.0410001277923584,-23.892000198364258
1788673496706857700,15.009857666015625,-94.63700103759766,3.8030002117156982,-22.970001220703125
1788673496722907400,15.025907470703125,-96.02200317382812,3.699000120162964,-22.867000579833984
1788673496739107800,15.04210791015625,-93.3280029296875,2.4130001068115234,-22.576000213623047
1788673496755335200,15.058335205078125,-93.64000701904297,3.2830002307891846,-21.6510009765625
1788673496771453000,15.074452880859376,-93.94600677490234,2.1040000915527344,-21.76300048828125
1788673496787717400,15.09071728515625,-94.70700073242188,3.6090002059936523,-21.44300079345703
1788673496803789000,15.1067890625,-93.0510025024414,3.9000000953674316,-23.582000732421875
1788673496819927800,15.122927734375,-94.29800415039062,4.571000099182129,-21.639001846313477
1788673496836157000,15.139156982421875,-96.24300384521484,3.263000249862671,-23.48200035095215
1788673496852276200,15.155276123046875,-95.06700134277344,3.1540000438690186,-23.48400115966797
1788673496868535600,15.17153564453125,-95.3810043334961,3.0500001907348633,-23.281002044677734
1788673496884599600,15.187599609375,-95.70000457763672,3.5920002460479736,-22.86800193786621
1788673496900737800,15.20373779296875,-94.34700775146484,4.00100040435791,-24.191001892089844
1788673496916965400,15.21996533203125,-93.5530014038086,1.974000096321106,-23.395000457763672
1788673496933048000,15.236048095703126,-93.23700714111328,2.943000078201294,-22.979001998901367
1788673496949294300,15.25229443359375,-94.35200500488281,3.998000144958496,-24.394001007080078
1788673496965383400,15.268383544921875,-94.52400207519531,2.8340001106262207,-23.284000396728516
1788673496981522200,15.284522216796875,-96.66400146484375,2.8350000381469727,-23.485000610351562
1788673496997757700,15.3007578125,-93.906005859375,3.684000253677368,-23.786001205444336
1788673497013853400,15.316853515625,-95.06200408935547,2.617000102996826,-23.591001510620117
1788673497030094300,15.33309423828125,-93.80500793457031,2.9240000247955322,-24.506000518798828
1788673497046145000,15.34914501953125,-94.86900329589844,3.1440000534057617,-24.19700050354004
1788673497062336000,15.3653359375,-94.45500183105469,3.568000078201294,-24.500001907348633
1788673497078582300,15.381582275390626,-95.06600189208984,2.938000202178955,-23.588001251220703
1788673497094679800,15.3976796875,-91.8530044555664,1.534000039100647,-24.012001037597656
1788673497110942200,15.413942138671874,-93.24900817871094,3.261000156402588,-23.282001495361328
1788673497127004700,15.430004638671875,-94.01500701904297,2.818000078201294,-24.405000686645508
1788673497143196000,15.44619580078125,-96.46900177001953,2.824000120162964,-24.30000114440918
1788673497159450400,15.462450439453125,-94.34700775146484,2.812000036239624,-24.91400146484375
1788673497175563800,15.478563720703125,-93.16300201416016,3.7880001068115234,-23.88800048828125
1788673497191838700,15.494838623046874,-95.01100158691406,3.879000186920166,-25.31100082397461
1788673497207896800,15.510896728515625,-94.03600311279297,4.210000038146973,-24.4950008392334
1788673497224087000,15.527087158203125,-93.83800506591797,4.633000373840332,-24.899002075195312
1788673497240344800,15.5433447265625,-92.87800598144531,6.0360002517700195,-24.073001861572266
1788673497256464400,15.55946435546875,-94.28900146484375,5.052000045776367,-25.709001541137695
1788673497272734500,15.575734375,-92.9800033569336,5.175000190734863,-24.386001586914062
1788673497288812500,15.5918125,-93.59700775146484,4.325000286102295,-23.88300132751465
1788673497305003000,15.6080029296875,-93.54300689697266,5.806000232696533,-25.296001434326172
1788673497321268000,15.62426806640625,-94.1300048828125,4.759000301361084,-23.573001861572266
1788673497337390600,15.640390625,-92.1030044555664,5.187000274658203,-23.36800193786621
1788673497353673500,15.656673583984375,-92.1310043334961,5.710000038146973,-24.280000686645508
1788673497369749800,15.672749755859375,-91.51200103759766,7.1010003089904785,-24.3700008392334
1788673497385939000,15.68893896484375,-92.88700103759766,6.679000377655029,-24.067001342773438
1788673497402212900,15.705212890625,-92.31300354003906,5.7300004959106445,-22.854001998901367
1788673497418296300,15.72129638671875,-91.92100524902344,6.464000225067139,-23.968000411987305
1788673497434588400,15.73758837890625,-90.54500579833984,6.238000392913818,-24.685001373291016
1788673497450671000,15.753671142578124,-92.08900451660156,4.871000289916992,-22.963001251220703
1788673497466836500,15.76983642578125,-91.97300720214844,5.849000453948975,-21.93600082397461
1788673497483113700,15.78611376953125,-90.7020034790039,6.9210004806518555,-21.725000381469727
1788673497499201000,15.802200927734376,-93.57100677490234,6.39400053024292,-21.420000076293945
1788673497515504400,15.81850439453125,-92.39200592041016,5.8550004959106445,-21.52800178527832
1788673497531600400,15.834600341796875,-93.12300109863281,5.5420002937316895,-21.0210018157959
1788673497547743500,15.850743408203124,-93.37800598144531,7.570000171661377,-21.61400032043457
1788673497563986000,15.86698583984375,-93.21900177001953,5.440000057220459,-20.61400032043457
1788673497580069600,15.883069580078125,-93.13500213623047,6.39900016784668,-21.01300048828125
1788673497596317700,15.899317626953126,-93.00300598144531,5.874000072479248,-20.203001022338867
1788673497612371500,15.915371337890624,-92.11100769042969,4.27400016784668,-19.505001068115234
1788673497628513500,15.931513427734375,-92.5320053100586,4.819000244140625,-18.889001846313477
1788673497644747300,15.947747314453125,-92.09100341796875,4.827000141143799,-18.27800178527832
1788673497660843000,15.963843017578125,-90.91500091552734,4.069000244140625,-18.69300079345703
1788673497677103400,15.980103271484374,-90.15400695800781,3.752000093460083,-18.290000915527344
1788673497693148000,15.99614794921875,-90.71300506591797,5.89900016784668,-18.06599998474121
1788673497709336600,16.012336669921876,-89.06500244140625,3.5470001697540283,-17.47800064086914
1788673497725562600,16.028562744140626,-91.21000671386719,3.869000196456909,-17.676000595092773
1788673497741675300,16.04467529296875,-90.98600769042969,3.118000030517578,-17.683000564575195
1788673497757931300,16.06093115234375,-89.2760009765625,4.630000114440918,-16.652999877929688
1788673497773997800,16.076997802734375,-90.99600219726562,3.2200002670288086,-18.09000015258789
1788673497790186200,16.093186279296877,-94.3800048828125,2.489000082015991,-17.072999954223633
1788673497806412000,16.109412109375,-89.35700225830078,2.1600000858306885,-17.082000732421875
1788673497822534000,16.125533935546876,-90.20600128173828,2.5960001945495605,-16.56800079345703
1788673497838793700,16.141793701171874,-91.13700103759766,1.1030000448226929,-16.17300033569336
1788673497854872800,16.157872802734374,-88.85000610351562,2.251000165939331,-18.203001022338867
1788673497871013400,16.174013427734376,-91.78300476074219,1.9650001525878906,-15.859001159667969
1788673497887259600,16.190259765625,-90.74200439453125,1.6230000257492065,-17.28900146484375
1788673497903323600,16.20632373046875,-90.60900115966797,0.9910000562667847,-16.48000144958496
1788673497919584500,16.22258447265625,-91.18000793457031,0.8610000610351562,-18.21200180053711
1788673497935673000,16.238673095703124,-91.15900421142578,0.009000000543892384,-17.812000274658203
1788673497951861200,16.254861328125,-89.79400634765625,2.695000171661377,-17.179000854492188
1788673497968097800,16.271097900390625,-90.17900085449219,0.6670000553131104,-16.58500099182129
1788673497984192000,16.28719189453125,-89.54700469970703,0.7690000534057617,-16.891000747680664
1788673498000437000,16.30343701171875,-90.51700592041016,-0.09800000488758087,-17.814001083374023
1788673498016533500,16.319533447265623,-89.92900085449219,0.6240000128746033,-19.744001388549805
1788673498032678000,16.335677978515626,-89.89400482177734,0.753000020980835,-18.113000869750977
1788673498048920000,16.351920166015624,-90.32200622558594,-0.21800000965595245,-18.73200035095215
1788673498065025300,16.368025390625,-90.34300231933594,0.5250000357627869,-19.235000610351562
1788673498081296600,16.384296630859374,-88.62100219726562,1.1790000200271606,-18.213001251220703
1788673498097356300,16.400356201171874,-89.37600708007812,1.1759999990463257,-18.517000198364258
1788673498113547300,16.41654736328125,-89.05500793457031,0.5270000100135803,-18.931001663208008
1788673498129775400,16.432775390625,-88.4260025024414,-1.1010000705718994,-20.474000930786133
1788673498145867800,16.44886767578125,-91.427001953125,0.19300000369548798,-20.15300178527832
1788673498162118700,16.46511865234375,-91.59400177001953,-1.183000087738037,-18.94300079345703
1788673498178181400,16.481181396484374,-91.61100769042969,-0.328000009059906,-19.139001846313477
1788673498194371800,16.497371826171875,-90.45500183105469,0.7380000352859497,-19.33500099182129
1788673498210624800,16.513624755859375,-91.00200653076172,-0.4570000171661377,-20.66900062561035
1788673498226743800,16.529743896484376,-90.35400390625,0.3020000159740448,-19.84800148010254
1788673498243025700,16.546025634765623,-89.07100677490234,-0.1300000101327896,-20.0570011138916
1788673498259101000,16.562100830078126,-89.9330062866211,-0.89000004529953,-20.878000259399414
1788673498275293400,16.57829345703125,-88.43800354003906,-1.4320000410079956,-21.190000534057617
1788673498291565600,16.594565673828125,-89.92200469970703,0.30400002002716064,-19.645000457763672
1788673498307693300,16.610693359375,-89.3800048828125,-0.987000048160553,-20.064001083374023
1788673498323984100,16.626984130859373,-92.06100463867188,-0.12600000202655792,-20.053001403808594
1788673498340071000,16.64307080078125,-87.78900146484375,0.6240000128746033,-19.543001174926758
1788673498356257800,16.6592578125,-88.6780014038086,1.1450001001358032,-20.759000778198242
1788673498372486000,16.67548583984375,-86.9540023803711,0.17900000512599945,-20.668001174926758
1788673498388571100,16.691571044921876,-88.86100769042969,0.6230000257492065,-19.7450008392334
1788673498404868600,16.70786865234375,-89.06600189208984,-0.9920000433921814,-20.3700008392334
1788673498420955100,16.723955078125,-88.63800048828125,-0.7750000357627869,-20.165000915527344
1788673498437138700,16.740138671875,-86.52800750732422,-0.2540000081062317,-20.97800064086914
1788673498453378800,16.75637890625,-85.78400421142578,0.39000001549720764,-20.770000457763672
1788673498469470000,16.772469970703124,-87.70600128173828,-0.4700000286102295,-21.284000396728516
1788673498485749500,16.78874951171875,-85.89500427246094,-0.6920000314712524,-21.59400177001953
1788673498501840600,16.804840576171873,-86.08500671386719,-1.218000054359436,-20.886001586914062
1788673498518035000,16.821034912109376,-86.95600128173828,-1.443000078201294,-21.803001403808594
1788673498534276000,16.837276123046873,-84.2550048828125,-0.7800000309944153,-19.96700096130371
1788673498550377700,16.853377685546874,-87.14400482177734,-0.9950000643730164,-20.373001098632812
1788673498566628600,16.869628662109374,-86.44100189208984,-0.26600000262260437,-21.895000457763672
1788673498582729000,16.88572900390625,-85.0060043334961,-1.537000060081482,-20.584001541137695
1788673498598871800,16.901871826171874,-83.83200073242188,0.18900001049041748,-19.552000045776367
1788673498615123700,16.918123779296874,-85.76700592041016,-0.5710000395774841,-20.575000762939453
1788673498631235800,16.93423583984375,-83.84100341796875,-1.0040000677108765,-20.683000564575195
1788673498647509200,16.95050927734375,-85.10900115966797,-0.6700000166893005,-19.863000869750977
1788673498663576600,16.96657666015625,-85.42500305175781,-0.9910000562667847,-19.86600112915039
1788673498679767800,16.982767822265625,-86.29100036621094,-1.4290000200271606,-20.683000564575195
1788673498695978800,16.998978759765624,-84.48500061035156,-0.24900001287460327,-20.3700008392334
1788673498712085000,17.0150849609375,-84.56500244140625,-0.8810000419616699,-19.560001373291016
1788673498728340700,17.0313408203125,-85.34700775146484,0.8270000219345093,-20.053001403808594
1788673498744410600,17.04741064453125,-83.49000549316406,0.09300000220537186,-18.636001586914062
1788673498760599300,17.063599365234374,-84.87700653076172,-0.01100000087171793,-18.635000228881836
1788673498776819200,17.079819091796875,-84.36600494384766,1.162000060081482,-18.931001663208008
1788673498792931600,17.095931640625,-83.60400390625,-0.8820000290870667,-19.56100082397461
1788673498809192400,17.1121923828125,-83.91100311279297,-0.33400002121925354,-18.638999938964844
1788673498825274600,17.128274658203125,-83.49000549316406,0.09300000220537186,-18.636001586914062
1788673498841463000,17.144463134765626,-84.56400299072266,0.5240000486373901,-18.631000518798828
1788673498857693000,17.16069287109375,-84.01800537109375,-0.009000000543892384,-18.433000564575195
1788673498873776000,17.176776123046874,-84.43400573730469,-0.9740000367164612,-18.543001174926758
1788673498890040800,17.193040771484377,-86.59700775146484,0.8490000367164612,-18.626001358032227
1788673498906131000,17.209130859375,-85.30400085449219,1.502000093460083,-17.704999923706055
1788673498922321200,17.225321044921873,-84.87600708007812,0.42100003361701965,-18.326000213623047
1788673498938557400,17.241557373046874,-84.95000457763672,0.3330000042915344,-16.900001525878906
1788673498954656800,17.25765673828125,-85.42300415039062,0.7380000352859497,-18.73000144958496
1788673498970919200,17.273919189453125,-85.49100494384766,-0.10200000554323196,-17.51500129699707
1788673498987021300,17.290021240234374,-84.37000274658203,1.592000126838684,-18.826000213623047
1788673499003214800,17.30621484375,-85.63800048828125,1.818000078201294,-18.10900115966797
1788673499019455700,17.322455810546874,-84.88700103759766,1.7110000848770142,-18.009000778198242
1788673499035562200,17.338562255859376,-84.8030014038086,2.0220000743865967,-18.821001052856445
1788673499051824400,17.354824462890626,-84.88500213623047,1.7130000591278076,-17.907001495361328
1788673499067880700,17.370880615234373,-84.91200256347656,1.696000099182129,-19.130001068115234
1788673499084071200,17.3870712890625,-82.53300476074219,1.8190001249313354,-17.704999923706055
1788673499100322600,17.403322509765626,-83.83100128173828,2.243000030517578,-18.209001541137695
1788673499116433700,17.41943359375,-85.10000610351562,2.68500018119812,-17.388999938964844
1788673499132705500,17.43570556640625,-83.52800750732422,1.6910001039505005,-19.33500099182129
1788673499148769000,17.45176904296875,-82.75100708007812,1.8170000314712524,-17.909000396728516
1788673499164909000,17.467908935546873,-82.5840072631836,2.5450000762939453,-19.532001495361328
1788673499181165000,17.4841650390625,-83.01900482177734,1.6760001182556152,-20.45600128173828
1788673499197272800,17.50027294921875,-81.82500457763672,2.875000238418579,-18.817001342773438
1788673499213555200,17.51655517578125,-84.19500732421875,2.757000207901001,-19.834001541137695
1788673499229626400,17.53262646484375,-83.76800537109375,2.757000207901001,-19.83500099182129
1788673499245784600,17.54878466796875,-83.78400421142578,2.4230000972747803,-20.75400161743164
1788673499262034400,17.565034423828124,-83.84400177001953,1.6950000524520874,-19.131000518798828
1788673499278142500,17.581142578125,-83.87100219726562,2.9750001430511475,-19.527000427246094
1788673499294411500,17.59741162109375,-85.7080078125,3.7220001220703125,-20.027000427246094
1788673499310489000,17.613489013671874,-82.58800506591797,2.5420000553131104,-19.736000061035156
1788673499326673000,17.6296728515625,-84.8340072631836,3.624000072479248,-19.214000701904297
1788673499342937900,17.645937744140625,-84.18800354003906,2.2220001220703125,-19.839000701904297
1788673499359018200,17.662018310546873,-82.49100494384766,3.4000000953674316,-19.62700080871582
1788673499375312100,17.67831201171875,-84.97000122070312,4.903000354766846,-19.71200180053711
1788673499391397600,17.694397705078124,-84.10400390625,3.7200002670288086,-19.928001403808594
1788673499407585800,17.710585693359373,-83.9990005493164,3.3950002193450928,-20.236000061035156
1788673499423819000,17.726819091796877,-86.12500762939453,3.8360002040863037,-19.517000198364258
1788673499439915500,17.74291552734375,-84.1830062866211,2.2240002155303955,-19.635000228881836
1788673499456219100,17.75921923828125,-83.7560043334961,4.061000347137451,-18.499000549316406
1788673499472320800,17.77532080078125,-83.60100555419922,4.7820000648498535,-20.632001876831055
1788673499488462300,17.79146240234375,-86.01500701904297,4.269999980926514,-19.10500144958496
1788673499504710100,17.807710205078124,-84.39200592041016,3.5240001678466797,-18.60500144958496
1788673499520814300,17.823814453125,-82.54600524902344,2.7840001583099365,-17.69700050354004
1788673499537078800,17.840078857421876,-84.01900482177734,5.436000347137451,-19.81100082397461
1788673499553132300,17.85613232421875,-85.29900360107422,5.00700044631958,-20.017000198364258
1788673499569277000,17.87227685546875,-84.1310043334961,5.865000247955322,-19.8070011138916
1788673499585537000,17.888537109375,-84.50000762939453,3.0920002460479736,-18.91400146484375
1788673499601653000,17.904653076171876,-83.6830062866211,4.688000202178955,-19.61400032043457
1788673499617918000,17.92091796875,-82.82200622558594,3.503000259399414,-20.033000946044922
1788673499633985500,17.936985595703124,-81.57400512695312,4.453000068664551,-20.94300079345703
1788673499650144500,17.95314453125,-84.33700561523438,5.978000164031982,-19.398000717163086
1788673499666375200,17.969375244140625,-82.31800079345703,5.645000457763672,-20.01500129699707
1788673499682497800,17.985497802734375,-83.54600524902344,5.247000217437744,-17.87700080871582
1788673499698744800,18.001744873046874,-80.5780029296875,5.553000450134277,-18.694000244140625
1788673499714819800,18.01781982421875,-81.97900390625,6.304000377655029,-18.78700065612793
1788673499731010800,18.0340107421875,-81.4310073852539,4.150000095367432,-19.520000457763672
1788673499747221500,18.050221435546874,-82.04000091552734,4.279000282287598,-17.990001678466797
1788673499763349000,18.066348876953125,-81.85800170898438,4.800000190734863,-19.106000900268555
1788673499779612200,18.082612060546875,-81.09100341796875,4.702000141143799,-18.293001174926758
1788673499795698400,18.098698486328125,-82.26600646972656,5.568000316619873,-17.77400016784668
1788673499811842000,18.114842041015624,-80.54000091552734,3.955000162124634,-17.9950008392334
1788673499828072700,18.13107275390625,-82.04000091552734,4.603000164031982,-17.783000946044922
1788673499844158700,18.14715869140625,-81.35700225830078,3.871000289916992,-16.36400032043457
1788673499860405200,18.1634052734375,-82.25100708007812,5.794000148773193,-16.95800018310547
1788673499876491300,18.1794912109375,-82.7750015258789,5.044000148773193,-16.963001251220703
1788673499892679200,18.19567919921875,-81.58600616455078,4.835000038146973,-16.457000732421875
1788673499908910600,18.21191064453125,-81.1810073852539,5.253000259399414,-17.167001724243164
1788673499925004000,18.228004150390625,-83.53400421142578,4.390000343322754,-17.885000228881836
1788673499941265200,18.24426513671875,-80.97300720214844,7.51900053024292,-16.027000427246094
1788673499957320400,18.260320556640625,-81.81300354003906,5.475000381469727,-16.655000686645508
1788673499973462800,18.276462890625,-82.281005859375,6.316000461578369,-17.972000122070312
1788673499989702400,18.292702392578125,-81.0770034790039,5.7920002937316895,-16.959001541137695
1788673500005801200,18.30880126953125,-81.16000366210938,5.050000190734863,-16.354000091552734
1788673500022043600,18.325043701171875,-81.41000366210938,5.89300012588501,-17.46700096130371
1788673500038094000,18.341093994140625,-81.8080062866211,5.9110002517700195,-16.142000198364258
1788673500054281200,18.35728125,-81.56000518798828,5.391000270843506,-14.92500114440918
1788673500070513000,18.373512939453125,-82.01800537109375,5.373000144958496,-16.350000381469727
1788673500086627000,18.389626953125,-82.65900421142578,6.022000312805176,-15.93600082397461
1788673500102901000,18.40590087890625,-80.6300048828125,5.15500020980835,-16.45600128173828
1788673500118966500,18.421966552734375,-81.81800079345703,5.36400032043457,-16.961999893188477
1788673500135106800,18.43810693359375,-80.93900299072266,5.1620001792907715,-15.946001052856445
1788673500151362300,18.4543623046875,-80.63700103759766,6.339000225067139,-16.038000106811523
1788673500167479800,18.470479736328127,-82.74300384521484,4.4150004386901855,-15.950000762939453
1788673500183759000,18.486759033203125,-81.29700469970703,6.761000156402588,-16.645000457763672
1788673500199814400,18.502814453125,-82.59200286865234,7.2950005531311035,-16.944000244140625
1788673500215955200,18.518955078125,-82.8740005493164,6.454000473022461,-15.72800064086914
1788673500232225300,18.535225341796874,-81.1780014038086,6.552000522613525,-16.23900032043457
1788673500248348700,18.5513486328125,-81.83700561523438,7.515000343322754,-16.43400001525879
1788673500264625200,18.567625244140626,-82.03300476074219,5.90500020980835,-16.6510009765625
1788673500280706600,18.58370654296875,-81.10200500488281,6.425000190734863,-17.666000366210938
1788673500296893400,18.5998935546875,-81.33800506591797,6.628000259399414,-18.58100128173828
1788673500313165000,18.6161650390625,-80.16700744628906,7.704000473022461,-18.064001083374023
1788673500329280500,18.632280517578124,-80.96600341796875,6.010000228881836,-16.652000427246094
1788673500345559000,18.64855908203125,-82.77800750732422,6.771000385284424,-16.0310001373291
1788673500361650400,18.664650390625,-81.3010025024414,6.758000373840332,-16.84800148010254
1788673500377840600,18.680840576171875,-80.67300415039062,7.2900004386901855,-17.04800033569336
1788673500394083300,18.697083251953124,-81.63800048828125,6.965000152587891,-17.457000732421875
1788673500410170600,18.713170654296874,-81.4280014038086,7.179000377655029,-17.45600128173828
1788673500426479000,18.72947900390625,-81.21300506591797,6.423000335693359,-17.8700008392334
1788673500442578700,18.74557861328125,-79.26800537109375,6.758000373840332,-16.647001266479492
1788673500458772500,18.7617724609375,-81.32500457763672,8.14900016784668,-17.040000915527344
1788673500475013600,18.778013671875,-80.44600677490234,6.64900016784668,-16.850000381469727
1788673500491121200,18.79412109375,-82.6050033569336,7.719000339508057,-17.246000289916992
1788673500507437000,18.81043701171875,-82.29000091552734,8.256000518798828,-17.138999938964844
1788673500523490800,18.82649072265625,-81.63500213623047,7.183000564575195,-17.150001525878906
1788673500539632000,18.842632080078126,-82.40400695800781,8.468000411987305,-17.341001510620117
1788673500555887000,18.85888720703125,-82.08200073242188,8.144000053405762,-17.446001052856445
1788673500571998000,18.874998046875,-81.77000427246094,7.923000335693359,-17.95800018310547
1788673500588234000,18.89123388671875,-82.05500030517578,6.86400032043457,-17.05000114440918
1788673500604304400,18.907304443359376,-80.6570053100586,7.948000431060791,-15.922000885009766
1788673500620494300,18.923494384765625,-81.85900115966797,8.473999977111816,-16.832000732421875
1788673500636724000,18.939723876953124,-80.47400665283203,8.362000465393066,-17.03900146484375
1788673500652847000,18.95584716796875,-79.92500305175781,7.073000431060791,-17.152999877929688
1788673500669112600,18.972112548828125,-80.3290023803711,6.76300048828125,-16.34000015258789
1788673500685192200,18.988192138671874,-81.04900360107422,6.889000415802002,-15.01400089263916
1788673500701374000,19.0043740234375,-81.28400421142578,7.309000492095947,-15.723000526428223
1788673500717604000,19.02060400390625,-79.78800201416016,7.73900032043457,-15.415000915527344
1788673500733738800,19.03673876953125,-80.74600219726562,6.987000465393066,-15.726000785827637
1788673500750001200,19.053001220703123,-80.35400390625,7.7210001945495605,-16.841001510620117
1788673500766081500,19.06908154296875,-79.36800384521484,7.086000442504883,-16.135000228881836
1788673500782228700,19.085228759765624,-79.46100616455078,6.554000377655029,-15.834000587463379
1788673500798456000,19.1014560546875,-79.67900085449219,7.201000213623047,-15.624000549316406
1788673500814538500,19.11753857421875,-80.1310043334961,8.699000358581543,-15.814001083374023
1788673500830785500,19.13378564453125,-80.22900390625,7.732000350952148,-16.0260009765625
1788673500846879000,19.14987890625,-81.16300201416016,7.425000190734863,-15.009000778198242
1788673500863068700,19.166068603515626,-79.96500396728516,7.5460004806518555,-13.88900089263916
1788673500879304700,19.1823046875,-80.88500213623047,8.372000694274902,-16.325000762939453
1788673500895430700,19.1984306640625,-80.8340072631836,8.619000434875488,-13.878000259399414
1788673500911680000,19.214679931640624,-80.72600555419922,8.51200008392334,-13.879000663757324
1788673500927733500,19.2307333984375,-79.63600158691406,7.551000595092773,-13.482000350952148
1788673500943922700,19.246922607421876,-82.43400573730469,7.866000175476074,-14.290000915527344
1788673500960150800,19.26315087890625,-79.62700653076172,7.232000350952148,-13.281001091003418
1788673500976244200,19.279244140625,-79.72200012207031,7.563000202178955,-12.565000534057617
1788673500992507000,19.2955068359375,-80.0270004272461,7.465000152587891,-11.954000473022461
1788673501008555300,19.31155517578125,-78.37700653076172,9.696000099182129,-13.159000396728516
1788673501024747500,19.32774755859375,-80.9050064086914,7.992000579833984,-12.66100025177002
1788673501041003500,19.34400341796875,-81.50900268554688,6.178000450134277,-12.167000770568848
1788673501057121500,19.36012158203125,-81.23200225830078,7.98900032043457,-12.967000961303711
1788673501073396700,19.376396728515626,-81.31600189208984,7.678000450134277,-12.154000282287598
1788673501089460700,19.392460693359375,-80.13700103759766,8.652000427246094,-11.332000732421875
1788673501105651000,19.40865087890625,-80.57500457763672,8.430000305175781,-11.945000648498535
1788673501121915100,19.4249150390625,-81.10200500488281,7.462000370025635,-12.258000373840332
1788673501138034000,19.441033935546876,-81.86000061035156,8.214000701904297,-12.25100040435791
1788673501154321400,19.4573212890625,-80.0060043334961,7.37000036239624,-11.038000106811523
1788673501170393300,19.473393310546875,-80.13300323486328,8.006000518798828,-11.542000770568848
1788673501186581800,19.489581787109376,-81.39600372314453,9.208000183105469,-10.00200080871582
1788673501202846700,19.5058466796875,-82.14600372314453,7.9110002517700195,-10.929000854492188
1788673501218973700,19.5219736328125,-80.33500671386719,8.013999938964844,-11.032000541687012
1788673501235262500,19.538262451171875,-80.87200164794922,8.769000053405762,-10.719000816345215
1788673501251346200,19.55434619140625,-80.3530044555664,9.300000190734863,-11.021000862121582
1788673501267540700,19.570540771484374,-81.08200073242188,8.339000701904297,-10.825000762939453
1788673501283818800,19.58681884765625,-79.79600524902344,8.988000869750977,-10.209000587463379
1788673501299953000,19.602952880859377,-80.01400756835938,8.337000846862793,-10.826000213623047
1788673501316250000,19.61925,-81.27900695800781,8.782000541687012,-9.802000045776367
1788673501332302800,19.635302734375,-80.73900604248047,8.028000831604004,-10.01300048828125
1788673501348445700,19.65144580078125,-81.72900390625,8.769000053405762,-10.820000648498535
1788673501364665900,19.667665771484376,-78.63800048828125,8.653000831604004,-11.130000114440918
1788673501380769000,19.68376904296875,-81.81600189208984,8.02400016784668,-10.419000625610352
1788673501397081900,19.700081787109376,-80.10000610351562,7.4860005378723145,-10.426000595092773
1788673501413130500,19.716130615234373,-82.33200073242188,8.360000610351562,-9.397000312805176
1788673501429320700,19.73232080078125,-80.02400207519531,6.926000118255615,-12.163000106811523
1788673501445555700,19.7485556640625,-82.1510009765625,8.556000709533691,-10.719000816345215
1788673501461648400,19.7646484375,-79.81000518798828,8.331000328063965,-11.234000205993652
1788673501477903400,19.7809033203125,-80.23900604248047,8.331000328063965,-11.335000991821289
1788673501493957000,19.79695703125,-80.1300048828125,8.008000373840332,-11.440000534057617
1788673501510152000,19.81315185546875,-79.88800048828125,7.26800012588501,-10.632000923156738
1788673501526376200,19.829376220703125,-78.63200378417969,8.11500072479248,-11.237000465393066
1788673501542496500,19.84549658203125,-81.09100341796875,7.794000148773193,-11.542000770568848
1788673501558762000,19.861761962890625,-81.06800079345703,6.294000148773193,-11.454000473022461
1788673501574837800,19.877837646484377,-78.0570068359375,6.302000522613525,-10.541000366210938
1788673501590993700,19.89399365234375,-80.94300079345703,7.494000434875488,-9.915000915527344
1788673501607225900,19.910225830078126,-78.64400482177734,8,-11.849000930786133
1788673501623355600,19.926355712890626,-80.94400024414062,7.385000228881836,-10.018000602722168
1788673501639620600,19.94262060546875,-80.83900451660156,7.168000221252441,-10.224000930786133
1788673501655704000,19.9587041015625,-81.27100372314453,6.517000198364258,-10.84000015258789
1788673501671896600,19.974896484375,-79.23200225830078,5.9800004959106445,-10.746000289916992
1788673501688126500,19.99112646484375,-81.82100677490234,7.697000503540039,-10.829000473022461
1788673501704214500,20.007214599609377,-80.1510009765625,6.223000526428223,-8.705000877380371
1788673501720480000,20.02347998046875,-79.03400421142578,6.943000316619873,-10.839000701904297
1788673501736565800,20.039565673828125,-81.36100006103516,7.824000358581543,-9.301000595092773
1788673501752755700,20.055755615234375,-78.7030029296875,8.13700008392334,-9.607000350952148
1788673501768985300,20.0719853515625,-80.2490005493164,6.229000091552734,-8.29800033569336
1788673501785070000,20.088070068359375,-78.68900299072266,7.281000137329102,-9.51300048828125
1788673501801335000,20.1043349609375,-79.97300720214844,6.849000453948975,-9.922000885009766
1788673501817434600,20.1204345703125,-79.22100067138672,6.635000228881836,-9.82300090789795
1788673501833625600,20.13662548828125,-80.82000732421875,5.450000286102295,-10.443000793457031
1788673501849865700,20.15286572265625,-82.62000274658203,6.003000259399414,-9.417000770568848
1788673501865962000,20.1689619140625,-79.16100311279297,4.942000389099121,-8.208000183105469
1788673501882227700,20.185227783203125,-80.82100677490234,6.8550004959106445,-9.616000175476074
1788673501898280400,20.201280517578127,-78.56300354003906,5.564000129699707,-9.732000350952148
1788673501914447400,20.217447265625,-80.07000732421875,6.423000335693359,-9.722000122070312
1788673501930716700,20.233716552734375,-79.9260025024414,5.25700044631958,-8.815999984741211
1788673501946801400,20.249801513671876,-80.17000579833984,7.2920002937316895,-8.89900016784668
1788673501963073800,20.26607373046875,-80.28800201416016,7.609000205993652,-9.202000617980957
1788673501979137500,20.282137451171874,-78.67900085449219,6.747000217437744,-9.415000915527344
1788673501995328300,20.298328369140624,-78.88800048828125,6.210000514984131,-9.522000312805176
1788673502011584300,20.314584228515624,-79.16500091552734,6.561000347137451,-7.379000186920166
1788673502027681800,20.330681884765625,-81.33000183105469,6.5460004806518555,-8.701000213623047
1788673502043942400,20.3469423828125,-80.04100036621094,6.657000541687012,-8.294000625610352
1788673502060009700,20.363009765625,-78.86200714111328,5.145000457763672,-9.022000312805176
1788673502076199000,20.379198974609373,-80.2560043334961,6.440000534057617,-8.499000549316406
1788673502092443600,20.395443603515623,-80.06500244140625,6.750000476837158,-9.312000274658203
1788673502108565500,20.4115654296875,-79.95100402832031,7.7270002365112305,-8.38700008392334
1788673502124845000,20.427844970703124,-80.03900146484375,5.685000419616699,-8.812000274658203
1788673502140920000,20.443920166015626,-79.84500122070312,6.754000186920166,-9.006000518798828
1788673502157105200,20.460105224609375,-78.75100708007812,5.363000392913818,-8.71500015258789
1788673502173373400,20.47637353515625,-79.83500671386719,5.571000099182129,-9.32300090789795
1788673502189499400,20.49249951171875,-79.4050064086914,5.3560004234313965,-9.325000762939453
1788673502205784800,20.508784912109373,-80.16500091552734,6.430000305175781,-9.213000297546387
1788673502221866800,20.52486669921875,-79.2800064086914,5.691000461578369,-8.304000854492188
1788673502238055400,20.541055419921875,-81.406005859375,5.160000324249268,-8.204000473022461
1788673502254280700,20.55728076171875,-78.64200592041016,5.689000129699707,-8.406000137329102
1788673502270369500,20.57336962890625,-80.79100036621094,6.008000373840332,-8.808000564575195
1788673502286677000,20.589677001953124,-81.22500610351562,6.545000076293945,-8.803000450134277
1788673502302775000,20.605775146484376,-80.35600280761719,6.76900053024292,-7.987000465393066
1788673502318963000,20.621962890625,-81.02800750732422,7.39900016784668,-8.999000549316406
1788673502335202800,20.638202880859374,-79.70700073242188,5.368000030517578,-8.510000228881836
