time,seconds_elapsed,z,y,x
1788674680935606800,-0.160393310546875,0.2145700454711914,0.013092517852783203,-0.0003725998103618622
1788674681095549400,-0.000450439453125,0.7374362945556641,0.16139084100723267,0.020358622074127197
1788674681386408200,0.290408203125,-0.037856101989746094,0.08795368671417236,0.0006645321846008301
1788674681402338600,0.306338623046875,0.09019088745117188,0.06413239240646362,-0.01936963200569153
1788674681418207500,0.32220751953125,0.194427490234375,0.057282328605651855,0.0012565553188323975
1788674681434137900,0.338137939453125,0.12876033782958984,0.0055321455001831055,0.06957919895648956
1788674681450037500,0.35403759765625,-0.011235237121582031,-0.09907650947570801,0.06086792051792145
1788674681465967600,0.369967529296875,-0.18265724182128906,-0.16650360822677612,0.061097338795661926
1788674681481867300,0.3858671875,-0.21574783325195312,-0.25717318058013916,-0.029565975069999695
1788674681497736400,0.401736328125,-0.26718997955322266,-0.202403724193573,-0.021017804741859436
1788674681513636000,0.417635986328125,-0.19336795806884766,-0.1683509349822998,0.15358507633209229
1788674681529505300,0.43350537109375,-0.27312183380126953,-0.07381761074066162,0.28098636865615845
1788674681545405000,0.449405029296875,-0.23663043975830078,-0.0175015926361084,0.4363609552383423
1788674681561243400,0.465243408203125,-0.31580066680908203,-0.026577353477478027,0.5285916924476624
1788674681577143000,0.48114306640625,-0.45105552673339844,-0.02373659610748291,0.7322421073913574
1788674681593012200,0.49701220703125,-0.6370344161987305,0.06092727184295654,0.9077302813529968
1788674681608912000,0.512911865234375,-0.6506948471069336,0.14566946029663086,0.8941197395324707
1788674681624781000,0.528781005859375,-0.4449119567871094,0.2726846933364868,0.8783751726150513
1788674681640680700,0.5446806640625,-0.22015666961669922,0.3610217571258545,1.098851203918457
1788674681656580400,0.560580322265625,-0.2077465057373047,0.45783698558807373,1.3211650848388672
1788674681672480000,0.57647998046875,-0.2922935485839844,0.5390721559524536,1.2602171897888184
1788674681688410000,0.59241015625,-0.011768341064453125,0.47822511196136475,0.9208996295928955
1788674681704309800,0.608309814453125,3.778426170349121,-0.008672118186950684,2.6294546127319336
1788674681720179000,0.624178955078125,1.5907163619995117,0.8116376399993896,1.0385202169418335
1788674681736048000,0.640048095703125,0.39130210876464844,0.4446810483932495,0.8648478984832764
1788674681751917300,0.655917236328125,-1.0997238159179688,0.37474584579467773,0.4156028628349304
1788674681767786500,0.671786376953125,-1.7411689758300781,0.6122404336929321,0.5376003384590149
1788674681783686100,0.68768603515625,-1.4410390853881836,0.7926198244094849,0.9868408441543579
1788674681799585800,0.703585693359375,-0.20869159698486328,0.6028943061828613,1.114271879196167
1788674681815455000,0.719455078125,-0.16538047790527344,0.09748828411102295,0.07114472985267639
1788674681831354600,0.735354736328125,0.16792964935302734,-0.052055954933166504,-0.44545647501945496
1788674681847223800,0.751223876953125,-0.06086921691894531,-0.3201026916503906,-0.7304750084877014
1788674681863092700,0.7670927734375,0.23783206939697266,-0.6140973567962646,-0.6969738006591797
1788674681878992400,0.782992431640625,0.7938146591186523,-0.699006974697113,-0.11205758899450302
1788674681894861600,0.798861572265625,0.9539394378662109,-0.5304510593414307,-0.001775430515408516
1788674681910761200,0.81476123046875,0.3655118942260742,-0.23722338676452637,0.361249178647995
1788674681926691600,0.830691650390625,-0.6285409927368164,0.12721341848373413,0.8898320198059082
1788674681942591200,0.84659130859375,-1.680938720703125,0.3534412980079651,0.4392952024936676
1788674681958460200,0.862460205078125,-0.4926300048828125,0.48535263538360596,0.5007803440093994
1788674681974329300,0.878329345703125,0.8626213073730469,0.647484540939331,1.1756563186645508
1788674681990198500,0.894198486328125,0.5699558258056641,1.0051621198654175,0.9143683314323425
1788674682014063400,0.9180634765625,0.8659152984619141,0.6214556694030762,1.0762287378311157
1788674682029932500,0.9339326171875,0.7781190872192383,0.9515968561172485,0.017433911561965942
1788674682053766700,0.9577666015625,-1.1831064224243164,0.47663623094558716,1.5853092670440674
1788674682069635800,0.9736357421875,-0.7611169815063477,-0.1585102081298828,-1.5766898393630981
1788674682085566000,0.98956591796875,0.3609457015991211,-1.049120306968689,-1.2627146244049072
1788674682101435100,1.00543505859375,1.762338638305664,-0.9933754205703735,-1.633717656135559
1788674682117304300,1.02130419921875,2.1170787811279297,-1.024104356765747,-1.2416017055511475
1788674682133204000,1.037203857421875,1.1436653137207031,-0.7683880925178528,-0.0763975977897644
1788674682149073200,1.0530732421875,0.1495952606201172,-0.45114436745643616,0.3451669216156006
1788674682164972800,1.068972900390625,-1.141953468322754,-0.3636553883552551,0.07897406816482544
1788674682180841700,1.084841796875,-1.633906364440918,-0.4073805809020996,-0.5844548940658569
1788674682196711000,1.1007109375,-1.0168628692626953,-0.4534037113189697,-0.5341302156448364
1788674682212580000,1.116580078125,-0.02000904083251953,-0.3301142454147339,-0.5000942945480347
1788674682228449300,1.13244921875,0.7403116226196289,-0.17953890562057495,-0.5660063028335571
1788674682244318500,1.148318359375,1.504648208618164,-0.0932624340057373,0.02720847725868225
1788674682268152600,1.172152587890625,0.8395137786865234,-0.07466459274291992,0.19436895847320557
1788674682284083000,1.1880830078125,-0.31573009490966797,0.11401939392089844,0.1102612316608429
1788674682299982600,1.203982666015625,-0.8905258178710938,0.3732268810272217,0.20108671486377716
1788674682315851500,1.2198515625,-1.053349494934082,0.43396270275115967,0.6145967245101929
1788674682339655400,1.243655517578125,-0.5777568817138672,0.23259294033050537,1.0118696689605713
1788674682355585500,1.25958544921875,0.053432464599609375,0.16093862056732178,1.1604820489883423
1788674682371424300,1.27542431640625,0.3574657440185547,0.2099374532699585,1.4862923622131348
1788674682395288800,1.299288818359375,-0.32851505279541016,0.4045330286026001,1.1975836753845215
1788674682411188500,1.3151884765625,-0.6733169555664062,0.3875523805618286,0.8970994353294373
1788674682427057700,1.3310576171875,-3.0936989784240723,0.032048821449279785,0.6210890412330627
1788674682450861300,1.354861328125,-0.10500240325927734,-0.25310075283050537,0.9530482888221741
1788674682474695700,1.37869580078125,1.2294292449951172,0.17390894889831543,1.7014951705932617
1788674682498499300,1.402499267578125,1.538956642150879,0.6892284154891968,1.2063205242156982
1788674682514338000,1.418338134765625,-0.15631675720214844,0.8168745040893555,0.984187126159668
1788674682538172200,1.442172119140625,-1.8196582794189453,0.983899712562561,1.0096683502197266
1788674682561945300,1.4659453125,-2.739323139190674,0.5604435205459595,-0.09783807396888733
1788674682577845000,1.481844970703125,-1.2747583389282227,-0.3142193555831909,-0.7819509506225586
1788674682593714200,1.497714111328125,0.8519487380981445,-0.5766516327857971,-1.218425989151001
1788674682609613800,1.51361376953125,2.0846328735351562,-0.4300060272216797,0.5237970352172852
1788674682625513500,1.529513427734375,2.168585777282715,-0.18916118144989014,0.9600479006767273
1788674682641382700,1.545382568359375,1.4584407806396484,-0.2485448718070984,0.12726137042045593
1788674682657343200,1.56134326171875,0.44113731384277344,-0.38929495215415955,-0.6111344695091248
1788674682681147100,1.585147216796875,-0.77178955078125,-0.5619291067123413,-1.052802324295044
1788674682696985600,1.600985595703125,-0.9463291168212891,-0.6358764171600342,-0.8461641073226929
1788674682712824300,1.61682421875,-0.5324668884277344,-0.5789536237716675,-0.5672258138656616
1788674682728693500,1.632693603515625,-0.06155872344970703,-0.28374677896499634,-0.6345089077949524
1788674682744562400,1.6485625,-0.026216506958007812,0.010227203369140625,-0.944412112236023
1788674682768427300,1.67242724609375,-0.8118104934692383,-0.94492506980896,-0.3919731080532074
1788674682784296400,1.68829638671875,0.31458282470703125,-0.9868190884590149,0.49275946617126465
1788674682800226600,1.7042265625,2.206148147583008,-0.10325580835342407,0.5400657057762146
1788674682816065300,1.720065185546875,1.4716434478759766,0.07090938091278076,-0.5354825854301453
1788674682831965000,1.73596484375,0.6822414398193359,0.21223485469818115,-0.6747808456420898
1788674682847864600,1.751864501953125,-1.028935432434082,0.018624484539031982,-0.0635637640953064
1788674682863794700,1.767794677734375,-2.7439422607421875,0.251447856426239,0.40591201186180115
1788674682879663900,1.783663818359375,-1.347733497619629,0.10266858339309692,0.4183117151260376
1788674682895563500,1.7995634765625,0.2005443572998047,-0.02587360143661499,1.1791281700134277
1788674682911402200,1.81540234375,0.8092365264892578,0.31252968311309814,0.22212257981300354
1788674682927271400,1.831271484375,-0.6352243423461914,0.8507969975471497,0.3216315507888794
1788674682943140400,1.847140380859375,-0.18582820892333984,0.5152402520179749,1.3318204879760742
1788674682959070700,1.86307080078125,1.2837486267089844,0.7688586115837097,1.4091863632202148
1788674682974939600,1.878939697265625,1.3171844482421875,0.829710841178894,0.734545886516571
1788674682990808800,1.894808837890625,0.5433616638183594,-0.1823805272579193,0.6386439800262451
1788674683006708500,1.91070849609375,-0.8271961212158203,-0.5050890445709229,0.22200047969818115
1788674683022577700,1.92657763671875,0.08971309661865234,-0.9363999962806702,0.029851078987121582
1788674683038446800,1.94244677734375,1.094451904296875,-0.6189452409744263,-0.28536367416381836
1788674683054346500,1.958346435546875,0.8145055770874023,-0.1774963140487671,0.09910252690315247
1788674683070185200,1.974185302734375,-0.14687633514404297,0.26215308904647827,0.08260238170623779
1788674683086054100,1.99005419921875,-0.7281389236450195,0.3221001625061035,0.13973578810691833
1788674683101953800,2.005953857421875,-0.8851995468139648,0.272072970867157,0.06524139642715454
1788674683117823000,2.021822998046875,-0.677769660949707,0.35142356157302856,0.1596149206161499
1788674683133722600,2.03772265625,0.0285186767578125,0.3897864818572998,0.8458667993545532
1788674683149622300,2.053622314453125,0.5458154678344727,0.29823094606399536,1.2686827182769775
1788674683165461000,2.0694609375,0.8512239456176758,-0.08006912469863892,0.8670899868011475
1788674683181360600,2.085360595703125,1.2700567245483398,-0.45582646131515503,0.3087988495826721
1788674683197229800,2.101229736328125,1.4805469512939453,-0.6270964741706848,0.3132988214492798
1788674683213129500,2.11712939453125,1.1824655532836914,-0.7744887471199036,0.6417788863182068
1788674683229029000,2.133029052734375,0.45062255859375,-0.11267399787902832,0.5826095342636108
1788674683244867800,2.148867919921875,-0.7053155899047852,0.311079204082489,-0.1426025629043579
1788674683260736800,2.16473681640625,-0.7731132507324219,0.19818735122680664,-0.18355613946914673
1788674683276606000,2.18060595703125,-0.6695661544799805,-0.10931849479675293,-0.05866760015487671
1788674683292475100,2.19647509765625,-0.7803964614868164,0.13545286655426025,0.784026026725769
1788674683308405200,2.2124052734375,-0.8645515441894531,-0.12247401475906372,0.5544400811195374
1788674683324305000,2.228304931640625,-0.5650434494018555,-0.16971492767333984,0.24333712458610535
1788674683340174000,2.244174072265625,-0.42258358001708984,0.27219104766845703,-0.21464800834655762
1788674683356043300,2.260043212890625,-0.3217144012451172,0.4393414258956909,-0.20751404762268066
1788674683371912400,2.275912353515625,-0.4956226348876953,0.22393453121185303,0.4239586889743805
1788674683387842600,2.291842529296875,-0.13466644287109375,-0.1704350709915161,0.641197919845581
1788674683403681300,2.307681396484375,0.48993396759033203,-0.22190314531326294,0.5167727470397949
1788674683419550500,2.323550537109375,0.7085533142089844,-0.209755539894104,0.16579800844192505
1788674683435480600,2.33948046875,0.5670785903930664,-0.06245291233062744,-0.06627243757247925
1788674683451349800,2.355349853515625,0.22999095916748047,0.04198408126831055,0.09993064403533936
1788674683467249400,2.37124951171875,-0.19256019592285156,0.09447193145751953,0.20494002103805542
1788674683483149000,2.387149169921875,-0.3482675552368164,0.05152994394302368,0.12674421072006226
1788674683499018200,2.403018310546875,-0.10181331634521484,0.0002765059471130371,-0.029913216829299927
1788674683514948400,2.4189482421875,0.25223541259765625,-0.04791897535324097,0.06301701068878174
1788674683530817500,2.434817626953125,0.3280658721923828,-0.2560371160507202,0.38710737228393555
1788674683546717200,2.45071728515625,0.15879535675048828,0.08879488706588745,0.14221185445785522
1788674683562616800,2.466616943359375,0.12962913513183594,0.3004862070083618,-0.1872064173221588
1788674683578516500,2.4825166015625,0.1213083267211914,0.10214638710021973,0.052738577127456665
1788674683594385700,2.4983857421875,-0.00598907470703125,-0.3150482177734375,0.31148719787597656
1788674683610315800,2.514315673828125,0.2982501983642578,-0.23901748657226562,0.23956570029258728
1788674683626306800,2.530306884765625,0.5153932571411133,-0.08483850955963135,0.2167566418647766
1788674683642206700,2.546206787109375,0.5209522247314453,-0.20695936679840088,0.8237406611442566
1788674683674006000,2.578006103515625,-0.837702751159668,-1.5445586442947388,2.5770835876464844
1788674683689875000,2.593875,-1.273895263671875,-1.29701828956604,2.9078643321990967
1788674683705774600,2.609774658203125,-1.267155647277832,-1.1251667737960815,2.3528757095336914
1788674683721705000,2.625705078125,-0.7609043121337891,-0.23747122287750244,-0.17611676454544067
1788674683737574100,2.64157421875,0.7248592376708984,0.8973985910415649,-1.5522732734680176
1788674683761408300,2.665408203125,0.2249746322631836,1.2009892463684082,-3.2433347702026367
1788674683777277400,2.68127734375,-0.09569168090820312,1.1138896942138672,-2.0603909492492676
1788674683793207600,2.69720751953125,-0.6703681945800781,0.8112888336181641,-0.29312217235565186
1788674683809076700,2.71307666015625,-0.9532203674316406,0.6374112367630005,0.4336126446723938
1788674683824976400,2.728976318359375,-0.9083719253540039,1.0809003114700317,-1.0106120109558105
1788674683840876000,2.7448759765625,-0.4734983444213867,2.0914907455444336,-2.760460138320923
1788674683856745200,2.7607451171875,-1.6535592079162598,1.8026751279830933,-2.028049945831299
1788674683872705800,2.776705810546875,-2.046980381011963,0.9368970394134521,-0.37580257654190063
1788674683888575000,2.792574951171875,-0.7112541198730469,0.5805461406707764,0.04652029275894165
1788674683904444200,2.808444091796875,1.4359359741210938,0.22305631637573242,-0.26619070768356323
1788674683920343800,2.82434375,1.7544164657592773,-0.2160496711730957,-0.01866084337234497
1788674683936213000,2.840212890625,1.7422075271606445,-0.6008801460266113,-0.14997637271881104
1788674683952112600,2.856112548828125,2.2164249420166016,-0.46515709161758423,0.7341926097869873
1788674683967981800,2.87198193359375,0.7096776962280273,-0.8771002888679504,0.06435984373092651
1788674683983851000,2.88785107421875,0.17998600006103516,-0.8908432126045227,0.6097855567932129
1788674683999720000,2.903719970703125,-0.23973846435546875,-0.662625789642334,0.8206062912940979
1788674684015558700,2.91955859375,-0.2953758239746094,-0.28387582302093506,0.5318752527236938
1788674684031397400,2.9353974609375,-1.5259113311767578,0.3505297899246216,0.09057620167732239
1788674684047297000,2.951297119140625,-0.579463005065918,0.34684038162231445,-0.3560100793838501
1788674684063166000,2.967166015625,-0.5492753982543945,0.2316359281539917,0.4329386353492737
1788674684079004700,2.983004638671875,-0.1393604278564453,0.30694425106048584,0.2178550362586975
1788674684094904300,2.998904296875,0.6557903289794922,0.6211729049682617,-0.3554041385650635
1788674684110834400,3.01483447265625,0.671504020690918,0.6836546659469604,-0.4049646854400635
1788674684126703600,3.03070361328125,-0.2165679931640625,0.19189655780792236,0.24347326159477234
1788674684142603300,3.046603271484375,-0.6319742202758789,-0.1530657410621643,0.5574550032615662
1788674684158503000,3.0625029296875,-0.47312450408935547,-0.14065325260162354,0.517034649848938
1788674684174372000,3.0783720703125,-0.13127422332763672,0.02174663543701172,0.054368942975997925
1788674684190241300,3.0942412109375,0.10336112976074219,0.13215875625610352,-0.34998100996017456
1788674684214045000,3.118044921875,-0.21836090087890625,0.09083855152130127,-0.29215186834335327
1788674684229914000,3.1339140625,-0.23692703247070312,0.00042939186096191406,-0.21488848328590393
1788674684253748200,3.157748291015625,-0.061293601989746094,-0.01875591278076172,0.08581224083900452
1788674684277582600,3.18158251953125,0.11855697631835938,-0.12588870525360107,0.5629825592041016
1788674684293451800,3.19745166015625,0.20138168334960938,-0.028600692749023438,0.37538135051727295
1788674684309321000,3.213321044921875,0.2692594528198242,-0.08284711837768555,0.22618016600608826
1788674684325220600,3.229220703125,0.3786582946777344,-0.03264319896697998,0.12487499415874481
1788674684341059000,3.24505908203125,-0.053687095642089844,-0.11428368091583252,0.09854896366596222
1788674684356897800,3.260897705078125,0.11891937255859375,-0.12678205966949463,0.3217928111553192
1788674684372736500,3.276736572265625,-0.09878730773925781,-0.5722120404243469,0.7841517925262451
1788674684388636200,3.29263623046875,-0.2743549346923828,-0.419724702835083,0.643971860408783
1788674684404505000,3.308505126953125,-0.5726299285888672,-0.021903038024902344,0.041107118129730225
1788674684420435500,3.324435546875,-0.4407978057861328,0.37581396102905273,-0.07543164491653442
1788674684436335000,3.340335205078125,-0.23803043365478516,0.663072943687439,-0.7198275923728943
1788674684452234800,3.35623486328125,0.250030517578125,1.2255438566207886,-1.6414947509765625
1788674684468134400,3.372134521484375,0.04690074920654297,1.5434447526931763,-2.2616331577301025
1788674684484003600,3.388003662109375,-0.7603178024291992,0.9108754396438599,-1.097091555595398
1788674684499903200,3.4039033203125,-0.7041416168212891,0.6461552381515503,-0.4563777446746826
1788674684515741700,3.41974169921875,-1.3325347900390625,0.48767852783203125,-0.637320876121521
1788674684531641300,3.435641357421875,-0.27507877349853516,0.7188252210617065,-1.2976868152618408
1788674684547510500,3.451510498046875,0.7301254272460938,1.000009298324585,-1.4520349502563477
1788674684563471400,3.467471435546875,1.9663238525390625,1.2444179058074951,-1.5060012340545654
1788674684579340300,3.48334033203125,2.2156600952148438,0.711259126663208,-0.6284944415092468
1788674684595209500,3.49920947265625,0.8091449737548828,0.06291651725769043,-0.46036210656166077
1788674684611078700,3.51507861328125,-1.8902091979980469,0.311359167098999,-1.1846694946289062
1788674684634882300,3.53888232421875,-1.8828520774841309,-0.7119125127792358,1.303938388824463
1788674684650721000,3.554720947265625,-0.5303001403808594,-1.818621039390564,2.437089681625366
1788674684666620700,3.57062060546875,1.9280767440795898,-1.509870171546936,2.5329158306121826
1788674684682459400,3.58645947265625,1.7189149856567383,-0.5384016036987305,-0.08491241931915283
1788674684698328300,3.602328369140625,1.3293437957763672,0.11066675186157227,-1.452696442604065
1788674684714228000,3.61822802734375,0.08714866638183594,0.2733302116394043,0.007887184619903564
1788674684730097200,3.63409716796875,-0.3007240295410156,0.0335233211517334,1.1945133209228516
1788674684745996800,3.649996826171875,-0.790562629699707,-0.22747313976287842,0.8041634559631348
1788674684761866000,3.665865966796875,-0.9057645797729492,-0.1569066047668457,0.4924047589302063
1788674684777735200,3.681735107421875,-1.1715831756591797,-0.007757425308227539,0.11774551868438721
1788674684793634800,3.697634765625,0.4734945297241211,0.8546352386474609,-2.086834669113159
1788674684809534500,3.713534423828125,0.8266849517822266,1.6759974956512451,-2.809847116470337
1788674684833338000,3.737338134765625,-2.5795092582702637,1.3178822994232178,-1.2644636631011963
1788674684849207300,3.753207275390625,-2.886519432067871,0.8041098117828369,0.4021121859550476
1788674684865137400,3.769137451171875,-1.342768669128418,-0.6865583658218384,1.2324233055114746
1788674684881006600,3.785006591796875,0.38865184783935547,-1.7087194919586182,2.0354297161102295
1788674684896906200,3.80090625,2.308230400085449,-1.6746934652328491,2.1896586418151855
1788674684912806000,3.816805908203125,3.8463048934936523,-1.238887071609497,1.4130809307098389
1788674684928644600,3.83264453125,2.3267621994018555,-0.8061056137084961,0.01951974630355835
1788674684944544300,3.848544189453125,0.06772804260253906,-0.4236583709716797,-0.36962854862213135
1788674684968348000,3.872347900390625,-2.2739815711975098,-0.03658866882324219,0.25304949283599854
1788674684992182300,3.896182373046875,-2.5505318641662598,0.14588642120361328,0.24966251850128174
1788674685008051200,3.91205126953125,-1.8509597778320312,0.34650254249572754,-0.08134114742279053
1788674685023951000,3.927951171875,-0.4130363464355469,0.5677556991577148,-0.7892751693725586
1788674685039881200,3.943881103515625,-0.3430309295654297,0.4932394027709961,-1.2811498641967773
1788674685055689200,3.959689208984375,-0.3219480514526367,0.8754692077636719,-0.8640402555465698
1788674685071588900,3.9755888671875,2.9602489471435547,0.9697916507720947,-2.5989787578582764
1788674685087488500,3.991488525390625,0.7829055786132812,1.1604697704315186,-1.7231285572052002
1788674685103388200,4.00738818359375,-0.08493232727050781,1.8575050830841064,-1.6988258361816406
1788674685119257300,4.02325732421875,-0.14182567596435547,0.6095585823059082,-0.3581373691558838
1788674685135126500,4.03912646484375,0.3053760528564453,-0.16450858116149902,0.9770005941390991
1788674685166895400,4.070895263671875,1.1500730514526367,-1.9785648584365845,2.3581936359405518
1788674685182764500,4.0867646484375,0.5785961151123047,-2.2710342407226562,2.2818915843963623
1788674685198633700,4.1026337890625,2.5014429092407227,-0.9505025148391724,0.3777804374694824
1788674685214502700,4.118502685546875,3.47377872467041,1.045569658279419,-0.5977112650871277
1788674685238337000,4.1423369140625,-1.2806968688964844,1.4981348514556885,-2.0535659790039062
1788674685254236700,4.158236572265625,-2.6717910766601562,0.7212471961975098,-0.4310092031955719
1788674685270105900,4.17410595703125,-3.1447715759277344,0.42972779273986816,1.01486337184906
1788674685285975000,4.18997509765625,-1.7147445678710938,-0.4439910650253296,1.2358413934707642
1788674685301874700,4.205874755859375,-0.27236270904541016,-0.9478377103805542,1.9960659742355347
1788674685317774300,4.2217744140625,0.7428197860717773,-0.796012282371521,1.6688551902770996
1788674685333612800,4.23761279296875,1.188155174255371,-0.5205508470535278,0.6976392269134521
1788674685349512400,4.253512451171875,1.4720993041992188,-0.4547191858291626,0.17398695647716522
1788674685365381600,4.269381591796875,0.8700532913208008,0.3218463659286499,-0.8337345123291016
1788674685381342500,4.285342529296875,0.001537322998046875,0.7894717454910278,-1.250678539276123
1788674685405085000,4.3090849609375,-1.105849266052246,0.4864237308502197,-0.4473348557949066
1788674685421015300,4.325015380859375,-2.000359058380127,0.11555719375610352,0.17831996083259583
1788674685436884200,4.34088427734375,-2.129929542541504,-0.40128767490386963,1.080139398574829
1788674685452753400,4.35675341796875,-1.436574935913086,-0.9132513999938965,1.5335476398468018
1788674685468622600,4.37262255859375,0.18241500854492188,-0.7815331220626831,1.0362331867218018
1788674685492426200,4.39642626953125,1.1197099685668945,-0.458459734916687,0.18611940741539001
1788674685508295400,4.41229541015625,0.6223783493041992,-0.06007850170135498,0.011098310351371765
1788674685524164600,4.42816455078125,-0.4588003158569336,0.15006589889526367,-0.13619934022426605
1788674685540033800,4.44403369140625,-1.1326923370361328,0.06128263473510742,0.2944272458553314
1788674685555964000,4.4599638671875,-0.5371017456054688,-0.09731531143188477,0.5798294544219971
1788674685571863600,4.475863525390625,0.35076045989990234,-0.10765838623046875,0.6466026306152344
1788674685587732700,4.491732666015625,0.06957626342773438,0.20244956016540527,-0.39074885845184326
1788674685603632400,4.50763232421875,0.3070974349975586,0.9641890525817871,-1.00999116897583
1788674685619471000,4.52347119140625,-0.44627952575683594,1.3100707530975342,-1.0718950033187866
1788674685635309600,4.5393095703125,-1.1156339645385742,1.3099236488342285,-1.0986018180847168
1788674685651178800,4.5551787109375,-2.998459815979004,0.9814300537109375,-0.8882784843444824
1788674685667017500,4.571017578125,-0.05200672149658203,0.6090350151062012,0.45273885130882263
1788674685682886700,4.58688671875,0.8091678619384766,0.35456252098083496,-0.8077843189239502
1788674685698755600,4.602755615234375,0.8058481216430664,0.18808388710021973,-0.5309166312217712
1788674685714624800,4.618624755859375,0.7071037292480469,0.15443658828735352,-0.91575688123703
1788674685738489600,4.642489501953125,0.8363018035888672,0.6997532844543457,-0.7951627373695374
1788674685754358800,4.65835888671875,0.49656009674072266,0.6105083227157593,0.3009299039840698
1788674685770197200,4.674197265625,0.13550758361816406,0.31653690338134766,-0.1969621777534485
1788674685786066400,4.69006640625,-0.7381248474121094,-0.11634707450866699,-0.5702721476554871
1788674685809961700,4.713961669921875,0.8395843505859375,-0.14507532119750977,-0.25682753324508667
1788674685825861400,4.729861328125,0.7627372741699219,-0.09273302555084229,0.618990421295166
1788674685841761000,4.745760986328125,-0.3794069290161133,-0.12959074974060059,0.744163453578949
1788674685857630200,4.761630126953125,0.40574073791503906,-0.14015734195709229,1.0668480396270752
1788674685873529900,4.77752978515625,-0.43497180938720703,-0.033934831619262695,0.4225507378578186
1788674685889429500,4.793429443359375,-0.3576326370239258,0.2816208600997925,-0.10888625681400299
1788674685905298700,4.809298583984375,0.47144031524658203,0.10898220539093018,-0.047173112630844116
1788674685921198300,4.8251982421875,0.7439870834350586,-0.09649413824081421,0.3665870130062103
1788674685937128400,4.84112841796875,0.36865997314453125,-0.3256354331970215,0.6764794588088989
1788674685952997600,4.85699755859375,-0.4408836364746094,0.029218673706054688,0.587194561958313
1788674685968897300,4.872897216796875,-0.7532176971435547,-0.3138384222984314,0.20133861899375916
1788674685984797000,4.888796875,-0.4667320251464844,-0.7774125337600708,0.6008627414703369
1788674686000696600,4.904696533203125,-0.3383169174194336,-0.6875243186950684,1.2161948680877686
1788674686016565800,4.920565673828125,-0.7764091491699219,-0.4965198040008545,0.6227040886878967
1788674686032465400,4.93646533203125,-0.575657844543457,-0.4361778497695923,0.1355937421321869
1788674686048334600,4.95233447265625,-0.2737112045288086,-0.49966007471084595,0.25022947788238525
1788674686064173000,4.968173095703125,-0.3805875778198242,-0.26555514335632324,0.07535552978515625
1788674686080042200,4.984042236328125,-0.07301998138427734,-0.14955919981002808,-0.41064026951789856
1788674686095911400,4.999911376953125,0.08498477935791016,0.05564993619918823,-0.4765304923057556
1788674686111780600,5.015780517578125,0.3108797073364258,0.4781686067581177,-0.7074912190437317
1788674686127619000,5.031619140625,0.165374755859375,0.759232223033905,-1.1173100471496582
1788674686143457800,5.047457763671875,0.06849384307861328,0.9267754554748535,-0.8262452483177185
1788674686159327000,5.063326904296875,0.3912210464477539,0.7197306156158447,-0.3103913962841034
1788674686175196200,5.079196044921875,0.4751758575439453,0.5349671840667725,-0.3752368092536926
1788674686206934300,5.110934326171875,0.11739921569824219,0.10712921619415283,0.022840231657028198
1788674686222773000,5.12677294921875,0.01114654541015625,-0.1756705641746521,0.21663738787174225
1788674686238672600,5.142672607421875,-0.17236804962158203,-0.18632346391677856,0.09084591269493103
1788674686254541800,5.158541748046875,0.04170989990234375,-0.010412395000457764,-0.2420041859149933
1788674686270411000,5.174410888671875,0.6682233810424805,-0.11019885540008545,-0.06748899817466736
1788674686286249500,5.19024951171875,0.7872524261474609,-0.17469286918640137,0.16108626127243042
1788674686302118700,5.20611865234375,0.07332801818847656,-0.07457345724105835,0.1359577178955078
1788674686318018300,5.222018310546875,-0.6156930923461914,-0.08770424127578735,0.239141583442688
1788674686333887500,5.237887451171875,-0.9042844772338867,-0.24484264850616455,0.19313836097717285
1788674686349756700,5.253756591796875,-0.5400781631469727,-0.2243160605430603,0.29848888516426086
1788674686365595400,5.269595458984375,-0.37184810638427734,-0.12293267250061035,0.3163103461265564
1788674686381433900,5.285433837890625,-0.12005805969238281,-0.08707594871520996,0.24623844027519226
1788674686397333500,5.30133349609375,-0.09665966033935547,-0.08773249387741089,0.239129900932312
1788674686413263600,5.317263671875,-0.104248046875,-0.20128917694091797,0.2459176778793335
1788674686429132800,5.3331328125,-0.16631126403808594,-0.12743282318115234,0.1443752497434616
1788674686445063200,5.349063232421875,-0.1463451385498047,-0.07026547193527222,0.16271036863327026
1788674686460932000,5.36493212890625,-0.15024089813232422,-0.0785418152809143,0.180521622300148
1788674686476801300,5.38080126953125,-0.31183719635009766,0.04824584722518921,0.411940336227417
1788674686492731400,5.3967314453125,-0.5596494674682617,0.21976906061172485,0.2986066937446594
1788674686508600600,5.4126005859375,-0.6071462631225586,0.3151761293411255,0.2781023681163788
1788674686524531000,5.428531005859375,-0.40175342559814453,0.3575824499130249,0.5946153402328491
1788674686540399900,5.44439990234375,0.008749008178710938,0.45185428857803345,0.7411854863166809
1788674686556238600,5.460238525390625,0.2849111557006836,0.4655205011367798,0.49561607837677
1788674686572077300,5.476077392578125,0.29755306243896484,0.45249420404434204,0.2449234277009964
1788674686587977000,5.49197705078125,0.3063068389892578,0.2194320559501648,0.06160254776477814
1788674686603846000,5.507845947265625,0.1680736541748047,0.377754271030426,0.22356921434402466
1788674686619715000,5.523715087890625,-0.011147499084472656,0.5084624886512756,0.28822386264801025
1788674686635489500,5.539489501953125,-0.04462718963623047,0.6681991815567017,0.2132713496685028
1788674686651389200,5.55538916015625,0.1210470199584961,0.4421495199203491,0.09350776672363281
1788674686667258000,5.571258056640625,0.1547374725341797,0.2948310375213623,0.016362085938453674
1788674686683188500,5.5871884765625,0.15099334716796875,0.23933398723602295,0.0049563124775886536
1788674686699057700,5.6030576171875,-0.0061511993408203125,0.25970160961151123,0.14305414259433746
1788674686714926600,5.618926513671875,-0.36666297912597656,0.32885944843292236,0.17235009372234344
1788674686730795800,5.634795654296875,-0.6830739974975586,0.31705808639526367,0.08894932270050049
1788674686746665000,5.6506650390625,-1.2545690536499023,0.29454779624938965,0.18575438857078552
1788674686762503700,5.666503662109375,-1.4907121658325195,0.24019718170166016,0.18425920605659485
1788674686778372600,5.68237255859375,-1.335805892944336,0.2715862989425659,0.11400225758552551
1788674686794241800,5.69824169921875,-0.9060096740722656,0.23152649402618408,-0.03865385055541992
1788674686810172200,5.714172119140625,-0.49944210052490234,0.1923152208328247,-0.1408637911081314
1788674686826041000,5.730041015625,-0.24383544921875,0.22253060340881348,-0.11658434569835663
1788674686841940700,5.745940673828125,-0.2770061492919922,0.3208320140838623,-0.17347297072410583
1788674686857810000,5.761809814453125,-0.3386821746826172,0.3973402976989746,-0.12190358340740204
1788674686873618200,5.7776181640625,-0.10892200469970703,0.29816627502441406,-0.26761531829833984
1788674686889548300,5.79354833984375,0.548924446105957,0.1893099546432495,-0.1908595860004425
1788674686905448000,5.809447998046875,1.1804418563842773,0.15977048873901367,-0.13216134905815125
1788674686921347600,5.82534765625,1.3777036666870117,0.2763723134994507,-0.21252435445785522
1788674686937216800,5.841216796875,1.1129465103149414,0.3872784376144409,-0.18886469304561615
1788674686953116400,5.857116455078125,0.7577657699584961,0.45922136306762695,-0.12076602876186371
1788674686969046500,5.873046630859375,0.3203010559082031,0.5553239583969116,0.07069158554077148
1788674686984915700,5.888915771484375,-0.010419845581054688,0.5068831443786621,0.10299132019281387
1788674687000845800,5.904845703125,0.07973766326904297,0.4161825180053711,0.10459157824516296
1788674687016715000,5.920715087890625,0.6362228393554688,0.14204370975494385,0.22495043277740479
1788674687032553700,5.9365537109375,1.1831703186035156,-0.15891647338867188,0.2911107540130615
1788674687048361700,5.95236181640625,1.7953548431396484,-0.35121166706085205,0.17072008550167084
1788674687064231000,5.96823095703125,2.020437240600586,-0.4590480327606201,0.16666501760482788
1788674687080161000,5.9841611328125,1.7938270568847656,-0.5953108072280884,0.07677149772644043
1788674687096030200,6.0000302734375,1.5405712127685547,-0.6093851327896118,-0.14325687289237976
1788674687111899400,6.0158994140625,1.2563457489013672,-0.5254360437393188,-0.5682036876678467
1788674687127737900,6.03173779296875,1.2150707244873047,-0.4432162046432495,-0.5816412568092346
1788674687143637500,6.047637451171875,1.2444734573364258,-0.5577577352523804,-0.5215991735458374
1788674687159506700,6.063506591796875,1.3324317932128906,-0.9162547588348389,-0.40282028913497925
1788674687175345400,6.079345458984375,1.4174013137817383,-1.628126859664917,-0.24286916851997375
1788674687191214600,6.095214599609375,1.7822675704956055,-2.405388832092285,0.09021736681461334
1788674687207083800,6.111083740234375,1.9884223937988281,-2.6698315143585205,-0.11252658069133759
1788674687222952700,6.12695263671875,1.743642807006836,-2.6817564964294434,-0.4379849433898926
1788674687238791400,6.14279150390625,1.1377887725830078,-2.639533281326294,-0.7784580588340759
1788674687254660600,6.15866064453125,0.4197406768798828,-2.360098123550415,-1.2124382257461548
1788674687270529800,6.17452978515625,-0.6041097640991211,-2.098280191421509,-1.7386460304260254
1788674687286429400,6.190429443359375,-1.4864177703857422,-1.6525225639343262,-2.064934730529785
1788674687302359600,6.206359619140625,-1.8752684593200684,-1.3875150680541992,-2.078672170639038
1788674687318228700,6.222228759765625,-2.0220441818237305,-1.3808170557022095,-1.7410056591033936
1788674687334128400,6.23812841796875,-2.1140356063842773,-1.5732231140136719,-1.4086506366729736
1788674687349966800,6.253966796875,-2.1692514419555664,-1.4384843111038208,-1.2992148399353027
1788674687365897200,6.269897216796875,-1.8873257637023926,-1.4373633861541748,-1.9352195262908936
1788674687381796900,6.285796875,-1.4205255508422852,-1.1853816509246826,-0.7762446403503418
1788674687397635300,6.30163525390625,-0.9360942840576172,-1.1116416454315186,-0.4392145872116089
1788674687413504500,6.31750439453125,-0.8739824295043945,-1.2597148418426514,-0.8059540390968323
1788674687429373700,6.333373779296875,-0.9942665100097656,-1.435149908065796,-0.5148406028747559
1788674687445243000,6.349242919921875,-0.671198844909668,-1.3028743267059326,-1.1226494312286377
1788674687461142500,6.365142578125,-0.07268238067626953,-0.9863386154174805,-0.6253196001052856
1788674687477011700,6.38101171875,0.017282485961914062,-0.7140761613845825,-0.25161194801330566
1788674687492911400,6.396911376953125,-0.701629638671875,-0.30271899700164795,-0.4233918786048889
1788674687508780500,6.412780517578125,-1.158651351928711,0.14026319980621338,-0.922846257686615
1788674687524680200,6.42868017578125,-1.1934537887573242,0.3420088291168213,-1.144808292388916
1788674687540579800,6.444579833984375,-0.891322135925293,0.41578245162963867,-1.4516007900238037
1788674687556448800,6.46044873046875,-0.49266719818115234,0.3030804395675659,-1.2344386577606201
1788674687572348700,6.4763486328125,0.18041419982910156,0.04301714897155762,-0.9050329923629761
1788674687588217600,6.492217529296875,0.5460147857666016,-0.23684728145599365,-0.4299354553222656
1788674687604117200,6.5081171875,0.6862611770629883,-0.21663200855255127,-0.20840424299240112
1788674687619956000,6.5239560546875,1.0723199844360352,-0.10935592651367188,-0.7075878381729126
1788674687635916500,6.53991650390625,1.3470258712768555,-0.10889983177185059,-0.9664419889450073
1788674687651785700,6.55578564453125,1.1729812622070312,-0.08746075630187988,-0.45050203800201416
1788674687667655000,6.571655029296875,0.6983270645141602,-0.381083607673645,-0.06289017200469971
1788674687683585000,6.5875849609375,0.9321002960205078,-0.8711813688278198,0.28732454776763916
1788674687699484700,6.603484619140625,1.7384462356567383,-1.5059070587158203,0.9010921120643616
1788674687715323400,6.619323486328125,2.4049434661865234,-1.657039999961853,1.4314229488372803
1788674687731192600,6.635192626953125,3.330005645751953,-2.0078015327453613,1.513965129852295
1788674687747061800,6.651061767578125,2.626296043395996,-2.016779661178589,0.031210631132125854
1788674687762961400,6.66696142578125,2.2367258071899414,-1.177988052368164,0.18406054377555847
1788674687778799900,6.6827998046875,1.267085075378418,-1.192237377166748,0.04171103239059448
1788674687794730200,6.698730224609375,0.820953369140625,-1.808459758758545,-0.7590962648391724
1788674687810599200,6.71459912109375,0.6271114349365234,-2.4699013233184814,-0.8063639402389526
1788674687826438000,6.73043798828125,0.4729890823364258,-3.1370604038238525,-0.21257562935352325
1788674687850211000,6.754211181640625,-0.39667797088623047,-3.628878355026245,1.4503949880599976
1788674687866049800,6.7700498046875,-1.3763771057128906,-3.0565662384033203,1.5499802827835083
1788674687881888300,6.78588818359375,-1.7892870903015137,-2.2755987644195557,0.5814272165298462
1788674687897788000,6.801787841796875,-1.3798103332519531,-1.6691689491271973,-0.485027551651001
1788674687913626600,6.817626708984375,-0.3563556671142578,-1.2702891826629639,-1.022796869277954
1788674687929495800,6.833495849609375,0.1398935317993164,-1.1379436254501343,-1.4289522171020508
1788674687945365000,6.849364990234375,0.2636070251464844,-1.091464638710022,-1.4560003280639648
1788674687961234200,6.865234130859375,-0.019815444946289062,-1.1607918739318848,-1.1211869716644287
1788674687977103000,6.88110302734375,-0.17780685424804688,-1.3674829006195068,-0.6148242354393005
1788674687993002800,6.897002685546875,-0.4273252487182617,-1.768450140953064,0.12291978299617767
1788674688008933000,6.91293310546875,-0.8367185592651367,-1.8335990905761719,0.8088225722312927
1788674688024802000,6.928802001953125,-1.4400100708007812,-1.6866720914840698,0.9883725643157959
1788674688040702000,6.944701904296875,-1.7189865112304688,-1.3236184120178223,0.6782447099685669
1788674688056571000,6.96057080078125,-1.1186399459838867,-0.8096885681152344,0.24005742371082306
1788674688072470500,6.976470458984375,-0.49707889556884766,-0.653936505317688,-0.07518471777439117
1788674688088339700,6.992339599609375,-0.37543392181396484,-0.4642418622970581,0.10435810685157776
1788674688104209000,7.008208984375,-0.7164144515991211,-0.5087834596633911,0.18409639596939087
1788674688120108500,7.024108642578125,-1.1382465362548828,-0.6275181770324707,0.2429298609495163
1788674688135977700,7.039977783203125,-1.1475696563720703,-1.1081739664077759,0.8255465626716614
1788674688151877400,7.05587744140625,-0.5086765289306641,-0.35708868503570557,0.25835099816322327
1788674688167777000,7.071777099609375,-0.2167224884033203,-0.6745765209197998,-0.40967047214508057
1788674688183646200,7.087646240234375,-0.13825130462646484,-1.0725828409194946,0.6440245509147644
1788674688199606800,7.103606689453125,0.4616994857788086,-0.8173516988754272,0.8297033309936523
1788674688215476000,7.11947607421875,0.4755582809448242,-1.043707013130188,0.1310732662677765
1788674688231375600,7.135375732421875,1.1383638381958008,-1.1449251174926758,0.19178181886672974
1788674688247275300,7.151275146484375,1.8820810317993164,-1.1944383382797241,0.3658699095249176
1788674688263175000,7.1671748046875,2.554838180541992,-1.3397173881530762,0.44670727849006653
1788674688279105000,7.18310498046875,2.526947021484375,-1.4943983554840088,0.07958276569843292
1788674688294943700,7.19894384765625,2.233330726623535,-1.7555991411209106,0.058374419808387756
1788674688310843400,7.214843505859375,1.7239084243774414,-1.8613710403442383,0.33552005887031555
1788674688326743000,7.230742919921875,1.0440778732299805,-1.7142541408538818,0.6489568948745728
1788674688342612200,7.2466123046875,0.5638895034790039,-1.6241307258605957,0.3993113040924072
1788674688358572800,7.26257275390625,0.40377235412597656,-1.6724872589111328,-0.24661937355995178
1788674688374472700,7.27847265625,1.0127363204956055,-1.773004412651062,-0.4113040268421173
1788674688390402800,7.29440283203125,1.7471904754638672,-1.83906888961792,-0.6274722814559937
1788674688406241300,7.3102412109375,1.8572607040405273,-1.8408130407333374,-1.2343580722808838
1788674688422110500,7.3261103515625,1.1286821365356445,-1.7515499591827393,-1.9292763471603394
1788674688438010000,7.342010009765625,0.06253528594970703,-1.653725028038025,-1.7986481189727783
1788674688453909800,7.35790966796875,-0.837982177734375,-1.72203528881073,-1.2283337116241455
1788674688469779000,7.373779052734375,-1.4419174194335938,-2.017552375793457,-0.21590536832809448
1788674688485678600,7.3896787109375,-1.920682430267334,-1.9234036207199097,0.1685018539428711
1788674688501547800,7.4055478515625,-1.8680691719055176,-1.6388704776763916,-0.20773091912269592
1788674688517417000,7.4214169921875,-1.8577661514282227,-1.2430522441864014,-0.9794210195541382
1788674688533286100,7.4372861328125,-1.844773769378662,-0.7147073745727539,-1.627589225769043
1788674688557120300,7.461120361328125,-1.3820600509643555,-0.27834105491638184,-1.5484758615493774
1788674688573050400,7.47705029296875,-1.0840654373168945,-0.28851091861724854,-1.2964123487472534
1788674688588950000,7.492949951171875,-0.9534587860107422,-0.3600245714187622,-0.9780455827713013
1788674688604819200,7.508819091796875,-0.9564380645751953,-0.24272000789642334,-0.824816882610321
1788674688620718800,7.52471875,-1.0829219818115234,-0.2515416145324707,-0.5868921875953674
1788674688636618500,7.540618408203125,-1.5102148056030273,0.022418618202209473,-0.4296658933162689
1788674688652518100,7.55651806640625,-1.500284194946289,0.3047678470611572,-0.6066481471061707
1788674688668387300,7.57238720703125,-0.9438686370849609,0.3633836507797241,-0.7366141080856323
1788674688684287000,7.588286865234375,-0.21083641052246094,0.12919163703918457,-0.47575169801712036
1788674688700156200,7.60415625,0.5530643463134766,-0.05695033073425293,-0.33532804250717163
1788674688716025300,7.620025390625,1.3211421966552734,-0.17462706565856934,-0.5433531403541565
1788674688731925000,7.635925048828125,1.5844287872314453,-0.3408846855163574,-0.5204821228981018
1788674688747855000,7.651855224609375,1.625401496887207,-0.3622997999191284,-0.33636194467544556
1788674688763754800,7.667754638671875,1.8020915985107422,-0.5287153720855713,-0.10756471753120422
1788674688779624000,7.6836240234375,2.0682849884033203,-0.7080432176589966,0.3666256070137024
1788674688795523600,7.699523681640625,2.064912796020508,-0.854550838470459,0.7591291666030884
1788674688811392800,7.715392822265625,2.426285743713379,-1.2328886985778809,1.2134311199188232
1788674688827262000,7.731261962890625,2.5670814514160156,-1.5323312282562256,1.7323167324066162
1788674688843161600,7.74716162109375,2.1998186111450195,-1.4789056777954102,2.089139461517334
1788674688859030800,7.76303076171875,1.2246770858764648,-1.0501129627227783,1.4977614879608154
1788674688874961000,7.7789609375,-0.06008338928222656,-0.6058750152587891,0.35021623969078064
1788674688890830000,7.794830078125,-0.5809726715087891,-0.3639202117919922,-0.21113665401935577
1788674688914633700,7.8186337890625,0.46808815002441406,-1.0913887023925781,0.16622038185596466
1788674688930503000,7.8345029296875,1.3417482376098633,-1.7421188354492188,0.561144232749939
1788674688946402600,7.850402587890625,1.6468334197998047,-2.06575608253479,0.9071611762046814
1788674688962271700,7.866271728515625,0.8978652954101562,-2.0406100749969482,0.6782639026641846
1788674688978140700,7.882140625,-0.42862510681152344,-1.7761635780334473,0.5318962931632996
1788674688994071000,7.898071044921875,-1.400446891784668,-1.5419096946716309,0.6120102405548096
1788674689009940200,7.913940185546875,-1.6882472038269043,-1.344172477722168,0.6767650246620178
1788674689025839900,7.92983984375,-1.6290912628173828,-1.3320293426513672,0.5240981578826904
1788674689041739500,7.945739501953125,-1.4544830322265625,-1.2621288299560547,0.3221983015537262
1788674689057639200,7.96163916015625,-1.589813232421875,-1.2055718898773193,0.18944469094276428
1788674689073569300,7.9775693359375,-1.7114286422729492,-1.2699058055877686,0.28775081038475037
1788674689089408000,7.993407958984375,-1.5337352752685547,-1.4170430898666382,0.6714243292808533
1788674689105277000,8.00927685546875,-1.414109230041504,-1.4622771739959717,0.7468801140785217
1788674689121146000,8.02514599609375,-1.5123682022094727,-1.237135648727417,0.7745185494422913
1788674689136984800,8.04098486328125,-1.7376933097839355,-0.935380756855011,0.6322957873344421
1788674689152854000,8.05685400390625,-1.9234046936035156,-0.7868602871894836,0.5801360607147217
1788674689168723000,8.072722900390625,-2.0283288955688477,-0.7295453548431396,0.798502504825592
1788674689184592100,8.088592041015625,-1.6912107467651367,-0.6923880577087402,1.1359965801239014
1788674689200430800,8.104430908203126,-1.5439472198486328,-0.3697795867919922,0.9769241809844971
1788674689216300000,8.120300048828126,-1.6336593627929688,0.0029958486557006836,0.5523847341537476
1788674689232230100,8.136230224609376,-1.5678110122680664,0.2694181203842163,0.040613822638988495
1788674689248099300,8.152099365234376,-0.8131351470947266,0.2939835786819458,-0.19131821393966675
1788674689263999000,8.1679990234375,0.26055908203125,0.10346472263336182,0.24200759828090668
1788674689279898600,8.183898681640626,0.8555917739868164,-0.22672152519226074,0.5448430776596069
1788674689295767800,8.199767822265626,1.160597801208496,-0.39935970306396484,0.5466627478599548
1788674689311698000,8.215697998046876,1.519099235534668,-0.5795594453811646,0.6259812116622925
1788674689327597600,8.23159765625,2.1947431564331055,-0.7683014869689941,1.1776069402694702
1788674689343466800,8.247466796875,3.15659236907959,-1.1338307857513428,1.4989439249038696
1788674689359366400,8.263366455078126,3.525859832763672,-1.1921567916870117,1.574828863143921
1788674689375266000,8.27926611328125,2.801701545715332,-0.9050682783126831,0.8897659778594971
1788674689391165700,8.295165771484376,1.5874156951904297,-0.5530401468276978,-0.1619747430086136
1788674689407035000,8.311034912109376,1.276961326599121,-0.6842615604400635,-0.6462801098823547
1788674689422934500,8.3269345703125,2.739093780517578,-1.4001636505126953,-0.46686944365501404
1788674689438803700,8.3428037109375,4.763093948364258,-2.4719204902648926,0.05501110851764679
1788674689454673000,8.3586728515625,5.947249412536621,-3.1595401763916016,0.8028175830841064
1788674689470541800,8.374541748046875,5.210700988769531,-3.192127227783203,0.9806609153747559
1788674689486411000,8.390410888671875,2.4567909240722656,-2.8941054344177246,0.03284209594130516
1788674689502280200,8.4062802734375,-0.5026817321777344,-2.4095184803009033,-0.5305697321891785
1788674689518179800,8.422179931640626,-2.785529613494873,-1.8661751747131348,-0.6698800921440125
1788674689534079500,8.43807958984375,-4.270275592803955,-1.2775732278823853,-0.42551130056381226
1788674689549979100,8.453979248046876,-4.449604511260986,-0.76873379945755,-0.28906014561653137
1788674689565878800,8.469878662109375,-3.3978796005249023,-0.9247226119041443,-0.49238523840904236
1788674689581717500,8.485717529296876,-2.0504207611083984,-1.161785364151001,-0.8395479917526245
1788674689597617200,8.5016171875,-0.8068161010742188,-1.1240029335021973,-0.8007931709289551
1788674689613516800,8.517516845703126,-0.17756175994873047,-1.022047758102417,-1.1685729026794434
1788674689629447000,8.533447021484376,-0.11962890625,-0.8606210947036743,-1.635162353515625
1788674689645285600,8.54928564453125,-0.708404541015625,-0.6199132800102234,-1.7844555377960205
1788674689661124000,8.5651240234375,-1.197127342224121,-0.4500765800476074,-1.3295341730117798
1788674689677023700,8.581023681640625,-1.4756402969360352,-0.4902014136314392,-0.5430462956428528
1788674689692893000,8.596892822265625,-1.5565099716186523,-0.5905075669288635,0.2562059760093689
1788674689708792600,8.61279248046875,-1.410233497619629,-0.49603593349456787,0.6122515797615051
1788674689724631300,8.62863134765625,-1.3852148056030273,-0.21521925926208496,0.3244917392730713
1788674689740500500,8.64450048828125,-1.5357627868652344,0.2895932197570801,-0.14508092403411865
1788674689756369700,8.66036962890625,-1.1728754043579102,0.7707849740982056,-0.5292521119117737
1788674689772238600,8.676238525390625,-0.5507020950317383,0.9196234941482544,-0.7783797383308411
1788674689788077300,8.692077392578126,0.1658792495727539,0.7772209644317627,-0.6095196008682251
1788674689804007400,8.70800732421875,0.6805658340454102,0.5645928382873535,-0.22842758893966675
1788674689819876600,8.723876708984376,0.7802219390869141,0.17680740356445312,-0.14761842787265778
1788674689835745800,8.739745849609376,1.5805597305297852,-0.26532888412475586,-0.1349717229604721
1788674689851615000,8.755614990234376,3.047473907470703,-0.6369420886039734,0.008077584207057953
1788674689867484200,8.771484130859376,4.489357948303223,-1.0382475852966309,0.37050387263298035
1788674689883383800,8.7873837890625,5.272614479064941,-1.3280582427978516,1.048671841621399
1788674689899222300,8.80322216796875,4.9784698486328125,-1.3498475551605225,1.9837286472320557
1788674689915091500,8.819091552734376,2.802058219909668,-1.3495984077453613,2.078939199447632
1788674689930960600,8.834960693359376,-0.06568241119384766,-1.0537296533584595,1.5637654066085815
1788674689946829800,8.850829833984376,-2.041410446166992,-0.7246221303939819,1.4054770469665527
1788674689962729500,8.8667294921875,-2.3638343811035156,-0.8246808052062988,1.655989646911621
1788674689978598700,8.8825986328125,-1.0682144165039062,-1.5803509950637817,1.612066626548767
1788674689994498300,8.898498291015626,1.0719823837280273,-2.585556745529175,1.245164394378662
1788674690010398000,8.91439794921875,2.6315860748291016,-2.9633617401123047,1.335221767425537
1788674690026267100,8.93026708984375,2.653996467590332,-2.910243034362793,1.112992286682129
1788674690042166800,8.946166748046876,1.435328483581543,-2.521693229675293,0.809380054473877
1788674690058035700,8.96203564453125,-0.29836463928222656,-1.9430758953094482,0.6418923139572144
1788674690073935400,8.977935302734375,-1.8250861167907715,-1.3299264907836914,0.44917044043540955
1788674690089835000,8.9938349609375,-2.618514060974121,-0.7644290924072266,0.2188662588596344
1788674690105734700,9.009734619140625,-3.074800491333008,-0.3884284496307373,-0.19630658626556396
1788674690121634600,9.025634521484376,-3.1528477668762207,-0.2807987928390503,-0.7525118589401245
1788674690137503500,9.04150341796875,-2.7736339569091797,-0.3080040216445923,-0.9828820824623108
1788674690153372700,9.05737255859375,-2.0574865341186523,-0.42219698429107666,-0.7109980583190918
1788674690169241900,9.073241943359376,-1.6072101593017578,-0.6413062810897827,-0.3852216899394989
1788674690185172000,9.089171875,-1.7385649681091309,-0.7821606397628784,-0.004508897662162781
1788674690201010700,9.1050107421875,-1.7663722038269043,-0.8721005320549011,0.3746485412120819
1788674690216849400,9.120849365234376,-1.5997562408447266,-0.9732551574707031,0.7232856750488281
1788674690232687900,9.13668798828125,-1.4273672103881836,-0.9339097738265991,0.9881284832954407
1788674690248587500,9.15258740234375,-1.2180194854736328,-0.6770344972610474,1.036985158920288
1788674690264456700,9.168456787109376,-0.948237419128418,-0.34336233139038086,0.8039547801017761
1788674690280356400,9.1843564453125,-0.5443973541259766,-0.09662425518035889,0.279024600982666
1788674690296225500,9.2002255859375,-0.1699199676513672,0.03705883026123047,-0.29414454102516174
1788674690312125200,9.216125244140626,0.46344852447509766,0.008683323860168457,-0.36088597774505615
1788674690327994400,9.231994384765626,1.0127372741699219,-0.2260599136352539,-0.13816773891448975
1788674690343863600,9.247863525390626,1.3149175643920898,-0.6182017922401428,0.23912936449050903
1788674690359763200,9.26376318359375,1.5356168746948242,-1.0788666009902954,0.6995673775672913
1788674690375632100,9.279632080078125,1.642075538635254,-1.3312420845031738,1.1867969036102295
1788674690391531800,9.29553173828125,1.3616142272949219,-1.3438962697982788,1.2081332206726074
1788674690407401000,9.31140087890625,1.50433349609375,-1.1983551979064941,0.8224614262580872
1788674690423270100,9.327270263671876,2.4186534881591797,-1.2954397201538086,0.6109133362770081
1788674690439108900,9.34310888671875,3.0022706985473633,-1.5525676012039185,0.7514362335205078
1788674690454978000,9.35897802734375,2.918569564819336,-1.5582919120788574,0.9586597681045532
1788674690470816500,9.37481640625,2.385453224182129,-1.5302308797836304,0.9031546711921692
1788674690486716200,9.390716064453125,1.8700580596923828,-1.4272255897521973,0.6421864628791809
1788674690502615800,9.40661572265625,1.6186637878417969,-1.3462464809417725,-0.0043365806341171265
1788674690518424000,9.422424072265626,1.6097650527954102,-1.3383026123046875,-0.7353616952896118
1788674690534293200,9.438293212890626,1.2357263565063477,-1.373612880706787,-0.9644778370857239
1788674690558127400,9.46212744140625,-0.20940589904785156,-1.596548318862915,-0.9143706560134888
1788674690573996500,9.47799658203125,-0.9470148086547852,-1.556982159614563,-1.111939787864685
1788674690589896200,9.493896240234376,-1.4382219314575195,-1.7279934883117676,-1.0573979616165161
1788674690605765400,9.509765380859376,-1.5832576751708984,-1.6885113716125488,-0.3238530457019806
1788674690621665000,9.5256650390625,-1.7389721870422363,-1.514259934425354,-0.08808326721191406
1788674690637564700,9.541564697265626,-1.7143020629882812,-1.2124171257019043,-0.4058748781681061
1788674690653433900,9.557433837890626,-1.2972793579101562,-1.1081149578094482,-0.44821983575820923
1788674690669333500,9.57333349609375,-0.6641378402709961,-1.008044719696045,-0.31017234921455383
1788674690685202400,9.589202392578125,-0.05424213409423828,-0.8161600828170776,0.1460323929786682
1788674690701102300,9.605102294921876,0.13440990447998047,-0.4646637439727783,0.2396698296070099
1788674690716971300,9.62097119140625,-0.6321830749511719,-0.5901756286621094,-0.2972245514392853
1788674690732840400,9.63684033203125,-0.7111043930053711,0.1232762336730957,-0.41720229387283325
1788674690748740000,9.652739990234375,-1.4029693603515625,0.6050642728805542,-0.7042372226715088
1788674690764639700,9.6686396484375,-1.8912839889526367,0.8596962690353394,-0.25995731353759766
1788674690780509000,9.684509033203126,-1.801252841949463,0.943267822265625,0.41177690029144287
1788674690796408600,9.70040869140625,-1.2983827590942383,0.8116648197174072,0.6894521117210388
1788674690812277800,9.71627783203125,-0.5886373519897461,0.3819289207458496,0.7831757068634033
1788674690828147000,9.73214697265625,-0.04807090759277344,0.007167339324951172,1.0619314908981323
1788674690844016000,9.74801611328125,0.045368194580078125,-0.32651329040527344,0.966530442237854
1788674690859915800,9.763915771484376,0.04853343963623047,-0.5061615109443665,0.8008561134338379
1788674690875784700,9.77978466796875,1.1695184707641602,-0.9504145383834839,0.5238823890686035
1788674690891654000,9.79565380859375,2.1253786087036133,-1.245387077331543,0.3530120551586151
1788674690907523000,9.811523193359376,2.945568084716797,-1.4858672618865967,0.6444613337516785
1788674690923484000,9.82748388671875,3.387810707092285,-1.7114791870117188,1.2739369869232178
1788674690939383600,9.843383544921876,2.962717056274414,-1.68490469455719,1.5079994201660156
1788674690955283200,9.859283203125,1.5901432037353516,-1.308699607849121,1.3455603122711182
1788674690971213300,9.87521337890625,-0.15413475036621094,-0.9261806607246399,1.0169285535812378
1788674690987113000,9.891113037109376,-1.607264518737793,-0.4248086214065552,0.3819671869277954
1788674691002951700,9.90695166015625,-1.7214617729187012,-0.47289931774139404,-0.5231157541275024
1788674691018790100,9.9227900390625,0.10747432708740234,-1.034212589263916,-0.8418804407119751
1788674691034659300,9.938659423828126,2.931185722351074,-2.1101925373077393,-0.263771653175354
1788674691050559000,9.95455908203125,4.543213844299316,-2.936544418334961,0.2989429235458374
1788674691066458600,9.970458740234376,4.03547477722168,-3.1317291259765625,0.6180288791656494
1788674691082327800,9.986327880859376,1.533066749572754,-2.535391330718994,0.11580252647399902
1788674691098197000,10.002197021484376,-0.9424819946289062,-1.7458134889602661,-0.40279513597488403
1788674691114066200,10.018066162109376,-2.6851468086242676,-1.3805553913116455,-0.40434467792510986
1788674691129935000,10.03393505859375,-3.1480021476745605,-1.3441036939620972,0.4623775780200958
1788674691145835000,10.0498349609375,-3.1345396041870117,-1.1712028980255127,1.279017448425293
1788674691161734700,10.065734619140626,-2.9098339080810547,-1.0660432577133179,0.3144789934158325
1788674691177634300,10.08163427734375,-2.4497461318969727,-0.5029321908950806,-1.2899636030197144
1788674691193503200,10.097503173828125,-1.4205818176269531,-0.767044186592102,-1.5773653984069824
1788674691209372400,10.113372314453125,-0.36473560333251953,-1.1593142747879028,-0.15720009803771973
1788674691225241600,10.12924169921875,-0.019965171813964844,-1.1930598020553589,1.009165644645691
1788674691241141200,10.145141357421876,-0.8481101989746094,-1.0199557542800903,0.822913646697998
1788674691257071400,10.1610712890625,-1.5148887634277344,-0.6386882066726685,0.5371796488761902
1788674691272940500,10.1769404296875,-1.630141258239746,-0.3203517198562622,0.5479108691215515
1788674691288870700,10.19287060546875,-1.3401412963867188,-0.2569958567619324,0.9386501312255859
1788674691304739800,10.20873974609375,-1.2075729370117188,-0.24006861448287964,1.0022684335708618
1788674691320639500,10.224639404296875,-0.9272403717041016,-0.08838081359863281,0.9263721704483032
1788674691336478200,10.240478271484376,-0.6275615692138672,-0.010673284530639648,0.9385476112365723
1788674691352377900,10.2563779296875,0.11392402648925781,-0.014742136001586914,0.7489256858825684
1788674691368308000,10.272307861328125,1.1317129135131836,-0.19772446155548096,0.5531513690948486
1788674691384207600,10.28820751953125,1.6131887435913086,-0.30299293994903564,0.818870484828949
1788674691400107300,10.304107177734375,1.416783332824707,-0.4558449387550354,0.9264348149299622
1788674691416007000,10.3200068359375,1.136373519897461,-0.3877796530723572,0.7070508599281311
1788674691431876000,10.3358759765625,1.601766586303711,-0.34167325496673584,0.7901474237442017
1788674691447745300,10.351745361328126,2.2786788940429688,-0.6044526100158691,1.2584547996520996
1788674691463614500,10.367614501953126,3.336972236633301,-0.9197055101394653,1.5327152013778687
1788674691479483600,10.383483642578126,3.5060625076293945,-0.9390382766723633,0.8865222930908203
1788674691495383300,10.39938330078125,2.874958038330078,-0.5119997262954712,0.5093214511871338
1788674691511252500,10.41525244140625,2.0229005813598633,-0.062766432762146,0.3488848805427551
1788674691527152000,10.431152099609376,0.8550443649291992,-0.20104765892028809,-0.16964048147201538
1788674691543051800,10.4470517578125,-0.16779232025146484,-0.5760761499404907,-0.8389372825622559
1788674691558920700,10.462920654296875,0.13919734954833984,-0.9985666275024414,-1.204912543296814
1788674691574759400,10.478759521484376,0.9476480484008789,-1.635802149772644,-1.0729981660842896
1788674691590628600,10.494628662109376,1.0839996337890625,-1.7800910472869873,-0.4530186653137207
1788674691606497800,10.510497802734376,0.3865318298339844,-2.3834586143493652,-0.8470824956893921
1788674691622367000,10.526366943359376,-0.7941646575927734,-2.018505334854126,-0.45849794149398804
1788674691638236000,10.54223583984375,-0.9810104370117188,-1.6602873802185059,0.1854110062122345
1788674691654074600,10.55807470703125,-0.2134075164794922,-0.974911093711853,-0.2950943112373352
1788674691669974300,10.573974365234376,-0.49348926544189453,-0.5963190197944641,-0.6479690074920654
1788674691685843500,10.589843505859376,-1.2173280715942383,-0.11142587661743164,-1.1357191801071167
1788674691701712600,10.605712646484376,-1.5678396224975586,0.00008809566497802734,-1.1719456911087036
1788674691717581800,10.621581787109376,-1.565333366394043,-0.20887160301208496,-0.9096689224243164
1788674691733542400,10.63754248046875,-1.8857288360595703,-0.5642318725585938,0.08230137825012207
1788674691749442000,10.653442138671876,-2.126481056213379,-0.6856821179389954,0.32003867626190186
1788674691765341700,10.669341796875,-1.9578242301940918,-0.40559065341949463,-0.577123761177063
1788674691781211000,10.6852109375,-1.2371129989624023,-0.09184741973876953,-0.18991580605506897
1788674691797110500,10.701110595703126,-0.3431730270385742,-0.2439885139465332,0.31299248337745667
1788674691813010200,10.71701025390625,0.1718616485595703,-0.4772360920906067,0.42777910828590393
1788674691828909800,10.732909912109376,0.01923084259033203,-0.21902620792388916,0.387588769197464
1788674691844748500,10.74874853515625,-0.9121465682983398,-0.30275142192840576,-0.044597312808036804
1788674691860648200,10.764648193359376,-1.6724352836608887,-0.465366005897522,0.15308739244937897
1788674691876517400,10.780517333984376,-1.9099254608154297,-0.398983359336853,0.6715909838676453
1788674691892386300,10.79638623046875,-1.660294532775879,-0.26180005073547363,0.5035519599914551
1788674691908286000,10.812285888671875,-0.5330295562744141,-0.22645115852355957,0.08241286873817444
1788674691924155100,10.828155029296875,0.3193197250366211,-0.3885929584503174,0.007977299392223358
1788674691940054800,10.8440546875,0.9610366821289062,-0.5667825937271118,0.27012982964515686
1788674691955924000,10.859924072265626,2.0914993286132812,-0.8733104467391968,0.400933176279068
1788674691971823600,10.87582373046875,4.016802787780762,-1.0224368572235107,0.9110440015792847
1788674691987723300,10.89172314453125,4.507380485534668,-0.8339492678642273,1.5764269828796387
1788674692003653400,10.9076533203125,2.7569761276245117,-0.7809399962425232,1.5342957973480225
1788674692019522600,10.9235224609375,0.5877552032470703,-0.6745796203613281,1.3911926746368408
1788674692035422200,10.939422119140625,-0.9966440200805664,-1.0165300369262695,1.5720257759094238
1788674692051261000,10.955260986328126,-1.111292839050293,-2.0583319664001465,0.8682845830917358
1788674692067160600,10.97116064453125,1.401963233947754,-3.0338239669799805,1.0408382415771484
1788674692083029800,10.98702978515625,3.854578971862793,-3.2814292907714844,1.5766611099243164
1788674692098929400,11.002929443359376,4.155930519104004,-3.016633987426758,1.1609206199645996
1788674692114829000,11.0188291015625,2.011782646179199,-2.7309508323669434,0.9421637058258057
1788674692130728700,11.034728759765626,-0.9261512756347656,-2.418468475341797,1.0266244411468506
1788674692146598000,11.050597900390626,-2.5846452713012695,-1.4366174936294556,1.4706021547317505
1788674692162467000,11.066467041015626,-3.350578784942627,-1.227705955505371,0.6611201763153076
1788674692178366700,11.08236669921875,-2.8775296211242676,-1.4761834144592285,1.3310651779174805
1788674692194266400,11.098266357421876,-2.51954984664917,-1.4323989152908325,1.366882085800171
1788674692210135300,11.11413525390625,-1.3017959594726562,-1.1884644031524658,0.5530349016189575
1788674692226035200,11.13003515625,0.27286243438720703,-0.5182168483734131,-0.3474522829055786
1788674692241904000,11.145904052734375,1.5864191055297852,-0.14869648218154907,-0.8867344856262207
1788674692257742800,11.161742919921876,1.1171140670776367,-0.18571537733078003,-0.34962278604507446
1788674692273642500,11.177642578125,-0.4847412109375,0.034412264823913574,-0.4456154704093933
1788674692289542100,11.193542236328126,-2.4436349868774414,-0.13467282056808472,0.03577756881713867
1788674692305441800,11.20944189453125,-3.5898032188415527,-0.0997692346572876,0.6305160522460938
1788674692321311000,11.22531103515625,-3.8513269424438477,0.2598918676376343,0.9520144462585449
1788674692337210600,11.241210693359376,-3.376913070678711,0.7034749984741211,0.7952135801315308
1788674692353110300,11.2571103515625,-2.16501522064209,0.9299328327178955,0.3749087452888489
1788674692368949000,11.272948974609376,-0.8727855682373047,0.8680450916290283,0.246286541223526
1788674692384818000,11.28881787109375,0.06246185302734375,0.6176367998123169,0.3817673921585083
1788674692400717600,11.304717529296875,0.8216304779052734,0.3125826120376587,0.5208919644355774
1788674692416586800,11.320586669921875,1.0534648895263672,0.2189365029335022,0.6011761426925659
1788674692432456000,11.3364560546875,1.407318115234375,-0.05769479274749756,0.3287637233734131
1788674692448325000,11.3523251953125,1.9153547286987305,-0.10258221626281738,0.1361284703016281
1788674692464224800,11.368224853515626,2.6305484771728516,-0.3210042119026184,-0.26656392216682434
1788674692480124400,11.38412451171875,3.4085960388183594,-0.6253213286399841,-0.0628167986869812
1788674692496024000,11.400024169921876,3.967860221862793,-0.8055160045623779,0.2301446795463562
1788674692511893200,11.415893310546876,3.4956703186035156,-0.5339537262916565,0.22436459362506866
1788674692527793000,11.43179296875,2.450754165649414,-0.1696929931640625,-0.41515830159187317
1788674692543692500,11.447692626953126,1.3656692504882812,0.20628046989440918,-1.071530818939209
1788674692559592200,11.46359228515625,0.35859012603759766,-0.12338745594024658,-0.6929402947425842
1788674692575461400,11.47946142578125,0.22832012176513672,-1.4684703350067139,-0.30298030376434326
1788674692591330600,11.49533056640625,2.3828201293945312,-2.692307472229004,-0.12682780623435974
1788674692607230200,11.511230224609376,4.517064094543457,-3.2167584896087646,0.05182927846908569
1788674692623099400,11.527099365234376,4.24708366394043,-3.270864248275757,-0.24280193448066711
1788674692638999000,11.5429990234375,1.4423494338989258,-3.151297092437744,-0.8713520765304565
1788674692654898700,11.558898681640626,-1.862823486328125,-2.8690192699432373,-1.2318456172943115
1788674692670767600,11.574767578125,-4.152414321899414,-2.429130792617798,-0.9498177170753479
1788674692686636800,11.59063671875,-4.211157321929932,-1.9136475324630737,-0.4989947974681854
1788674692702567200,11.606567138671876,-2.91300106048584,-1.4785505533218384,-0.41016852855682373
1788674692718405600,11.622405517578125,-2.1253552436828613,-1.026754379272461,-0.8676829934120178
1788674692734274800,11.63827490234375,-2.296957015991211,-0.750371515750885,-1.3525140285491943
1788674692750144000,11.65414404296875,-3.0640387535095215,-1.0884013175964355,-0.9185682535171509
1788674692773978000,11.67797802734375,-2.916034698486328,-1.7655537128448486,0.3559935688972473
1788674692789847300,11.693847412109376,-1.1989870071411133,-1.5264354944229126,0.5746632218360901
1788674692805747000,11.709746826171875,-0.22011566162109375,-0.9370981454849243,0.009378969669342041
1788674692821616000,11.7256162109375,-0.009344100952148438,-0.47820740938186646,-0.40961766242980957
1788674692837515800,11.741515869140626,-0.41617298126220703,-0.3655221462249756,-0.29174941778182983
1788674692853354500,11.7573544921875,-1.0575981140136719,-0.08343863487243652,-0.29065996408462524
1788674692869254100,11.773254150390626,-1.3974676132202148,0.1605682373046875,-0.0790465772151947
1788674692885123300,11.789123291015626,-1.7508049011230469,0.2925574779510498,0.1377406120300293
1788674692901053400,11.805053466796876,-1.8228044509887695,0.1444718837738037,0.44207778573036194
1788674692916922600,11.820922607421876,-1.4652843475341797,0.5459678173065186,-0.42250967025756836
1788674692932852700,11.836852783203126,-0.17158889770507812,0.8366221189498901,-1.056931972503662
1788674692948752400,11.85275244140625,1.7924375534057617,1.1147205829620361,-1.229285717010498
1788674692964652000,11.868652099609376,3.066319465637207,0.8293479681015015,-1.089110016822815
1788674692980551700,11.8845517578125,3.2994441986083984,0.521870493888855,-0.4880456030368805
1788674692996420900,11.9004208984375,3.1242198944091797,0.05908823013305664,0.04139116778969765
1788674693012320500,11.916320556640626,3.3863210678100586,-0.5020173788070679,0.08083873987197876
1788674693028220200,11.93222021484375,3.9815454483032227,-0.5762380957603455,0.2546248733997345
1788674693044119800,11.948119873046876,4.012570381164551,0.016944289207458496,0.6729303598403931
1788674693060019500,11.96401953125,2.4911460876464844,0.20781826972961426,0.6762322187423706
1788674693075888600,11.979888671875,0.8058443069458008,0.13847684860229492,0.514768660068512
1788674693091788300,11.995788330078126,0.42952632904052734,-0.5705971121788025,0.14405658841133118
1788674693115622400,12.019622314453125,3.5149688720703125,-2.4756264686584473,-0.13324683904647827
1788674693131491600,12.03549169921875,5.798528671264648,-3.0753793716430664,0.30617278814315796
1788674693147360800,12.05136083984375,5.573787689208984,-3.12998628616333,0.5951666235923767
1788674693163230000,12.06722998046875,3.2227649688720703,-3.023458242416382,0.7329838275909424
1788674693179129600,12.083129638671876,-0.30190467834472656,-2.660348415374756,0.9407367706298828
1788674693194998800,12.098998779296876,-3.397721767425537,-2.181488037109375,0.7182844877243042
1788674693210898400,12.1148984375,-5.023591995239258,-1.673122525215149,0.9061340093612671
1788674693226798000,12.130798095703126,-4.791989326477051,-1.478911280632019,1.0562994480133057
1788674693242697700,12.14669775390625,-3.278618812561035,-1.7270870208740234,0.5753188133239746
1788674693258567000,12.16256689453125,-1.8760385513305664,-1.3933782577514648,-0.31466811895370483
1788674693274466600,12.178466552734376,-0.8586921691894531,-0.8949396014213562,-0.6299458742141724
1788674693290335500,12.19433544921875,-0.7042636871337891,-0.8653858304023743,-0.4401567280292511
1788674693306235400,12.2102353515625,-1.1734628677368164,-0.9718332886695862,-0.31914493441581726
1788674693322165500,12.22616552734375,-1.803917407989502,-1.0159339904785156,-0.3531852960586548
1788674693338065200,12.242065185546876,-2.3226423263549805,-1.0762975215911865,-0.05737769603729248
1788674693353903600,12.257903564453125,-2.7384676933288574,-0.9783738255500793,0.24310000240802765
1788674693369772800,12.273772705078125,-2.6928563117980957,-0.5287246704101562,0.52423495054245
1788674693385672400,12.28967236328125,-2.505751132965088,-0.007855772972106934,0.45764654874801636
1788674693401541600,12.305541748046876,-2.2787489891052246,0.2726205587387085,0.2632300853729248
1788674693417441300,12.321441162109375,-1.8569746017456055,0.28556227684020996,0.29333674907684326
1788674693433310500,12.337310546875,-1.357356071472168,0.12453961372375488,0.2594464421272278
1788674693449179600,12.3531796875,-0.7455177307128906,-0.2852632999420166,0.2156272530555725
1788674693465079300,12.369079345703126,0.29268360137939453,-0.62967449426651,0.31569427251815796
1788674693480918000,12.38491796875,1.2243223190307617,-0.7077360153198242,0.19546379148960114
1788674693496817700,12.400817626953126,1.9200983047485352,-0.3724631071090698,-0.32605433464050293
1788674693512717300,12.41671728515625,2.383514404296875,-0.27887022495269775,-0.6754125356674194
1788674693528586200,12.432586181640625,2.677027702331543,-0.46287304162979126,-0.2839478850364685
1788674693544425000,12.448425048828126,3.1073455810546875,-0.7971984148025513,0.28972455859184265
1788674693560355000,12.46435498046875,3.2282371520996094,-0.7728871703147888,0.39306342601776123
1788674693576224300,12.480224365234376,2.7194395065307617,-0.3326798677444458,-0.18650662899017334
1788674693600089000,12.504089111328126,1.0584707260131836,0.5106877088546753,-1.438380241394043
1788674693615988700,12.51998876953125,0.4886159896850586,0.9484728574752808,-1.4202932119369507
1788674693631827200,12.5358271484375,0.7892026901245117,-0.20454633235931396,-0.7593405246734619
1788674693647726800,12.551726806640625,1.9887828826904297,-1.9904369115829468,0.08213721215724945
1788674693663596000,12.567595947265625,3.177276611328125,-2.635021686553955,0.06023262441158295
1788674693679495700,12.58349560546875,3.0872087478637695,-2.278327465057373,-0.4883570075035095
1788674693695364900,12.59936474609375,0.9502353668212891,-1.95640230178833,-0.9583141207695007
1788674693711295000,12.615294921875,-1.8033390045166016,-1.745883822441101,-1.0812796354293823
1788674693727164200,12.6311640625,-3.630763053894043,-1.5432701110839844,-0.8681022524833679
1788674693743003000,12.6470029296875,-4.003122806549072,-1.2343488931655884,-0.6501911878585815
1788674693758872000,12.6628720703125,-3.4277100563049316,-0.9584971070289612,-0.7345061898231506
1788674693774771700,12.678771728515626,-2.892582893371582,-0.9945604801177979,-0.6465927362442017
1788674693790671400,12.69467138671875,-2.7251176834106445,-1.220846176147461,-0.28702399134635925
1788674693806540500,12.71054052734375,-2.367642402648926,-1.2903807163238525,0.12146572768688202
1788674693822440200,12.726440185546876,-1.6059627532958984,-1.1082472801208496,0.19935935735702515
1788674693838309000,12.74230908203125,-0.5400619506835938,-0.8675147891044617,0.06624749302864075
1788674693854239500,12.758239501953126,0.33716869354248047,-0.5882259011268616,0.13563226163387299
1788674693870139100,12.77413916015625,0.47742271423339844,-0.2115306854248047,0.1961957961320877
1788674693886038800,12.790038818359376,-0.2753753662109375,0.16295790672302246,0.20366142690181732
1788674693901908000,12.805907958984376,-1.1514263153076172,0.5262386798858643,0.3513941466808319
1788674693917838000,12.821838134765626,-1.7126884460449219,0.9267531633377075,0.40524306893348694
1788674693933737700,12.83773779296875,-1.9515352249145508,1.2159130573272705,0.4833371341228485
1788674693949637400,12.853637451171876,-1.653489112854004,1.2729637622833252,0.581872820854187
1788674693965476000,12.86947607421875,-0.9287576675415039,1.241004228591919,0.38498398661613464
1788674693981406200,12.88540625,-0.13373947143554688,1.3658175468444824,0.21171876788139343
1788674693997305900,12.901305908203126,1.299971580505371,1.3897833824157715,0.30735719203948975
1788674694013205500,12.91720556640625,2.164609909057617,1.0801923274993896,0.2505391836166382
1788674694029105200,12.933105224609376,2.9314727783203125,0.6941071152687073,0.12815260887145996
1788674694044974300,12.948974365234376,3.603832244873047,0.21669143438339233,0.43000543117523193
1788674694060843500,12.964843505859376,3.9419069290161133,-0.35619086027145386,0.7299783229827881
1788674694076743200,12.9807431640625,4.135087966918945,-0.44105660915374756,0.4415243864059448
1788674694092612000,12.996612060546875,4.025547981262207,0.21444833278656006,0.17789877951145172
1788674694108481300,13.012481201171875,2.9011802673339844,0.4987567663192749,0.3837701976299286
1788674694124350500,13.0283505859375,1.4031038284301758,0.1640898585319519,0.6732740998268127
1788674694140219600,13.0442197265625,-0.32550907135009766,0.057840943336486816,0.19962811470031738
1788674694156119300,13.060119384765626,-0.1068124771118164,-0.44811129570007324,-0.17187650501728058
1788674694179953400,13.083953369140625,3.0656375885009766,-2.1025657653808594,0.30964624881744385
1788674694195853300,13.099853271484376,4.046821594238281,-2.588944911956787,0.5122312903404236
1788674694211722200,13.11572216796875,2.6318349838256836,-2.425630569458008,0.45036670565605164
1788674694227652600,13.131652587890626,0.22454452514648438,-2.2761282920837402,0.8355505466461182
1788674694243552300,13.14755224609375,-2.3050832748413086,-2.0650525093078613,0.8727898597717285
1788674694259452000,13.163451904296876,-3.740356922149658,-1.711033821105957,0.987548291683197
1788674694283255600,13.187255615234376,-3.4306564331054688,-1.4914748668670654,0.7265276312828064
1788674694299155200,13.2031552734375,-2.676372528076172,-1.4920434951782227,0.3522001802921295
1788674694315024400,13.2190244140625,-2.051969051361084,-1.3313060998916626,0.1398172378540039
1788674694330924000,13.234924072265626,-1.5672168731689453,-1.1818480491638184,0.0650339424610138
1788674694346823700,13.25082373046875,-1.1885414123535156,-1.0272692441940308,0.09783561527729034
1788674694362723300,13.266723388671876,-1.2593002319335938,-0.7578123807907104,0.025403887033462524
1788674694378592500,13.282592529296876,-1.8157124519348145,-0.528289794921875,-0.09717464447021484
1788674694394431000,13.298430908203125,-2.3839974403381348,-0.4210837483406067,-0.03460979461669922
1788674694410330600,13.31433056640625,-2.6026382446289062,-0.30757302045822144,0.03694142401218414
1788674694426261000,13.330260986328126,-2.455075263977051,0.11653876304626465,0.250640332698822
1788674694442130000,13.3461298828125,-2.157042980194092,0.5922985076904297,0.3397539258003235
1788674694458060300,13.362060302734376,-1.8331031799316406,0.879088282585144,0.41637420654296875
1788674694473960000,13.3779599609375,-1.1530799865722656,0.985856294631958,0.18251928687095642
1788674694489798400,13.39379833984375,-0.4205160140991211,0.9486390948295593,-0.09971319139003754
1788674694505667600,13.40966748046875,0.2622346878051758,0.856223464012146,-0.0631016418337822
1788674694521506300,13.42550634765625,1.1118106842041016,0.5614356994628906,0.06848863512277603
1788674694537406000,13.441406005859376,2.2500619888305664,0.41574496030807495,0.24972304701805115
1788674694553275100,13.457275146484376,3.002819061279297,0.530682384967804,0.3077008128166199
1788674694569174800,13.4731748046875,3.0984888076782227,0.41582298278808594,0.04284825176000595
1788674694585105000,13.48910498046875,2.874317169189453,-0.054047584533691406,0.16510333120822906
1788674694601004500,13.505004638671876,3.4542007446289062,-0.4152786135673523,0.6145064234733582
1788674694616904200,13.520904296875,3.9144535064697266,-0.40305018424987793,0.2565857172012329
1788674694632803800,13.536803955078126,3.5624265670776367,-0.18522822856903076,-0.31362032890319824
1788674694648703500,13.552703369140625,2.834559440612793,0.3526310324668884,-0.8589107990264893
1788674694664603100,13.56860302734375,2.1437253952026367,0.5695912837982178,-1.0357880592346191
1788674694680472300,13.584472412109376,1.6327972412109375,-0.5065613389015198,-0.5214474201202393
1788674694696341500,13.600341552734376,2.08734130859375,-2.0767974853515625,-0.0765291154384613
1788674694712241200,13.6162412109375,2.7196779251098633,-2.7161457538604736,-0.25968682765960693
1788674694728140800,13.632140869140626,2.3463258743286133,-2.6370835304260254,-0.6675249338150024
1788674694744010000,13.648010009765626,0.5091571807861328,-2.4826035499572754,-1.1592727899551392
1788674694759879200,13.663879150390626,-2.085299491882324,-1.931736946105957,-0.7928361892700195
1788674694775717600,13.679717529296875,-3.146430492401123,-1.9597598314285278,-0.5579594969749451
1788674694791617300,13.6956171875,-2.540032386779785,-1.013953447341919,-1.001381278038025
1788674694807517000,13.711516845703125,-2.6120548248291016,-0.7578239440917969,-0.8585386276245117
1788674694823386000,13.72738623046875,-2.9876346588134766,-1.0155799388885498,-0.47941887378692627
1788674694839285800,13.74328564453125,-3.9277920722961426,-1.2799373865127563,-0.09263080358505249
1788674694855185400,13.759185302734375,-3.7506961822509766,-1.1810358762741089,0.111640065908432
1788674694871054600,13.7750546875,-2.743748664855957,-0.880599856376648,0.026206225156784058
1788674694886923800,13.790923828125,-1.2984371185302734,-0.4539939761161804,0.12834525108337402
1788674694902854000,13.80685400390625,-0.3911933898925781,-0.020235002040863037,-0.055196791887283325
1788674694918723000,13.82272314453125,-0.706812858581543,0.21891820430755615,-0.3596615791320801
1788674694934561800,13.838561767578126,-1.6563491821289062,0.27315980195999146,-0.3621617555618286
1788674694950430700,13.8544306640625,-2.2521700859069824,0.3984060287475586,-0.18492764234542847
1788674694966330400,13.870330322265625,-1.903325080871582,0.6285077333450317,-0.14266446232795715
1788674694982126000,13.8861259765625,-1.2114143371582031,0.770815372467041,-0.18626528978347778
1788674694997995300,13.901995361328124,-0.49199581146240234,0.8623205423355103,-0.035038769245147705
1788674695013895000,13.91789501953125,0.24139785766601562,0.778346061706543,-0.01996096968650818
1788674695029733400,13.9337333984375,1.0302696228027344,0.5389933586120605,0.023975491523742676
1788674695045663700,13.949663818359374,1.6800193786621094,-0.02717459201812744,0.29489830136299133
1788674695061471700,13.9654716796875,2.475259780883789,-0.3905280828475952,0.8174775838851929
1788674695077371400,13.981371337890625,3.2328481674194336,-0.6186134219169617,1.0423333644866943
1788674695093240600,13.997240478515625,4.0312957763671875,-0.8206596970558167,0.5527434349060059
1788674695109140200,14.01314013671875,4.517228126525879,-0.8540109992027283,0.04505316913127899
1788674695125039900,14.029039794921875,4.290927886962891,-0.3794112205505371,-0.030913636088371277
1788674695140970000,14.044969970703125,3.0292282104492188,-0.06684339046478271,0.7009681463241577
1788674695156839200,14.060839111328125,1.141261100769043,-0.39296674728393555,1.3124343156814575
1788674695172708400,14.076708251953125,-0.3285331726074219,-0.022383689880371094,1.110254168510437
1788674695188608000,14.09260791015625,-0.8589038848876953,-0.06686437129974365,0.3621441423892975
1788674695204477200,14.108477294921874,0.20116043090820312,-1.7141836881637573,0.022285444661974907
1788674695220407300,14.1244072265625,2.880679130554199,-3.103915214538574,0.27538397908210754
1788674695236246000,14.14024609375,5.06492805480957,-3.2653608322143555,0.5080704689025879
1788674695252115000,14.156114990234375,4.3447723388671875,-2.795719623565674,0.32694587111473083
1788674695268014600,14.1720146484375,1.398137092590332,-2.445751190185547,0.27240893244743347
1788674695283883800,14.1878837890625,-1.7655596733093262,-2.188246726989746,0.37275785207748413
1788674695299753000,14.2037529296875,-4.0154242515563965,-1.9937273263931274,0.6854451298713684
1788674695315622100,14.2196220703125,-3.5826992988586426,-1.5775395631790161,0.8478367328643799
1788674695331491300,14.2354912109375,-2.5492234230041504,-1.188923954963684,0.2818869650363922
1788674695347360500,14.251360595703124,-1.6552801132202148,-0.8108049631118774,-0.12728524208068848
1788674695363260200,14.26726025390625,-1.9261164665222168,-0.6375538110733032,-0.1556229591369629
1788674695379129000,14.283129150390625,-2.6144375801086426,-0.7388599514961243,0.0887095034122467
1788674695395059500,14.2990595703125,-3.0668015480041504,-0.6667280197143555,0.14740337431430817
1788674695410928600,14.3149287109375,-3.0319080352783203,-0.5431469678878784,0.2606475353240967
1788674695426828300,14.330828369140624,-2.557034492492676,-0.4371587038040161,0.37537863850593567
1788674695442728000,14.34672802734375,-2.1490836143493652,-0.2769150733947754,0.3960705101490021
1788674695458596900,14.362596923828125,-1.667043685913086,-0.15517961978912354,0.43544214963912964
1788674695474496500,14.37849658203125,-0.8995857238769531,-0.09296286106109619,0.43085819482803345
1788674695490365700,14.39436572265625,-0.3200998306274414,0.037480711936950684,0.3007686138153076
1788674695506296000,14.410296142578124,-0.3214082717895508,0.018897414207458496,-0.043583422899246216
1788674695522165000,14.4261650390625,-0.2996091842651367,-0.08008980751037598,0.0487179160118103
1788674695538095400,14.442095458984374,-0.1709613800048828,-0.06755757331848145,0.08765578269958496
1788674695553964300,14.45796435546875,0.4005098342895508,-0.22717511653900146,0.03970915079116821
1788674695569864200,14.4738642578125,1.0736618041992188,-0.5186967849731445,-0.10953345894813538
1788674695585733000,14.489733154296875,1.8862743377685547,-0.6347178220748901,-0.18148928880691528
1788674695601632800,14.5056328125,2.8445911407470703,-0.7323673963546753,-0.06620368361473083
1788674695617502000,14.521501953125,3.244156837463379,-1.182854413986206,0.20909787714481354
1788674695633371100,14.53737109375,3.090179443359375,-1.4165894985198975,0.25841087102890015
1788674695649209900,14.5532099609375,2.439769744873047,-1.0588107109069824,-0.16200798749923706
1788674695665078800,14.569078857421875,1.3275794982910156,-0.7480818033218384,-0.46431511640548706
1788674695680978700,14.584978759765624,0.1568737030029297,0.12360286712646484,-0.7141252756118774
1788674695696847600,14.60084765625,-0.5322885513305664,0.9683105945587158,-1.17110276222229
1788674695712747300,14.616747314453125,-0.4885072708129883,-0.1833477020263672,-0.9301093816757202
1788674695728647000,14.63264697265625,0.9978046417236328,-2.0680065155029297,-0.63994300365448
1788674695744485600,14.648485595703125,2.9182519912719727,-2.8281450271606445,-0.8053293824195862
1788674695760354800,14.664354736328125,3.56552791595459,-2.416867733001709,-1.3432605266571045
1788674695776254500,14.68025439453125,2.4068164825439453,-2.086421012878418,-1.6494392156600952
1788674695792123600,14.69612353515625,0.4718360900878906,-2.0729310512542725,-1.2595252990722656
1788674695807992800,14.711992919921874,-1.344980239868164,-1.6995574235916138,-0.6524151563644409
1788674695823861800,14.72786181640625,-2.3916592597961426,-1.2884975671768188,-0.35543182492256165
1788674695839761400,14.743761474609375,-2.9477968215942383,-1.2119797468185425,-0.5620540380477905
1788674695855661300,14.759661376953124,-3.158694267272949,-1.2784931659698486,-0.5529463291168213
1788674695871530200,14.7755302734375,-2.961219310760498,-1.2883758544921875,-0.05862966924905777
1788674695887399400,14.7913994140625,-2.2641358375549316,-0.9144494533538818,0.5091631412506104
1788674695903268600,14.8072685546875,-1.846205711364746,-0.44896572828292847,0.4745560884475708
1788674695919168300,14.823168212890625,-1.868593692779541,-0.1151047945022583,0.46917450428009033
1788674695935037400,14.839037353515625,-2.486462116241455,-0.04310011863708496,0.4792441427707672
1788674695950937000,14.85493701171875,-2.7255396842956543,0.07764363288879395,0.5442533493041992
1788674695966836700,14.870836669921875,-2.182711601257324,0.46238863468170166,0.48497703671455383
1788674695982736400,14.886736328125,-1.3238630294799805,0.6996954679489136,0.14711296558380127
1788674695998636000,14.902635986328125,-0.5666208267211914,0.7410112619400024,0.0443202406167984
1788674696014535700,14.91853564453125,-0.09206104278564453,0.5585073232650757,-0.043550752103328705
1788674696030374400,14.93437451171875,0.5744123458862305,0.2567448616027832,0.09899649024009705
1788674696046243600,14.95024365234375,0.7475004196166992,0.1473468542098999,0.41971760988235474
1788674696062112500,14.966112548828125,0.7858819961547852,-0.030432581901550293,0.09360629320144653
1788674696078012200,14.98201220703125,1.713296890258789,-0.12631690502166748,-0.2469172179698944
1788674696093881300,14.99788134765625,3.239516258239746,-0.25950324535369873,-0.2307491898536682
1788674696109781000,15.013781005859375,4.651087760925293,-0.47602367401123047,-0.22934791445732117
1788674696125680600,15.0296806640625,5.165238380432129,-0.9296290278434753,-0.25805678963661194
1788674696141580300,15.045580322265625,4.5137176513671875,-0.7636132836341858,-0.050015270709991455
1788674696157480000,15.06147998046875,2.4257898330688477,-0.06987714767456055,0.44183680415153503
1788674696173349000,15.07734912109375,0.036614418029785156,-0.26451706886291504,0.8075850605964661
1788674696189248800,15.093248779296875,-1.319148063659668,-0.332106351852417,0.9015001058578491
1788674696205118000,15.109117919921875,-0.8503780364990234,-0.8532338738441467,1.0227382183074951
1788674696220987100,15.124987060546875,1.1235237121582031,-2.6345343589782715,0.9157003164291382
1788674696236856300,15.140856201171875,4.497805595397949,-3.8302016258239746,0.8558100461959839
1788674696252725500,15.1567255859375,6.255782127380371,-3.6783928871154785,0.798345685005188
1788674696268625200,15.172625244140624,4.373396873474121,-3.152052879333496,0.5180720686912537
1788674696284494000,15.188494140625,0.5200290679931641,-2.908161163330078,0.7521623969078064
1788674696300393700,15.204393798828125,-2.944488048553467,-2.537227153778076,1.061280369758606
1788674696316263000,15.220262939453125,-4.560174465179443,-1.9539320468902588,1.217775583267212
1788674696332132000,15.236132080078125,-4.149023532867432,-1.1599949598312378,0.7769083976745605
1788674696348031700,15.25203173828125,-2.4085092544555664,-0.6531435251235962,-0.0884023904800415
1788674696363931400,15.267931396484375,-1.1943540573120117,-0.43409454822540283,-0.3140339255332947
1788674696379831000,15.2838310546875,-1.1178340911865234,-0.4862244129180908,-0.12782549858093262
1788674696395730700,15.299730712890625,-1.7829909324645996,-0.6811755299568176,-0.007467865943908691
1788674696411600000,15.315599853515625,-2.155609130859375,-0.9065003991127014,-0.3323686718940735
1788674696427469000,15.331468994140625,-1.9533562660217285,-0.7668155431747437,-0.31008732318878174
1788674696443338200,15.347338134765625,-1.6823978424072266,-0.283294141292572,-0.2872160077095032
1788674696459207400,15.36320751953125,-1.929685115814209,0.2454005479812622,-0.3926931619644165
1788674696475107000,15.379107177734374,-2.628725528717041,0.5293350219726562,-0.19341856241226196
1788674696490976000,15.39497607421875,-3.161999225616455,0.6829978227615356,0.01720184087753296
1788674696506906400,15.41090625,-2.8219571113586426,0.7168447971343994,-0.12155589461326599
1788674696522775600,15.426775634765624,-1.5852508544921875,0.7188982963562012,-0.17154255509376526
1788674696538614000,15.442614013671875,-0.18210792541503906,0.7872695326805115,-0.1620115041732788
1788674696554483200,15.458483154296875,0.865626335144043,0.8131683468818665,-0.12624487280845642
1788674696570443800,15.47444384765625,1.440176010131836,0.46678072214126587,0.06883257627487183
1788674696586313000,15.49031298828125,1.8408164978027344,-0.2999374270439148,0.28237831592559814
1788674696602212600,15.506212646484375,2.8745927810668945,-0.7756974697113037,0.3663727641105652
1788674696618112300,15.5221123046875,3.6082592010498047,-0.5137704610824585,0.2928931415081024
1788674696633981400,15.5379814453125,3.613949775695801,-0.48938995599746704,0.40353867411613464
1788674696649850600,15.5538505859375,3.1517181396484375,-0.9912128448486328,0.47755903005599976
1788674696665750300,15.569750244140625,2.981485366821289,-1.128309965133667,0.5029478073120117
1788674696681650000,15.58564990234375,2.5763378143310547,-0.9249055981636047,0.028022900223731995
1788674696697549600,15.601549560546875,2.053328514099121,-0.5772640109062195,-0.48553621768951416
1788674696713418800,15.617418701171875,1.7626705169677734,-0.17262351512908936,-0.8554675579071045
1788674696729257500,15.633257568359374,1.591099739074707,-0.7950462102890015,-0.6848517656326294
1788674696745096000,15.649095947265625,1.9092931747436523,-2.327571392059326,-0.19490891695022583
1788674696760995600,15.66499560546875,2.541571617126465,-3.149165630340576,-0.31537264585494995
1788674696776895200,15.680895263671875,2.4530115127563477,-3.2427663803100586,-0.7612907290458679
1788674696792795000,15.696794921875,0.7666311264038086,-2.60554838180542,-1.140865445137024
1788674696808664000,15.7126640625,-1.615828514099121,-2.369222640991211,-0.8624286651611328
1788674696832467700,15.7364677734375,-3.6414332389831543,-1.8606610298156738,-0.36173146963119507
1788674696848306400,15.752306396484375,-2.7973036766052246,-1.3810757398605347,-0.26778659224510193
1788674696864175600,15.768175537109375,-1.5678730010986328,-1.2002769708633423,-0.34677886962890625
1788674696880075300,15.7840751953125,-1.0663137435913086,-1.0814651250839233,-0.6110305190086365
1788674696896005400,15.80000537109375,-1.1710119247436523,-0.9521858096122742,-0.15579837560653687
1788674696911874600,15.81587451171875,-1.572317123413086,-0.8010050058364868,0.4974731504917145
1788674696927743700,15.83174365234375,-1.7768759727478027,-0.6835516095161438,0.5699163675308228
1788674696951577900,15.855577880859375,-1.5544261932373047,-0.45703989267349243,0.52268385887146
1788674696967538700,15.87153857421875,-1.4606752395629883,-0.03521639108657837,0.36941346526145935
1788674696983407900,15.887407958984374,-1.6644277572631836,0.2903047800064087,0.1325967013835907
1788674696999276800,15.90327685546875,-1.7375421524047852,0.6389214992523193,-0.10285522043704987
1788674697015207200,15.919207275390624,-1.6852188110351562,0.8997686505317688,0.05539725720882416
1788674697031076400,15.935076416015624,-1.735269546508789,0.9731103777885437,0.050996169447898865
1788674697046976000,15.95097607421875,-1.680180549621582,0.8673992156982422,-0.028118066489696503
1788674697062875600,15.966875732421874,-1.1401233673095703,0.5773429274559021,-0.17755958437919617
1788674697078744600,15.98274462890625,-0.3019990921020508,0.1683347225189209,-0.2893902361392975
1788674697094644200,15.998644287109375,0.9560270309448242,-0.0974881649017334,-0.6159922480583191
1788674697110513400,16.014513427734375,2.692300796508789,-0.213944673538208,-0.4605973958969116
1788674697126413000,16.0304130859375,3.6957454681396484,-0.38166964054107666,0.30211886763572693
1788674697142282200,16.0462822265625,3.8094053268432617,-0.6947879791259766,0.6465469002723694
1788674697158182000,16.062181884765625,3.391611099243164,-1.0767790079116821,0.0680505633354187
1788674697174051000,16.078051025390625,3.3362627029418945,-1.0071464776992798,-0.12241347134113312
1788674697189950700,16.09395068359375,2.581538200378418,-0.10931754112243652,-0.10282392799854279
1788674697205850400,16.109850341796875,0.48432159423828125,0.2692134380340576,0.6493729948997498
1788674697221750000,16.12575,-1.4707260131835938,-0.1252063512802124,1.2716679573059082
1788674697237649700,16.141649658203125,-1.4201765060424805,-0.5079448819160461,1.0769071578979492
1788674697253488400,16.15748828125,1.6427478790283203,-2.112814426422119,0.27824243903160095
1788674697269357600,16.173357666015626,5.826205253601074,-3.541384696960449,-0.07301747798919678
1788674697285287700,16.18928759765625,7.66552734375,-3.4623141288757324,-0.27893584966659546
1788674697301187300,16.205187255859375,5.008384704589844,-3.132678747177124,0.12422437220811844
1788674697317056500,16.221056396484375,0.4978160858154297,-2.7778844833374023,0.5897873640060425
1788674697332925700,16.23692578125,-3.353416919708252,-2.417823076248169,0.3604738414287567
1788674697348825300,16.252825439453126,-4.723889350891113,-1.7357757091522217,0.40088462829589844
1788674697364725000,16.26872509765625,-3.93363618850708,-1.4054291248321533,0.33850011229515076
1788674697380594000,16.284593994140625,-2.6815595626831055,-1.2264750003814697,0.1636832058429718
1788674697396463000,16.300463134765625,-1.9316415786743164,-1.0274033546447754,0.4263107478618622
1788674697412332300,16.316332275390625,-1.6188650131225586,-1.0729961395263672,0.5711184740066528
1788674697428232000,16.33223193359375,-1.3802223205566406,-1.1132792234420776,0.27402108907699585
1788674697444101000,16.34810107421875,-0.8648538589477539,-0.8868316411972046,0.07100927829742432
1788674697460000800,16.364000732421875,-0.9005517959594727,-0.7281113266944885,-0.06689643859863281
1788674697475870000,16.379869873046875,-1.274500846862793,-0.48499205708503723,-0.26847198605537415
1788674697491769600,16.39576953125,-1.7582168579101562,-0.2505720853805542,0.005728662014007568
1788674697507669200,16.411669189453125,-2.024810314178467,-0.05405116081237793,0.24541209638118744
1788674697523508000,16.427508056640626,-1.9416389465332031,0.21205151081085205,0.358001708984375
1788674697539377000,16.443376953125,-1.6314668655395508,0.4319080710411072,0.34308212995529175
1788674697555276500,16.459276611328125,-1.3460168838500977,0.4812975525856018,0.017786651849746704
1788674697571207000,16.47520703125,-0.8119983673095703,0.4057464003562927,0.06089743971824646
1788674697587106600,16.4911064453125,-0.09081649780273438,0.07545304298400879,0.09031520783901215
1788674697610879700,16.514879638671875,1.2433137893676758,-0.11462938785552979,0.3198133111000061
1788674697626779400,16.530779296875,1.3818464279174805,-0.15788090229034424,0.5684242844581604
1788674697642648600,16.546648681640626,1.1792516708374023,-0.336719274520874,0.6974773406982422
1788674697658548200,16.56254833984375,1.674757957458496,-0.36169618368148804,0.43961912393569946
1788674697674417400,16.57841748046875,2.6981706619262695,-0.5386147499084473,0.07522409409284592
1788674697690317000,16.594317138671876,3.4734973907470703,-0.8711498379707336,0.21030521392822266
1788674697706186000,16.61018603515625,3.304220199584961,-0.7648626565933228,0.5597054958343506
1788674697722085600,16.626085693359375,2.310418128967285,-0.22786229848861694,0.27406737208366394
1788674697737954800,16.641954833984375,0.9599447250366211,-0.15073919296264648,-0.058544814586639404
1788674697753854500,16.6578544921875,0.0046787261962890625,-0.19119226932525635,-0.29534298181533813
1788674697769754000,16.673754150390625,-0.0799856185913086,-0.48212724924087524,-0.6569830179214478
1788674697785684500,16.6896845703125,1.1834335327148438,-1.5121476650238037,-0.4798768162727356
1788674697801553400,16.705553466796875,3.1097774505615234,-2.2531185150146484,-0.24957287311553955
1788674697817453000,16.721453125,3.840243339538574,-2.2749643325805664,-0.3480638861656189
1788674697833353000,16.73735302734375,2.3790597915649414,-1.9716944694519043,-0.7119158506393433
1788674697849222000,16.753221923828125,-0.37682247161865234,-1.7169456481933594,-1.039535641670227
1788674697865091000,16.769091064453125,-2.598968982696533,-1.5481572151184082,-0.9623628854751587
1788674697880990700,16.78499072265625,-3.373340606689453,-1.3219261169433594,-0.35948193073272705
1788674697896890400,16.800890380859375,-2.3641414642333984,-1.1112926006317139,-0.1323491632938385
1788674697912759600,16.816759521484375,-0.652440071105957,-1.1655631065368652,-0.16516432166099548
1788674697928659200,16.8326591796875,0.11315155029296875,-1.0103062391281128,-0.3635711967945099
1788674697944558800,16.848558837890625,-0.1227865219116211,-0.9831374883651733,-0.40841662883758545
1788674697960428000,16.864427978515625,-1.0613336563110352,-0.8737422823905945,0.07323914766311646
1788674697976297200,16.880297119140625,-1.9652166366577148,-0.859371542930603,0.24783733487129211
1788674697992196900,16.89619677734375,-2.188368797302246,-0.6753824949264526,0.04003240168094635
1788674698008096500,16.912096435546875,-1.8029818534851074,-0.399097740650177,-0.24918684363365173
1788674698023965700,16.927965576171875,-1.5106735229492188,-0.11462312936782837,-0.6716062426567078
1788674698039835000,16.9438349609375,-1.3218965530395508,0.14835280179977417,-0.7348124980926514
1788674698055703800,16.959703857421875,-1.579178810119629,0.328437864780426,-0.658565878868103
1788674698071603500,16.975603515625,-1.4528942108154297,0.403814435005188,-0.4541521966457367
1788674698087472600,16.99147265625,-1.2478961944580078,0.32594114542007446,-0.42034298181533813
1788674698103372300,17.007372314453125,-0.7323808670043945,0.07884562015533447,-0.6163493990898132
1788674698119241500,17.023241455078125,0.18240928649902344,-0.028249502182006836,-0.566503643989563
1788674698135110700,17.039110595703125,0.9626827239990234,-0.10282653570175171,-0.33256494998931885
1788674698150979800,17.054979736328125,1.2527952194213867,-0.14083945751190186,-0.24011997878551483
1788674698166879500,17.07087939453125,1.3791570663452148,-0.2821310758590698,-0.08965128660202026
1788674698182779100,17.086779052734375,1.7939729690551758,-0.6215962171554565,0.3502345681190491
1788674698198648300,17.1026484375,2.427443504333496,-0.6575628519058228,0.5310478210449219
1788674698214548000,17.1185478515625,2.8560848236083984,-0.9449504017829895,0.331068217754364
1788674698230447600,17.134447509765625,3.3557357788085938,-0.9821138978004456,0.24340219795703888
1788674698246316800,17.15031689453125,2.920164108276367,-0.1797083616256714,0.3287316560745239
1788674698262185700,17.166185791015625,1.2637290954589844,-0.06549441814422607,0.9803920388221741
1788674698278116000,17.1821162109375,-0.5123109817504883,-0.294661283493042,1.2237491607666016
1788674698293985300,17.1979853515625,-0.9780130386352539,-0.11521971225738525,0.9499619007110596
1788674698309854200,17.213854248046875,-0.14037513732910156,-0.888525128364563,0.9277165532112122
1788674698325784600,17.22978466796875,1.5469856262207031,-1.9052547216415405,0.8078995943069458
1788674698341684200,17.245684326171876,3.6414880752563477,-2.4027910232543945,0.6537423133850098
1788674698357553200,17.26155322265625,4.328619956970215,-2.373188018798828,1.006719708442688
1788674698373422300,17.27742236328125,2.621828079223633,-2.324244737625122,1.2196425199508667
1788674698397256700,17.301256591796875,-1.4699211120605469,-1.8870130777359009,0.6644337773323059
1788674698413126000,17.3171259765625,-2.902876853942871,-1.4480540752410889,0.6220980286598206
1788674698428994800,17.332994873046875,-2.8460988998413086,-1.077414870262146,0.80928635597229
1788674698444894500,17.34889453125,-2.1024117469787598,-0.9038045406341553,0.1840692162513733
1788674698460794400,17.36479443359375,-1.285017967224121,-0.8527011871337891,0.07361739873886108
1788674698476663300,17.380663330078125,-0.9674863815307617,-0.8582847118377686,0.495238333940506
1788674698492532500,17.396532470703125,-1.1920223236083984,-0.7589765191078186,0.40340763330459595
1788674698508401700,17.412401611328125,-1.825915813446045,-0.6704361438751221,0.12082064151763916
1788674698524301300,17.42830126953125,-2.3451428413391113,-0.46493256092071533,0.15362536907196045
1788674698540201000,17.444200927734375,-2.511507034301758,-0.41264545917510986,0.21251851320266724
1788674698556070100,17.460070068359375,-2.454461097717285,-0.17877912521362305,0.49242210388183594
1788674698571939300,17.475939208984375,-2.575605869293213,0.178056001663208,0.8403301239013672
1788674698587777800,17.49177783203125,-2.583127498626709,0.42050373554229736,0.9409121870994568
1788674698603647000,17.50764697265625,-2.1453757286071777,0.6325734853744507,0.976887583732605
1788674698619546600,17.523546630859375,-1.502655029296875,0.6422253847122192,0.8266382813453674
1788674698635446300,17.5394462890625,-0.46803855895996094,0.48613977432250977,0.2516990900039673
1788674698651315500,17.5553154296875,0.6765899658203125,0.2765202522277832,0.1930122971534729
1788674698667154200,17.571154296875,1.7066001892089844,0.2050984501838684,0.38438087701797485
1788674698683053800,17.5870537109375,2.145296096801758,0.054683804512023926,0.16476137936115265
1788674698698953500,17.602953369140625,2.085590362548828,-0.08594322204589844,0.10317179560661316
1788674698714822700,17.61882275390625,1.7868623733520508,-0.28603678941726685,0.21786992251873016
1788674698730661000,17.6346611328125,1.7309913635253906,-0.4519471526145935,0.2790232300758362
1788674698746560800,17.650560791015625,2.5624752044677734,-0.7301380038261414,0.6265095472335815
1788674698762460400,17.66646044921875,3.6565351486206055,-0.9732425808906555,0.9061655402183533
1788674698778329600,17.68232958984375,4.197065353393555,-0.7498900294303894,0.8272855877876282
1788674698794168300,17.698168212890625,3.261294364929199,-0.6673151254653931,0.24362002313137054
1788674698810037500,17.71403759765625,1.4096508026123047,-0.5323092937469482,-0.03332790732383728
1788674698825906400,17.729906494140625,-0.07266044616699219,-0.12556231021881104,-0.07579028606414795
1788674698841775600,17.745775634765625,-0.26639270782470703,-0.12129509449005127,-0.2886991500854492
1788674698857706000,17.7617060546875,1.0435829162597656,-1.0662356615066528,0.10937422513961792
1788674698873575000,17.777574951171875,2.5288705825805664,-2.108941078186035,0.24297082424163818
1788674698889444000,17.793444091796875,2.9387950897216797,-2.4587903022766113,-0.12726958096027374
1788674698905282800,17.80928271484375,1.7157773971557617,-2.425231456756592,-0.4079281985759735
1788674698921213000,17.825212890625,-0.42054080963134766,-2.1998298168182373,-0.8175400495529175
1788674698937112600,17.841112548828125,-2.0311989784240723,-1.7122745513916016,-1.0829660892486572
1788674698952981800,17.856981689453125,-2.384049892425537,-1.248565435409546,-0.8086827397346497
1788674698968912000,17.872911865234375,-1.7841362953186035,-1.13768470287323,-0.3029989004135132
1788674698984781000,17.888781005859375,-1.0651931762695312,-1.2677056789398193,-0.020102567970752716
1788674699000650200,17.904650146484375,-0.7192745208740234,-1.2610645294189453,-0.2592275142669678
1788674699016519400,17.92051953125,-0.6291208267211914,-1.2127900123596191,-0.2752782702445984
1788674699032419000,17.936419189453126,-1.0983457565307617,-1.0616786479949951,-0.03698711097240448
1788674699048318700,17.952318603515625,-1.7659516334533691,-0.7588983774185181,0.03634755313396454
1788674699064157200,17.9681572265625,-2.471287250518799,-0.4833042621612549,0.1459968388080597
1788674699080026400,17.9840263671875,-2.8568263053894043,-0.4688364267349243,0.41146793961524963
1788674699095926000,17.999926025390625,-2.4046812057495117,-0.3611140251159668,0.314197838306427
1788674699111856000,18.015856201171875,-1.4071931838989258,-0.20365703105926514,-0.13984361290931702
1788674699127725300,18.031725341796875,-0.31352806091308594,-0.15045058727264404,-0.04638512805104256
1788674699143625000,18.047625,-0.17360973358154297,-0.0877302885055542,0.024953633546829224
1788674699159463700,18.063463623046875,-0.37041568756103516,0.026416778564453125,-0.0061877816915512085
1788674699175363300,18.07936328125,-0.9105463027954102,-0.025281786918640137,-0.16955262422561646
1788674699191232500,18.095232421875,-0.8273153305053711,-0.06030702590942383,-0.03854258731007576
1788674699207101700,18.111101806640626,-0.0997323989868164,0.01669919490814209,0.05900239571928978
1788674699223001300,18.12700146484375,0.72808837890625,-0.024501919746398926,-0.0006691515445709229
1788674699238901000,18.14290087890625,1.406463623046875,-0.26892244815826416,-0.22344563901424408
1788674699254800600,18.158800537109375,1.87591552734375,-0.37347936630249023,-0.44465768337249756
1788674699270608600,18.174608642578125,2.26723575592041,-0.44747769832611084,-0.468392550945282
1788674699286477800,18.190477783203125,2.401578903198242,-0.6428425312042236,-0.3285990357398987
1788674699302347000,18.206346923828125,2.226114273071289,-0.7300083041191101,-0.11591693758964539
1788674699318246700,18.22224658203125,2.055586814880371,-0.1574922800064087,-0.18600662052631378
1788674699334146300,18.238146240234375,1.428323745727539,0.08453488349914551,0.22713275253772736
1788674699349985000,18.253985107421876,0.3333396911621094,0.08620238304138184,0.7562037706375122
1788674699365884700,18.269884765625,-0.5035104751586914,0.11378276348114014,0.8257038593292236
1788674699381784300,18.285784423828126,-0.34819507598876953,-1.007080078125,0.7601131200790405
1788674699397653200,18.3016533203125,1.2226066589355469,-2.505976915359497,0.8209962844848633
1788674699413492000,18.317491943359375,3.583207130432129,-2.9947829246520996,0.9979833364486694
1788674699429361200,18.333361083984375,4.594500541687012,-2.790132999420166,0.8665424585342407
1788674699445260800,18.3492607421875,3.120680809020996,-2.5886449813842773,0.7065898180007935
1788674699461130000,18.3651298828125,0.6525421142578125,-2.365170478820801,0.9034815430641174
1788674699477029600,18.381029541015625,-1.8912453651428223,-1.7923954725265503,0.748502254486084
1788674699492929300,18.39692919921875,-3.310372829437256,-1.201969027519226,0.6649017333984375
1788674699508798500,18.412798583984376,-3.486330986022949,-0.8852630853652954,0.7653960585594177
1788674699524667600,18.428667724609376,-2.619600296020508,-0.861821174621582,0.6921145915985107
1788674699540506000,18.444506103515625,-1.6885852813720703,-0.859220564365387,0.43058788776397705
1788674699556436200,18.460436279296875,-0.8477878570556641,-0.7612003684043884,0.27972251176834106
1788674699572335900,18.4763359375,-0.3229656219482422,-0.7643195390701294,0.11033099889755249
1788674699588205000,18.492205078125,-0.2731008529663086,-0.7695059180259705,0.07451847195625305
1788674699604104700,18.508104736328125,-0.6639776229858398,-0.5983386635780334,0.1826079785823822
1788674699620004400,18.52400439453125,-1.184051513671875,-0.34013277292251587,0.24357293546199799
1788674699635843000,18.539843017578125,-1.8150196075439453,-0.04582679271697998,0.2543540596961975
1788674699651712300,18.555712158203125,-1.8520236015319824,0.17127156257629395,0.49495357275009155
1788674699667612000,18.57161181640625,-1.635270118713379,0.33415162563323975,0.5289970636367798
1788674699683511600,18.587511474609375,-1.3875150680541992,0.507567286491394,0.28949519991874695
1788674699699411200,18.6034111328125,-1.084944725036621,0.5236610174179077,0.007003873586654663
1788674699715250000,18.61925,-0.6416168212890625,0.489520788192749,-0.11906445026397705
1788674699731118800,18.635118896484375,-0.1402120590209961,0.32159507274627686,-0.1355893611907959
1788674699746957600,18.65095751953125,0.46634578704833984,0.0755535364151001,-0.22906842827796936
1788674699762857200,18.666857177734375,1.3066596984863281,-0.11124742031097412,0.01588115096092224
1788674699778756900,18.6827568359375,1.9953861236572266,-0.15913385152816772,0.37145325541496277
1788674699794656500,18.698656494140625,2.05484676361084,-0.2114683985710144,0.3882606625556946
1788674699810525700,18.714525634765625,1.9395866394042969,-0.27213340997695923,0.3992462158203125
1788674699834329300,18.738329345703125,2.562211036682129,-0.7251920700073242,0.7258042097091675
1788674699850229000,18.75422900390625,3.1821975708007812,-0.8378484845161438,0.6561977863311768
1788674699874032600,18.77803271484375,2.7328720092773438,-0.48150360584259033,0.13352784514427185
1788674699889901800,18.79390185546875,1.5810184478759766,-0.6310727000236511,-0.15380719304084778
1788674699905801500,18.809801513671875,0.7943964004516602,-0.11557471752166748,-0.3306993246078491
1788674699921670700,18.825670654296875,0.1855316162109375,-0.1293778419494629,-0.30098119378089905
1788674699937570300,18.8415703125,0.2952709197998047,-0.9396430253982544,-0.07306501269340515
1788674699953409000,18.857408935546875,1.0115060806274414,-1.632367730140686,-0.17664161324501038
1788674699969308700,18.87330859375,1.6554651260375977,-2.0573043823242188,-0.8186231255531311
1788674699985177900,18.889177734375,1.5720272064208984,-2.2651379108428955,-1.246034860610962
1788674700001047000,18.905047119140626,0.7126579284667969,-2.228318214416504,-1.0090078115463257
1788674700016885500,18.920885498046875,-0.4902210235595703,-1.8356659412384033,-0.6704648733139038
1788674700032785200,18.93678515625,-1.4631977081298828,-1.3538579940795898,-0.402907133102417
1788674700056558300,18.960558349609375,-1.5683307647705078,-1.1473612785339355,-0.1350780427455902
1788674700072458000,18.9764580078125,-1.350595474243164,-1.2814600467681885,-0.05049814283847809
1788674700088357600,18.992357666015625,-1.118910789489746,-1.0751404762268066,-0.15104669332504272
1788674700104196400,19.0081962890625,-1.3365163803100586,-0.798001766204834,-0.036682918667793274
1788674700120065500,19.0240654296875,-1.9586281776428223,-0.510635256767273,0.11953791975975037
1788674700135934700,19.039934814453126,-2.5015616416931152,-0.21454906463623047,0.2960563898086548
1788674700151803600,19.0558037109375,-2.741755485534668,-0.2010871171951294,0.5059528350830078
1788674700167703300,19.071703369140625,-2.3900256156921387,-0.14442121982574463,0.31207743287086487
1788674700183603200,19.087603271484376,-1.7190847396850586,0.19361460208892822,-0.03967279940843582
1788674700199472000,19.10347216796875,-1.3587961196899414,0.44646692276000977,-0.33140328526496887
1788674700215341300,19.11934130859375,-1.1626157760620117,0.4450347423553467,-0.2584227919578552
1788674700231271400,19.135271484375,-0.8536081314086914,0.4391745328903198,0.027318086475133896
1788674700247140600,19.151140625,-0.4511528015136719,0.22074007987976074,0.16735950112342834
1788674700262979300,19.166979248046875,0.2435159683227539,-0.04720103740692139,-0.07601946592330933
1788674700278848500,19.1828486328125,0.9657859802246094,-0.08065378665924072,-0.19278815388679504
1788674700294717700,19.1987177734375,1.2214107513427734,-0.1326005458831787,-0.14131826162338257
1788674700310586600,19.214586669921875,1.266000747680664,-0.12015140056610107,-0.1758878231048584
1788674700326455800,19.230455810546875,1.3035507202148438,-0.21391046047210693,-0.2740558683872223
1788674700342325000,19.246324951171875,1.494842529296875,-0.38567984104156494,-0.08008377254009247
1788674700366159000,19.2701591796875,2.376129150390625,-0.7886379361152649,0.3725659251213074
1788674700381996300,19.285996337890627,2.944711685180664,-0.43305790424346924,0.21627143025398254
1788674700397896000,19.30189599609375,1.9257516860961914,0.09497618675231934,0.3806190490722656
1788674700413795600,19.317795654296877,0.0384368896484375,-0.03339433670043945,0.7816646695137024
1788674700429664800,19.333664794921877,-0.9987411499023438,-0.11301279067993164,1.0724830627441406
1788674700445564400,19.349564453125,-0.1418142318725586,-0.5220751762390137,1.2451610565185547
1788674700461433300,19.365433349609376,1.8896112442016602,-1.7771400213241577,1.1680834293365479
1788674700477302500,19.381302490234376,4.513505935668945,-2.6659841537475586,0.5947132110595703
1788674700493171700,19.397171630859376,6.0841169357299805,-2.7785446643829346,0.5893220901489258
1788674700509071400,19.4130712890625,4.345763206481934,-2.7607429027557373,0.9071955680847168
1788674700524910000,19.42891015625,0.9599285125732422,-2.6895265579223633,1.0504281520843506
1788674700540840200,19.444840087890626,-1.9123773574829102,-2.2747092247009277,1.1583654880523682
1788674700556709400,19.46070947265625,-3.4768266677856445,-1.6356439590454102,1.0475350618362427
1788674700572578600,19.47657861328125,-3.6204028129577637,-1.1232460737228394,0.9295660257339478
1788674700596443100,19.500443115234376,-2.352902889251709,-0.981909990310669,0.5316910743713379
1788674700612342800,19.5163427734375,-1.3904180526733398,-1.1969263553619385,0.40579450130462646
1788674700628242400,19.532242431640626,-0.5154666900634766,-1.1063627004623413,0.20929574966430664
1788674700644081200,19.5480810546875,-0.23875141143798828,-0.9452713131904602,-0.08164721727371216
1788674700659950300,19.563950439453127,-0.5303840637207031,-0.6437185406684875,-0.08558320999145508
1788674700675789000,19.5797890625,-1.1714658737182617,-0.3821180462837219,0.2788821756839752
1788674700691688700,19.595688720703127,-2.032291889190674,-0.27332013845443726,0.3586333990097046
1788674700707588400,19.61158837890625,-2.422712802886963,-0.13655579090118408,0.42327168583869934
1788674700723488000,19.627488037109377,-2.253636360168457,0.16659438610076904,0.33492791652679443
1788674700739357000,19.64335693359375,-1.6545143127441406,0.4528290033340454,0.24083739519119263
1788674700755226000,19.65922607421875,-1.0748653411865234,0.5790191888809204,0.021633505821228027
1788674700771125800,19.675125732421876,-0.9402084350585938,0.6741936206817627,0.1736997365951538
1788674700787025400,19.691025390625,-0.973362922668457,0.5256842374801636,0.21231213212013245
1788674700802894600,19.70689453125,-0.4546957015991211,0.2846870422363281,0.009680390357971191
1788674700826729000,19.73072900390625,1.312911033630371,0.19409716129302979,-0.006601512432098389
1788674700842628600,19.746628662109377,2.0928449630737305,0.18483030796051025,0.02829378843307495
1788674700858497800,19.762497802734377,1.9278202056884766,0.06269288063049316,0.12203976511955261
1788674700874397400,19.7783974609375,1.5253076553344727,-0.12721377611160278,0.26308542490005493
1788674700890327600,19.79432763671875,1.6495180130004883,-0.2508293390274048,0.4388391971588135
1788674700906227200,19.810227294921877,2.483565330505371,-0.377876877784729,0.3148668706417084
1788674700922126800,19.826126953125,3.2746543884277344,-0.42548173666000366,0.25527891516685486
1788674700937996000,19.84199609375,3.268857002258301,-0.33956390619277954,0.30746403336524963
1788674700953865200,19.857865234375,2.213606834411621,-0.4579828381538391,0.21104243397712708
1788674700969764900,19.873764892578127,1.3518543243408203,-0.5104874968528748,0.23269598186016083
1788674700985633800,19.8896337890625,1.0782899856567383,-0.3726339340209961,0.09649187326431274
1788674701001533400,19.905533447265626,1.2199115753173828,-0.7926428318023682,-0.14093554019927979
1788674701017402600,19.921402587890626,1.6103124618530273,-1.4557713270187378,0.14184002578258514
1788674701033302300,19.93730224609375,1.755335807800293,-1.9576380252838135,0.05636981129646301
1788674701049171500,19.95317138671875,1.4923820495605469,-2.182446002960205,-0.38925081491470337
1788674701065101600,19.9691015625,0.3988609313964844,-2.1297783851623535,-0.7087880969047546
1788674701081001200,19.985001220703126,-0.6180944442749023,-1.9538406133651733,-0.6644290685653687
1788674701096870400,20.000870361328126,-0.9829092025756836,-1.646510124206543,-0.3188374638557434
1788674701120643600,20.0246435546875,-0.9253816604614258,-1.2441356182098389,-0.1672183722257614
1788674701144478000,20.04847802734375,-0.9783782958984375,-1.2785289287567139,-0.11443391442298889
1788674701160377600,20.064377685546877,-1.2778968811035156,-1.2424412965774536,-0.162335604429245
1788674701176216000,20.080216064453126,-1.4632186889648438,-1.1555365324020386,-0.06368237733840942
1788674701192054800,20.0960546875,-1.4965829849243164,-0.839298665523529,0.25535348057746887
1788674701207924000,20.111924072265627,-1.8478965759277344,-0.46965140104293823,0.16977106034755707
1788674701223762700,20.1277626953125,-2.182642936706543,-0.2806691527366638,0.061705589294433594
1788674701239662300,20.143662353515627,-2.3534860610961914,-0.10578489303588867,-0.10113562643527985
1788674701255562000,20.15956201171875,-1.7308769226074219,-0.06541943550109863,-0.15460459887981415
1788674701271400400,20.175400390625,-0.976038932800293,0.03182637691497803,-0.14811097085475922
1788674701287239200,20.1912392578125,-0.5421209335327148,0.3118784427642822,0.06850309669971466
1788674701303138800,20.207138916015627,-0.9165534973144531,0.4758397340774536,0.16190634667873383
1788674701319038500,20.22303857421875,-1.7081756591796875,0.48607003688812256,0.2133028358221054
1788674701334877200,20.238877197265627,-1.9261174201965332,0.477868914604187,0.07123257219791412
1788674701350746000,20.25474609375,-1.1121206283569336,0.35931670665740967,-0.13625827431678772
1788674701366615300,20.270615234375,0.1025075912475586,0.29277467727661133,-0.4541351795196533
1788674701382515000,20.286514892578126,1.0658512115478516,0.3526327610015869,-0.5664106607437134
1788674701406318600,20.310318603515626,1.7424383163452148,0.09227824211120605,-0.4170357882976532
1788674701422187800,20.326187744140626,1.9175901412963867,-0.17779695987701416,-0.21514549851417542
1788674701438057000,20.342056884765626,2.221416473388672,-0.6319338083267212,-0.03994789719581604
1788674701453926100,20.357926025390626,2.817458152770996,-0.7108504176139832,-0.07640540599822998
1788674701469825800,20.37382568359375,3.160691261291504,-0.2295893430709839,-0.18635112047195435
1788674701485786400,20.389786376953126,2.408191680908203,-0.22211718559265137,0.2768300771713257
