time,seconds_elapsed,z,y,x
1788676367476476400,0.241476318359375,9.78020191192627,0.5360949039459229,-0.4802578091621399
1788676367492391400,0.257391357421875,9.779695510864258,0.5357049703598022,-0.4908749759197235
1788676367508321500,0.273321533203125,9.779346466064453,0.534117579460144,-0.49948829412460327
1788676367524190700,0.289190673828125,9.779168128967285,0.5320573449134827,-0.5051526427268982
1788676367540060000,0.305059814453125,9.778997421264648,0.5306456685066223,-0.5099234580993652
1788676367555929000,0.32092919921875,9.77881145477295,0.5362260937690735,-0.5076409578323364
1788676367571828700,0.336828857421875,9.778650283813477,0.5561606287956238,-0.48895353078842163
1788676367587758800,0.3527587890625,9.778388977050781,0.5915361642837524,-0.4512014389038086
1788676367603628000,0.3686279296875,9.777660369873047,0.6343932151794434,-0.4065406918525696
1788676367619527700,0.384527587890625,9.776555061340332,0.6723724007606506,-0.3704969882965088
1788676367635427300,0.40042724609375,9.774870872497559,0.6960197687149048,-0.3712739944458008
1788676367651327000,0.416326904296875,9.773347854614258,0.7108150124549866,-0.38315993547439575
1788676367667257000,0.432257080078125,9.772360801696777,0.7206266522407532,-0.38992056250572205
1788676367683126300,0.448126220703125,9.772385597229004,0.7243324518203735,-0.38235461711883545
1788676367698995500,0.463995361328125,9.771648406982422,0.7343916296958923,-0.3820292353630066
1788676367714895000,0.47989501953125,9.769248008728027,0.7564356327056885,-0.3999743163585663
1788676367730794800,0.495794677734375,9.767871856689453,0.7738219499588013,-0.4003311097621918
1788676367754629000,0.519629150390625,9.767170906066895,0.7914256453514099,-0.3826231360435486
1788676367770528800,0.53552880859375,9.767370223999023,0.7957140207290649,-0.36838477849960327
1788676367786398000,0.55139794921875,9.767900466918945,0.7981650829315186,-0.3484805226325989
1788676367802267000,0.567266845703125,9.767341613769531,0.8081549406051636,-0.3410314917564392
1788676367818166500,0.58316650390625,9.766489028930664,0.8209013342857361,-0.3349575996398926
1788676367834035700,0.59903564453125,9.765503883361816,0.8360483050346375,-0.32608941197395325
1788676367849935400,0.614935302734375,9.764444351196289,0.854171633720398,-0.3104926347732544
1788676367865804500,0.630804443359375,9.762840270996094,0.8782917261123657,-0.29316508769989014
1788676367881673700,0.646673828125,9.76058578491211,0.907142698764801,-0.28008833527565
1788676367897573400,0.662573486328125,9.758079528808594,0.9360970854759216,-0.27201321721076965
1788676367913473000,0.67847314453125,9.755948066711426,0.96013343334198,-0.26457464694976807
1788676367929372700,0.69437255859375,9.75448226928711,0.975148618221283,-0.2637169361114502
1788676367945241900,0.710241943359375,9.7528076171875,0.9845561385154724,-0.28943631052970886
1788676367961141500,0.7261416015625,9.753512382507324,0.9971420168876648,-0.21234449744224548
1788676367977041200,0.742041259765625,9.752398490905762,1.0106571912765503,-0.19922621548175812
1788676367992910300,0.757910400390625,9.750407218933105,1.0311404466629028,-0.19155831634998322
1788676368008810000,0.77381005859375,9.747552871704102,1.0603686571121216,-0.17669932544231415
1788676368024679200,0.78967919921875,9.744529724121094,1.090372085571289,-0.160059854388237
1788676368040548000,0.805548095703125,9.742684364318848,1.1083850860595703,-0.14825116097927094
1788676368056386800,0.82138671875,9.742347717285156,1.1120589971542358,-0.14274007081985474
1788676368072256000,0.837256103515625,9.741778373718262,1.117465853691101,-0.13934794068336487
1788676368088094700,0.8530947265625,9.74084186553955,1.125760793685913,-0.1380268782377243
1788676368103963600,0.868963623046875,9.739914894104004,1.1336050033569336,-0.13922975957393646
1788676368119863300,0.88486328125,9.73924446105957,1.1393555402755737,-0.13921645283699036
1788676368135763000,0.900762939453125,9.738632202148438,1.1447962522506714,-0.13733845949172974
1788676368151662800,0.916662841796875,9.737610816955566,1.1541105508804321,-0.13172580301761627
1788676368167501300,0.932501220703125,9.736328125,1.1660517454147339,-0.12091533094644547
1788676368183370500,0.94837060546875,9.73513126373291,1.1772634983062744,-0.10797756165266037
1788676368199270100,0.964270263671875,9.734419822692871,1.184104323387146,-0.09671305865049362
1788676368215139300,0.980139404296875,9.734095573425293,1.1874269247055054,-0.08822780847549438
1788676368231039000,0.9960390625,9.733802795410156,1.1900051832199097,-0.08581987023353577
1788676368246908200,1.011908203125,9.733195304870605,1.1948026418685913,-0.08803721517324448
1788676368262838300,1.02783837890625,9.732166290283203,1.203263521194458,-0.0865352526307106
1788676368278738000,1.043738037109375,9.730863571166992,1.214198112487793,-0.07998674362897873
1788676368294637600,1.059637451171875,9.72923755645752,1.2275944948196411,-0.0730876699090004
1788676368310537200,1.075537109375,9.727546691894531,1.2409307956695557,-0.072914719581604
1788676368326436900,1.091436767578125,9.726449012756348,1.2491693496704102,-0.07837215065956116
1788676368342306000,1.10730615234375,9.725809097290039,1.2536758184432983,-0.08556099981069565
1788676368358175200,1.12317529296875,9.725186347961426,1.2580753564834595,-0.09153404831886292
1788676368374013700,1.139013671875,9.72421646118164,1.2652891874313354,-0.09508559852838516
1788676368389883000,1.1548828125,9.722989082336426,1.2746657133102417,-0.0954299196600914
1788676368405782500,1.170782470703125,9.721991539001465,1.2826491594314575,-0.08988083899021149
1788676368421713000,1.186712890625,9.721439361572266,1.2875232696533203,-0.07937456667423248
1788676368437581800,1.202581787109375,9.721108436584473,1.2906469106674194,-0.06820964813232422
1788676368453481500,1.2184814453125,9.720524787902832,1.295505404472351,-0.05885539948940277
1788676368469350700,1.2343505859375,9.719407081604004,1.304172396659851,-0.05150404945015907
1788676368485219800,1.2502197265625,9.71785831451416,1.3158581256866455,-0.04613828659057617
1788676368501089000,1.266089111328125,9.716163635253906,1.3285497426986694,-0.03876304626464844
1788676368516988700,1.28198876953125,9.714261054992676,1.3426092863082886,-0.030392179265618324
1788676368532888300,1.297888427734375,9.71201229095459,1.35896635055542,-0.020398974418640137
1788676368548788000,1.3137880859375,9.709944725036621,1.3737881183624268,-0.008579539135098457
1788676368564657200,1.3296572265625,9.70905876159668,1.380061149597168,0.0012708967551589012
1788676368580526300,1.3455263671875,9.709481239318848,1.3770698308944702,0.00532309478148818
1788676368596395300,1.361395263671875,9.710774421691895,1.367934226989746,0.0003196604084223509
1788676368612203500,1.37720361328125,9.712519645690918,1.3554641008377075,-0.007948949933052063
1788676368628072700,1.39307275390625,9.71351146697998,1.3482332229614258,-0.019064290449023247
1788676368643942000,1.40894189453125,9.712553977966309,1.3550620079040527,-0.02206679806113243
1788676368659810800,1.424810791015625,9.709811210632324,1.3746684789657593,-0.015437771566212177
1788676368675680000,1.440679931640625,9.707097053527832,1.3937889337539673,-0.003764028660953045
1788676368691518700,1.456518798828125,9.705734252929688,1.4032199382781982,0.009034954942762852
1788676368707357200,1.472357177734375,9.706398963928223,1.3985745906829834,0.013725451193749905
1788676368723257000,1.488257080078125,9.709003448486328,1.380422830581665,0.008383139967918396
1788676368739187200,1.504187255859375,9.711403846740723,1.3634601831436157,-0.0019479922484606504
1788676368755056400,1.520056396484375,9.712560653686523,1.355070948600769,-0.018208442255854607
1788676368770925300,1.53592529296875,9.712246894836426,1.3571157455444336,-0.029742630198597908
1788676368786825000,1.551824951171875,9.710433959960938,1.370095133781433,-0.026473544538021088
1788676368802724600,1.567724609375,9.707978248596191,1.3875812292099,-0.012932473793625832
1788676368818593800,1.58359375,9.706198692321777,1.4000160694122314,0.006663330364972353
1788676368834463000,1.599462890625,9.702896118164062,1.4222713708877563,0.03663213178515434
1788676368850332200,1.615332275390625,9.702510833740234,1.4243639707565308,0.05346482992172241
1788676368866201300,1.631201416015625,9.708830833435059,1.3810417652130127,0.0413808636367321
1788676368882101000,1.64710107421875,9.713682174682617,1.346803903579712,0.029546121135354042
1788676368898061600,1.6630615234375,9.7164945602417,1.3265244960784912,0.021321531385183334
1788676368913900300,1.678900390625,9.71735668182373,1.320119023323059,0.0257984958589077
1788676368929769500,1.69476953125,9.716910362243652,1.3231186866760254,0.03741294518113136
1788676368945638700,1.710638671875,9.716421127319336,1.3263111114501953,0.049487486481666565
1788676368961538300,1.726538330078125,9.716519355773926,1.3250764608383179,0.06174001470208168
1788676368977407200,1.7424072265625,9.717815399169922,1.3152567148208618,0.06750614196062088
1788676368993307100,1.75830712890625,9.720276832580566,1.2971259355545044,0.0637851133942604
1788676369009176000,1.774176025390625,9.722302436828613,1.2821017503738403,0.058649975806474686
1788676369025045200,1.790045166015625,9.720232963562012,1.2967116832733154,0.07745799422264099
1788676369040914400,1.80591455078125,9.717363357543945,1.3148499727249146,0.12007259577512741
1788676369056844500,1.821844482421875,9.713581085205078,1.34128999710083,0.13294509053230286
1788676369072683300,1.837683349609375,9.710487365722656,1.3623861074447632,0.14397527277469635
1788676369088552400,1.853552490234375,9.712848663330078,1.3488435745239258,0.10757339745759964
1788676369104452000,1.8694521484375,9.718504905700684,1.3115543127059937,0.02961334027349949
1788676369120351700,1.885351806640625,9.722984313964844,1.2777886390686035,-0.03471606969833374
1788676369136251400,1.90125146484375,9.727060317993164,1.2445952892303467,-0.07522117346525192
1788676369152151000,1.917151123046875,9.73072338104248,1.213537573814392,-0.1036812886595726
1788676369167989500,1.932989501953125,9.733908653259277,1.1843295097351074,-0.13699838519096375
1788676369183889400,1.948889404296875,9.735072135925293,1.1727139949798584,-0.15329934656620026
1788676369199758300,1.96475830078125,9.734302520751953,1.1795806884765625,-0.14946140348911285
1788676369215627500,1.98062744140625,9.733487129211426,1.186312198638916,-0.14929218590259552
1788676369231496700,1.99649658203125,9.732839584350586,1.1910594701766968,-0.15360873937606812
1788676369247366000,2.012365966796875,9.732505798339844,1.1930359601974487,-0.15930311381816864
1788676369263265500,2.028265625,9.731684684753418,1.200408697128296,-0.15401574969291687
1788676369279165200,2.044165283203125,9.729891777038574,1.2172001600265503,-0.1342378705739975
1788676369295125800,2.060125732421875,9.727174758911133,1.2413281202316284,-0.10756160318851471
1788676369310995000,2.075994873046875,9.7235746383667,1.2712002992630005,-0.08073701709508896
1788676369326894600,2.09189453125,9.719259262084961,1.305003046989441,-0.0579795315861702
1788676369342794200,2.107794189453125,9.714712142944336,1.3390936851501465,-0.03983772546052933
1788676369358663400,2.123663330078125,9.71035385131836,1.370719313621521,-0.02320069633424282
1788676369374593500,2.139593505859375,9.706421852111816,1.398483395576477,-0.004016323015093803
1788676369390462700,2.155462646484375,9.703384399414062,1.419305682182312,0.01723470166325569
1788676369406332000,2.171331787109375,9.700911521911621,1.4356871843338013,0.03865421563386917
1788676369422201000,2.187201171875,9.6986665725708,1.4502170085906982,0.05583279952406883
1788676369438100700,2.203100830078125,9.696520805358887,1.464004635810852,0.0675981342792511
1788676369453970000,2.218969970703125,9.694814682006836,1.4747965335845947,0.07700805366039276
1788676369469869600,2.23486962890625,9.695152282714844,1.4718596935272217,0.08971475809812546
1788676369485738800,2.25073876953125,9.698585510253906,1.4493237733840942,0.08534187823534012
1788676369501638400,2.266638427734375,9.702496528625488,1.423089861869812,0.08229053020477295
1788676369517507300,2.28250732421875,9.706182479858398,1.3981246948242188,0.07519493997097015
1788676369533376500,2.29837646484375,9.707216262817383,1.3915698528289795,0.062252167612314224
1788676369549276200,2.314276123046875,9.707538604736328,1.3896958827972412,0.05320844426751137
1788676369565175800,2.33017578125,9.70697021484375,1.394102692604065,0.03996412828564644
1788676369581045000,2.346044921875,9.706408500671387,1.398302674293518,0.02762494422495365
1788676369596914200,2.3619140625,9.706313133239746,1.3991013765335083,0.01960267312824726
1788676369612783400,2.377783447265625,9.7070894241333,1.3937609195709229,0.015429331921041012
1788676369628713500,2.39371337890625,9.710084915161133,1.372789978981018,0.009491320699453354
1788676369644582700,2.409582763671875,9.712045669555664,1.3588781356811523,-0.0018707623239606619
1788676369660451800,2.425451904296875,9.712542533874512,1.3552567958831787,-0.013292466290295124
1788676369676351500,2.4413515625,9.71247673034668,1.3555629253387451,-0.02515040710568428
1788676369692281600,2.457281494140625,9.712815284729004,1.352841854095459,-0.03782466799020767
1788676369708150800,2.47315087890625,9.713552474975586,1.347210168838501,-0.04815886914730072
1788676369724020000,2.48902001953125,9.714141845703125,1.3427737951278687,-0.05282335355877876
1788676369739889200,2.50488916015625,9.71422004699707,1.3419791460037231,-0.058325715363025665
1788676369755758000,2.520758056640625,9.714216232299805,1.3417030572891235,-0.0650457814335823
1788676369771627300,2.536627197265625,9.714730262756348,1.33756685256958,-0.07294672727584839
1788676369787527000,2.55252685546875,9.715805053710938,1.3294293880462646,-0.0783301368355751
1788676369803426600,2.568426513671875,9.716787338256836,1.3219988346099854,-0.08222940564155579
1788676369819326200,2.584326171875,9.717612266540527,1.3156973123550415,-0.08568251132965088
1788676369835225900,2.600225830078125,9.718467712402344,1.309037685394287,-0.09053294360637665
1788676369851095000,2.616094970703125,9.719597816467285,1.3000755310058594,-0.09799685329198837
1788676369866994700,2.63199462890625,9.720595359802246,1.2918033599853516,-0.1079556792974472
1788676369882894300,2.647894287109375,9.721229553222656,1.2859978675842285,-0.11952084302902222
1788676369898794000,2.6637939453125,9.72174072265625,1.281217336654663,-0.12895064055919647
1788676369914693600,2.679693603515625,9.722596168518066,1.2743632793426514,-0.13227084279060364
1788676369930562800,2.695562744140625,9.723857879638672,1.2647590637207031,-0.1317683309316635
1788676369946462500,2.71146240234375,9.725433349609375,1.25278639793396,-0.129830464720726
1788676369962362000,2.727362060546875,9.727144241333008,1.239599347114563,-0.12824450433254242
1788676369978261800,2.74326171875,9.728861808776855,1.2261594533920288,-0.1271422803401947
1788676369994161400,2.759161376953125,9.729456901550293,1.2217544317245483,-0.12403251230716705
1788676370010091800,2.775091796875,9.727828025817871,1.2332583665847778,-0.1371762901544571
1788676370025960700,2.790960693359375,9.724634170532227,1.2564818859100342,-0.15210308134555817
1788676370041830000,2.806829833984375,9.721353530883789,1.2773723602294922,-0.18439236283302307
1788676370057729500,2.8227294921875,9.722126960754395,1.2638026475906372,-0.2311517745256424
1788676370073568300,2.838568359375,9.723889350891113,1.2388125658035278,-0.2858668863773346
1788676370089498400,2.854498291015625,9.726178169250488,1.2202227115631104,-0.2879455089569092
1788676370105367600,2.870367431640625,9.728249549865723,1.2116615772247314,-0.25183579325675964
1788676370121236700,2.88623681640625,9.729859352111816,1.20829439163208,-0.20062702894210815
1788676370137106000,2.90210595703125,9.729721069335938,1.2191828489303589,-0.12846513092517853
1788676370152975000,2.91797509765625,9.730104446411133,1.220702052116394,-0.07311835885047913
1788676370168844000,2.933843994140625,9.732328414916992,1.2039251327514648,-0.05230871960520744
1788676370184713200,2.949713134765625,9.735897064208984,1.1738101243972778,-0.06977321207523346
1788676370200612900,2.96561279296875,9.740063667297363,1.1366246938705444,-0.09811393916606903
1788676370216512500,2.981512451171875,9.74398136138916,1.0999675989151,-0.12361574918031693
1788676370232381700,2.997381591796875,9.744735717773438,1.0895910263061523,-0.1526574343442917
1788676370248311800,3.013311767578125,9.742586135864258,1.1059083938598633,-0.17137235403060913
1788676370264181000,3.029180908203125,9.739808082580566,1.1253557205200195,-0.20027264952659607
1788676370280050200,3.04505029296875,9.738398551940918,1.1334376335144043,-0.22203181684017181
1788676370295919400,3.06091943359375,9.739459037780762,1.1224228143692017,-0.23127704858779907
1788676370311849500,3.076849365234375,9.742897033691406,1.0930945873260498,-0.22692883014678955
1788676370327718700,3.09271875,9.747712135314941,1.0522894859313965,-0.21254104375839233
1788676370343618300,3.108618408203125,9.752695083618164,1.0073024034500122,-0.20167595148086548
1788676370359487500,3.124487548828125,9.756508827209473,0.9681693315505981,-0.20875951647758484
1788676370375387100,3.14038720703125,9.758435249328613,0.9431589841842651,-0.23191329836845398
1788676370391286800,3.156286865234375,9.758563995361328,0.9336273670196533,-0.26299282908439636
1788676370407217000,3.172216796875,9.7575044631958,0.9368530511856079,-0.28946420550346375
1788676370423086000,3.188086181640625,9.755755424499512,0.9492849111557007,-0.307383269071579
1788676370438955300,3.203955322265625,9.753765106201172,0.9652182459831238,-0.3206307291984558
1788676370454824400,3.219824462890625,9.751916885375977,0.9771310687065125,-0.340179979801178
1788676370470724000,3.23572412109375,9.759626388549805,0.9021217226982117,-0.32596465945243835
1788676370486593000,3.251593017578125,9.761383056640625,0.8788948655128479,-0.3366435170173645
1788676370502462200,3.267462158203125,9.761550903320312,0.8700175285339355,-0.3543855547904968
1788676370518331400,3.283331298828125,9.761311531066895,0.8678722977638245,-0.3660372495651245
1788676370534261500,3.299261474609375,9.761043548583984,0.8705378174781799,-0.36683011054992676
1788676370550100200,3.315100341796875,9.760661125183105,0.8743980526924133,-0.367836058139801
1788676370566030300,3.3310302734375,9.759892463684082,0.8823801279067993,-0.3691742420196533
1788676370581930000,3.346929931640625,9.759214401245117,0.889031708240509,-0.37114381790161133
1788676370597768700,3.362768798828125,9.7588529586792,0.8919788002967834,-0.3735620677471161
1788676370613638000,3.378637939453125,9.758599281311035,0.8936527371406555,-0.3761860430240631
1788676370629507000,3.394507080078125,9.758336067199707,0.8951410055160522,-0.3794492185115814
1788676370645376000,3.4103759765625,9.75790023803711,0.8997953534126282,-0.37965670228004456
1788676370661245200,3.4262451171875,9.757430076599121,0.9085314273834229,-0.3708418309688568
1788676370677114400,3.4421142578125,9.75731086730957,0.9150299429893494,-0.3577535152435303
1788676370692983600,3.457983642578125,9.757771492004395,0.9144982695579529,-0.3463650941848755
1788676370708883200,3.47388330078125,9.758682250976562,0.9070194363594055,-0.34032881259918213
1788676370724752400,3.48975244140625,9.759516716003418,0.8988177180290222,-0.3381521701812744
1788676370740621600,3.50562158203125,9.75996208190918,0.8949113488197327,-0.3356504440307617
1788676370756429600,3.5214296875,9.760066986083984,0.8963508605957031,-0.3286825716495514
1788676370772298800,3.537298828125,9.75993824005127,0.9014266729354858,-0.3184565305709839
1788676370788198400,3.553198486328125,9.760024070739746,0.9032633900642395,-0.3105478882789612
1788676370804128500,3.56912841796875,9.760672569274902,0.8980693817138672,-0.30517351627349854
1788676370819997700,3.584997802734375,9.76213550567627,0.8853147625923157,-0.2954844534397125
1788676370835897300,3.6008974609375,9.763888359069824,0.8688150644302368,-0.28641605377197266
1788676370851766500,3.6167666015625,9.765114784240723,0.8551744818687439,-0.2856421172618866
1788676370867666200,3.632666259765625,9.7651948928833,0.8525215983390808,-0.2907976806163788
1788676370883535400,3.648535400390625,9.764110565185547,0.8632720708847046,-0.29544442892074585
1788676370899435000,3.66443505859375,9.762950897216797,0.8758009076118469,-0.2968897819519043
1788676370915273500,3.6802734375,9.762836456298828,0.87599116563797,-0.3000819683074951
1788676370931142700,3.696142578125,9.764164924621582,0.860437273979187,-0.30185943841934204
1788676370947042300,3.712042236328125,9.767041206359863,0.8291025161743164,-0.2964514195919037
1788676370962911500,3.727911376953125,9.769853591918945,0.7980368733406067,-0.2889285385608673
1788676370978780700,3.74378076171875,9.771001815795898,0.7834954261779785,-0.2899113893508911
1788676370994588700,3.759588623046875,9.770355224609375,0.7858828902244568,-0.30482909083366394
1788676371010488300,3.77548828125,9.768913269042969,0.7964419722557068,-0.32310304045677185
1788676371026388000,3.791387939453125,9.768184661865234,0.8007797598838806,-0.33423852920532227
1788676371042287600,3.80728759765625,9.765471458435059,0.8285430669784546,-0.3456591069698334
1788676371058126300,3.823126220703125,9.762012481689453,0.8633208870887756,-0.3580218255519867
1788676371073995500,3.83899560546875,9.75794792175293,0.9019495844841003,-0.3732680082321167
1788676371089864700,3.85486474609375,9.753116607666016,0.945942223072052,-0.39025816321372986
1788676371105734000,3.87073388671875,9.747749328613281,0.9951646327972412,-0.4017725884914398
1788676371121602800,3.886602783203125,9.74130630493164,1.0551337003707886,-0.4050113558769226
1788676371137502500,3.90250244140625,9.740379333496094,1.0672117471694946,-0.395540714263916
1788676371153402000,3.918402099609375,9.738329887390137,1.090548038482666,-0.3821346163749695
1788676371169332500,3.93433251953125,9.735288619995117,1.1230120658874512,-0.36522147059440613
1788676371185171000,3.9501708984375,9.731307983398438,1.1608020067214966,-0.35294583439826965
1788676371201101300,3.966101318359375,9.726401329040527,1.202390432357788,-0.3489258289337158
1788676371216970200,3.98197021484375,9.721807479858398,1.2397428750991821,-0.3462304472923279
1788676371232870000,3.997869873046875,9.718549728393555,1.2661936283111572,-0.34197619557380676
1788676371248739000,4.013739013671875,9.7171630859375,1.2787361145019531,-0.33460938930511475
1788676371264638700,4.029638671875,9.719220161437988,1.2634538412094116,-0.3329096734523773
1788676371280538400,4.045538330078125,9.724607467651367,1.2169063091278076,-0.34862589836120605
1788676371296377000,4.061377197265625,9.730341911315918,1.161341905593872,-0.3769800066947937
1788676371312276700,4.07727685546875,9.735677719116211,1.1037614345550537,-0.41070860624313354
1788676371328176400,4.09317626953125,9.73951244354248,1.0587162971496582,-0.4374981224536896
1788676371344045600,4.109045654296875,9.739450454711914,1.0545188188552856,-0.44885867834091187
1788676371359914800,4.124914794921875,9.734045028686523,1.0983760356903076,-0.46079301834106445
1788676371375814400,4.140814453125,9.722914695739746,1.185986876487732,-0.4782710075378418
1788676371391744500,4.15674462890625,9.71044921875,1.279299259185791,-0.490874320268631
1788676371407644200,4.17264404296875,9.70191764831543,1.3422354459762573,-0.49151337146759033
1788676371423513300,4.188513427734375,9.700797080993652,1.3542104959487915,-0.480679988861084
1788676371439413000,4.2044130859375,9.70657730102539,1.3187922239303589,-0.4621085524559021
1788676371455312600,4.220312744140625,9.716367721557617,1.2527107000350952,-0.4396688640117645
1788676371471242800,4.23624267578125,9.727374076843262,1.1716657876968384,-0.4192684292793274
1788676371487112000,4.25211181640625,9.737691879272461,1.0868691205978394,-0.4079853594303131
1788676371503011600,4.268011474609375,9.746633529663086,1.0034422874450684,-0.4081827402114868
1788676371518880800,4.283880859375,9.753324508666992,0.929494321346283,-0.4231942892074585
1788676371534750000,4.29975,9.756324768066406,0.8853027820587158,-0.4480573832988739
1788676371550649600,4.315649658203125,9.755109786987305,0.8897124528884888,-0.46544280648231506
1788676371566549200,4.33154931640625,9.750372886657715,0.9381362199783325,-0.46959394216537476
1788676371582449000,4.347448974609375,9.743956565856934,1.0051707029342651,-0.4640265107154846
1788676371598318000,4.363318115234375,9.73728084564209,1.0720635652542114,-0.4543357789516449
1788676371614156500,4.379156494140625,9.732224464416504,1.1197787523269653,-0.44753965735435486
1788676371629995300,4.394995361328125,9.72953987121582,1.1432039737701416,-0.4466780126094818
1788676371645895000,4.41089501953125,9.728408813476562,1.1509603261947632,-0.4513739347457886
1788676371661764000,4.42676416015625,9.727516174316406,1.1565344333648682,-0.4563439190387726
1788676371677633300,4.44263330078125,9.726585388183594,1.162559151649475,-0.46083247661590576
1788676371693502200,4.458502197265625,9.700900077819824,1.3839746713638306,-0.3840969502925873
1788676371709341000,4.4743408203125,9.641762733459473,1.7773182392120361,-0.2189253717660904
1788676371725210000,4.490210205078125,9.583548545837402,2.07855224609375,-0.0748782753944397
1788676371741109800,4.50610986328125,9.568559646606445,2.147630453109741,-0.027112390846014023
1788676371757070300,4.5220703125,9.573094367980957,2.127446413040161,-0.015289120376110077
1788676371772939500,4.537939453125,9.583104133605957,2.081909418106079,0.012326909229159355
1788676371788808700,4.55380859375,9.590641021728516,2.0468029975891113,0.024169176816940308
1788676371804678000,4.569677978515625,9.589269638061523,2.0532939434051514,0.016976051032543182
1788676371820577500,4.58557763671875,9.584054946899414,2.077564001083374,0.002469751052558422
1788676371836446700,4.60144677734375,9.575241088867188,2.117738723754883,-0.017976241186261177
1788676371852346400,4.617346435546875,9.56521987915039,2.162274122238159,-0.03906966373324394
1788676371868246000,4.63324609375,9.557039260864258,2.1976819038391113,-0.05989471822977066
1788676371884115200,4.649115234375,9.590951919555664,2.042072296142578,-0.11820567399263382
1788676371899984400,4.664984375,9.612564086914062,1.936536431312561,-0.1372029185295105
1788676371915822800,4.68082275390625,9.619441986083984,1.904456615447998,-0.0988365188241005
1788676371931600400,4.696600341796875,9.630758285522461,1.8486334085464478,-0.03793561831116676
1788676371947500000,4.7125,9.642194747924805,1.788162112236023,0.030797069892287254
1788676371963369200,4.728369140625,9.649190902709961,1.747704267501831,0.09506525099277496
1788676371979238400,4.74423828125,9.647491455078125,1.7540614604949951,0.13987235724925995
1788676371995138000,4.760137939453125,9.636009216308594,1.8137065172195435,0.167867973446846
1788676372011037700,4.77603759765625,9.618326187133789,1.9023041725158691,0.19857552647590637
1788676372026967800,4.7919677734375,9.599803924560547,1.988784670829773,0.24268290400505066
1788676372042806500,4.807806640625,9.588335037231445,2.0370185375213623,0.2911492586135864
1788676372058675700,4.82367578125,9.583657264709473,2.0512211322784424,0.3411595821380615
1788676372074545000,4.839544921875,9.585183143615723,2.0351483821868896,0.39091962575912476
1788676372090413800,4.855413818359375,9.591795921325684,1.9955470561981201,0.43085548281669617
1788676372106283000,4.871282958984375,9.602450370788574,1.9408254623413086,0.4433114230632782
1788676372122182700,4.8871826171875,9.613993644714355,1.884879469871521,0.43444114923477173
1788676372138051800,4.9030517578125,9.62354850769043,1.839630126953125,0.41648435592651367
1788676372153921000,4.918921142578125,9.62929630279541,1.812997817993164,0.40009984374046326
1788676372169820700,4.934820556640625,9.630949020385742,1.8064090013504028,0.3899972438812256
1788676372185720300,4.95072021484375,9.631036758422852,1.8055193424224854,0.39194968342781067
1788676372201589500,4.966589599609375,9.63164234161377,1.79939866065979,0.40500038862228394
1788676372217458700,4.982458740234375,9.635887145996094,1.776723027229309,0.40412259101867676
1788676372233297200,4.998297119140625,9.642013549804688,1.747663140296936,0.38425132632255554
1788676372249196800,5.01419677734375,9.641324996948242,1.7493997812271118,0.39348018169403076
1788676372265096400,5.030096435546875,9.639612197875977,1.7539359331130981,0.4146867096424103
1788676372280965600,5.045965576171875,9.641160011291504,1.7410428524017334,0.43265464901924133
1788676372296834800,5.061834716796875,9.646395683288574,1.708531379699707,0.44536250829696655
1788676372312704000,5.0777041015625,9.652467727661133,1.6700453758239746,0.4595595598220825
1788676372328603600,5.093603759765625,9.656500816345215,1.6433582305908203,0.4709016978740692
1788676372344503300,5.10950341796875,9.659286499023438,1.6597341299057007,0.3374212682247162
1788676372360403000,5.12540283203125,9.655098915100098,1.7146981954574585,0.0962514653801918
1788676372376302600,5.141302490234375,9.650081634521484,1.7453678846359253,-0.0006079758168198168
1788676372392171800,5.157171875,9.647682189941406,1.7585184574127197,-0.015283201821148396
1788676372408041000,5.173041015625,9.643339157104492,1.7805668115615845,-0.07731018215417862
1788676372423910100,5.18891015625,9.641071319580078,1.7910369634628296,-0.11100896447896957
1788676372439779000,5.204779052734375,9.644209861755371,1.7739439010620117,-0.11284604668617249
1788676372455648300,5.220648193359375,9.651859283447266,1.7321546077728271,-0.10783800482749939
1788676372471517400,5.236517333984375,9.65642261505127,1.706583857536316,-0.10706132650375366
1788676372487386600,5.25238671875,9.658072471618652,1.695867657661438,-0.12666933238506317
1788676372503255800,5.268255859375,9.653979301452637,1.7149115800857544,-0.17367587983608246
1788676372519125000,5.284125,9.645414352416992,1.7570009231567383,-0.22207236289978027
1788676372535024600,5.300024658203125,9.635583877563477,1.8058146238327026,-0.25483715534210205
1788676372550893600,5.3158935546875,9.628366470336914,1.8397294282913208,-0.28342950344085693
1788676372566732300,5.331732177734375,9.628389358520508,1.8350253105163574,-0.31175777316093445
1788676372582601500,5.3476015625,9.636577606201172,1.7857545614242554,-0.343287855386734
1788676372598501000,5.363501220703125,9.647489547729492,1.7154351472854614,-0.39192649722099304
1788676372614370300,5.379370361328125,9.652253150939941,1.6734188795089722,-0.4517355263233185
1788676372630270000,5.39527001953125,9.646878242492676,1.6902998685836792,-0.501002311706543
1788676372646139100,5.41113916015625,9.634325981140137,1.7505824565887451,-0.534430980682373
1788676372662008000,5.427008056640625,9.6178560256958,1.82747220993042,-0.5723395347595215
1788676372677877200,5.442877197265625,9.602726936340332,1.8923635482788086,-0.6139946579933167
1788676372693716000,5.458716064453125,9.594894409179688,1.9206651449203491,-0.6476433873176575
1788676372709585200,5.474585205078125,9.590646743774414,1.930466890335083,-0.6805773973464966
1788676372725415400,5.49041552734375,9.590400695800781,1.9177733659744263,-0.7188477516174316
1788676372741284600,5.50628466796875,9.596705436706543,1.8738840818405151,-0.7497957348823547
1788676372757214700,5.522214599609375,9.607625961303711,1.8119429349899292,-0.7620862126350403
1788676372773084000,5.538083984375,9.619500160217285,1.7481235265731812,-0.761358380317688
1788676372788983600,5.553983642578125,9.628097534179688,1.7057671546936035,-0.7486535310745239
1788676372804883200,5.56988330078125,9.628612518310547,1.708634614944458,-0.7353741526603699
1788676372820752400,5.58575244140625,9.620684623718262,1.7536410093307495,-0.733187735080719
1788676372836621600,5.60162158203125,9.610685348510742,1.808987021446228,-0.7298401594161987
1788676372852521200,5.617521240234375,9.603813171386719,1.8494668006896973,-0.7187759280204773
1788676372868360000,5.63335986328125,9.603790283203125,1.8558464050292969,-0.7024486660957336
1788676372884290000,5.6492900390625,9.609891891479492,1.830859661102295,-0.6843418478965759
1788676372900189700,5.665189697265625,9.62020206451416,1.781779408454895,-0.6688578724861145
1788676372916059000,5.681058837890625,9.630562782287598,1.7262866497039795,-0.6652664542198181
1788676372931928000,5.696927978515625,9.637311935424805,1.6831743717193604,-0.6778855919837952
1788676372947827700,5.71282763671875,9.640763282775879,1.6574759483337402,-0.6919863224029541
1788676372963727400,5.728727294921875,9.640897750854492,1.6765435934066772,-0.6424087285995483
1788676372979596300,5.74459619140625,9.641279220581055,1.6976765394210815,-0.5779442191123962
1788676372995465500,5.760465576171875,9.644325256347656,1.7146669626235962,-0.46616414189338684
1788676373011304200,5.77630419921875,9.652268409729004,1.7013907432556152,-0.33072391152381897
1788676373027173400,5.79217333984375,9.66130542755127,1.6570087671279907,-0.2896314859390259
1788676373043042600,5.80804248046875,9.668242454528809,1.6187137365341187,-0.27430590987205505
1788676373058911500,5.823911376953125,9.668806076049805,1.6147315502166748,-0.27785199880599976
1788676373074811100,5.83981103515625,9.666481971740723,1.6274536848068237,-0.28442591428756714
1788676373090711000,5.8557109375,9.66055679321289,1.6613147258758545,-0.28993311524391174
1788676373106610700,5.871610595703125,9.652667999267578,1.7068833112716675,-0.2879953980445862
1788676373122510300,5.88751025390625,9.645952224731445,1.7456516027450562,-0.28052952885627747
1788676373138410000,5.903409912109375,9.64533805847168,1.749958872795105,-0.27474716305732727
1788676373154340000,5.919340087890625,9.654780387878418,1.6976474523544312,-0.27130556106567383
1788676373170178600,5.935178466796875,9.67042064666748,1.6077051162719727,-0.2619919180870056
1788676373186047700,5.9510478515625,9.684663772583008,1.5229328870773315,-0.24158348143100739
1788676373201917000,5.9669169921875,9.690053939819336,1.4923075437545776,-0.2150718718767166
1788676373217786000,5.9827861328125,9.683016777038574,1.5403211116790771,-0.19230152666568756
1788676373233655300,5.9986552734375,9.665985107421875,1.6466519832611084,-0.16630330681800842
1788676373249555000,6.014554931640625,9.648058891296387,1.7515220642089844,-0.1323452591896057
1788676373265454600,6.03045458984375,9.637770652770996,1.809738278388977,-0.09282185882329941
1788676373281323800,6.04632373046875,9.639698028564453,1.8010916709899902,-0.05183620750904083
1788676373297223400,6.062223388671875,9.64854621887207,1.7538379430770874,-0.0003881955926772207
1788676373313092600,6.078092529296875,9.661266326904297,1.6817981004714966,0.043330900371074677
1788676373328961500,6.09396142578125,9.674158096313477,1.60529625415802,0.06384966522455215
1788676373344861200,6.109861083984375,9.685323715209961,1.5367156267166138,0.05833375081419945
1788676373360761000,6.125760986328125,9.692715644836426,1.490145206451416,0.03338197246193886
1788676373376660700,6.14166064453125,9.696141242980957,1.4680532217025757,0.006727664265781641
1788676373392590800,6.1575908203125,9.69638442993164,1.4663795232772827,-0.01583849824965
1788676373408460000,6.1734599609375,9.694550514221191,1.4782439470291138,-0.029517589136958122
1788676373424390100,6.18939013671875,9.691603660583496,1.4973385334014893,-0.034217216074466705
1788676373440259300,6.20525927734375,9.688020706176758,1.5202841758728027,-0.03703903406858444
1788676373456128500,6.22112841796875,9.68341064453125,1.549310564994812,-0.03986632823944092
1788676373472028200,6.237028076171875,9.678436279296875,1.5802416801452637,-0.033041927963495255
1788676373487927800,6.252927734375,9.674376487731934,1.6051883697509766,-0.014123071916401386
1788676373503858000,6.26885791015625,9.673042297363281,1.6132535934448242,0.007429054006934166
1788676373519696400,6.2846962890625,9.675398826599121,1.5989418029785156,0.020930852741003036
1788676373535565600,6.300565673828125,9.68050765991211,1.5676170587539673,0.026840953156352043
1788676373551465200,6.31646533203125,9.686539649963379,1.5299793481826782,0.022450463846325874
1788676373567304000,6.332303955078125,9.691287994384766,1.4997612237930298,0.006249781232327223
1788676373583203600,6.34820361328125,9.692606925964355,1.4910931587219238,-0.020079057663679123
1788676373599072800,6.36407275390625,9.690281867980957,1.505528450012207,-0.047130145132541656
1788676373614972400,6.379972412109375,9.686328887939453,1.5295342206954956,-0.07710662484169006
1788676373630841600,6.395841552734375,9.681729316711426,1.5562447309494019,-0.11229677498340607
1788676373646741200,6.4117412109375,9.675620079040527,1.5903875827789307,-0.15307952463626862
1788676373662671400,6.42767138671875,9.665942192077637,1.6430453062057495,-0.20088742673397064
1788676373678540500,6.44354052734375,9.654895782470703,1.7013286352157593,-0.2426196187734604
1788676373694409700,6.45940966796875,9.648571014404297,1.7322670221328735,-0.2733493149280548
1788676373710278700,6.475278564453125,9.652947425842285,1.7042750120162964,-0.29399895668029785
1788676373726117400,6.491117431640625,9.670063972473145,1.6019084453582764,-0.3068189322948456
1788676373742017000,6.50701708984375,9.689231872558594,1.4769248962402344,-0.32843005657196045
1788676373757886200,6.52288623046875,9.70162582397461,1.3840852975845337,-0.3648913502693176
1788676373773785900,6.538785888671875,9.701156616210938,1.3801602125167847,-0.3912924826145172
1788676373789685500,6.554685546875,9.688128471374512,1.4699525833129883,-0.3870311677455902
1788676373805554700,6.5705546875,9.668272972106934,1.601080060005188,-0.3625330626964569
1788676373821454300,6.586454345703125,9.649022102355957,1.7158143520355225,-0.350333571434021
1788676373837323500,6.602323486328125,9.637603759765625,1.7757906913757324,-0.3654382824897766
1788676373853192700,6.618192626953125,9.638005256652832,1.7672415971755981,-0.395077109336853
1788676373869061600,6.6340615234375,9.646393775939941,1.7161535024642944,-0.41507360339164734
1788676373884961300,6.649961181640625,9.659634590148926,1.6406469345092773,-0.4124484360218048
1788676373900861200,6.665861083984375,9.673267364501953,1.5637242794036865,-0.39121079444885254
1788676373916730000,6.681730224609375,9.684584617614746,1.4998013973236084,-0.36028873920440674
1788676373932629800,6.697629638671875,9.690406799316406,1.4660853147506714,-0.3420516848564148
1788676373948499000,6.7134990234375,9.69076919555664,1.4619163274765015,-0.349541038274765
1788676373964368100,6.7293681640625,9.687583923339844,1.4801859855651855,-0.3607562184333801
1788676373980237300,6.7452373046875,9.6834135055542,1.5069634914398193,-0.36188411712646484
1788676373996167400,6.76116748046875,9.680455207824707,1.5266072750091553,-0.3586815893650055
1788676374012036600,6.77703662109375,9.679574966430664,1.5337004661560059,-0.35212865471839905
1788676374027936300,6.792936279296875,9.680787086486816,1.5296003818511963,-0.33624911308288574
1788676374043805400,6.808805419921875,9.68251895904541,1.5239545106887817,-0.31109586358070374
1788676374059674600,6.824674560546875,9.68384075164795,1.5214793682098389,-0.2805577516555786
1788676374075543600,6.84054345703125,9.684527397155762,1.5228382349014282,-0.2475399523973465
1788676374091443500,6.856443359375,9.684672355651855,1.525978446006775,-0.22111301124095917
1788676374107312400,6.8723125,9.683147430419922,1.5367637872695923,-0.2130681276321411
1788676374123151000,6.888151123046875,9.679832458496094,1.5573660135269165,-0.21411961317062378
1788676374139050800,6.90405078125,9.675804138183594,1.5829393863677979,-0.20858652889728546
1788676374154889500,6.919889404296875,9.67338752746582,1.600477695465088,-0.18556585907936096
1788676374170789000,6.9357890625,9.67473316192627,1.5956170558929443,-0.1546749472618103
1788676374186719200,6.95171923828125,9.68004035949707,1.5656280517578125,-0.12656466662883759
1788676374202588400,6.96758837890625,9.684037208557129,1.5426586866378784,-0.10002747923135757
1788676374218488000,6.983488037109375,9.683960914611816,1.5441160202026367,-0.08359137922525406
1788676374234357200,6.999357177734375,9.67873477935791,1.5767227411270142,-0.08012816309928894
1788676374250195700,7.01519580078125,9.6699857711792,1.629584550857544,-0.07885091006755829
1788676374266065000,7.03106494140625,9.661505699157715,1.6791856288909912,-0.0776575356721878
1788676374281903600,7.046903564453125,9.657121658325195,1.7046006917953491,-0.06882394850254059
1788676374297803300,7.06280322265625,9.659276008605957,1.6934021711349487,-0.03415975347161293
1788676374313672400,7.07867236328125,9.665131568908691,1.6599020957946777,0.018619798123836517
1788676374329572000,7.094572021484375,9.66854190826416,1.638610601425171,0.06808386743068695
1788676374345471700,7.1104716796875,9.665536880493164,1.6544536352157593,0.10282222181558609
1788676374361340700,7.126340576171875,9.657652854919434,1.6983802318572998,0.1250610202550888
1788676374377209900,7.1422099609375,9.649713516235352,1.741391897201538,0.1448378711938858
1788676374393079000,7.1580791015625,9.648503303527832,1.7463327646255493,0.16463029384613037
1788676374408978700,7.173978759765625,9.65241527557373,1.722382664680481,0.1861814707517624
1788676374424878300,7.18987841796875,9.65714168548584,1.6927980184555054,0.21077874302864075
1788676374440778000,7.205778076171875,9.660416603088379,1.6710913181304932,0.23278993368148804
1788676374456647200,7.221647216796875,9.664690971374512,1.6454838514328003,0.23774296045303345
1788676374472516400,7.237516357421875,9.669539451599121,1.6188313961029053,0.2231135368347168
1788676374488324400,7.253324462890625,9.67375659942627,1.5965001583099365,0.20001783967018127
1788676374504193500,7.269193603515625,9.676310539245605,1.583088994026184,0.1822843998670578
1788676374520093200,7.28509326171875,9.67589282989502,1.586837887763977,0.1715385466814041
1788676374535962400,7.30096240234375,9.673120498657227,1.6042747497558594,0.1656644642353058
1788676374551862000,7.316862060546875,9.669126510620117,1.6287434101104736,0.1599089652299881
1788676374567761700,7.33276171875,9.665430068969727,1.6513642072677612,0.15118922293186188
1788676374583630800,7.348630859375,9.663178443908691,1.6651307344436646,0.1439562737941742
1788676374599469600,7.364469482421875,9.662858009338379,1.6670403480529785,0.1432911604642868
1788676374615369200,7.380369140625,9.665568351745605,1.6508736610412598,0.14760829508304596
1788676374631238100,7.396238037109375,9.671360969543457,1.6165372133255005,0.14821641147136688
1788676374647137800,7.4121376953125,9.677423477172852,1.5804941654205322,0.14108598232269287
1788676374663037700,7.42803759765625,9.681227684020996,1.558168649673462,0.12774331867694855
1788676374678906600,7.44390673828125,9.677474975585938,1.5861915349960327,0.029260436072945595
1788676374694837000,7.4598369140625,9.671785354614258,1.6134607791900635,-0.15396559238433838
1788676374710706000,7.475705810546875,9.675195693969727,1.5825031995773315,-0.23803503811359406
1788676374726575000,7.4915751953125,9.685388565063477,1.5123077630996704,-0.27668297290802
1788676374742444300,7.5074443359375,9.696599006652832,1.4326024055480957,-0.3066234588623047
1788676374758344000,7.523343994140625,9.70074462890625,1.396628975868225,-0.3396681249141693
1788676374774213000,7.539213134765625,9.699788093566895,1.3933191299438477,-0.37836453318595886
1788676374790082300,7.555082275390625,9.69212532043457,1.4350776672363281,-0.4167023003101349
1788676374805951500,7.570951416015625,9.681756019592285,1.4961434602737427,-0.4422109127044678
1788676374821851100,7.58685107421875,9.67459774017334,1.5367376804351807,-0.45934122800827026
1788676374837720000,7.602719970703125,9.674342155456543,1.5331013202667236,-0.47653618454933167
1788676374853620000,7.618619873046875,9.68126106262207,1.482748031616211,-0.4950045645236969
1788676374869519600,7.63451953125,9.688185691833496,1.4255850315093994,-0.5264498591423035
1788676374885419300,7.650419189453125,9.68832778930664,1.411520004272461,-0.5606248378753662
1788676374901288200,7.6662880859375,9.679831504821777,1.458321452140808,-0.5869911313056946
1788676374917127000,7.682126953125,9.664901733398438,1.5502192974090576,-0.5973893404006958
1788676374933057000,7.69805712890625,9.64969253540039,1.6416069269180298,-0.5991186499595642
1788676374948926200,7.71392626953125,9.639372825622559,1.6989212036132812,-0.6054301857948303
1788676374964765000,7.729764892578125,9.639598846435547,1.69333016872406,-0.6173723340034485
1788676374980634000,7.745634033203125,9.644874572753906,1.6517586708068848,-0.6468880772590637
1788676374996533800,7.76153369140625,9.654932975769043,1.5772660970687866,-0.6818200945854187
1788676375012372200,7.777372314453125,9.66610050201416,1.4924585819244385,-0.7137677073478699
1788676375028271900,7.79327197265625,9.675182342529297,1.4198524951934814,-0.7384113073348999
1788676375044141000,7.80914111328125,9.681211471557617,1.3742281198501587,-0.7456827163696289
1788676375060010200,7.82501025390625,9.681848526000977,1.3688547611236572,-0.7472777962684631
1788676375075849000,7.840848876953125,9.676620483398438,1.4049135446548462,-0.7480761408805847
1788676375091779000,7.856779052734375,9.669622421264648,1.454971432685852,-0.7428657412528992
1788676375107648300,7.872648193359375,9.664887428283691,1.4930063486099243,-0.728877604007721
1788676375123517200,7.88851708984375,9.663628578186035,1.5122873783111572,-0.7054519057273865
1788676375139386400,7.904386474609375,9.665319442749023,1.5146499872207642,-0.6766313910484314
1788676375155286000,7.9202861328125,9.668911933898926,1.502016305923462,-0.6530548930168152
1788676375171185700,7.936185546875,9.67325210571289,1.4810656309127808,-0.6364256739616394
1788676375187054800,7.952054931640625,9.67789077758789,1.4567564725875854,-0.6218319535255432
1788676375202924000,7.967924072265625,9.68227481842041,1.4345011711120605,-0.6051055192947388
1788676375218793200,7.983793212890625,9.682984352111816,1.4508283138275146,-0.552539587020874
1788676375234662400,7.999662353515625,9.67410945892334,1.5696251392364502,-0.343906044960022
1788676375250531600,8.015531494140625,9.667884826660156,1.6410785913467407,-0.09614654630422592
1788676375266400500,8.031400390625,9.675116539001465,1.6007760763168335,-0.005255728494375944
1788676375282269700,8.047269775390625,9.689855575561523,1.5089423656463623,0.013260901905596256
1788676375298108400,8.0631083984375,9.694604873657227,1.4781423807144165,0.010711802169680595
1788676375314008000,8.079008056640625,9.694302558898926,1.480157494544983,-0.003641936695203185
1788676375329907700,8.09490771484375,9.691388130187988,1.498961091041565,-0.022442864254117012
1788676375345777000,8.11077685546875,9.686403274536133,1.5306042432785034,-0.03493957594037056
1788676375361646000,8.12664599609375,9.682294845581055,1.556433916091919,-0.03257898613810539
1788676375377545700,8.142545654296875,9.682594299316406,1.554913878440857,0.0007326981867663562
1788676375393445400,8.1584453125,9.689647674560547,1.5084950923919678,0.07454758137464523
1788676375409283800,8.174283935546875,9.700766563415527,1.4288972616195679,0.15417630970478058
1788676375425214200,8.190214111328125,9.70761489868164,1.3768231868743896,0.1922377496957779
1788676375441083100,8.206083251953125,9.702731132507324,1.411698579788208,0.18576346337795258
1788676375456952300,8.221952392578125,9.685430526733398,1.5280448198318481,0.16707710921764374
1788676375472821500,8.237821533203125,9.663056373596191,1.6647968292236328,0.15552929043769836
1788676375488721200,8.25372119140625,9.647452354431152,1.7527859210968018,0.15749430656433105
1788676375504590300,8.26959033203125,9.645484924316406,1.7617707252502441,0.17655783891677856
1788676375520490000,8.285489990234375,9.65126895904541,1.7261360883712769,0.20940226316452026
1788676375536328700,8.30132861328125,9.657784461975098,1.6839101314544678,0.24909473955631256
1788676375552228400,8.317228271484375,9.662565231323242,1.6507915258407593,0.28301891684532166
1788676375568097300,8.33309716796875,9.665609359741211,1.6296137571334839,0.30121245980262756
1788676375583997000,8.348996826171875,9.667403221130371,1.6174209117889404,0.3092741072177887
1788676375599835600,8.364835693359375,9.667927742004395,1.613938331604004,0.31105566024780273
1788676375615674400,8.38067431640625,9.667654991149902,1.6158477067947388,0.30962708592414856
1788676375631574000,8.396573974609375,9.666967391967773,1.6202316284179688,0.30818837881088257
1788676375647473700,8.4124736328125,9.665202140808105,1.6311001777648926,0.3062382638454437
1788676375663312100,8.42831201171875,9.660903930664062,1.6581157445907593,0.29660671949386597
1788676375679211800,8.444211669921875,9.648104667663574,1.730359435081482,0.30054596066474915
1788676375695050500,8.460050537109375,9.613965034484863,1.8913358449935913,0.4060784578323364
1788676375710919700,8.475919677734375,9.595067024230957,1.9742389917373657,0.45546406507492065
1788676375726788900,8.491788818359375,9.604010581970215,1.9413238763809204,0.40574243664741516
1788676375742688500,8.5076884765625,9.629964828491211,1.825215458869934,0.3205411434173584
1788676375758588200,8.523588134765625,9.657805442810059,1.6841322183609009,0.24673041701316833
1788676375774487800,8.53948779296875,9.677849769592285,1.566825032234192,0.23379282653331757
1788676375790326300,8.555326171875,9.68836784362793,1.4944720268249512,0.2692272663116455
1788676375806195500,8.571195556640625,9.696983337402344,1.4315283298492432,0.2993878722190857
1788676375822156300,8.58715625,9.712437629699707,1.332192301750183,0.2534017860889435
1788676375838178000,8.603177978515625,9.729255676269531,1.2278469800949097,0.06613156199455261
1788676375854108200,8.619108154296875,9.732916831970215,1.196425199508667,-0.09634506702423096
1788676375870068700,8.63506884765625,9.71725845336914,1.3120477199554443,-0.1543245166540146
1788676375885999000,8.6509990234375,9.693531036376953,1.4788254499435425,-0.1375574767589569
1788676375901990100,8.666990234375,9.679685592651367,1.5699894428253174,-0.09597031027078629
1788676375917951000,8.682950927734375,9.691676139831543,1.4954665899276733,-0.07330679148435593
1788676375933911600,8.69891162109375,9.721612930297852,1.2854485511779785,-0.09082885831594467
1788676375949780700,8.71478076171875,9.750521659851074,1.0394275188446045,-0.13153094053268433
1788676375965619500,8.730619384765625,9.766768455505371,0.8681657314300537,-0.16407105326652527
1788676375981610500,8.746610595703125,9.76906681060791,0.8390290141105652,-0.17819269001483917
1788676375997601800,8.762601806640625,9.762622833251953,0.9116174578666687,-0.1747412532567978
1788676376013562400,8.778562255859375,9.752782821655273,1.0140963792800903,-0.15883618593215942
1788676376029492700,8.79449267578125,9.744730949401855,1.0890945196151733,-0.15646128356456757
1788676376045422800,8.8104228515625,9.742995262145996,1.1011903285980225,-0.17834815382957458
1788676376061383400,8.826383544921875,9.748878479003906,1.0426459312438965,-0.2064940184354782
1788676376077252600,8.842252685546875,9.75792407989502,0.9496853947639465,-0.2267313152551651
1788676376093213400,8.85821337890625,9.766678810119629,0.8493392467498779,-0.24697521328926086
1788676376109174000,8.874174072265625,9.772679328918457,0.7687250375747681,-0.27237752079963684
1788676376125073700,8.89007373046875,9.773513793945312,0.7483018636703491,-0.2980840802192688
1788676376140973300,8.905973388671875,9.769235610961914,0.790810227394104,-0.3271654546260834
1788676376156995000,8.9219951171875,9.760420799255371,0.883892297744751,-0.3511773347854614
1788676376172925200,8.93792529296875,9.749884605407715,0.9883416295051575,-0.3651255965232849
1788676376188886000,8.953885986328125,9.740161895751953,1.0788906812667847,-0.3682701289653778
1788676376204877000,8.969876953125,9.733912467956543,1.1359953880310059,-0.3617190420627594
1788676376220746200,8.985746337890625,9.732333183288574,1.1525216102600098,-0.35179778933525085
1788676376236737500,9.001737548828125,9.733955383300781,1.1400542259216309,-0.34752780199050903
1788676376252606700,9.017606689453125,9.736579895019531,1.1174391508102417,-0.3474447727203369
1788676376268567300,9.0335673828125,9.738655090332031,1.1007678508758545,-0.34249165654182434
1788676376284528000,9.049528076171875,9.739312171936035,1.097216248512268,-0.33511751890182495
1788676376300427800,9.065427734375,9.738129615783691,1.108134150505066,-0.33355414867401123
1788676376316418800,9.081418701171875,9.730257987976074,1.1566368341445923,-0.3932514190673828
1788676376332349200,9.09734912109375,9.72515869140625,1.1718469858169556,-0.46738362312316895
1788676376356305400,9.121305419921875,9.726778984069824,1.140466570854187,-0.5094083547592163
1788676376380109000,9.145109130859375,9.728448867797852,1.134394645690918,-0.4907190799713135
1788676376396100400,9.161100341796875,9.7290620803833,1.142370343208313,-0.4590499699115753
1788676376412061000,9.17706103515625,9.726741790771484,1.172295331954956,-0.43197667598724365
1788676376428021800,9.193021728515625,9.719381332397461,1.2375448942184448,-0.4153324067592621
1788676376443982300,9.208982421875,9.707938194274902,1.3290596008300781,-0.39989444613456726
1788676376459973600,9.2249736328125,9.696981430053711,1.4149075746536255,-0.37009963393211365
1788676376475812400,9.240812255859375,9.692962646484375,1.4559032917022705,-0.3117821216583252
1788676376491712000,9.2567119140625,9.698221206665039,1.4347777366638184,-0.23727764189243317
1788676376507581000,9.272580810546875,9.71031379699707,1.3590633869171143,-0.1820855438709259
1788676376523480600,9.28848046875,9.719694137573242,1.293013095855713,-0.16142068803310394
1788676376539349800,9.304349853515625,9.718457221984863,1.3018592596054077,-0.16470523178577423
1788676376555249400,9.32024951171875,9.706934928894043,1.3849488496780396,-0.16644158959388733
1788676376571118600,9.33611865234375,9.689560890197754,1.5029103755950928,-0.15510672330856323
1788676376586987800,9.35198779296875,9.676790237426758,1.5844742059707642,-0.1398693323135376
1788676376602887400,9.367887451171875,9.675395965576172,1.5937145948410034,-0.13099142909049988
1788676376618787000,9.383787109375,9.682680130004883,1.5490928888320923,-0.1280830353498459
1788676376634656300,9.39965625,9.693264961242676,1.4815622568130493,-0.1263979971408844
1788676376650525400,9.415525390625,9.702176094055176,1.4226018190383911,-0.1199454665184021
1788676376666364000,9.431364013671875,9.707555770874023,1.3847122192382812,-0.12772618234157562
1788676376682294300,9.447294189453125,9.70959186553955,1.3682788610458374,-0.14839760959148407
1788676376698132700,9.4631328125,9.71009635925293,1.3624495267868042,-0.16776026785373688
1788676376714002000,9.479001953125,9.71081256866455,1.3555536270141602,-0.18161146342754364
1788676376729901600,9.494901611328125,9.711821556091309,1.3473753929138184,-0.18836741149425507
1788676376745801200,9.51080126953125,9.711624145507812,1.3490376472473145,-0.1866985261440277
1788676376761670400,9.52667041015625,9.709501266479492,1.3655308485031128,-0.17689254879951477
1788676376777539600,9.54253955078125,9.70573616027832,1.3939921855926514,-0.1607845425605774
1788676376793347600,9.55834765625,9.701821327209473,1.422756552696228,-0.14428728818893433
1788676376809216800,9.574216796875,9.699528694152832,1.4390736818313599,-0.13635247945785522
1788676376825086000,9.5900859375,9.699780464172363,1.4372236728668213,-0.1379798948764801
1788676376840955100,9.605955078125,9.70219898223877,1.420371174812317,-0.14234887063503265
1788676376856854800,9.621854736328125,9.70550537109375,1.3973233699798584,-0.14501425623893738
1788676376872754400,9.63775439453125,9.708564758300781,1.3757290840148926,-0.1467282921075821
1788676376888654000,9.653654052734375,9.698371887207031,1.4288630485534668,-0.2652052640914917
1788676376904584200,9.669584228515625,9.69069766998291,1.4521722793579102,-0.3898349702358246
1788676376920453400,9.685453369140625,9.693760871887207,1.4259196519851685,-0.41004541516304016
1788676376936322600,9.701322509765625,9.696307182312012,1.4033564329147339,-0.42733314633369446
1788676376952191700,9.717191650390625,9.695792198181152,1.3989672660827637,-0.45264309644699097
1788676376968060700,9.733060791015625,9.692218780517578,1.4119691848754883,-0.4874786138534546
1788676376983929900,9.748929931640625,9.6832914352417,1.4572876691818237,-0.5296899676322937
1788676376999829500,9.76482958984375,9.671472549438477,1.5243911743164062,-0.5560927391052246
1788676377015698700,9.78069873046875,9.662009239196777,1.5804240703582764,-0.5641159415245056
1788676377031598300,9.796598388671875,9.65895938873291,1.5965144634246826,-0.5709891319274902
1788676377047498000,9.812498046875,9.663686752319336,1.5585522651672363,-0.5953669548034668
1788676377063397600,9.828397705078125,9.670552253723145,1.4920599460601807,-0.6515839695930481
1788676377079297300,9.84429736328125,9.672384262084961,1.4494057893753052,-0.7173474431037903
1788676377095166500,9.86016650390625,9.667494773864746,1.4610854387283325,-0.7583888173103333
1788676377111096600,9.8760966796875,9.658835411071777,1.5149458646774292,-0.7630455493927002
1788676377126996200,9.891996337890625,9.650920867919922,1.576050877571106,-0.7390333414077759
1788676377142895900,9.907895751953125,9.64685344696045,1.614783525466919,-0.7078740000724792
1788676377158795500,9.92379541015625,9.6508150100708,1.6026781797409058,-0.6808671951293945
1788676377174664700,9.939664794921875,9.65800666809082,1.5616854429244995,-0.6741176843643188
1788676377190534000,9.955533935546875,9.669642448425293,1.4872199296951294,-0.6757051944732666
1788676377206433500,9.97143359375,9.685539245605469,1.3819798231124878,-0.6714555621147156
1788676377222272300,9.987272216796875,9.70202922821045,1.2657891511917114,-0.6624131202697754
1788676377238172000,10.003171875,9.71516227722168,1.1669340133666992,-0.6513634324073792
1788676377254010400,10.01901025390625,9.724066734313965,1.0992486476898193,-0.6360542178153992
1788676377269849000,10.03484912109375,9.727126121520996,1.081303358078003,-0.6198225617408752
1788676377285687800,10.050687744140625,9.726134300231934,1.0992474555969238,-0.6036162376403809
1788676377301556700,10.066556640625,9.722758293151855,1.1388509273529053,-0.5842915177345276
1788676377317456600,10.08245654296875,9.719428062438965,1.178409218788147,-0.5607579946517944
1788676377333325600,10.09832568359375,9.718040466308594,1.2020713090896606,-0.5339423418045044
1788676377349194800,10.11419482421875,9.718917846679688,1.2047914266586304,-0.511369526386261
1788676377365094400,10.130094482421875,9.721904754638672,1.1817213296890259,-0.5084118247032166
1788676377380994000,10.145994140625,9.7238130569458,1.1511582136154175,-0.5410028696060181
1788676377396924400,10.16192431640625,9.724454879760742,1.1252230405807495,-0.582430362701416
1788676377412763000,10.177762939453125,9.724051475524902,1.112682819366455,-0.6124930381774902
1788676377428632000,10.193632080078125,9.723098754882812,1.1146256923675537,-0.6239733099937439
1788676377444501200,10.209501220703125,9.721948623657227,1.1248730421066284,-0.6235007643699646
1788676377460401000,10.22540087890625,9.722370147705078,1.1786038875579834,-0.5067543387413025
1788676377476270000,10.24127001953125,9.72144603729248,1.192057728767395,-0.4928326904773712
1788676377492139000,10.257138916015625,9.719085693359375,1.209000825881958,-0.4980893135070801
1788676377508039000,10.273038818359375,9.71485424041748,1.2392297983169556,-0.5062702894210815
1788676377523877400,10.28887744140625,9.70943546295166,1.2836744785308838,-0.4994227886199951
1788676377539777000,10.304777099609375,9.701582908630371,1.3486666679382324,-0.48038822412490845
1788676377555676700,10.3206767578125,9.689201354980469,1.4410429000854492,-0.46169060468673706
1788676377571545900,10.3365458984375,9.674470901489258,1.543803334236145,-0.4378139078617096
1788676377587415000,10.3524150390625,9.663018226623535,1.6250096559524536,-0.39472660422325134
1788676377603314700,10.368314697265625,9.66102123260498,1.6556754112243652,-0.3062540888786316
1788676377619183900,10.384183837890625,9.668051719665527,1.6322507858276367,-0.18684180080890656
1788676377635114000,10.400114013671875,9.680397987365723,1.5655821561813354,-0.09612882882356644
1788676377650952700,10.41595263671875,9.689651489257812,1.5082111358642578,-0.07968571782112122
1788676377666852400,10.431852294921875,9.68753433227539,1.515997052192688,-0.15435269474983215
1788676377682690800,10.44769091796875,9.674301147460938,1.5858676433563232,-0.2516160309314728
1788676377698590500,10.463590576171875,9.655861854553223,1.6835078001022339,-0.3170556426048279
1788676377714490000,10.479489990234375,9.641057968139648,1.760685920715332,-0.34695038199424744
1788676377730328800,10.495328857421875,9.63681411743164,1.7839913368225098,-0.3457944989204407
1788676377746228500,10.511228515625,9.641695022583008,1.7610024213790894,-0.3270585238933563
1788676377762067200,10.527067138671875,9.652470588684082,1.705807089805603,-0.3007042109966278
1788676377777936100,10.54293603515625,9.664759635925293,1.6381237506866455,-0.2817257046699524
1788676377793866500,10.558866455078125,9.67660140991211,1.5686182975769043,-0.270582377910614
1788676377809735700,10.574735595703125,9.685684204101562,1.5126811265945435,-0.2640421986579895
1788676377825604600,10.5906044921875,9.690423965454102,1.4838186502456665,-0.2536948025226593
1788676377841504300,10.606504150390625,9.690549850463867,1.4856629371643066,-0.2375689148902893
1788676377857373400,10.62237353515625,9.686922073364258,1.512070894241333,-0.21806539595127106
1788676377873242600,10.63824267578125,9.682246208190918,1.5442252159118652,-0.19966983795166016
1788676377889142300,10.654142333984375,9.67885684967041,1.567695140838623,-0.18014176189899445
1788676377905011500,10.670011474609375,9.678327560424805,1.5725656747817993,-0.16552159190177917
1788676377920880600,10.685880615234375,9.680733680725098,1.5578300952911377,-0.16417312622070312
1788676377936749800,10.701749755859375,9.684877395629883,1.5302672386169434,-0.17841047048568726
1788676377952618800,10.71761865234375,9.690284729003906,1.4928251504898071,-0.20059864223003387
1788676377968518700,10.7335185546875,9.696678161621094,1.4475154876708984,-0.22251082956790924
1788676377984418300,10.749418212890625,9.702332496643066,1.405882716178894,-0.24212855100631714
1788676378000318000,10.76531787109375,9.682479858398438,1.5039712190628052,-0.39754217863082886
1788676378016187000,10.781186767578125,9.685428619384766,1.4751619100570679,-0.4321485757827759
1788676378032117200,10.7971171875,9.686959266662598,1.4587757587432861,-0.45296838879585266
1788676378047986200,10.812986083984375,9.685845375061035,1.4591952562332153,-0.47491419315338135
1788676378063825000,10.828824951171875,9.68284797668457,1.4695876836776733,-0.503139078617096
1788676378079724500,10.844724609375,9.677340507507324,1.491668462753296,-0.5425738096237183
1788676378095593700,10.86059375,9.666613578796387,1.5407514572143555,-0.5941908359527588
1788676378111493400,10.876493408203125,9.652929306030273,1.608411192893982,-0.6358968615531921
1788676378127301400,10.89230126953125,9.641112327575684,1.6701865196228027,-0.655605673789978
1788676378143170600,10.908170654296875,9.63597297668457,1.6973989009857178,-0.6612458825111389
1788676378159009300,10.92400927734375,9.644063949584961,1.652227759361267,-0.6576898694038391
1788676378174939400,10.939939453125,9.660102844238281,1.5466549396514893,-0.6787241101264954
1788676378190808600,10.95580859375,9.673073768615723,1.432165265083313,-0.7422460913658142
1788676378206738700,10.97173876953125,9.675829887390137,1.3814042806625366,-0.8002627491950989
1788676378222608000,10.98760791015625,9.667829513549805,1.4217900037765503,-0.8258117437362671
1788676378238477000,11.00347705078125,9.654327392578125,1.5220844745635986,-0.8047442436218262
1788676378254346200,11.01934619140625,9.640288352966309,1.632001519203186,-0.7561621069908142
1788676378270246000,11.035245849609375,9.63063907623291,1.7084473371505737,-0.7087860107421875
1788676378286115000,11.051114990234375,9.62787914276123,1.7353181838989258,-0.6804355382919312
1788676378301984000,11.06698388671875,9.632380485534668,1.710195541381836,-0.6803345084190369
1788676378317883600,11.082883544921875,9.641786575317383,1.6454018354415894,-0.7063979506492615
1788676378333752800,11.0987529296875,9.652678489685059,1.566331386566162,-0.7367428541183472
1788676378349652500,11.114652587890625,9.66171932220459,1.5006213188171387,-0.7547962665557861
1788676378365491200,11.1304912109375,9.666365623474121,1.4662460088729858,-0.7628068327903748
1788676378381360400,11.1463603515625,9.666723251342773,1.4603354930877686,-0.7695921063423157
1788676378397198800,11.16219873046875,9.664666175842285,1.4679611921310425,-0.7808376550674438
1788676378413098500,11.178098388671875,9.661829948425293,1.4785804748535156,-0.7957540154457092
1788676378429028900,11.19402880859375,9.659131050109863,1.4880448579788208,-0.8107399344444275
1788676378444867300,11.209867431640625,9.657130241394043,1.4948512315750122,-0.8219656348228455
1788676378460736500,11.225736572265625,9.657792091369629,1.488893985748291,-0.8250000476837158
1788676378476636200,11.24163623046875,9.661442756652832,1.4646735191345215,-0.8256117105484009
1788676378492505300,11.25750537109375,9.667276382446289,1.4243369102478027,-0.827896237373352
1788676378508374500,11.27337451171875,9.6730318069458,1.3838274478912354,-0.8293765783309937
1788676378524304600,11.2893046875,9.677440643310547,1.3560723066329956,-0.8237767815589905
1788676378540173800,11.305173828125,9.699774742126465,1.2854267358779907,-0.6575921177864075
1788676378556073500,11.321073486328125,9.696671485900879,1.3136296272277832,-0.6475617289543152
1788676378571912200,11.336912109375,9.691424369812012,1.3608057498931885,-0.6283933520317078
1788676378587811800,11.352811767578125,9.686366081237793,1.407558560371399,-0.6028913259506226
1788676378603680800,11.3686806640625,9.683243751525879,1.4392939805984497,-0.5775890946388245
1788676378619519500,11.38451953125,9.681294441223145,1.4567761421203613,-0.5663243532180786
1788676378635358200,11.400358154296875,9.677753448486328,1.474021077156067,-0.5820170640945435
1788676378651227400,11.416227294921875,9.669977188110352,1.5110279321670532,-0.6154077649116516
1788676378667127000,11.432126953125,9.658945083618164,1.5660301446914673,-0.6501659154891968
1788676378683057200,11.44805712890625,9.649124145507812,1.6152983903884888,-0.6749776601791382
1788676378706921700,11.471921630859375,9.652887344360352,1.6030688285827637,-0.6498708128929138
1788676378722791000,11.487791015625,9.671316146850586,1.5171679258346558,-0.5781205892562866
1788676378738690600,11.503690673828125,9.690729141235352,1.4171226024627686,-0.5019123554229736
1788676378754590200,11.519590087890625,9.698812484741211,1.3741627931594849,-0.4637874364852905
1788676378770429000,11.535428955078125,9.690993309020996,1.4251967668533325,-0.47312846779823303
1788676378786328600,11.55132861328125,9.6769437789917,1.5145974159240723,-0.48284241557121277
1788676378802197800,11.56719775390625,9.667449951171875,1.575921893119812,-0.47673410177230835
1788676378818036500,11.583036376953125,9.670902252197266,1.5600221157073975,-0.4586642384529114
1788676378833936100,11.59893603515625,9.683826446533203,1.4833413362503052,-0.43998920917510986
1788676378849805000,11.61480517578125,9.697293281555176,1.3959935903549194,-0.4290540814399719
1788676378865735400,11.6307353515625,9.708298683166504,1.31770658493042,-0.4277670681476593
1788676378881604400,11.646604248046875,9.715093612670898,1.267395257949829,-0.42550453543663025
1788676378897504000,11.66250390625,9.71905517578125,1.2380366325378418,-0.42144978046417236
1788676378913434400,11.678434326171875,9.722660064697266,1.2123100757598877,-0.41300371289253235
1788676378929303600,11.694303466796875,9.726558685302734,1.1854276657104492,-0.39901816844940186
1788676378945142000,11.71014208984375,9.729151725769043,1.1693600416183472,-0.38286206126213074
1788676378961041700,11.726041748046875,9.728754997253418,1.1772886514663696,-0.36838439106941223
1788676378976880400,11.74188037109375,9.725164413452148,1.2110317945480347,-0.35350021719932556
1788676378992749600,11.75774951171875,9.71945858001709,1.259934425354004,-0.3392272889614105
1788676379008649200,11.773649169921875,9.713089942932129,1.3108294010162354,-0.32861199975013733
1788676379024518400,11.789518310546875,9.708287239074707,1.3463387489318848,-0.3269824683666229
1788676379040418000,11.80541796875,9.706942558288574,1.3543686866760254,-0.33365723490715027
1788676379056256500,11.821256591796875,9.708159446716309,1.3430657386779785,-0.3438078761100769
1788676379072095200,11.83709521484375,9.710433006286621,1.3243709802627563,-0.3520221710205078
1788676379087995000,11.852994873046875,9.712220191955566,1.3107631206512451,-0.3536534309387207
1788676379103864000,11.868864013671875,9.712397575378418,1.3093408346176147,-0.3540401756763458
1788676379119763700,11.884763671875,9.73442268371582,1.1036986112594604,-0.4395866394042969
1788676379135633000,11.9006328125,9.744553565979004,0.9993957281112671,-0.4639735817909241
1788676379151501800,11.916501708984375,9.744943618774414,0.9828864336013794,-0.4902985692024231
1788676379167340500,11.932340576171875,9.740639686584473,1.0053399801254272,-0.5287902355194092
1788676379183209700,11.948209716796875,9.733179092407227,1.055570125579834,-0.5669163465499878
1788676379199109400,11.964109375,9.724730491638184,1.1213881969451904,-0.5852309465408325
1788676379215009000,11.980009033203125,9.719210624694824,1.1684160232543945,-0.5849248766899109
1788676379230878200,11.995878173828125,9.719160079956055,1.173399806022644,-0.5757188200950623
1788676379246808300,12.011808349609375,9.724902153015137,1.127799153327942,-0.569849967956543
1788676379262677500,12.027677490234375,9.731925010681152,1.0593469142913818,-0.5811993479728699
1788676379278577200,12.0435771484375,9.734282493591309,1.0220439434051514,-0.607903242111206
1788676379294476800,12.059476806640625,9.729608535766602,1.052505373954773,-0.6303333640098572
1788676379310376400,12.07537646484375,9.720325469970703,1.135817527770996,-0.6289567947387695
1788676379326276000,12.091276123046875,9.709761619567871,1.2316949367523193,-0.6114215850830078
1788676379342175700,12.10717578125,9.701704025268555,1.2972655296325684,-0.6036855578422546
1788676379358014500,12.123014404296875,9.699972152709961,1.3017418384552002,-0.6216076016426086
1788676379373883600,12.138883544921875,9.703277587890625,1.2554734945297241,-0.6637545228004456
1788676379389752600,12.154752685546875,9.709310531616211,1.1836155652999878,-0.7061970233917236
1788676379405621800,12.170621826171875,9.716297149658203,1.1080079078674316,-0.7323070168495178
1788676379421491000,12.186490966796875,9.723468780517578,1.0392018556594849,-0.7379729151725769
1788676379437360000,12.202360107421875,9.729716300964355,0.9869094491004944,-0.7273352742195129
1788676379453229300,12.218229248046875,9.733574867248535,0.9584711194038391,-0.7136077284812927
1788676379469129000,12.23412890625,9.733738899230957,0.9640375971794128,-0.7038106918334961
1788676379484998100,12.249998046875,9.731352806091309,0.9930216670036316,-0.6964638829231262
1788676379500836600,12.265836669921875,9.728177070617676,1.0312608480453491,-0.6851720213890076
1788676379516675300,12.28167529296875,9.726250648498535,1.0610297918319702,-0.6668265461921692
1788676379532575000,12.297574951171875,9.727324485778809,1.066986083984375,-0.6411709785461426
1788676379548444200,12.313444091796875,9.731178283691406,1.0489206314086914,-0.6118212342262268
1788676379564343800,12.32934375,9.73599910736084,1.0158889293670654,-0.5904887914657593
1788676379580274000,12.34527392578125,9.73934268951416,0.9864749312400818,-0.5852016806602478
1788676379596112600,12.361112548828125,9.740094184875488,0.9749434590339661,-0.5919711589813232
1788676379611951000,12.376951171875,9.738873481750488,0.9838652014732361,-0.5972671508789062
1788676379627820300,12.3928203125,9.737098693847656,1.0044397115707397,-0.5919371843338013
1788676379643689500,12.408689453125,9.735777854919434,1.0220296382904053,-0.5834943652153015
1788676379659558700,12.42455859375,9.735635757446289,1.0260885953903198,-0.5787362456321716
1788676379675458300,12.440458251953125,9.721216201782227,1.1820926666259766,-0.5205700993537903
1788676379691358000,12.45635791015625,9.724710464477539,1.1496927738189697,-0.5278254151344299
1788676379715161600,12.48016162109375,9.726115226745605,1.1285240650177002,-0.5472732782363892
1788676379731091700,12.496091796875,9.72110366821289,1.1609965562820435,-0.5679943561553955
1788676379746991400,12.511991455078125,9.712699890136719,1.2211672067642212,-0.585318922996521
1788676379762891000,12.52789111328125,9.706405639648438,1.26878821849823,-0.5884315371513367
1788676379778790700,12.543790771484375,9.708324432373047,1.2644813060760498,-0.565606415271759
1788676379794659800,12.559659912109375,9.717918395996094,1.209742784500122,-0.5186312794685364
1788676379810529000,12.575529052734375,9.731136322021484,1.1272608041763306,-0.45239561796188354
1788676379826398200,12.591398193359375,9.739378929138184,1.0734050273895264,-0.4033423960208893
1788676379842297900,12.6072978515625,9.737903594970703,1.0923066139221191,-0.3879309594631195
1788676379858136600,12.623136474609375,9.728137969970703,1.177301287651062,-0.38429632782936096
1788676379874005500,12.639005615234375,9.715243339538574,1.2820971012115479,-0.375027060508728
1788676379889905200,12.6549052734375,9.706223487854004,1.3540096282958984,-0.3553437292575836
1788676379905774300,12.6707744140625,9.706099510192871,1.3636293411254883,-0.3201944828033447
1788676379921643500,12.6866435546875,9.712151527404785,1.3305810689926147,-0.27212825417518616
1788676379937573600,12.70257373046875,9.719440460205078,1.2850860357284546,-0.22676943242549896
1788676379953473300,12.718473388671875,9.726494789123535,1.2350518703460693,-0.2008076012134552
1788676379969312000,12.73431201171875,9.73228645324707,1.1881649494171143,-0.20307938754558563
1788676379985150700,12.750150634765625,9.73548698425293,1.1567020416259766,-0.22962802648544312
1788676380001050400,12.76605029296875,9.735260009765625,1.1504427194595337,-0.2675509750843048
1788676380016980500,12.78198046875,9.731766700744629,1.1720175743103027,-0.2991255819797516
1788676380040784100,12.8057841796875,9.725631713867188,1.2190823554992676,-0.31034940481185913
1788676380056683800,12.821683837890625,9.72248649597168,1.2445435523986816,-0.30781084299087524
1788676380072583400,12.83758349609375,9.719722747802734,1.265256643295288,-0.31063568592071533
1788676380088452600,12.85345263671875,9.716811180114746,1.284629225730896,-0.32200199365615845
1788676380104352300,12.869352294921875,9.712811470031738,1.3067989349365234,-0.3520708680152893
1788676380120252000,12.885251953125,9.705604553222656,1.3417034149169922,-0.41406768560409546
1788676380136121000,12.90112109375,9.701669692993164,1.3640445470809937,-0.4328640401363373
1788676380152020700,12.917020751953125,9.706822395324707,1.3296144008636475,-0.4243801534175873
1788676380167890000,12.932889892578125,9.716643333435059,1.2499033212661743,-0.44155704975128174
1788676380183759000,12.948759033203125,9.724956512451172,1.160265564918518,-0.49939626455307007
1788676380199628000,12.9646279296875,9.732266426086426,1.0698992013931274,-0.5556027293205261
1788676380215582200,12.980582275390624,9.739436149597168,0.9903607964515686,-0.5770292282104492
1788676380231512300,12.99651220703125,9.746912956237793,0.9257866144180298,-0.557675838470459
1788676380247442400,13.0124423828125,9.751667976379395,0.8902894258499146,-0.5317281484603882
1788676380271399000,13.03639892578125,9.746870040893555,0.9443027973175049,-0.5265018343925476
1788676380287298600,13.052298583984374,9.738889694213867,1.0225783586502075,-0.5279656648635864
1788676380303259100,13.068259033203125,9.73282527923584,1.0856252908706665,-0.5137312412261963
1788676380319189500,13.084189453125,9.73225212097168,1.0999900102615356,-0.49363815784454346
1788676380335089200,13.100089111328124,9.737506866455078,1.0582237243652344,-0.4811650514602661
1788676380351110700,13.116110595703125,9.74581241607666,0.96906578540802,-0.5004411935806274
1788676380367102000,13.13210205078125,9.749073028564453,0.9056004881858826,-0.553034782409668
1788676380383062800,13.148062744140624,9.743511199951172,0.9289638996124268,-0.6094256639480591
1788676380399023400,13.1640234375,9.72974967956543,1.0419228076934814,-0.6455621123313904
1788676380414923000,13.179923095703124,9.71062183380127,1.1939430236816406,-0.6698559522628784
1788676380430914300,13.195914306640624,9.69225788116455,1.321291208267212,-0.6962244510650635
1788676380446844400,13.211844482421874,9.681930541992188,1.3825063705444336,-0.7206069231033325
1788676380462744000,13.227744140625,9.683335304260254,1.3637773990631104,-0.7372375726699829
1788676380478704600,13.24370458984375,9.692453384399414,1.2929224967956543,-0.7450363039970398
1788676380494635000,13.259635009765624,9.705127716064453,1.1946924924850464,-0.7440456748008728
1788676380510656800,13.27565673828125,9.716774940490723,1.0978202819824219,-0.7412618398666382
1788676380526587000,13.2915869140625,9.72524356842041,1.0211199522018433,-0.739818274974823
1788676380542578200,13.307578125,9.729095458984375,0.9814005494117737,-0.7429236769676208
1788676380558508300,13.32350830078125,9.728438377380371,0.9888134598731995,-0.7416978478431702
1788676380574438400,13.3394384765625,9.723692893981934,1.0398019552230835,-0.7341599464416504
1788676380590399000,13.35539892578125,9.71692180633545,1.1117093563079834,-0.7182777523994446
1788676380606268200,13.37126806640625,9.711270332336426,1.1744091510772705,-0.6945344805717468
1788676380622229000,13.38722900390625,9.708681106567383,1.2116444110870361,-0.6661860942840576
1788676380638159000,13.4031591796875,9.71125602722168,1.2079956531524658,-0.6345412731170654
1788676380654089200,13.419089111328125,9.71769905090332,1.1704267263412476,-0.6056532263755798
1788676380670050000,13.435050048828124,9.725672721862793,1.1102147102355957,-0.5908510088920593
1788676380685919200,13.450919189453124,9.73273754119873,1.0477056503295898,-0.5886568427085876
1788676380701879800,13.4668798828125,9.737991333007812,0.9934354424476624,-0.595824122428894
1788676380717810000,13.482809814453125,9.741948127746582,0.948846697807312,-0.6037715673446655
1788676380733709600,13.49870947265625,9.737732887268066,1.0494810342788696,-0.4955023527145386
1788676380749670400,13.51467041015625,9.730107307434082,1.1572941541671753,-0.39505547285079956
1788676380765570000,13.530570068359374,9.729310035705566,1.170035481452942,-0.37672916054725647
1788676380781439200,13.546439208984374,9.727226257324219,1.197788953781128,-0.3417171239852905
1788676380797399800,13.56239990234375,9.725700378417969,1.221545696258545,-0.2982786297798157
1788676380813360600,13.578360595703124,9.724967956542969,1.236350417137146,-0.2584966719150543
1788676380829290800,13.594290771484374,9.722638130187988,1.2598124742507935,-0.23143450915813446
1788676380845220900,13.610220947265624,9.714828491210938,1.3200851678848267,-0.22332671284675598
1788676380861212200,13.626212158203124,9.701651573181152,1.4123799800872803,-0.23135153949260712
1788676380877142300,13.642142333984374,9.687860488891602,1.5044481754302979,-0.22886480391025543
1788676380893042000,13.6580419921875,9.68216609954834,1.5467065572738647,-0.18370771408081055
1788676380909033200,13.674033203125,9.694244384765625,1.4781224727630615,-0.08466357737779617
1788676380924963300,13.68996337890625,9.714849472045898,1.3386874198913574,0.0021640462800860405
1788676380940863000,13.705863037109374,9.731149673461914,1.21417236328125,0.03007909469306469
1788676380956793000,13.72179296875,9.734024047851562,1.1912813186645508,-0.0011383563978597522
1788676380972723200,13.73772314453125,9.723658561706543,1.2722448110580444,-0.04733513295650482
1788676380988653600,13.753653564453124,9.707798957824707,1.3864256143569946,-0.08277462422847748
1788676381004644600,13.76964453125,9.69635009765625,1.4631452560424805,-0.10189919173717499
1788676381020605400,13.78560546875,9.697379112243652,1.4567716121673584,-0.09510938823223114
1788676381036566000,13.80156591796875,9.706663131713867,1.3950756788253784,-0.06952544301748276
1788676381052587800,13.817587890625,9.721590995788574,1.288535237312317,-0.02697298303246498
1788676381068518000,13.833517822265625,9.736372947692871,1.171929121017456,0.004103051498532295
1788676381084478700,13.849478759765624,9.747547149658203,1.074547290802002,0.032687269151210785
1788676381100378400,13.86537841796875,9.754343032836914,1.0106242895126343,0.04265647381544113
1788676381116369700,13.88136962890625,9.756696701049805,0.9879838824272156,0.033764030784368515
1788676381132391200,13.89739111328125,9.755953788757324,0.9956114292144775,0.02274312637746334
1788676381148352000,13.91335205078125,9.753568649291992,1.0187760591506958,0.019755013287067413
1788676381164251600,13.929251708984374,9.750751495361328,1.0452572107315063,0.025757944211363792
1788676381180151300,13.9451513671875,9.748053550720215,1.0699553489685059,0.032245662063360214
1788676381196081400,13.961081298828125,9.745997428894043,1.0884829759597778,0.033733781427145004
1788676381212103200,13.977103271484374,9.744499206542969,1.1018328666687012,0.03311923146247864
1788676381228002800,13.9930029296875,9.74376392364502,1.1083781719207764,0.030940279364585876
1788676381244024600,14.009024658203124,9.74355697631836,1.110137701034546,0.03278130292892456
1788676381259924200,14.02492431640625,9.742976188659668,1.115166187286377,0.03475410118699074
1788676381275854300,14.040854248046875,9.731809616088867,1.2092435359954834,-0.0012527400394901633
1788676381291876000,14.0568759765625,9.72099781036377,1.2925989627838135,-0.04211396351456642
1788676381307837000,14.0728369140625,9.720096588134766,1.2990895509719849,-0.04981650039553642
1788676381323736600,14.088736572265624,9.721092224121094,1.2912328243255615,-0.05893982574343681
1788676381339636200,14.10463623046875,9.722188949584961,1.2818166017532349,-0.0797748938202858
1788676381355566300,14.12056640625,9.720455169677734,1.2917110919952393,-0.12090112268924713
1788676381371496400,14.136496337890625,9.714042663574219,1.332313060760498,-0.1808609813451767
1788676381387426600,14.152426513671875,9.703075408935547,1.3990592956542969,-0.2516908049583435
1788676381403387400,14.168387451171874,9.686365127563477,1.4967764616012573,-0.323065847158432
1788676381419348000,14.184347900390625,9.667202949523926,1.6058999300003052,-0.369680792093277
1788676381435308800,14.200308837890624,9.651529312133789,1.6930813789367676,-0.3896544873714447
1788676381451361000,14.216361083984374,9.646533012390137,1.7187941074371338,-0.4006778299808502
1788676381467260700,14.2322607421875,9.66051197052002,1.6352287530899048,-0.41342467069625854
1788676381483221200,14.24822119140625,9.681475639343262,1.4883229732513428,-0.47359901666641235
1788676381499121000,14.264120849609375,9.697772026062012,1.3479121923446655,-0.553837776184082
1788676381515081700,14.280081787109374,9.702011108398438,1.2921369075775146,-0.6097100377082825
1788676381531103500,14.296103515625,9.69643497467041,1.325181245803833,-0.6272363662719727
1788676381547033600,14.31203369140625,9.683623313903809,1.4258966445922852,-0.6038561463356018
1788676381562963700,14.327963623046875,9.669605255126953,1.5358918905258179,-0.556917130947113
1788676381578863400,14.34386328125,9.660083770751953,1.611021876335144,-0.5077107548713684
1788676381594793700,14.359793701171874,9.659679412841797,1.6239265203475952,-0.4731252193450928
1788676381610784800,14.37578466796875,9.667218208312988,1.5844324827194214,-0.4526025056838989
1788676381626654000,14.391654052734374,9.681288719177246,1.5016525983810425,-0.4336789846420288
1788676381642645200,14.407645263671874,9.69827651977539,1.3955631256103516,-0.40769636631011963
1788676381658605800,14.423605712890625,9.713945388793945,1.2908631563186646,-0.378584086894989
1788676381674536000,14.439535888671875,9.725970268249512,1.206241488456726,-0.34765177965164185
1788676381690435800,14.455435791015624,9.732718467712402,1.1594382524490356,-0.3166949152946472
1788676381706457300,14.471457275390625,9.735005378723145,1.143912672996521,-0.30251970887184143
1788676381722357000,14.48735693359375,9.733918190002441,1.1502776145935059,-0.31318989396095276
1788676381738317800,14.50331787109375,9.731697082519531,1.163170576095581,-0.3339112401008606
1788676381754278400,14.5192783203125,9.728885650634766,1.1792094707489014,-0.3586539924144745
1788676381770147600,14.535147705078124,9.726670265197754,1.1923089027404785,-0.37504953145980835
1788676381786169300,14.55116943359375,9.726496696472168,1.1933190822601318,-0.3763578236103058
1788676381802069000,14.567069091796874,9.72866439819336,1.1787853240966797,-0.3659909963607788
1788676381818029800,14.58302978515625,9.732172012329102,1.1533735990524292,-0.35347262024879456
1788676381833960000,14.5989599609375,9.735763549804688,1.1259125471115112,-0.3429524004459381
1788676381849859600,14.614859619140624,9.733749389648438,1.1609463691711426,-0.2769796848297119
1788676381865759200,14.63075927734375,9.730999946594238,1.1994091272354126,-0.19863460958003998
1788676381881750500,14.64675048828125,9.729361534118652,1.2138091325759888,-0.19124256074428558
1788676381897711000,14.662711181640624,9.723751068115234,1.2553917169570923,-0.20745712518692017
1788676381913641200,14.67864111328125,9.717034339904785,1.3056384325027466,-0.21195976436138153
1788676381929602000,14.69460205078125,9.711626052856445,1.3474476337432861,-0.1977231204509735
1788676381945501700,14.710501708984374,9.709341049194336,1.3697409629821777,-0.1512785404920578
1788676381961462300,14.726462158203125,9.708189010620117,1.3815947771072388,-0.11242233961820602
1788676381977423000,14.742423095703124,9.70379638671875,1.4114426374435425,-0.12069576978683472
1788676381993353200,14.758353271484374,9.69660472869873,1.4572731256484985,-0.15037553012371063
1788676382009283300,14.774283447265624,9.691702842712402,1.4810270071029663,-0.21873602271080017
1788676382025244200,14.790244140625,9.693169593811035,1.4598522186279297,-0.285819947719574
1788676382041113000,14.806113037109375,9.706828117370605,1.360412359237671,-0.3116931915283203
1788676382057074000,14.822073974609374,9.72421646118164,1.2286686897277832,-0.3168315589427948
1788676382073126100,14.838126220703124,9.733026504516602,1.153158187866211,-0.32984840869903564
1788676382089117400,14.854117431640624,9.726653099060059,1.1955907344818115,-0.3649277687072754
1788676382105047600,14.870047607421874,9.705795288085938,1.341576337814331,-0.41000306606292725
1788676382120977700,14.885977783203124,9.678857803344727,1.5140101909637451,-0.44483140110969543
1788676382136877300,14.901877197265625,9.657865524291992,1.643118143081665,-0.44291290640830994
1788676382152838100,14.917838134765624,9.651673316955566,1.6882610321044922,-0.406655877828598
1788676382168829200,14.9338291015625,9.659664154052734,1.6532607078552246,-0.3577869236469269
1788676382184728800,14.949728759765625,9.67461109161377,1.575514793395996,-0.30007225275039673
1788676382200750600,14.96575048828125,9.68962574005127,1.4898799657821655,-0.24859018623828888
1788676382216650200,14.981650146484375,9.701705932617188,1.4139957427978516,-0.21887269616127014
1788676382232580600,14.99758056640625,9.711742401123047,1.3453563451766968,-0.20608079433441162
1788676382248602000,15.01360205078125,9.720723152160645,1.2788792848587036,-0.20590105652809143
1788676382264471300,15.02947119140625,9.727557182312012,1.2241090536117554,-0.2158380001783371
1788676382280462600,15.045462646484374,9.731271743774414,1.1925086975097656,-0.22508186101913452
1788676382296423200,15.061423095703125,9.73090934753418,1.1976956129074097,-0.21290399134159088
1788676382312353500,15.077353515625,9.726256370544434,1.2418644428253174,-0.1676289290189743
1788676382328283600,15.09328369140625,9.719758033752441,1.2983391284942627,-0.10491766035556793
1788676382344213800,15.1092138671875,9.715160369873047,1.3355259895324707,-0.04912417009472847
1788676382360205000,15.125205078125,9.715015411376953,1.337406873703003,-0.014413761906325817
1788676382376196000,15.141196044921875,9.717826843261719,1.3168601989746094,0.01032042782753706
1788676382392157000,15.157156982421874,9.723043441772461,1.2778130769729614,-0.002030482981353998
1788676382408056600,15.173056640625,9.727046012878418,1.246661901473999,-0.028230691328644753
1788676382424078300,15.189078369140624,9.728066444396973,1.2380226850509644,-0.04913787171244621
1788676382440008400,15.205008544921874,9.726672172546387,1.2482274770736694,-0.06449347734451294
1788676382455908000,15.220908203125,9.723062515258789,1.2754687070846558,-0.07497574388980865
1788676382471807700,15.236807861328124,9.717558860778809,1.3162599802017212,-0.08310925960540771
1788676382487829500,15.25282958984375,9.711261749267578,1.361371397972107,-0.09197868406772614
1788676382503790000,15.2687900390625,9.70461368560791,1.4068440198898315,-0.10792119055986404
1788676382519751000,15.2847509765625,9.696205139160156,1.4609190225601196,-0.14037728309631348
1788676382535711500,15.30071142578125,9.685530662536621,1.5246220827102661,-0.19082747399806976
1788676382551611100,15.316611083984375,9.676700592041016,1.572058916091919,-0.24593119323253632
1788676382567602400,15.3326025390625,9.675965309143066,1.5678459405899048,-0.2965536117553711
1788676382583532500,15.348532470703125,9.686688423156738,1.4906494617462158,-0.34120091795921326
1788676382599401700,15.364401611328125,9.704632759094238,1.354414939880371,-0.39503663778305054
1788676382615271000,15.38027099609375,9.719256401062012,1.2223554849624634,-0.46074649691581726
1788676382631231500,15.3962314453125,9.7225341796875,1.1761544942855835,-0.5092799663543701
1788676382647161900,15.412161865234374,9.712618827819824,1.2514451742172241,-0.5189472436904907
1788676382663183600,15.42818359375,9.69251823425293,1.4086791276931763,-0.491021990776062
1788676382679083300,15.444083251953124,9.670853614807129,1.5636664628982544,-0.44712623953819275
1788676382694952200,15.4599521484375,9.656943321228027,1.6585931777954102,-0.40360474586486816
1788676382710852000,15.47585205078125,9.656516075134277,1.666394829750061,-0.3810785710811615
1788676382726751700,15.491751708984374,9.665749549865723,1.6114087104797363,-0.3834608793258667
1788676382742651400,15.5076513671875,9.680214881896973,1.5175193548202515,-0.40120983123779297
1788676382758551000,15.523551025390624,9.6943941116333,1.421700358390808,-0.40971800684928894
1788676382774450700,15.53945068359375,9.705857276916504,1.344681978225708,-0.39818018674850464
1788676382790289200,15.5552890625,9.713926315307617,1.2936441898345947,-0.3694688379764557
1788676382806188800,15.571188720703125,9.717309951782227,1.277176856994629,-0.33630433678627014
1788676382822058000,15.58705810546875,9.71641731262207,1.2894903421401978,-0.31440460681915283
1788676382837927200,15.60292724609375,9.711912155151367,1.3248403072357178,-0.30650296807289124
1788676382853857300,15.618857177734375,9.707731246948242,1.356545329093933,-0.30020394921302795
1788676382869726500,15.6347265625,9.706640243530273,1.366519808769226,-0.29007935523986816
1788676382885626000,15.650626220703124,9.70963191986084,1.3488675355911255,-0.2720026969909668
1788676382901525800,15.66652587890625,9.715045928955078,1.3136874437332153,-0.2499818205833435
1788676382917395000,15.68239501953125,9.720804214477539,1.2740813493728638,-0.23038598895072937
1788676382933264100,15.69826416015625,9.725459098815918,1.2409929037094116,-0.21391868591308594
1788676382957037300,15.722037353515624,9.726936340332031,1.2306889295578003,-0.20620080828666687
1788676382972906500,15.737906494140624,9.723955154418945,1.2542930841445923,-0.20451362431049347
1788676382988775700,15.753775634765624,9.71841049194336,1.2983027696609497,-0.19311083853244781
1788676383004675300,15.76967529296875,9.712227821350098,1.3476176261901855,-0.16415764391422272
1788676383020544300,15.785544189453125,9.706457138061523,1.392526388168335,-0.1262967735528946
1788676383036444000,15.80144384765625,9.701539993286133,1.4289659261703491,-0.09261322021484375
1788676383060247800,15.825247802734374,9.702630996704102,1.4231605529785156,-0.06287665665149689
1788676383084082000,15.84908203125,9.690049171447754,1.5058039426803589,-0.0766991376876831
1788676383099890200,15.86489013671875,9.676739692687988,1.5884323120117188,-0.08937431126832962
1788676383115759000,15.880759033203125,9.66381549835205,1.6647672653198242,-0.09806451201438904
1788676383131658800,15.89665869140625,9.657279014587402,1.702534556388855,-0.09343571960926056
1788676383147497500,15.91249755859375,9.66189956665039,1.677364468574524,-0.06732150912284851
1788676383163427600,15.928427490234375,9.67423152923584,1.6057833433151245,-0.0330018512904644
1788676383179266300,15.944266357421874,9.684765815734863,1.5412092208862305,-0.019136479124426842
1788676383195135500,15.960135498046874,9.684657096862793,1.541752815246582,-0.028520211577415466
1788676383211004700,15.976004638671874,9.673188209533691,1.611973762512207,-0.036716196686029434
1788676383226873600,15.99187353515625,9.657712936401367,1.7024985551834106,-0.021486403420567513
1788676383242773200,16.007773193359377,9.64687728881836,1.7628085613250732,0.025698432698845863
1788676383258673000,16.0236728515625,9.646342277526855,1.763650894165039,0.08950338512659073
1788676383274542000,16.0395419921875,9.65328598022461,1.721121072769165,0.14902403950691223
1788676383290380800,16.055380859375,9.664121627807617,1.6546480655670166,0.19303682446479797
1788676383306280400,16.071280517578124,9.675094604492188,1.5858999490737915,0.21876949071884155
1788676383322271700,16.087271728515624,9.683753967285156,1.531840205192566,0.2207844853401184
1788676383338140700,16.103140625,9.689667701721191,1.4961649179458618,0.20547980070114136
1788676383354009900,16.119009765625,9.691550254821777,1.485899567604065,0.19062969088554382
1788676383369909500,16.134909423828127,9.69033145904541,1.494816541671753,0.1827034205198288
1788676383385809200,16.15080908203125,9.68690299987793,1.5164533853530884,0.1862146109342575
1788676383401678300,16.16667822265625,9.68365478515625,1.5364842414855957,0.19089940190315247
1788676383417578000,16.182577880859377,9.682291030883789,1.5455161333084106,0.18708829581737518
1788676383433477600,16.1984775390625,9.682467460632324,1.545685052871704,0.17628639936447144
1788676383449377300,16.214377197265627,9.683828353881836,1.5383892059326172,0.1649547815322876
1788676383465277000,16.23027685546875,9.686004638671875,1.5256993770599365,0.1547131985425949
1788676383481146000,16.24614599609375,9.687369346618652,1.519075632095337,0.13292858004570007
1788676383497045800,16.262045654296877,9.685770988464355,1.5348447561264038,0.02177373319864273
1788676383512945400,16.2779453125,9.691743850708008,1.4872808456420898,-0.16875194013118744
1788676383528814600,16.293814697265624,9.693979263305664,1.468868613243103,-0.19893597066402435
1788676383544683800,16.309683837890624,9.693487167358398,1.468619465827942,-0.22329989075660706
1788676383560553000,16.325552978515624,9.689538955688477,1.4919891357421875,-0.23915289342403412
1788676383576422100,16.341422119140624,9.683281898498535,1.5286692380905151,-0.2600259780883789
1788676383592291000,16.357291015625,9.675443649291992,1.572361707687378,-0.2895788252353668
1788676383616095000,16.381094970703124,9.65897274017334,1.6605805158615112,-0.34221503138542175
1788676383632025000,16.397025146484374,9.646805763244629,1.7254505157470703,-0.3637770712375641
1788676383647894300,16.412894287109374,9.638387680053711,1.7694636583328247,-0.37531405687332153
1788676383663794000,16.4287939453125,9.645040512084961,1.7349799871444702,-0.36525648832321167
1788676383679663000,16.4446630859375,9.652677536010742,1.6906014680862427,-0.37158653140068054
1788676383695562800,16.460562744140624,9.666207313537598,1.6053217649459839,-0.39720502495765686
1788676383711370800,16.476370849609374,9.677101135253906,1.5269179344177246,-0.4388890862464905
1788676383727270400,16.4922705078125,9.68045425415039,1.4949657917022705,-0.47356343269348145
1788676383743170000,16.508170166015624,9.673213958740234,1.5347886085510254,-0.4937150776386261
1788676383759039200,16.524039306640624,9.659493446350098,1.6129883527755737,-0.512686014175415
1788676383774939000,16.53993896484375,9.647126197814941,1.6796259880065918,-0.5312216281890869
1788676383790808000,16.55580810546875,9.644012451171875,1.7011252641677856,-0.5192176699638367
1788676383806646500,16.571646484375,9.645315170288086,1.7042337656021118,-0.48359936475753784
1788676383822515700,16.587515625,9.654690742492676,1.6564327478408813,-0.4621221423149109
1788676383838385000,16.603385009765624,9.669196128845215,1.5738577842712402,-0.44720330834388733
1788676383854223600,16.6192236328125,9.68410587310791,1.480952262878418,-0.44188809394836426
1788676383870123300,16.635123291015624,9.694879531860352,1.409805178642273,-0.43834516406059265
1788676383886023000,16.65102294921875,9.700831413269043,1.369742751121521,-0.4336489737033844
1788676383901922600,16.666922607421874,9.701302528381348,1.3602313995361328,-0.45263782143592834
1788676383917852700,16.682852783203124,9.699417114257812,1.3593394756317139,-0.4938674867153168
1788676383941656300,16.70665625,9.69542407989502,1.3636906147003174,-0.556312620639801
1788676383957586700,16.722586669921874,9.692156791687012,1.3788836002349854,-0.5754783749580383
1788676383973455600,16.73845556640625,9.690167427062988,1.3925453424453735,-0.5760719776153564
1788676383989324800,16.75432470703125,9.690866470336914,1.3922655582427979,-0.5648735165596008
1788676384005224400,16.770224365234377,9.693819046020508,1.3779346942901611,-0.5491390824317932
1788676384021124000,16.7861240234375,9.697941780090332,1.3543388843536377,-0.5348677635192871
1788676384036993300,16.8019931640625,9.702065467834473,1.3279451131820679,-0.5261831879615784
1788676384052893000,16.817892822265627,9.699939727783203,1.364158272743225,-0.469725638628006
1788676384068762000,16.83376220703125,9.684293746948242,1.5235154628753662,-0.2524646520614624
1788676384084661800,16.849661865234374,9.674834251403809,1.6014667749404907,-0.05727215111255646
1788676384100561400,16.8655615234375,9.678473472595215,1.580316424369812,-0.011909816414117813
1788676384116461000,16.8814609375,9.684480667114258,1.5431238412857056,-0.0008884367416612804
1788676384132360700,16.897360595703127,9.684894561767578,1.540513277053833,0.005945793353021145
1788676384148230000,16.91322998046875,9.680895805358887,1.5653672218322754,0.016225486993789673
1788676384172064300,16.937064208984374,9.66700267791748,1.6489888429641724,0.01679791696369648
1788676384187933200,16.95293310546875,9.65675163269043,1.7080650329589844,0.007384849712252617
1788676384203802400,16.96880224609375,9.651850700378418,1.7355502843856812,-0.005460238084197044
1788676384219671600,16.984671630859374,9.655149459838867,1.7171038389205933,-0.005924568045884371
1788676384235601700,17.0006015625,9.669695854187012,1.6329820156097412,0.02698412537574768
1788676384251440400,17.0164404296875,9.68893051147461,1.5131456851959229,0.07353179901838303
1788676384267309600,17.0323095703125,9.701191902160645,1.4302860498428345,0.10747717320919037
1788676384283209200,17.048209228515624,9.699857711791992,1.4379174709320068,0.124655582010746
1788676384299108900,17.06410888671875,9.68356704711914,1.5433878898620605,0.12985120713710785
1788676384315008500,17.080008544921874,9.662633895874023,1.6690022945404053,0.1353556513786316
1788676384330877700,17.095877685546874,9.64843463897705,1.748267650604248,0.1471281796693802
1788676384346746600,17.11174658203125,9.64618968963623,1.7589085102081299,0.16628599166870117
1788676384362646500,17.127646484375,9.654071807861328,1.7116631269454956,0.1987452656030655
1788676384378485000,17.143485107421874,9.666207313537598,1.6373125314712524,0.23246505856513977
1788676384394323700,17.15932373046875,9.678226470947266,1.5605888366699219,0.25862544775009155
1788676384410253800,17.17525390625,9.688965797424316,1.4903557300567627,0.2704997956752777
1788676384426123000,17.191123046875,9.699179649353027,1.423498511314392,0.2644917666912079
1788676384442022700,17.207022705078124,9.708695411682129,1.3604894876480103,0.2463451474905014
1788676384457922300,17.22292236328125,9.715858459472656,1.3129098415374756,0.22078192234039307
1788676384473822000,17.238822021484374,9.71906566619873,1.2925759553909302,0.19851014018058777
1788676384489691100,17.254691162109374,9.718436241149902,1.299057126045227,0.18661391735076904
1788676384505590800,17.2705908203125,9.715985298156738,1.3179458379745483,0.18176721036434174
1788676384521490400,17.286490478515624,9.714292526245117,1.3311767578125,0.17569588124752045
1788676384537359600,17.302359619140624,9.714739799499512,1.329253077507019,0.16527456045150757
1788676384553228800,17.318228759765624,9.716900825500488,1.3149670362472534,0.15196582674980164
1788676384569128400,17.33412841796875,9.7199125289917,1.2942981719970703,0.1359751671552658
1788676384585028000,17.350028076171874,9.722982406616211,1.27244234085083,0.12202497571706772
1788676384600927700,17.365927734375,9.719158172607422,1.306439757347107,0.039633724838495255
1788676384616796700,17.381796630859377,9.707442283630371,1.3841835260391235,-0.14136067032814026
1788676384632665900,17.397665771484377,9.70350170135498,1.3891123533248901,-0.28777867555618286
1788676384648565500,17.4135654296875,9.707207679748535,1.3489898443222046,-0.34747782349586487
1788676384664434700,17.4294345703125,9.70917797088623,1.328454852104187,-0.37076660990715027
1788676384680334300,17.445334228515627,9.705005645751953,1.355364203453064,-0.382417768239975
1788676384696234000,17.46123388671875,9.700230598449707,1.3809034824371338,-0.4111163914203644
1788676384712133600,17.477133544921877,9.69509506225586,1.4040404558181763,-0.45188185572624207
1788676384728002800,17.4930029296875,9.68566608428955,1.4528404474258423,-0.49749746918678284
1788676384743902500,17.50890234375,9.673699378967285,1.5259242057800293,-0.5113633871078491
1788676384759741200,17.5247412109375,9.663579940795898,1.5934667587280273,-0.4964517056941986
1788676384775640800,17.540640869140624,9.660198211669922,1.62160062789917,-0.4705030024051666
1788676384791540500,17.55654052734375,9.66630744934082,1.5900481939315796,-0.4523821771144867
1788676384807440100,17.572440185546874,9.67779541015625,1.5119205713272095,-0.47408992052078247
1788676384823278800,17.58827880859375,9.686091423034668,1.4411349296569824,-0.5226342678070068
1788676384839178500,17.604178466796874,9.685676574707031,1.43459153175354,-0.5477209091186523
1788676384855017000,17.620016845703127,9.676862716674805,1.496083378791809,-0.5389394164085388
1788676384870916600,17.63591650390625,9.663751602172852,1.584075927734375,-0.5224916934967041
1788676384886847000,17.651846923828124,9.652575492858887,1.6537740230560303,-0.5130414366722107
1788676384902746600,17.66774658203125,9.6482572555542,1.6769672632217407,-0.5189375281333923
1788676384918615600,17.683615478515627,9.652544021606445,1.6460493803024292,-0.5378679037094116
1788676384934515200,17.69951513671875,9.666027069091797,1.5578181743621826,-0.5581281781196594
1788676384950384400,17.71538427734375,9.684198379516602,1.431840419769287,-0.5801165699958801
1788676384966284000,17.731283935546877,9.703191757202148,1.2864856719970703,-0.6028347611427307
1788676384982183700,17.74718359375,9.71881103515625,1.156457781791687,-0.6145707368850708
1788676384998052900,17.763052978515624,9.727542877197266,1.0806089639663696,-0.6144692897796631
1788676385013952500,17.778952392578127,9.729771614074707,1.0601439476013184,-0.6148380637168884
1788676385029821700,17.79482177734375,9.725652694702148,1.0921895503997803,-0.6238502264022827
1788676385045721300,17.810721435546874,9.721786499023438,1.121018409729004,-0.6328995823860168
1788676385061590500,17.826590576171874,9.721643447875977,1.1216336488723755,-0.634006142616272
1788676385077459700,17.842459716796874,9.72529125213623,1.0953876972198486,-0.6238699555397034
1788676385093298200,17.858298095703127,9.730682373046875,1.0550178289413452,-0.6092143058776855
1788676385109197800,17.87419775390625,9.735274314880371,1.0187292098999023,-0.5974929332733154
1788676385125097500,17.890097412109377,9.737794876098633,0.9972363114356995,-0.5926709771156311
1788676385140997000,17.9059970703125,9.738276481628418,0.9948849081993103,-0.5886952877044678
1788676385156927500,17.921927490234374,9.737957954406738,1.0043753385543823,-0.5777605772018433
1788676385172766000,17.937765869140627,9.738068580627441,1.0151960849761963,-0.5565927028656006
1788676385188665600,17.95366552734375,9.738737106323242,1.024267315864563,-0.5275030136108398
1788676385204504300,17.96950439453125,9.739571571350098,1.0680116415023804,-0.4128951132297516
1788676385220434400,17.985434326171877,9.740687370300293,1.0743553638458252,-0.36764806509017944
1788676385236334000,18.001333984375,9.741466522216797,1.0730572938919067,-0.3503808379173279
1788676385252233700,18.017233642578127,9.740739822387695,1.0826408863067627,-0.3409562408924103
1788676385268133400,18.03313330078125,9.737980842590332,1.113312005996704,-0.32039180397987366
1788676385284033000,18.049032958984377,9.730202674865723,1.1832895278930664,-0.30558210611343384
1788676385299902200,18.064902099609377,9.716094017028809,1.2944761514663696,-0.3037244975566864
1788676385315771400,18.080771484375,9.700861930847168,1.4025129079818726,-0.31084808707237244
1788676385331671000,18.096671142578124,9.692048072814941,1.460420846939087,-0.3190249800682068
1788676385347570700,18.11257080078125,9.69603157043457,1.4383952617645264,-0.29728206992149353
1788676385363379000,18.12837890625,9.71213150024414,1.3371179103851318,-0.2387424111366272
1788676385379247900,18.144247802734377,9.727149963378906,1.2321933507919312,-0.18612642586231232
1788676385395117000,18.160116943359377,9.729972839355469,1.2122764587402344,-0.16848869621753693
1788676385411047200,18.176047119140627,9.719778060913086,1.2905986309051514,-0.17507903277873993
1788676385426947000,18.191947021484374,9.702325820922852,1.4158246517181396,-0.1752089112997055
1788676385442846700,18.2078466796875,9.689237594604492,1.504364252090454,-0.16109201312065125
1788676385458776800,18.22377685546875,9.688714981079102,1.5108122825622559,-0.12903551757335663
1788676385474676500,18.239676513671874,9.700553894042969,1.435727834701538,-0.09120722860097885
1788676385490576100,18.255576171875,9.71707820892334,1.3211283683776855,-0.058185867965221405
1788676385506475800,18.271475830078124,9.730728149414062,1.2172292470932007,-0.040947075933218
1788676385522345000,18.287344970703124,9.739486694335938,1.1446582078933716,-0.05039941519498825
1788676385538214100,18.303214111328124,9.74439525604248,1.101078987121582,-0.06915650516748428
1788676385554083000,18.3190830078125,9.748665809631348,1.0620819330215454,-0.0767914205789566
1788676385569952300,18.3349521484375,9.754501342773438,1.0072435140609741,-0.07453279197216034
1788676385585821400,18.350821533203124,9.760115623474121,0.9522947669029236,-0.06065448746085167
1788676385601721000,18.36672119140625,9.762290000915527,0.9313210248947144,-0.026876352727413177
1788676385617620700,18.382620849609374,9.759515762329102,0.9599697589874268,0.026173429563641548
1788676385633520400,18.398520263671877,9.752030372619629,1.0304560661315918,0.08024820685386658
1788676385649389600,18.4143896484375,9.742846488952637,1.109567403793335,0.12721475958824158
1788676385665289200,18.430289306640624,9.735079765319824,1.1730469465255737,0.15026110410690308
1788676385681188900,18.44618896484375,9.730270385742188,1.2125282287597656,0.14834201335906982
1788676385697088500,18.462088623046874,9.729822158813477,1.219048261642456,0.12193254381418228
1788676385712957700,18.477957763671874,9.733059883117676,1.1960004568099976,0.08673610538244247
1788676385728827000,18.493826904296874,9.739091873168945,1.148164987564087,0.04682911932468414
1788676385744696000,18.509696044921874,9.744721412658691,1.100337028503418,0.006733619142323732
1788676385760595700,18.525595703125,9.74754810333252,1.074947714805603,-0.013383469544351101
1788676385776495400,18.541495361328124,9.746950149536133,1.080349087715149,-0.013822408393025398
1788676385792395000,18.55739501953125,9.74311351776123,1.1144508123397827,-0.011231259442865849
1788676385808325000,18.5733251953125,9.738219261169434,1.15636146068573,-0.017242519184947014
1788676385824224800,18.589224853515624,9.73279857635498,1.2006398439407349,-0.03845752403140068
1788676385840094000,18.605093994140624,9.725756645202637,1.2551630735397339,-0.06790778040885925
1788676385855963100,18.620963134765624,9.718012809753418,1.3123536109924316,-0.0912853330373764
1788676385871862800,18.63686279296875,9.712163925170898,1.3530696630477905,-0.11601893603801727
1788676385887762400,18.652762451171874,9.711310386657715,1.356009840965271,-0.14856956899166107
1788676385903631600,18.668631591796874,9.718473434448242,1.296210527420044,-0.203696608543396
1788676385919561700,18.684561767578124,9.729485511779785,1.1933016777038574,-0.2890321910381317
1788676385935461400,18.70046142578125,9.734241485595703,1.1261394023895264,-0.3830568790435791
1788676385951361000,18.716361083984374,9.730247497558594,1.1374011039733887,-0.4460926055908203
1788676385967199700,18.73219970703125,9.718880653381348,1.2267675399780273,-0.4569408595561981
1788676385983068700,18.748068603515627,9.705254554748535,1.33620285987854,-0.43929240107536316
1788676385998968300,18.76396826171875,9.694929122924805,1.4137136936187744,-0.4244298040866852
1788676386014837500,18.77983740234375,9.69045352935791,1.4417290687561035,-0.43234017491340637
1788676386030706700,18.795706787109374,9.691558837890625,1.4257278442382812,-0.45977047085762024
1788676386046606300,18.8116064453125,9.696351051330566,1.382800817489624,-0.4888959527015686
1788676386062506000,18.827506103515624,9.70449161529541,1.3170682191848755,-0.5084918141365051
1788676386078405600,18.843405517578127,9.714825630187988,1.2357263565063477,-0.5152968764305115
1788676386094244400,18.859244384765624,9.726034164428711,1.150249719619751,-0.5015807151794434
1788676386110144000,18.87514404296875,9.735014915466309,1.0818908214569092,-0.47894227504730225
1788676386126013200,18.89101318359375,9.738882064819336,1.0554258823394775,-0.45894482731819153
1788676386141882400,18.90688232421875,9.738187789916992,1.065852403640747,-0.44949817657470703
1788676386157782000,18.922781982421874,9.735729217529297,1.0917694568634033,-0.4404442012310028
1788676386173651000,18.93865087890625,9.734091758728027,1.1131486892700195,-0.4227786660194397
1788676386189550600,18.954550537109377,9.734508514404297,1.119065523147583,-0.3967687785625458
1788676386205389300,18.970389404296874,9.73741626739502,1.1047216653823853,-0.3642708659172058
1788676386221319400,18.9863193359375,9.74249267578125,1.0718392133712769,-0.32463037967681885
1788676386245153800,19.01015380859375,9.749730110168457,1.0205241441726685,-0.26772987842559814
1788676386261023000,19.02602294921875,9.752811431884766,1.000447154045105,-0.22840820252895355
1788676386276922600,19.041922607421874,9.740700721740723,1.1353917121887207,0.0031838908325880766
1788676386292791600,19.05779150390625,9.730985641479492,1.195416808128357,0.2219851166009903
1788676386316656400,19.081656494140624,9.732203483581543,1.1558822393417358,0.3442953824996948
1788676386332525600,19.097525634765624,9.733254432678223,1.1389919519424438,0.36992204189300537
1788676386348425200,19.11342529296875,9.73060131072998,1.158327341079712,0.37956157326698303
1788676386364264000,19.129263916015624,9.722259521484375,1.2297533750534058,0.36846742033958435
1788676386380132900,19.1451328125,9.707672119140625,1.3424385786056519,0.35966089367866516
1788676386396002000,19.161001953125,9.689600944519043,1.4713432788848877,0.3422820568084717
1788676386411871200,19.176871337890624,9.674248695373535,1.5728105306625366,0.3249017894268036
1788676386427771000,19.19277099609375,9.67034912109375,1.598497748374939,0.31549569964408875
1788676386443670500,19.20867041015625,9.682779312133789,1.5239628553390503,0.30286139249801636
1788676386459570200,19.224570068359377,9.706535339355469,1.3669475317001343,0.2915734648704529
1788676386475409000,19.240408935546874,9.725723266601562,1.2244415283203125,0.2853717505931854
1788676386491308500,19.25630859375,9.727117538452148,1.211450457572937,0.29320868849754333
1788676386507147300,19.272147216796874,9.712528228759766,1.321431279182434,0.30165547132492065
1788676386523016200,19.28801611328125,9.688360214233398,1.482526421546936,0.32889893651008606
1788676386538915800,19.303915771484377,9.66705322265625,1.6059131622314453,0.3735237121582031
1788676386554815500,19.3198154296875,9.656659126281738,1.6533710956573486,0.43090227246284485
1788676386570715100,19.335715087890627,9.657633781433105,1.630316138267517,0.4925117492675781
1788676386586615000,19.351614990234374,9.664692878723145,1.5684888362884521,0.5513102412223816
1788676386602484000,19.36748388671875,9.673961639404297,1.4974143505096436,0.5853134393692017
1788676386618383600,19.383383544921877,9.683667182922363,1.432054877281189,0.5883771777153015
1788676386634283300,19.399283203125,9.6924467086792,1.3741471767425537,0.581873893737793
1788676386650152400,19.41515234375,9.700007438659668,1.3214874267578125,0.5778535008430481
1788676386666052000,19.431052001953127,9.706307411193848,1.2775360345840454,0.570858359336853
1788676386681951700,19.44695166015625,9.71094799041748,1.2456287145614624,0.5623965263366699
1788676386697882000,19.462882080078124,9.713244438171387,1.228131890296936,0.5612223148345947
1788676386713751000,19.4787509765625,9.713155746459961,1.2258023023605347,0.567811906337738
1788676386729650700,19.494650634765627,9.710707664489746,1.2403512001037598,0.5779905319213867
1788676386745519900,19.510519775390627,9.707494735717773,1.2645784616470337,0.5794577598571777
1788676386761419500,19.52641943359375,9.704721450805664,1.2906854152679443,0.5682402849197388
1788676386777319200,19.542319091796877,9.702779769897461,1.31174898147583,0.5529709458351135
1788676386793158000,19.558157958984374,9.704324722290039,1.3296664953231812,0.47797515988349915
1788676386808996600,19.57399658203125,9.709657669067383,1.3441215753555298,0.2937353253364563
1788676386824865500,19.589865478515627,9.718232154846191,1.3138529062271118,0.011423932388424873
1788676386840734700,19.605734619140627,9.726527214050293,1.238263726234436,-0.17821459472179413
1788676386856695600,19.621695556640624,9.728877067565918,1.2102141380310059,-0.23393630981445312
1788676386872534000,19.637533935546877,9.726033210754395,1.2234076261520386,-0.27917444705963135
1788676386896307200,19.66130712890625,9.714398384094238,1.2928858995437622,-0.3595755100250244
1788676386912206800,19.677206787109377,9.703004837036133,1.360293984413147,-0.4143446087837219
1788676386928106500,19.6931064453125,9.686625480651855,1.453940987586975,-0.4751040041446686
1788676386943975700,19.7089755859375,9.665745735168457,1.569323182106018,-0.5300709009170532
1788676386959875300,19.724875244140627,9.646931648254395,1.6709175109863281,-0.5613603591918945
1788676386975775000,19.74077490234375,9.638313293457031,1.715849757194519,-0.5737350583076477
1788676386991644200,19.75664404296875,9.642234802246094,1.6922682523727417,-0.5778582692146301
1788676387007483000,19.77248291015625,9.6559419631958,1.6080130338668823,-0.5894487500190735
1788676387023352000,19.78835205078125,9.669153213500977,1.514747977256775,-0.6191858649253845
1788676387039251700,19.804251708984374,9.673925399780273,1.4722307920455933,-0.6465983390808105
1788676387055121000,19.820120849609374,9.66916561126709,1.4992765188217163,-0.655592143535614
1788676387071020500,19.8360205078125,9.657025337219238,1.5809011459350586,-0.642654299736023
1788676387086920200,19.851920166015624,9.64427661895752,1.6632604598999023,-0.6260086297988892
1788676387102789000,19.8677890625,9.635245323181152,1.7146631479263306,-0.6263906955718994
1788676387118688800,19.883688720703127,9.634758949279785,1.7121585607528687,-0.6405651569366455
1788676387134558000,19.899557861328127,9.639801025390625,1.674837350845337,-0.6629807353019714
1788676387150457600,19.91545751953125,9.6509370803833,1.5994677543640137,-0.6866613030433655
1788676387166326800,19.931326904296874,9.665596008300781,1.498049020767212,-0.7088762521743774
1788676387182226400,19.947226318359377,9.679647445678711,1.397210717201233,-0.722919225692749
1788676387198126000,19.9631259765625,9.690439224243164,1.3218626976013184,-0.7200401425361633
1788676387213995300,19.978995361328124,9.69558334350586,1.2938307523727417,-0.7014670968055725
1788676387229895000,19.99489501953125,9.693660736083984,1.3179097175598145,-0.6829634308815002
1788676387245794600,20.010794677734374,9.688267707824707,1.3651303052902222,-0.6665350198745728
1788676387261663700,20.026663818359374,9.683328628540039,1.4054440259933472,-0.6544213891029358
1788676387277563400,20.0425634765625,9.681144714355469,1.4238595962524414,-0.6468685865402222
1788676387293463000,20.058463134765624,9.68253231048584,1.4184439182281494,-0.6379446983337402
1788676387309332200,20.074332275390624,9.686490058898926,1.395150899887085,-0.6291651129722595
1788676387325231900,20.09023193359375,9.690567970275879,1.3725864887237549,-0.6158685088157654
1788676387341101000,20.10610107421875,9.691651344299316,1.3691110610961914,-0.6064778566360474
1788676387357000700,20.122000732421874,9.69005298614502,1.3839240074157715,-0.5983456373214722
1788676387372930800,20.137930908203124,9.686724662780762,1.4117498397827148,-0.5871332287788391
1788676387388800000,20.153800048828124,9.684008598327637,1.4374586343765259,-0.5692731738090515
1788676387404699600,20.16969970703125,9.684603691101074,1.4409486055374146,-0.5500036478042603
1788676387420599300,20.185599365234374,9.715729713439941,1.2906800508499146,-0.33034539222717285
1788676387436468500,20.201468505859374,9.717528343200684,1.2743096351623535,-0.3408513069152832
1788676387452337700,20.217337646484374,9.713605880737305,1.299500584602356,-0.35714003443717957
1788676387468267800,20.233267822265624,9.705007553100586,1.359325885772705,-0.36804088950157166
1788676387484137000,20.249136962890624,9.692171096801758,1.4466949701309204,-0.3731987774372101
1788676387500036600,20.26503662109375,9.678706169128418,1.5360875129699707,-0.36534085869789124
1788676387515936300,20.280936279296874,9.668895721435547,1.599848985671997,-0.3511945903301239
1788676387531805400,20.296805419921874,9.665424346923828,1.6241778135299683,-0.33467355370521545
1788676387547705000,20.312705078125,9.669142723083496,1.6078072786331177,-0.3049967288970947
1788676387563574300,20.32857421875,9.677095413208008,1.5666828155517578,-0.2640613913536072
1788676387579443200,20.344443115234377,9.682055473327637,1.5396883487701416,-0.2398768961429596
1788676387595342800,20.3603427734375,9.679145812988281,1.5572755336761475,-0.24376942217350006
1788676387611212000,20.3762119140625,9.668646812438965,1.6165207624435425,-0.2729741036891937
1788676387627081200,20.392081298828124,9.65572738647461,1.685858130455017,-0.3085213899612427
1788676387642980900,20.40798095703125,9.647302627563477,1.7298192977905273,-0.328124463558197
1788676387658880500,20.423880615234374,9.64953327178955,1.7181943655014038,-0.3235769271850586
1788676387674780200,20.4397802734375,9.658746719360352,1.6719151735305786,-0.28930070996284485
1788676387690649300,20.4556494140625,9.666157722473145,1.6341217756271362,-0.2557838559150696
1788676387706579500,20.471579345703127,9.672696113586426,1.6017465591430664,-0.20914395153522491
1788676387722448600,20.48744873046875,9.677779197692871,1.5732929706573486,-0.1890258640050888
1788676387738348300,20.503348388671874,9.685422897338867,1.52433180809021,-0.19846217334270477
1788676387754248000,20.519248046875,9.692758560180664,1.4716583490371704,-0.23458610475063324
1788676387770117000,20.5351171875,9.698625564575195,1.428533911705017,-0.2575490474700928
1788676387786116400,20.551116455078127,9.702421188354492,1.4053553342819214,-0.24163123965263367
