time,seconds_elapsed,z,y,x
1788676367488393700,0.253393798828125,-0.01038470957428217,0.03726277872920036,0.025045474991202354
1788676367504354300,0.269354248046875,0.006719517521560192,0.04764748737215996,-0.0012217304902151227
1788676367520223500,0.285223388671875,-0.009773843921720982,0.042760565876960754,-0.010995574295520782
1788676367536123100,0.301123046875,-0.039095375686883926,0.04214970022439957,-0.004886921960860491
1788676367552022800,0.317022705078125,-0.04398229718208313,-0.03176499158143997,0.059864792972803116
1788676367567922400,0.33292236328125,-0.033597588539123535,-0.1514945775270462,0.15454891324043274
1788676367583761200,0.34876123046875,-0.015271631069481373,-0.27550023794174194,0.25534167885780334
1788676367599660800,0.364660888671875,0.005497787147760391,-0.2871066629886627,0.2767219543457031
1788676367615591000,0.3805908203125,0.02626720629632473,-0.21380282938480377,0.23335053026676178
1788676367631490600,0.396490478515625,0.04886921867728233,-0.13072516024112701,0.17959438264369965
1788676367647420700,0.412420654296875,0.06291911751031876,-0.08857546001672745,0.09285151958465576
1788676367663289900,0.428289794921875,0.0708603709936142,-0.08002334833145142,0.0354301854968071
1788676367679159000,0.444158935546875,0.08246681094169617,-0.11484266817569733,0.0006108652451075613
1788676367695058700,0.46005859375,0.08246681094169617,-0.1466076523065567,-0.005497787147760391
1788676367718893000,0.48389306640625,0.09896016865968704,-0.1667662113904953,-0.01038470957428217
1788676367734792700,0.499792724609375,0.07696902006864548,-0.15027284622192383,-0.03726277872920036
1788676367758626800,0.523626708984375,0.0403171069920063,-0.056810468435287476,-0.030543262138962746
1788676367774526500,0.5395263671875,0.012217304669320583,-0.04459316283464432,0.01038470957428217
1788676367790426000,0.555426025390625,-0.0006108652451075613,-0.04092797264456749,0.06352998316287994
1788676367806325800,0.57132568359375,0.024434609338641167,-0.03298672288656235,0.09529497474431992
1788676367822164500,0.58716455078125,0.09468411654233932,-0.0403171069920063,0.13805554807186127
1788676367838033700,0.60303369140625,0.1459967941045761,-0.07819075137376785,0.16920967400074005
1788676367853933300,0.618933349609375,0.1820378452539444,-0.09712757170200348,0.20830504596233368
1788676367869833000,0.6348330078125,0.20341812074184418,-0.05864306539297104,0.23884831368923187
1788676367885732600,0.650732666015625,0.20891591906547546,0.009773843921720982,0.24862214922904968
1788676367901571000,0.666571044921875,0.1722639948129654,0.06536258012056351,0.22479841113090515
1788676367917470700,0.682470703125,0.10384709388017654,0.1466076523065567,0.15515977144241333
1788676367933370400,0.698370361328125,0.06230825558304787,0.19364428520202637,0.07513642311096191
1788676367949300700,0.71430078125,0.04642575979232788,0.19303341209888458,0.018936822190880775
1788676367965200400,0.730200439453125,0.04214970022439957,0.13377949595451355,-0.0006108652451075613
1788676367981038800,0.746038818359375,0.024434609338641167,0.05497787147760391,0.01466076634824276
1788676367996908000,0.761907958984375,0.007941247895359993,-0.0012217304902151227,0.04459316283464432
1788676368012777200,0.777777099609375,-0.02687807008624077,-0.039095375686883926,0.05253441259264946
1788676368028707300,0.793707275390625,-0.04764748737215996,-0.04337143152952194,0.042760565876960754
1788676368044546000,0.809546142578125,-0.05803219974040985,-0.042760565876960754,0.02382374368607998
1788676368060384800,0.825384765625,-0.04948008432984352,-0.03298672288656235,0.028099801391363144
1788676368076253700,0.841253662109375,-0.013439035043120384,-0.024434609338641167,0.0555887371301651
1788676368092092400,0.857092529296875,0.018936822190880775,-0.015882495790719986,0.07147123664617538
1788676368107961600,0.872961669921875,0.05314527451992035,-0.02382374368607998,0.06108652427792549
1788676368123891700,0.8888916015625,0.05925392732024193,-0.02871066704392433,0.05497787147760391
1788676368139791400,0.904791259765625,0.048258353024721146,-0.045204028487205505,0.0757472887635231
1788676368155660500,0.92066064453125,0.02932153269648552,-0.07269296050071716,0.09529497474431992
1788676368171499300,0.936499267578125,-0.0012217304902151227,-0.10262536257505417,0.09285151958465576
1788676368187368200,0.9523681640625,-0.003054326167330146,-0.1007927656173706,0.06414084881544113
1788676368203298600,0.968298583984375,0.006108652334660292,-0.08796459436416626,0.03176499158143997
1788676368219167500,0.98416748046875,0.006719517521560192,-0.04581489413976669,0.01466076634824276
1788676368235067400,1.0000673828125,0.009162978269159794,-0.006108652334660292,0.02321287989616394
1788676368250936300,1.015936279296875,0.012217304669320583,-0.01160643994808197,0.04642575979232788
1788676368266836000,1.0318359375,0.00855211354792118,-0.039706241339445114,0.06536258012056351
1788676368282766300,1.047766357421875,-0.009162978269159794,-0.05314527451992035,0.08429940044879913
1788676368298635300,1.06363525390625,-0.02687807008624077,-0.015882495790719986,0.08979719132184982
1788676368314535000,1.079534912109375,-0.039706241339445114,0.025045474991202354,0.06414084881544113
1788676368330434800,1.095434814453125,-0.0403171069920063,0.04092797264456749,0.033597588539123535
1788676368346334500,1.11133447265625,-0.02871066704392433,0.039095375686883926,0.02626720629632473
1788676368362203400,1.127203369140625,-0.01771509274840355,0.021380282938480377,0.039706241339445114
1788676368378042000,1.1430419921875,-0.009162978269159794,0.006719517521560192,0.05925392732024193
1788676368393880800,1.158880859375,-0.009162978269159794,-0.025656340643763542,0.05742133408784866
1788676368409811000,1.17481103515625,-0.01710422709584236,-0.06658431142568588,0.036041051149368286
1788676368425710600,1.190710693359375,-0.01466076634824276,-0.08002334833145142,0.019547687843441963
1788676368441610200,1.2066103515625,-0.0024434609804302454,-0.06536258012056351,0.028099801391363144
1788676368457479400,1.2224794921875,0.00427605677396059,-0.05925392732024193,0.051312681287527084
1788676368473348600,1.2383486328125,0.00427605677396059,-0.036651913076639175,0.07635815441608429
1788676368489217500,1.254217529296875,0.005497787147760391,-0.04642575979232788,0.08491026610136032
1788676368505148000,1.27014794921875,0.006108652334660292,-0.05619960278272629,0.08918632566928864
1788676368521047600,1.286047607421875,0.003054326167330146,-0.06169738993048668,0.10506882518529892
1788676368536886000,1.301885986328125,-0.01466076634824276,-0.07696902006864548,0.10384709388017654
1788676368552785700,1.31778564453125,-0.042760565876960754,-0.07513642311096191,0.05314527451992035
1788676368568654800,1.33365478515625,-0.06108652427792549,-0.04153883829712868,-0.016493361443281174
1788676368584554500,1.349554443359375,-0.06352998316287994,0.015271631069481373,-0.06902777403593063
1788676368600423700,1.365423583984375,-0.04764748737215996,0.048258353024721146,-0.08185594528913498
1788676368616232000,1.38123193359375,-0.02687807008624077,0.07269296050071716,-0.07330382615327835
1788676368632070400,1.3970703125,0.0006108652451075613,0.0354301854968071,0.021380282938480377
1788676368647939600,1.412939697265625,0.007941247895359993,-0.03787364438176155,0.12095131725072861
1788676368663839200,1.428839111328125,0.019547687843441963,-0.08674286305904388,0.14538592100143433
1788676368679708400,1.44470849609375,0.031154127791523933,-0.09712757170200348,0.08368854224681854
1788676368695516400,1.460516357421875,-0.01710422709584236,-0.04459316283464432,-0.0024434609804302454
1788676368711355100,1.476355224609375,-0.031154127791523933,0.019547687843441963,-0.11301007121801376
1788676368727254800,1.4922548828125,0.003054326167330146,0.05925392732024193,-0.12095131725072861
1788676368743185000,1.508184814453125,0.030543262138962746,0.08491026610136032,-0.05192354694008827
1788676368759084500,1.52408447265625,0.06536258012056351,0.05742133408784866,0.03481931984424591
1788676368774923300,1.53992333984375,0.06169738993048668,-0.022602014243602753,0.10751228034496307
1788676368790823000,1.555822998046875,0.054367005825042725,-0.08307767659425735,0.13439035415649414
1788676368806692000,1.571692138671875,0.03726277872920036,-0.10506882518529892,0.09162978827953339
1788676368822591700,1.587591796875,-0.01038470957428217,-0.04764748737215996,-0.025656340643763542
1788676368838491400,1.603491455078125,-0.05009094998240471,0.042760565876960754,-0.1875356286764145
1788676368854360600,1.619360595703125,-0.0757472887635231,0.0659734457731247,-0.2889392673969269
1788676368870199000,1.635198974609375,-0.010995574295520782,0.08185594528913498,-0.24617868661880493
1788676368886129200,1.651129150390625,-0.004886921960860491,0.05619960278272629,-0.16004669666290283
1788676368902059500,1.6670595703125,-0.05009094998240471,0.03176499158143997,-0.06475171446800232
1788676368917928700,1.6829287109375,-0.06536258012056351,-0.00855211354792118,-0.0024434609804302454
1788676368933767200,1.69876708984375,-0.07941248267889023,-0.07941248267889023,0.02015855349600315
1788676368949636400,1.71463623046875,-0.06352998316287994,-0.10018189996480942,0.01160643994808197
1788676368965536000,1.730535888671875,-0.04886921867728233,-0.059864792972803116,-0.04214970022439957
1788676368981466000,1.746466064453125,-0.05619960278272629,0.009162978269159794,-0.10873401165008545
1788676368997335300,1.762335205078125,-0.04581489413976669,0.022602014243602753,-0.12522737681865692
1788676369013174000,1.778174072265625,-0.06780604273080826,-0.030543262138962746,-0.010995574295520782
1788676369029043200,1.794043212890625,-0.1417207419872284,-0.08429940044879913,0.12522737681865692
1788676369044912000,1.809912109375,-0.17837265133857727,-0.10690141469240189,0.17409659922122955
1788676369060842500,1.825842529296875,-0.13316862285137177,-0.09712757170200348,0.14905111491680145
1788676369076711400,1.84171142578125,-0.07696902006864548,-0.056810468435287476,0.09468411654233932
1788676369092550100,1.857550048828125,-0.04703662544488907,-0.0024434609804302454,0.04886921867728233
1788676369108449800,1.87344970703125,-0.009162978269159794,0.042760565876960754,0.02076941914856434
1788676369124349400,1.889349365234375,0.00366519158706069,0.018325956538319588,0.015271631069481373
1788676369140249000,1.9052490234375,-0.0024434609804302454,-0.042760565876960754,0.018936822190880775
1788676369156179200,1.92117919921875,0.003054326167330146,-0.07513642311096191,0.039706241339445114
1788676369171987500,1.936987548828125,0.03787364438176155,-0.07757988572120667,0.05925392732024193
1788676369187887000,1.95288720703125,0.08429940044879913,-0.06475171446800232,0.07330382615327835
1788676369203725800,1.968725830078125,0.13561208546161652,-0.021991148591041565,0.06352998316287994
1788676369219625500,1.98462548828125,0.152105450630188,0.030543262138962746,0.04092797264456749
1788676369235525000,2.000525146484375,0.13500121235847473,0.07024950534105301,0.00366519158706069
1788676369251394000,2.01639404296875,0.11362093687057495,0.06291911751031876,-0.010995574295520782
1788676369267294000,2.0322939453125,0.07513642311096191,0.015271631069481373,0.00427605677396059
1788676369283193600,2.048193603515625,0.04886921867728233,-0.033597588539123535,0.03237585723400116
1788676369299123700,2.064123779296875,0.029932396486401558,-0.045204028487205505,0.07391469180583954
1788676369315023400,2.0800234375,0.018325956538319588,-0.02076941914856434,0.10506882518529892
1788676369330923000,2.095923095703125,0.0024434609804302454,0.02015855349600315,0.11484266817569733
1788676369346822700,2.11182275390625,-0.005497787147760391,0.05253441259264946,0.10323622822761536
1788676369362691800,2.12769189453125,-0.02382374368607998,0.054367005825042725,0.08246681094169617
1788676369378591500,2.143591552734375,-0.0507018156349659,0.029932396486401558,0.048258353024721146
1788676369394491100,2.1594912109375,-0.06352998316287994,0.004886921960860491,0.029932396486401558
1788676369410329600,2.17532958984375,-0.06902777403593063,-0.014049900695681572,0.039095375686883926
1788676369426198800,2.19119873046875,-0.07024950534105301,-0.016493361443281174,0.0507018156349659
1788676369442098400,2.207098388671875,-0.07147123664617538,-0.018936822190880775,0.04703662544488907
1788676369458028800,2.22302880859375,-0.08918632566928864,-0.024434609338641167,0.021380282938480377
1788676369473897700,2.238897705078125,-0.06169738993048668,-0.02932153269648552,-0.16432274878025055
1788676369489736400,2.254736328125,-0.015271631069481373,0.03726277872920036,-0.16737708449363708
1788676369505636000,2.270635986328125,-0.04153883829712868,0.02687807008624077,-0.17470745742321014
1788676369521505300,2.28650537109375,-0.03848451003432274,0.03787364438176155,-0.1319468915462494
1788676369537435400,2.302435302734375,-0.04337143152952194,0.007941247895359993,-0.07147123664617538
1788676369553335000,2.3183349609375,-0.04703662544488907,-0.004886921960860491,-0.039706241339445114
1788676369569173800,2.334173828125,-0.02382374368607998,-0.036041051149368286,-0.05803219974040985
1788676369585043000,2.35004296875,-0.015882495790719986,-0.03298672288656235,-0.10384709388017654
1788676369600912000,2.365911865234375,-0.028099801391363144,-0.022602014243602753,-0.14966198801994324
1788676369616842200,2.38184228515625,-0.036041051149368286,0.02015855349600315,-0.15393804013729095
1788676369632742000,2.397741943359375,-0.039095375686883926,0.0659734457731247,-0.11178833991289139
1788676369648580400,2.413580322265625,-0.048258353024721146,0.08857546001672745,-0.04948008432984352
1788676369664449500,2.429449462890625,-0.09040805697441101,0.08735372871160507,-0.00855211354792118
1788676369680349200,2.44534912109375,-0.0910189226269722,0.09651670604944229,-0.013439035043120384
1788676369696279300,2.461279296875,-0.06719517707824707,0.0708603709936142,-0.033597588539123535
1788676369712179200,2.47717919921875,-0.039095375686883926,0.028099801391363144,-0.03176499158143997
1788676369728017700,2.493017578125,-0.01160643994808197,0.02687807008624077,0.00427605677396059
1788676369743856400,2.5088564453125,0.006108652334660292,0.031154127791523933,0.031154127791523933
1788676369759756000,2.524756103515625,0.016493361443281174,0.036651913076639175,0.02382374368607998
1788676369775686100,2.54068603515625,0.039095375686883926,0.019547687843441963,-0.0024434609804302454
1788676369791585800,2.556585693359375,0.05497787147760391,0.013439035043120384,-0.004886921960860491
1788676369807424500,2.572424560546875,0.05009094998240471,0.02321287989616394,-0.004886921960860491
1788676369823324200,2.58832421875,0.039095375686883926,0.03420845419168472,-0.01771509274840355
1788676369839223800,2.604223876953125,0.03726277872920036,0.0507018156349659,-0.04398229718208313
1788676369855154000,2.62015380859375,0.045204028487205505,0.06841690838336945,-0.05009094998240471
1788676369871053600,2.636053466796875,0.05497787147760391,0.07880161702632904,-0.04092797264456749
1788676369886892300,2.651892333984375,0.0659734457731247,0.08185594528913498,-0.03176499158143997
1788676369902792000,2.6677919921875,0.05803219974040985,0.039706241339445114,-0.04581489413976669
1788676369918691600,2.683691650390625,0.05314527451992035,0.01160643994808197,-0.06963863968849182
1788676369934621700,2.69962158203125,0.06536258012056351,0.00366519158706069,-0.0910189226269722
1788676369950521300,2.715521240234375,0.06108652427792549,0.010995574295520782,-0.10812314599752426
1788676369966360000,2.731360107421875,0.05803219974040985,0.021380282938480377,-0.11728613078594208
1788676369982259700,2.747259765625,0.05192354694008827,0.03176499158143997,-0.0959058403968811
1788676369998159400,2.763159423828125,-0.1160643994808197,0.10690141469240189,0.02076941914856434
1788676370014089500,2.77908935546875,-0.07391469180583954,0.20525072515010834,0.09529497474431992
1788676370029989000,2.794989013671875,-0.15393804013729095,0.2816088795661926,0.10445795953273773
1788676370045827800,2.810827880859375,-0.19914206862449646,0.26939156651496887,-0.08796459436416626
1788676370061727500,2.8267275390625,-0.08552113175392151,0.3878994286060333,-0.16737708449363708
1788676370077596700,2.8425966796875,0.013439035043120384,0.0959058403968811,-0.15271630883216858
1788676370093496300,2.858496337890625,-0.0012217304902151227,-0.2064724564552307,-0.06841690838336945
1788676370109396000,2.87439599609375,0.04764748737215996,-0.34025195240974426,-0.04398229718208313
1788676370125234400,2.890234375,0.1472185254096985,-0.4660901725292206,0.05253441259264946
1788676370141103600,2.906103515625,0.009773843921720982,-0.4202753007411957,0.048258353024721146
1788676370156942300,2.9219423828125,0.013439035043120384,-0.2119702398777008,-0.08246681094169617
1788676370172842000,2.937842041015625,0.004886921960860491,0.0708603709936142,-0.17837265133857727
1788676370188741600,2.95374169921875,0.00366519158706069,0.17592918872833252,-0.23090706765651703
1788676370204610800,2.96961083984375,0.04153883829712868,0.18081611394882202,-0.24923302233219147
1788676370220510500,2.985510498046875,0.02382374368607998,0.14049901068210602,-0.16249015927314758
1788676370236410000,3.00141015625,-0.10567969083786011,0.13805554807186127,0.09712757170200348
1788676370252340200,3.01734033203125,-0.13316862285137177,0.16798794269561768,0.13561208546161652
1788676370268209400,3.03320947265625,-0.08674286305904388,0.15393804013729095,0.0806342139840126
1788676370284048000,3.0490478515625,-0.059864792972803116,0.07880161702632904,-0.029932396486401558
1788676370299917000,3.0649169921875,-0.02382374368607998,-0.015271631069481373,-0.16798794269561768
1788676370315847200,3.08084716796875,0.003054326167330146,-0.09224065393209457,-0.252287358045578
1788676370331747000,3.0967470703125,0.021380282938480377,-0.09346238523721695,-0.29626965522766113
1788676370347646700,3.112646728515625,0.015882495790719986,0.0012217304902151227,-0.2785545587539673
1788676370363485200,3.128485107421875,-0.007941247895359993,0.13500121235847473,-0.18325957655906677
1788676370379415300,3.144415283203125,-0.03298672288656235,0.19425514340400696,-0.08918632566928864
1788676370395315000,3.16031494140625,-0.05009094998240471,0.1820378452539444,0.009773843921720982
1788676370411214800,3.17621484375,-0.039706241339445114,0.12400564551353455,0.07941248267889023
1788676370427114500,3.192114501953125,-0.02382374368607998,0.08735372871160507,0.11484266817569733
1788676370442953000,3.207952880859375,-0.018325956538319588,0.11362093687057495,0.10506882518529892
1788676370458822100,3.223822265625,-0.01160643994808197,0.1716531366109848,0.04153883829712868
1788676370474721800,3.2397216796875,-0.019547687843441963,0.20586158335208893,-0.02015855349600315
1788676370490621400,3.255621337890625,-0.014049900695681572,0.18081611394882202,-0.03420845419168472
1788676370506490600,3.27149072265625,0.006719517521560192,0.10445795953273773,-0.02015855349600315
1788676370522359800,3.28735986328125,0.024434609338641167,0.018936822190880775,0.012217304669320583
1788676370538259500,3.303259521484375,0.04337143152952194,-0.009773843921720982,0.036651913076639175
1788676370554128600,3.319128662109375,0.05619960278272629,0.009773843921720982,0.054367005825042725
1788676370570028300,3.3350283203125,0.06414084881544113,0.01771509274840355,0.05742133408784866
1788676370585958400,3.35095849609375,0.06719517707824707,0.01771509274840355,0.03237585723400116
1788676370601766400,3.366766357421875,0.07208210229873657,0.02871066704392433,0.015271631069481373
1788676370617635600,3.382635498046875,0.06475171446800232,0.025045474991202354,0.004886921960860491
1788676370633474300,3.398474365234375,0.056810468435287476,0.03237585723400116,0.01710422709584236
1788676370649404400,3.414404296875,0.04948008432984352,-0.019547687843441963,0.04214970022439957
1788676370665273600,3.430273681640625,0.04703662544488907,-0.05619960278272629,0.03298672288656235
1788676370681112000,3.446112060546875,0.04703662544488907,-0.05192354694008827,-0.012828170321881771
1788676370696981200,3.461981201171875,0.04948008432984352,-0.01038470957428217,-0.08552113175392151
1788676370712850400,3.477850341796875,0.04886921867728233,0.025656340643763542,-0.10506882518529892
1788676370728780500,3.493780517578125,0.05009094998240471,0.03298672288656235,-0.07208210229873657
1788676370744649700,3.509649658203125,0.056810468435287476,-0.005497787147760391,-0.02871066704392433
1788676370760458000,3.5254580078125,0.05803219974040985,-0.04642575979232788,0.015271631069481373
1788676370776296400,3.54129638671875,0.059864792972803116,-0.05192354694008827,0.013439035043120384
1788676370792226600,3.5572265625,0.06352998316287994,-0.025045474991202354,-0.03420845419168472
1788676370808126500,3.57312646484375,0.059864792972803116,-0.05192354694008827,-0.08552113175392151
1788676370824026000,3.589026123046875,0.0507018156349659,-0.05803219974040985,-0.11484266817569733
1788676370839925800,3.60492578125,0.04459316283464432,-0.01038470957428217,-0.10567969083786011
1788676370855764200,3.62076416015625,0.04948008432984352,0.02932153269648552,-0.04398229718208313
1788676370871663900,3.636663818359375,0.06291911751031876,0.04581489413976669,0.05253441259264946
1788676370887594200,3.65259423828125,0.06352998316287994,0.012828170321881771,0.07696902006864548
1788676370903463200,3.668463134765625,0.0507018156349659,0.021991148591041565,0.00733038317412138
1788676370919302000,3.684302001953125,0.03298672288656235,0.01710422709584236,-0.09529497474431992
1788676370935140600,3.700140625,0.019547687843441963,-0.02321287989616394,-0.20036379992961884
1788676370951040300,3.716040283203125,0.009773843921720982,-0.05192354694008827,-0.21868975460529327
1788676370966940000,3.73193994140625,0.025656340643763542,-0.010995574295520782,-0.12339477986097336
1788676370982809000,3.74780908203125,0.039095375686883926,0.06902777403593063,-0.01771509274840355
1788676370998617000,3.7636171875,0.04642575979232788,0.1111774742603302,0.04459316283464432
1788676371014486300,3.779486328125,0.039706241339445114,0.09040805697441101,0.03726277872920036
1788676371030386000,3.795385986328125,0.02015855349600315,0.03176499158143997,-0.009773843921720982
1788676371046285600,3.81128564453125,-0.004886921960860491,-0.021380282938480377,-0.05619960278272629
1788676371062154800,3.82715478515625,-0.02076941914856434,-0.05742133408784866,-0.08674286305904388
1788676371077993200,3.8429931640625,-0.021991148591041565,-0.05009094998240471,-0.0861319974064827
1788676371093862400,3.8588623046875,-0.027488935738801956,-0.031154127791523933,-0.06719517707824707
1788676371109731600,3.874731689453125,-0.036651913076639175,-0.03298672288656235,-0.03176499158143997
1788676371125661700,3.89066162109375,-0.04153883829712868,-0.06291911751031876,0.016493361443281174
1788676371141561300,3.906561279296875,-0.059864792972803116,-0.08307767659425735,0.04337143152952194
1788676371157400000,3.922400146484375,-0.09162978827953339,-0.13988813757896423,0.04764748737215996
1788676371173330200,3.938330078125,-0.10751228034496307,-0.15515977144241333,0.0555887371301651
1788676371189199400,3.954199462890625,-0.11850785464048386,-0.12034045159816742,0.07513642311096191
1788676371205099000,3.97009912109375,-0.13805554807186127,-0.10995574295520782,0.05497787147760391
1788676371220998700,3.98599853515625,-0.17959438264369965,-0.10812314599752426,-0.01710422709584236
1788676371236867800,4.001867919921875,-0.23457226157188416,-0.12522737681865692,-0.11484266817569733
1788676371252737000,4.017737060546875,-0.2742784917354584,-0.08491026610136032,-0.2028072625398636
1788676371268636700,4.03363671875,-0.33597588539123535,0.04153883829712868,-0.32131510972976685
1788676371284536300,4.049536376953125,-0.3897320330142975,0.13377949595451355,-0.39217549562454224
1788676371300436000,4.06543603515625,-0.423329621553421,0.18814650177955627,-0.4086688458919525
1788676371316274400,4.0812744140625,-0.42149701714515686,0.15332718193531036,-0.323147714138031
1788676371332174000,4.097174072265625,-0.3799581825733185,0.04398229718208313,-0.08246681094169617
1788676371348012800,4.1130126953125,-0.313373863697052,0.03420845419168472,0.21930062770843506
1788676371363973600,4.1289736328125,-0.25534167885780334,0.08246681094169617,0.543059229850769
1788676371379873300,4.144873291015625,-0.25534167885780334,0.06291911751031876,0.6322455406188965
1788676371395742200,4.1607421875,-0.2877175211906433,-0.01710422709584236,0.48808133602142334
1788676371411641900,4.176641845703125,-0.3219259977340698,-0.09529497474431992,0.20036379992961884
1788676371427511000,4.192510986328125,-0.3396410644054413,-0.16065755486488342,-0.15393804013729095
1788676371443410700,4.20841064453125,-0.3536909818649292,-0.18448130786418915,-0.3732386529445648
1788676371459341000,4.224341064453125,-0.3628539443016052,-0.17287486791610718,-0.513126790523529
1788676371475271200,4.240271240234375,-0.36651915311813354,-0.10873401165008545,-0.5650503635406494
1788676371491109600,4.256109619140625,-0.3500257730484009,-0.005497787147760391,-0.5772676467895508
1788676371507009300,4.27200927734375,-0.30482175946235657,0.07452555745840073,-0.5400048494338989
1788676371522909200,4.2879091796875,-0.2064724564552307,0.152105450630188,-0.35613444447517395
1788676371538778000,4.303778076171875,-0.1062905490398407,0.1313360333442688,-0.06963863968849182
1788676371554677800,4.319677734375,-0.02382374368607998,0.04153883829712868,0.2626720666885376
1788676371570577400,4.335577392578125,0.02932153269648552,-0.02382374368607998,0.42760565876960754
1788676371586416000,4.351416015625,0.04581489413976669,-0.04581489413976669,0.40622538328170776
1788676371602315800,4.367315673828125,0.04703662544488907,-0.02932153269648552,0.2571742534637451
1788676371618185000,4.38318505859375,0.036041051149368286,0.0024434609804302454,0.11972958594560623
1788676371633993000,4.398992919921875,0.02932153269648552,0.04092797264456749,0.010995574295520782
1788676371649892600,4.414892578125,0.039095375686883926,0.04764748737215996,-0.015882495790719986
1788676371665761800,4.43076171875,0.05192354694008827,0.051312681287527084,-0.01466076634824276
1788676371681661400,4.446661376953125,0.039706241339445114,0.05314527451992035,-0.04581489413976669
1788676371697530600,4.462530517578125,0.02382374368607998,0.07880161702632904,-0.15577064454555511
1788676371713338600,4.478338623046875,0.02871066704392433,0.0806342139840126,-0.21563543379306793
1788676371729207800,4.494207763671875,0.08796459436416626,0.07391469180583954,-0.19425514340400696
1788676371745138200,4.51013818359375,0.15821409225463867,0.07452555745840073,-0.12889257073402405
1788676371761068300,4.526068359375,0.22052235901355743,0.08491026610136032,-0.05619960278272629
1788676371776968000,4.541968017578125,0.2480112910270691,0.08979719132184982,-0.006108652334660292
1788676371792806400,4.557806396484375,0.28038713335990906,0.10751228034496307,0.060475658625364304
1788676371808675600,4.573675537109375,0.3170390725135803,0.1508837193250656,0.13072516024112701
1788676371824575200,4.5895751953125,0.34574973583221436,0.2028072625398636,0.24556782841682434
1788676371840505600,4.605505615234375,0.35613444447517395,0.21991148591041565,0.2981022298336029
1788676371856405200,4.6214052734375,0.3488040566444397,0.21502456068992615,0.26450464129447937
1788676371872243700,4.63724365234375,0.35735616087913513,0.19608774781227112,0.16920967400074005
1788676371888113000,4.65311279296875,0.35185837745666504,0.06108652427792549,0.006719517521560192
1788676371903951600,4.66895166015625,0.32620203495025635,-0.1264491081237793,-0.12828169763088226
1788676371919790000,4.6847900390625,0.25106561183929443,-0.33475416898727417,-0.3023782968521118
1788676371935659300,4.7006591796875,0.17409659922122955,-0.41111230850219727,-0.3982841372489929
1788676371951498000,4.716498046875,0.1319468915462494,-0.413555771112442,-0.3139847218990326
1788676371967336400,4.73233642578125,0.16982053220272064,-0.3090978264808655,-0.06963863968849182
1788676371983266800,4.748266845703125,0.24923302233219147,-0.14844025671482086,0.32498031854629517
1788676371999135700,4.7641357421875,0.2871066629886627,-0.12461651116609573,0.5699372887611389
1788676372015066000,4.780066162109375,0.3017674386501312,-0.20830504596233368,0.5913175344467163
1788676372030965800,4.7959658203125,0.31520646810531616,-0.29016098380088806,0.46181413531303406
1788676372046835000,4.8118349609375,0.303600013256073,-0.3286454975605011,0.2583959996700287
1788676372062673400,4.82767333984375,0.27488934993743896,-0.30604347586631775,-0.015271631069481373
1788676372078542600,4.84354248046875,0.2590068578720093,-0.2382374405860901,-0.21502456068992615
1788676372094442200,4.859442138671875,0.24190263450145721,-0.08002334833145142,-0.33047810196876526
1788676372110281000,4.875281005859375,0.22113321721553802,0.04337143152952194,-0.32498031854629517
1788676372126180600,4.8911806640625,0.18875735998153687,0.09712757170200348,-0.23945917189121246
1788676372142049800,4.9070498046875,0.14294247329235077,0.06963863968849182,-0.11239920556545258
1788676372157980000,4.92297998046875,0.11911872029304504,0.03726277872920036,0.025045474991202354
1788676372173879600,4.938879638671875,0.10384709388017654,-0.012217304669320583,0.04764748737215996
1788676372189718000,4.954718017578125,0.06169738993048668,-0.07941248267889023,-0.010995574295520782
1788676372205587200,4.970587158203125,0.048258353024721146,-0.10384709388017654,-0.04703662544488907
1788676372221426000,4.986426025390625,0.06719517707824707,-0.10323622822761536,-0.015882495790719986
1788676372237295000,5.002295166015625,0.06536258012056351,-0.10323622822761536,0.04581489413976669
1788676372253225200,5.01822509765625,0.03176499158143997,-0.12950342893600464,0.04642575979232788
1788676372269124900,5.034124755859375,0.0012217304902151227,-0.12889257073402405,-0.039706241339445114
1788676372284963600,5.049963623046875,-0.005497787147760391,-0.09040805697441101,-0.18814650177955627
1788676372300832800,5.065832763671875,-0.00427605677396059,-0.08429940044879913,-0.2583959996700287
1788676372316763000,5.081762939453125,0.00427605677396059,-0.09712757170200348,-0.20341812074184418
1788676372332662500,5.09766259765625,0.028099801391363144,-0.060475658625364304,-0.09651670604944229
1788676372348501000,5.1135009765625,0.014049900695681572,0.006719517521560192,-0.015882495790719986
1788676372364400600,5.129400634765625,-0.028099801391363144,0.060475658625364304,0.03176499158143997
1788676372380269800,5.145269775390625,-0.05925392732024193,0.07757988572120667,0.07757988572120667
1788676372396200200,5.1612001953125,-0.09407325088977814,0.022602014243602753,0.08552113175392151
1788676372412069000,5.177069091796875,-0.13500121235847473,-0.04214970022439957,0.051312681287527084
1788676372427907800,5.192907958984375,-0.19486601650714874,-0.09957103431224823,-0.06108652427792549
1788676372443777000,5.208777099609375,-0.21991148591041565,-0.10873401165008545,-0.16065755486488342
1788676372459646200,5.224646240234375,-0.21868975460529327,-0.0708603709936142,-0.17898350954055786
1788676372475515100,5.24051513671875,-0.2070833146572113,0.05314527451992035,-0.10018189996480942
1788676372491415000,5.2564150390625,-0.18997909128665924,0.24678955972194672,0.08002334833145142
1788676372507253500,5.27225341796875,-0.1814269721508026,0.30482175946235657,0.25045475363731384
1788676372523122700,5.288122802734375,-0.18448130786418915,0.19364428520202637,0.33047810196876526
1788676372538991900,5.303991943359375,-0.20402899384498596,0.14966198801994324,0.26572638750076294
1788676372554891500,5.3198916015625,-0.24862214922904968,0.13988813757896423,0.04581489413976669
1788676372570760700,5.3357607421875,-0.29504790902137756,0.1362229436635971,-0.2431243658065796
1788676372586599200,5.35159912109375,-0.2926044464111328,0.24007004499435425,-0.45814892649650574
1788676372602468400,5.36746826171875,-0.2376265823841095,0.3390302062034607,-0.3378084897994995
1788676372618368000,5.383367919921875,-0.1514945775270462,0.3286454975605011,0.0354301854968071
1788676372634267600,5.399267578125,-0.1215621829032898,0.20830504596233368,0.3378084897994995
1788676372650167300,5.415167236328125,-0.14477506279945374,0.20402899384498596,0.5057964324951172
1788676372666006000,5.431006103515625,-0.1771509200334549,0.25106561183929443,0.503963828086853
1788676372681875200,5.446875244140625,-0.20402899384498596,0.2528982162475586,0.41599923372268677
1788676372697713700,5.462713623046875,-0.21868975460529327,0.23273965716362,0.28466320037841797
1788676372713613300,5.47861328125,-0.23884831368923187,0.22052235901355743,0.025656340643763542
1788676372729443800,5.49444384765625,-0.28099802136421204,0.18448130786418915,-0.21074850857257843
1788676372745313000,5.51031298828125,-0.32681289315223694,0.03848451003432274,-0.36651915311813354
1788676372761212700,5.526212646484375,-0.303600013256073,-0.018936822190880775,-0.3836233615875244
1788676372777112300,5.5421123046875,-0.24495697021484375,-0.06841690838336945,-0.23884831368923187
1788676372793012000,5.558011962890625,-0.15760323405265808,-0.07635815441608429,0.02382374368607998
1788676372808911600,5.57391162109375,-0.060475658625364304,-0.00855211354792118,0.29993483424186707
1788676372824750300,5.589750244140625,-0.04948008432984352,-0.018325956538319588,0.37568211555480957
1788676372840650000,5.60564990234375,-0.07330382615327835,-0.07513642311096191,0.3066543638706207
1788676372856488400,5.621488525390625,-0.11178833991289139,-0.12400564551353455,0.1062905490398407
1788676372872418600,5.63741845703125,-0.13072516024112701,-0.14294247329235077,-0.1111774742603302
1788676372888318200,5.653318115234375,-0.11239920556545258,-0.13561208546161652,-0.28955012559890747
1788676372904187400,5.6691875,-0.09712757170200348,-0.06719517707824707,-0.3591887652873993
1788676372920087000,5.685087158203125,-0.1007927656173706,0.05253441259264946,-0.30054569244384766
1788676372935956200,5.700956298828125,-0.06719517707824707,0.08552113175392151,-0.19058994948863983
1788676372951855900,5.71685595703125,-0.00733038317412138,0.07757988572120667,-0.09834930300712585
1788676372975659500,5.740659423828125,0.039706241339445114,0.03237585723400116,-0.1270599663257599
1788676372991528700,5.75652880859375,0.06963863968849182,-0.015271631069481373,-0.18509216606616974
1788676373007428400,5.772428466796875,0.10445795953273773,-0.09529497474431992,-0.19608774781227112
1788676373023236600,5.788236572265625,0.15332718193531036,-0.07330382615327835,-0.1466076523065567
1788676373039075000,5.804074951171875,0.19364428520202637,-0.005497787147760391,-0.09224065393209457
1788676373054974700,5.819974609375,0.2571742534637451,0.0806342139840126,-0.01466076634824276
1788676373070905000,5.835905029296875,0.3378084897994995,0.09712757170200348,0.11545353382825851
1788676373086804700,5.8518046875,0.3952298164367676,0.09651670604944229,0.2376265823841095
1788676373102674000,5.867673828125,0.43127086758613586,0.04459316283464432,0.2926044464111328
1788676373118573600,5.883573486328125,0.44104471802711487,0.029932396486401558,0.21074850857257843
1788676373134473200,5.89947314453125,0.40133845806121826,0.04092797264456749,-0.08002334833145142
1788676373150372900,5.915372802734375,0.304210901260376,0.028099801391363144,-0.42149701714515686
1788676373166272500,5.9312724609375,0.252287358045578,-0.039095375686883926,-0.6279694437980652
1788676373182111000,5.947111083984375,0.26633724570274353,-0.1062905490398407,-0.5125159621238708
1788676373205945300,5.9709453125,0.3543018400669098,-0.10018189996480942,0.18814650177955627
1788676373221783800,5.98678369140625,0.3933972120285034,-0.09162978827953339,0.646906316280365
1788676373237683500,6.002683349609375,0.3878994286060333,-0.14416420459747314,0.7147123217582703
1788676373261517800,6.026517822265625,0.30970868468284607,-0.20952677726745605,0.2932153046131134
1788676373277387000,6.042386962890625,0.24129177629947662,-0.26572638750076294,-0.0555887371301651
1788676373293286700,6.05828662109375,0.18814650177955627,-0.30543261766433716,-0.3597996234893799
1788676373309186300,6.074186279296875,0.16798794269561768,-0.2321287989616394,-0.494189977645874
1788676373325055500,6.090055419921875,0.15577064454555511,-0.07330382615327835,-0.47830748558044434
1788676373340924400,6.10592431640625,0.1569923609495163,0.07819075137376785,-0.37262779474258423
1788676373356793600,6.121793701171875,0.16310101747512817,0.17043140530586243,-0.18997909128665924
1788676373372724000,6.137723876953125,0.18570303916931152,0.17104226350784302,-0.0403171069920063
1788676373388623600,6.15362353515625,0.2070833146572113,0.14905111491680145,0.05375614017248154
1788676373404553700,6.1695537109375,0.19792033731937408,0.09285151958465576,0.10873401165008545
1788676373420423000,6.1854228515625,0.1722639948129654,0.04886921867728233,0.12889257073402405
1788676373436292000,6.2012919921875,0.12828169763088226,0.0403171069920063,0.15943582355976105
1788676373452191700,6.217191650390625,0.0861319974064827,0.024434609338641167,0.1966986060142517
1788676373468121900,6.233121826171875,0.04214970022439957,-0.06230825558304787,0.1973094791173935
1788676373484021500,6.249021484375,0.016493361443281174,-0.13500121235847473,0.14538592100143433
1788676373499890700,6.264890625,-0.027488935738801956,-0.13377949595451355,0.00855211354792118
1788676373515759600,6.280759521484375,-0.0806342139840126,-0.08857546001672745,-0.12767083942890167
1788676373531628800,6.29662890625,-0.12034045159816742,-0.039706241339445114,-0.2272418737411499
1788676373547559200,6.31255908203125,-0.16065755486488342,0.009162978269159794,-0.25106561183929443
1788676373563428000,6.328427978515625,-0.23396138846874237,0.10384709388017654,-0.16249015927314758
1788676373579266800,6.344266845703125,-0.2889392673969269,0.12461651116609573,-0.013439035043120384
1788676373595136000,6.360135986328125,-0.3121521472930908,0.12828169763088226,0.12339477986097336
1788676373611035600,6.37603564453125,-0.31642818450927734,0.1508837193250656,0.1661553531885147
1788676373626935300,6.391935302734375,-0.3139847218990326,0.18325957655906677,0.18081611394882202
1788676373642835000,6.4078349609375,-0.31154128909111023,0.23029619455337524,0.24617868661880493
1788676373658673700,6.423673583984375,-0.29138273000717163,0.2626720666885376,0.375071257352829
1788676373674573300,6.4395732421875,-0.3488040566444397,0.19425514340400696,0.3787364661693573
1788676373690473000,6.455472900390625,-0.47280970215797424,0.1007927656173706,0.1466076523065567
1788676373706372600,6.47137255859375,-0.5503895878791809,0.03237585723400116,-0.23396138846874237
1788676373722241800,6.48724169921875,-0.607810914516449,-0.006108652334660292,-0.6737843751907349
1788676373738080300,6.503080322265625,-0.5870414972305298,0.0757472887635231,-0.808174729347229
1788676373753949400,6.518949462890625,-0.47280970215797424,0.1765400618314743,-0.484416127204895
1788676373769849000,6.53484912109375,-0.3640756905078888,0.07024950534105301,0.19547687470912933
1788676373785779200,6.550779296875,-0.323147714138031,-0.12278391420841217,0.7073819637298584
1788676373801648400,6.5666484375,-0.294437050819397,-0.22113321721553802,0.8845328688621521
1788676373817517600,6.582517578125,-0.29565876722335815,-0.08918632566928864,0.6976081132888794
1788676373833386800,6.59838671875,-0.30970868468284607,0.0910189226269722,0.2730567753314972
1788676373849256000,6.614255859375,-0.32620203495025635,0.14294247329235077,-0.10384709388017654
1788676373865124900,6.630124755859375,-0.3335324227809906,0.029932396486401558,-0.3878994286060333
1788676373881055200,6.64605517578125,-0.3176499307155609,-0.10567969083786011,-0.4990769028663635
1788676373896893700,6.661893798828125,-0.28527405858039856,-0.21441370248794556,-0.46853363513946533
1788676373912793300,6.67779345703125,-0.22663100063800812,-0.23090706765651703,-0.294437050819397
1788676373928693000,6.69369287109375,-0.13988813757896423,-0.08918632566928864,-0.059864792972803116
1788676373944592600,6.709592529296875,-0.09224065393209457,0.06352998316287994,0.0910189226269722
1788676373960461800,6.7254619140625,-0.07941248267889023,0.045204028487205505,0.18509216606616974
1788676373976300500,6.741300537109375,-0.04642575979232788,-0.012828170321881771,0.182648703455925
1788676373992200200,6.7572001953125,-0.016493361443281174,-0.027488935738801956,0.10934487730264664
1788676374008099800,6.773099853515625,-0.012217304669320583,-0.0507018156349659,0.025045474991202354
1788676374024030000,6.789030029296875,-0.00366519158706069,-0.12461651116609573,-0.0354301854968071
1788676374039899100,6.804899169921875,0.021380282938480377,-0.17043140530586243,-0.0354301854968071
1788676374055737900,6.82073779296875,0.045204028487205505,-0.20036379992961884,-0.01038470957428217
1788676374071606800,6.836606689453125,0.07513642311096191,-0.20402899384498596,0.010995574295520782
1788676374087476000,6.85247607421875,0.11545353382825851,-0.13072516024112701,0.01466076634824276
1788676374103375600,6.868375732421875,0.1417207419872284,-0.00855211354792118,0.06414084881544113
1788676374119275300,6.884275146484375,0.17959438264369965,0.033597588539123535,0.14538592100143433
1788676374135114000,6.900114013671875,0.19486601650714874,-0.02382374368607998,0.16493362188339233
1788676374150952700,6.91595263671875,0.21013765037059784,-0.1459967941045761,0.10201449692249298
1788676374166852400,6.931852294921875,0.24190263450145721,-0.2076941877603531,-0.004886921960860491
1788676374182752000,6.947751953125,0.2736676335334778,-0.1820378452539444,-0.09346238523721695
1788676374198682000,6.96368212890625,0.2968805134296417,-0.12217304855585098,-0.08918632566928864
1788676374214551300,6.97955126953125,0.313373863697052,-0.0354301854968071,0.04886921867728233
1788676374230420500,6.99542041015625,0.32498031854629517,0.042760565876960754,0.26939156651496887
1788676374246259000,7.011259033203125,0.32559117674827576,0.04703662544488907,0.3549126982688904
1788676374262128000,7.027128173828125,0.33108896017074585,0.04703662544488907,0.2919935882091522
1788676374278027800,7.04302783203125,0.31520646810531616,-0.02871066704392433,0.11301007121801376
1788676374293866500,7.058866455078125,0.23090706765651703,-0.24495697021484375,-0.14538592100143433
1788676374309735700,7.074735595703125,0.20830504596233368,-0.3139847218990326,-0.2272418737411499
1788676374325635300,7.09063525390625,0.23945917189121246,-0.26083946228027344,-0.07941248267889023
1788676374341565400,7.1065654296875,0.2773328125476837,-0.1508837193250656,0.16371189057826996
1788676374357434600,7.1224345703125,0.2590068578720093,-0.08796459436416626,0.32009339332580566
1788676374373273000,7.138273193359375,0.23029619455337524,-0.08979719132184982,0.26083946228027344
1788676374389111800,7.15411181640625,0.16859880089759827,-0.12950342893600464,0.08796459436416626
1788676374405042000,7.1700419921875,0.12889257073402405,-0.17104226350784302,-0.015271631069481373
1788676374420972000,7.185971923828125,0.12095131725072861,-0.1966986060142517,-0.014049900695681572
1788676374436871700,7.20187158203125,0.1014036312699318,-0.1472185254096985,-0.03481931984424591
1788676374452710400,7.21771044921875,0.07757988572120667,0,-0.11972958594560623
1788676374468579600,7.23357958984375,0.07757988572120667,0.12400564551353455,-0.13988813757896423
1788676374484418300,7.249418212890625,0.07819075137376785,0.15821409225463867,-0.11728613078594208
1788676374500287200,7.265287353515625,0.07452555745840073,0.11362093687057495,-0.05619960278272629
1788676374516187000,7.281186767578125,0.06780604273080826,0.0708603709936142,0.054367005825042725
1788676374532025600,7.297025634765625,0.05925392732024193,0.04337143152952194,0.1319468915462494
1788676374547925200,7.31292529296875,0.028099801391363144,0.04642575979232788,0.16249015927314758
1788676374563825000,7.328824951171875,-0.001832595793530345,0.05925392732024193,0.13927727937698364
1788676374579724500,7.344724609375,-0.036651913076639175,0.0354301854968071,0.07208210229873657
1788676374595563300,7.360563232421875,-0.08246681094169617,-0.025045474991202354,-0.01710422709584236
1788676374611401700,7.376401611328125,-0.12034045159816742,-0.04948008432984352,-0.13988813757896423
1788676374627301400,7.39230126953125,-0.16310101747512817,-0.015882495790719986,-0.24923302233219147
1788676374643201000,7.408200927734375,-0.18997909128665924,0.02321287989616394,-0.22479841113090515
1788676374659131400,7.42413134765625,-0.19486601650714874,0.0659734457731247,-0.11667526513338089
1788676374675000600,7.44000048828125,-0.18875735998153687,0.08491026610136032,-0.039095375686883926
1788676374690900200,7.455900146484375,-0.1771509200334549,0.10873401165008545,-0.039095375686883926
1788676374706738700,7.47173876953125,-0.182648703455925,0.1508837193250656,-0.13377949595451355
1788676374722607900,7.48760791015625,-0.23029619455337524,0.17470745742321014,-0.25961771607398987
1788676374738538000,7.5035380859375,-0.26450464129447937,0.15577064454555511,-0.2926044464111328
1788676374754437600,7.519437744140625,-0.21930062770843506,0.19303341209888458,-0.1814269721508026
1788676374770276400,7.5352763671875,-0.17837265133857727,0.23457226157188416,0.04886921867728233
1788676374786145500,7.5511455078125,-0.14477506279945374,0.2125810980796814,0.33047810196876526
1788676374802014700,7.5670146484375,-0.16065755486488342,0.11850785464048386,0.41172316670417786
1788676374817944800,7.58294482421875,-0.23579397797584534,0.07330382615327835,0.21441370248794556
1788676374833814000,7.59881396484375,-0.3023782968521118,0.06230825558304787,-0.08674286305904388
1788676374849683200,7.61468310546875,-0.32070425152778625,0.08185594528913498,-0.3543018400669098
1788676374865582800,7.630582763671875,-0.2736676335334778,0.18631389737129211,-0.3341432809829712
1788676374881482500,7.646482421875,-0.21319197118282318,0.18387043476104736,0.01466076634824276
1788676374897382100,7.662382080078125,-0.1820378452539444,0.1258382350206375,0.4098905920982361
1788676374913220600,7.678220703125,-0.18448130786418915,0.015271631069481373,0.6395758986473083
1788676374929059300,7.694059326171875,-0.19914206862449646,-0.02321287989616394,0.5833762884140015
1788676374944989400,7.709989501953125,-0.22296582162380219,0.01710422709584236,0.3188716471195221
1788676374960828200,7.725828125,-0.24007004499435425,0.09529497474431992,-0.039706241339445114
1788676374976697300,7.741697265625,-0.24190263450145721,0.16554448008537292,-0.3182607889175415
1788676374992627500,7.75762744140625,-0.23151792585849762,0.18936823308467865,-0.5125159621238708
1788676375008435500,7.773435546875,-0.18631389737129211,0.17409659922122955,-0.5387831330299377
1788676375024304600,7.7893046875,-0.12217304855585098,0.13439035415649414,-0.3952298164367676
1788676375040204300,7.805204345703125,-0.07880161702632904,0.06352998316287994,-0.17287486791610718
1788676375056073500,7.821073486328125,-0.014049900695681572,0.054367005825042725,0.12034045159816742
1788676375071973000,7.83697314453125,0.01466076634824276,0.016493361443281174,0.29993483424186707
1788676375087811800,7.852811767578125,0.016493361443281174,-0.048258353024721146,0.3182607889175415
1788676375103711500,7.86871142578125,0.03176499158143997,-0.09957103431224823,0.2174680233001709
1788676375119580400,7.884580322265625,0.045204028487205505,-0.16249015927314758,0.0861319974064827
1788676375135449600,7.90044970703125,0.05314527451992035,-0.18081611394882202,-0.014049900695681572
1788676375151380000,7.9163798828125,0.02321287989616394,-0.12950342893600464,-0.10812314599752426
1788676375167249000,7.932248779296875,0.00427605677396059,-0.1007927656173706,-0.14477506279945374
1788676375183118000,7.9481181640625,0.03726277872920036,-0.08979719132184982,-0.1612684279680252
1788676375198987300,7.9639873046875,0.09529497474431992,-0.09834930300712585,-0.14233160018920898
1788676375214887000,7.979886962890625,0.1563815027475357,-0.08491026610136032,-0.08491026610136032
1788676375230756000,7.995756103515625,0.17531833052635193,-0.056810468435287476,-0.024434609338641167
1788676375246594800,8.0115947265625,0.16065755486488342,-0.08002334833145142,-0.02015855349600315
1788676375262463700,8.027463623046875,0.1612684279680252,-0.0910189226269722,-0.06169738993048668
1788676375278302500,8.043302490234375,0.1869247704744339,-0.02321287989616394,-0.08796459436416626
1788676375294202000,8.0592021484375,0.22663100063800812,0.05864306539297104,-0.05253441259264946
1788676375310101800,8.075101806640625,0.25595253705978394,0.14355333149433136,0.036041051149368286
1788676375325971000,8.090970947265625,0.2877175211906433,0.17104226350784302,0.1508837193250656
1788676375341840100,8.106840087890625,0.2773328125476837,0.10445795953273773,0.2076941877603531
1788676375357709300,8.122709228515625,0.24862214922904968,-0.004886921960860491,0.14538592100143433
1788676375373639400,8.138639404296875,0.22418753802776337,-0.2431243658065796,-0.06719517707824707
1788676375389539000,8.1545390625,0.16432274878025055,-0.5119050741195679,-0.3927863538265228
1788676375405347000,8.17034716796875,0.09896016865968704,-0.46731191873550415,-0.5357288122177124
1788676375421246700,8.186246826171875,0.07757988572120667,-0.1319468915462494,-0.20525072515010834
1788676375437146400,8.202146484375,0.14477506279945374,0.11178833991289139,0.3805690407752991
1788676375453046000,8.2180458984375,0.18081611394882202,0.14538592100143433,0.8704829812049866
1788676375468915200,8.233915283203125,0.17776179313659668,0.08918632566928864,0.8649851679801941
1788676375484754000,8.24975390625,0.09162978827953339,-0.029932396486401558,0.43799036741256714
1788676375500623000,8.265623046875,0.02015855349600315,-0.16798794269561768,0.00733038317412138
1788676375516522800,8.281522705078125,-0.013439035043120384,-0.242513507604599,-0.25595253705978394
1788676375532422400,8.29742236328125,-0.01771509274840355,-0.26022860407829285,-0.27122417092323303
1788676375548322000,8.313322021484375,0.018936822190880775,-0.19608774781227112,-0.18936823308467865
1788676375564160500,8.329160400390625,0.05803219974040985,-0.08307767659425735,-0.12278391420841217
1788676375580060200,8.34506005859375,0.045204028487205505,-0.03481931984424591,-0.05864306539297104
1788676375595899000,8.36089892578125,0.02687807008624077,0.00427605677396059,-0.01038470957428217
1788676375611768000,8.37676806640625,0.006108652334660292,0.01160643994808197,0.018936822190880775
1788676375627667700,8.392667724609375,0.006719517521560192,0.009773843921720982,0.031154127791523933
1788676375643537000,8.408536865234375,0.007941247895359993,0.02076941914856434,0.09285151958465576
1788676375659375400,8.424375244140625,-0.019547687843441963,0.0757472887635231,0.2070833146572113
1788676375675244500,8.44024462890625,0.00427605677396059,-0.1514945775270462,0.6004805564880371
1788676375691144200,8.456144287109375,0.07024950534105301,-0.7629706859588623,1.1093312501907349
1788676375707043800,8.4720439453125,0.031154127791523933,-0.10873401165008545,0.32559117674827576
1788676375722852000,8.48785205078125,-0.1918116807937622,0.3878994286060333,-0.37201693654060364
1788676375738751700,8.503751708984375,-0.17592918872833252,0.5314527750015259,-0.8472700715065002
1788676375754651400,8.5196513671875,-0.14294247329235077,0.40133845806121826,-0.9260717034339905
1788676375770581500,8.53558154296875,-0.1007927656173706,-0.03237585723400116,-0.6933320760726929
1788676375786420200,8.551420166015625,-0.0959058403968811,-0.3072652220726013,-0.4141666293144226
1788676375802258700,8.5672587890625,-0.06291911751031876,-0.2015855312347412,-0.44593164324760437
1788676375818189000,8.58318896484375,-0.06536258012056351,0.4245513379573822,-0.6731734871864319
1788676375834180000,8.59918017578125,-0.2376265823841095,1.2748757600784302,-0.6481280326843262
1788676375850141000,8.615140869140625,-0.32009339332580566,0.8234463334083557,0.06719517707824707
1788676375866101500,8.6311015625,-0.08918632566928864,0.21013765037059784,0.9352346658706665
1788676375882062300,8.647062255859375,0.005497787147760391,-0.19120082259178162,1.0335839986801147
1788676375898053400,8.663053466796875,-0.19120082259178162,-0.31154128909111023,0.3988949954509735
1788676375913953000,8.678953125,-0.34697145223617554,-0.14477506279945374,-0.7318165898323059
1788676375930005200,8.695005126953125,-0.37568211555480957,0.12828169763088226,-1.5027284622192383
1788676375945844000,8.710843994140625,-0.3396410644054413,0.22602014243602753,-1.5375478267669678
1788676375961682700,8.7266826171875,-0.22846360504627228,0.16249015927314758,-0.9272934198379517
1788676375977673700,8.742673828125,-0.13805554807186127,0.05314527451992035,0.015271631069481373
1788676375993604000,8.75860400390625,-0.10567969083786011,-0.06536258012056351,0.59803706407547
1788676376009595100,8.77459521484375,-0.10384709388017654,-0.11545353382825851,0.6511823534965515
1788676376025586400,8.79058642578125,-0.11789698898792267,0.02076941914856434,0.39584067463874817
1788676376041425200,8.806425048828125,-0.15332718193531036,0.16798794269561768,0.059864792972803116
1788676376057385700,8.8223857421875,-0.20952677726745605,0.18020524084568024,-0.3182607889175415
1788676376073315800,8.83831591796875,-0.2223549485206604,0.11545353382825851,-0.5583308339118958
1788676376089246000,8.854245849609375,-0.20341812074184418,0.12034045159816742,-0.6401867866516113
1788676376105237200,8.8702373046875,-0.16249015927314758,0.1514945775270462,-0.4495968222618103
1788676376121137000,8.886136962890625,-0.07147123664617538,0.16554448008537292,-0.009773843921720982
1788676376137036500,8.90203662109375,0.024434609338641167,0.19486601650714874,0.38117989897727966
1788676376152997400,8.917997314453125,0.0910189226269722,0.14782938361167908,0.6340781450271606
1788676376168958000,8.9339580078125,0.10262536257505417,0.0806342139840126,0.6633996367454529
1788676376184918800,8.949918701171875,0.08491026610136032,0.010995574295520782,0.5418374538421631
1788676376200849000,8.965848876953125,0.06169738993048668,-0.04948008432984352,0.2871066629886627
1788676376216809500,8.9818095703125,0.0507018156349659,-0.05375614017248154,0.04703662544488907
1788676376232739800,8.99773974609375,0.059864792972803116,-0.007941247895359993,-0.12095131725072861
1788676376248700400,9.013700439453125,0.039095375686883926,0.003054326167330146,-0.14966198801994324
1788676376264600000,9.02960009765625,0.031154127791523933,-0.0354301854968071,-0.08979719132184982
1788676376280591400,9.04559130859375,0.07269296050071716,-0.04092797264456749,-0.005497787147760391
1788676376296460500,9.06146044921875,0.12828169763088226,-0.02687807008624077,0.013439035043120384
1788676376312421000,9.077421142578125,0.28955012559890747,0.1667662113904953,-0.08735372871160507
1788676376328443000,9.09344287109375,0.3072652220726013,0.2968805134296417,-0.18325957655906677
1788676376344312000,9.10931201171875,0.342695415019989,0.2217440903186798,-0.16493362188339233
1788676376360303000,9.12530322265625,0.3182607889175415,0.042760565876960754,-0.07635815441608429
1788676376376172300,9.14117236328125,0.32009339332580566,-0.13011430203914642,-0.00733038317412138
1788676376392102400,9.157102294921875,0.35063666105270386,-0.16920967400074005,0.05314527451992035
1788676376408155000,9.17315478515625,0.4080579876899719,-0.10384709388017654,0.23579397797584534
1788676376424085000,9.1890849609375,0.5845980644226074,-0.021380282938480377,0.45142942667007446
1788676376439984600,9.204984619140625,0.6841690540313721,-0.021991148591041565,0.5754350423812866
1788676376455975700,9.2209755859375,0.7086036801338196,-0.12522737681865692,0.49357911944389343
1788676376471875600,9.23687548828125,0.685390830039978,-0.31642818450927734,0.15332718193531036
1788676376487805700,9.2528056640625,0.5436700582504272,-0.4050036668777466,-0.25595253705978394
1788676376511609300,9.276609375,0.3023782968521118,-0.14049901068210602,-0.49724429845809937
1788676376527478500,9.292478515625,0.35613444447517395,0.054367005825042725,-0.08246681094169617
1788676376543408600,9.30840869140625,0.43249258399009705,0.08674286305904388,0.4288274049758911
1788676376559247400,9.324247314453125,0.43676865100860596,0.00855211354792118,0.7660250067710876
1788676376575116500,9.340116455078125,0.4129449129104614,-0.03848451003432274,0.6438519954681396
1788676376591016200,9.35601611328125,0.3066543638706207,-0.02687807008624077,0.19303341209888458
1788676376606885000,9.371885009765625,0.19120082259178162,0.0012217304902151227,-0.20952677726745605
1788676376622815500,9.3878154296875,0.11789698898792267,0.015882495790719986,-0.4349360466003418
1788676376638654000,9.403654052734375,0.09346238523721695,-0.031154127791523933,-0.42149701714515686
1788676376654492700,9.41949267578125,0.10690141469240189,0.027488935738801956,-0.2687807083129883
1788676376670392300,9.435392333984375,0.1466076523065567,0.13744467496871948,-0.11362093687057495
1788676376686292000,9.4512919921875,0.12828169763088226,0.14844025671482086,-0.036041051149368286
1788676376702161200,9.4671611328125,0.10262536257505417,0.11667526513338089,-0.03848451003432274
1788676376717999600,9.48299951171875,0.05619960278272629,0.06291911751031876,-0.05925392732024193
1788676376733899300,9.498899169921875,0.02626720629632473,0.009773843921720982,-0.019547687843441963
1788676376749799200,9.514799072265625,0.031154127791523933,-0.04764748737215996,0.0861319974064827
1788676376765668000,9.530668212890625,0.0354301854968071,-0.09529497474431992,0.17409659922122955
1788676376781567700,9.546567626953125,0.02015855349600315,-0.10873401165008545,0.19486601650714874
1788676376797376000,9.5623759765625,-0.02871066704392433,-0.07147123664617538,0.13316862285137177
1788676376813184000,9.57818408203125,-0.07208210229873657,-0.013439035043120384,0.01771509274840355
1788676376829083600,9.594083740234375,-0.09896016865968704,0.01710422709584236,-0.09468411654233932
1788676376845014000,9.610013916015625,-0.12217304855585098,0.0006108652451075613,-0.14233160018920898
1788676376860913700,9.62591357421875,-0.14294247329235077,-0.01160643994808197,-0.1508837193250656
1788676376876752100,9.641752197265625,-0.16004669666290283,-0.04337143152952194,-0.11667526513338089
1788676376892651800,9.65765185546875,-0.19914206862449646,-0.07819075137376785,-0.06108652427792549
1788676376908582000,9.673581787109375,-0.2278527319431305,-0.05803219974040985,-0.021991148591041565
1788676376924512300,9.68951220703125,-0.251676470041275,0.02076941914856434,-0.02687807008624077
1788676376940320300,9.7053203125,-0.2632829248905182,0.11484266817569733,-0.025045474991202354
1788676376956189400,9.721189453125,-0.26939156651496887,0.16798794269561768,0.05619960278272629
1788676376972089000,9.737089111328125,-0.23945917189121246,0.24556782841682434,0.24068090319633484
1788676376987958300,9.752958251953125,-0.2174680233001709,0.17592918872833252,0.4386012554168701
1788676377003827500,9.768827392578125,-0.2620611786842346,0.02932153269648552,0.4343251883983612
1788676377019757600,9.784757568359375,-0.32986724376678467,-0.018936822190880775,0.20341812074184418
1788676377035596300,9.80059619140625,-0.39217549562454224,0.036041051149368286,-0.12461651116609573
1788676377051496000,9.816495849609375,-0.4153883755207062,0.25595253705978394,-0.403781920671463
1788676377067395600,9.8323955078125,-0.3787364661693573,0.3933972120285034,-0.3433062732219696
1788676377083295200,9.848295166015625,-0.3176499307155609,0.2724458873271942,0.013439035043120384
1788676377099225300,9.864225341796875,-0.27611109614372253,0.059864792972803116,0.32131510972976685
1788676377115094500,9.880094482421875,-0.2272418737411499,-0.16737708449363708,0.4343251883983612
1788676377130994200,9.895994140625,-0.18448130786418915,-0.23640485107898712,0.32620203495025635
1788676377146893800,9.911893798828125,-0.17776179313659668,-0.20463985204696655,0.0959058403968811
1788676377162793500,9.92779345703125,-0.22663100063800812,-0.10445795953273773,-0.1875356286764145
1788676377178693000,9.943693115234375,-0.2932153046131134,-0.039706241339445114,-0.4147774875164032
1788676377194531800,9.95953173828125,-0.32620203495025635,-0.06536258012056351,-0.6279694437980652
1788676377210431500,9.975431396484375,-0.3237585723400116,-0.09651670604944229,-0.7305948138237
1788676377234204700,9.99920458984375,-0.2834414839744568,-0.1062905490398407,-0.5748242139816284
1788676377250073600,10.015073486328125,-0.21991148591041565,-0.10506882518529892,-0.30604347586631775
1788676377265912300,10.030912353515625,-0.11789698898792267,-0.0959058403968811,0.005497787147760391
1788676377281781500,10.046781494140625,-0.06475171446800232,-0.0959058403968811,0.19364428520202637
1788676377297681200,10.06268115234375,-0.039706241339445114,-0.1319468915462494,0.2779437005519867
1788676377313489200,10.0784892578125,-0.018325956538319588,-0.1612684279680252,0.24678955972194672
1788676377329388800,10.094388916015625,-0.00427605677396059,-0.1716531366109848,0.12217304855585098
1788676377345258000,10.110258056640625,-0.012217304669320583,-0.13377949595451355,-0.018936822190880775
1788676377361188000,10.12618798828125,-0.07330382615327835,0.04581489413976669,-0.17104226350784302
1788676377377087700,10.142087646484375,-0.025045474991202354,0.2382374405860901,-0.1966986060142517
1788676377392957000,10.15795703125,-0.022602014243602753,0.2730567753314972,-0.15332718193531036
1788676377408826000,10.173826171875,-0.003054326167330146,0.1820378452539444,-0.07269296050071716
1788676377424695300,10.1896953125,0.03237585723400116,0.1111774742603302,0
1788676377440595000,10.205594970703125,0.05497787147760391,0.021991148591041565,0.05742133408784866
1788676377456494600,10.22149462890625,0.09773843735456467,-0.039706241339445114,0.08857546001672745
1788676377472333300,10.237333251953125,0.1765400618314743,-0.06963863968849182,0.07391469180583954
1788676377488202200,10.2532021484375,0.22663100063800812,0.09896016865968704,0.11667526513338089
1788676377504102100,10.26910205078125,0.2528982162475586,0.05375614017248154,0.2070833146572113
1788676377519971000,10.28497119140625,0.26572638750076294,-0.033597588539123535,0.2981022298336029
1788676377535870700,10.30087060546875,0.32681289315223694,-0.08857546001672745,0.45692721009254456
1788676377551740000,10.316739990234375,0.38728857040405273,-0.06169738993048668,0.6188064813613892
1788676377567609000,10.332609130859375,0.35735616087913513,-0.12278391420841217,0.6407976150512695
1788676377583478300,10.348478271484375,0.30604347586631775,-0.27611109614372253,0.4612032473087311
1788676377599408400,10.364408447265625,0.2577851414680481,-0.6010913848876953,0.10690141469240189
1788676377615277600,10.380277587890625,0.16737708449363708,-0.7709119319915771,-0.24129177629947662
1788676377631146800,10.396146728515625,0.04459316283464432,-0.48808133602142334,-0.4605923891067505
1788676377646985200,10.411985107421875,0.022602014243602753,0.036651913076639175,-0.31581732630729675
1788676377662884900,10.427884765625,0.11545353382825851,0.5931501388549805,0.1612684279680252
1788676377678784800,10.44378466796875,0.19975294172763824,0.646295428276062,0.5283984541893005
1788676377694684400,10.459684326171875,0.2474004179239273,0.4092797040939331,0.626747727394104
1788676377710553300,10.47555322265625,0.2565633952617645,0.18936823308467865,0.4355469346046448
1788676377726361600,10.491361572265625,0.21441370248794556,-0.00366519158706069,0.060475658625364304
1788676377742261200,10.50726123046875,0.15821409225463867,-0.11667526513338089,-0.21807889640331268
1788676377758161000,10.523160888671875,0.12400564551353455,-0.1472185254096985,-0.39217549562454224
1788676377774060500,10.539060546875,0.12522737681865692,-0.0806342139840126,-0.4593706727027893
1788676377789868500,10.55486865234375,0.13377949595451355,-0.04214970022439957,-0.45142942667007446
1788676377805799000,10.570798828125,0.14233160018920898,-0.01771509274840355,-0.32070425152778625
1788676377821637400,10.586637451171875,0.14782938361167908,-0.0555887371301651,-0.14416420459747314
1788676377837537000,10.602537109375,0.13255776464939117,-0.10384709388017654,0.07819075137376785
1788676377853467100,10.618467041015625,0.1160643994808197,-0.10751228034496307,0.19486601650714874
1788676377869305900,10.634305908203125,0.09834930300712585,-0.10506882518529892,0.2028072625398636
1788676377885175000,10.650175048828125,0.08491026610136032,-0.11178833991289139,0.12828169763088226
1788676377901074700,10.66607470703125,0.05803219974040985,-0.06902777403593063,-0.012828170321881771
1788676377916974300,10.681974365234375,0.018936822190880775,0.022602014243602753,-0.11972958594560623
1788676377932843500,10.697843505859375,-0.03237585723400116,0.1111774742603302,-0.19975294172763824
1788676377948682000,10.713681884765625,-0.06780604273080826,0.14049901068210602,-0.2590068578720093
1788676377964582000,10.729581787109375,-0.09346238523721695,0.11972958594560623,-0.30604347586631775
1788676377980481500,10.7454814453125,-0.11301007121801376,0.08674286305904388,-0.2816088795661926
1788676377996350500,10.7613505859375,-0.14477506279945374,0.05803219974040985,-0.1814269721508026
1788676378012280800,10.77728076171875,-0.17348572611808777,0.06536258012056351,-0.10506882518529892
1788676378028119300,10.793119384765625,-0.20586158335208893,0.09040805697441101,-0.03726277872920036
1788676378044019000,10.80901904296875,-0.22418753802776337,0.11423180252313614,0.029932396486401558
1788676378059857700,10.824857666015625,-0.22968533635139465,0.16065755486488342,0.09162978827953339
1788676378075818200,10.840818359375,-0.20952677726745605,0.2474004179239273,0.1820378452539444
1788676378091687400,10.8566875,-0.14905111491680145,0.31642818450927734,0.37140607833862305
1788676378107526100,10.872526123046875,-0.14233160018920898,0.2174680233001709,0.46853363513946533
1788676378123364600,10.888364501953125,-0.17592918872833252,0.07024950534105301,0.38117989897727966
1788676378139233800,10.90423388671875,-0.2272418737411499,-0.021991148591041565,0.11667526513338089
1788676378155103000,10.92010302734375,-0.3286454975605011,-0.05925392732024193,-0.3628539443016052
1788676378171033000,10.936033203125,-0.36713001132011414,0.1508837193250656,-0.7202101349830627
1788676378186871800,10.951871826171875,-0.323147714138031,0.394618958234787,-0.6762278079986572
1788676378202771500,10.967771484375,-0.24862214922904968,0.2932153046131134,-0.12950342893600464
1788676378218671000,10.983671142578125,-0.2070833146572113,0.06963863968849182,0.40622538328170776
1788676378234570800,10.99957080078125,-0.21441370248794556,-0.25473082065582275,0.7428121566772461
1788676378250440000,11.01543994140625,-0.2125810980796814,-0.37140607833862305,0.7098253965377808
1788676378266309000,11.03130908203125,-0.21441370248794556,-0.3237585723400116,0.42638394236564636
1788676378282178300,11.04717822265625,-0.21868975460529327,-0.18570303916931152,0.11056660860776901
1788676378298047200,11.063047119140625,-0.2321287989616394,0.01771509274840355,-0.24678955972194672
1788676378313916400,11.07891650390625,-0.252287358045578,0.15515977144241333,-0.4489859640598297
1788676378329846500,11.094846435546875,-0.26450464129447937,0.14294247329235077,-0.4948008358478546
1788676378345685200,11.110685302734375,-0.2321287989616394,0.059864792972803116,-0.37140607833862305
1788676378361554400,11.126554443359375,-0.15515977144241333,0.016493361443281174,-0.14477506279945374
1788676378377393200,11.14239306640625,-0.08246681094169617,0.0354301854968071,0.0024434609804302454
1788676378393292800,11.158292724609375,-0.03237585723400116,0.07880161702632904,0.0659734457731247
1788676378409192400,11.1741923828125,-0.013439035043120384,0.0959058403968811,0.0708603709936142
1788676378425092000,11.190092041015625,0.001832595793530345,0.09346238523721695,0.059864792972803116
1788676378440930600,11.2059306640625,0.009773843921720982,0.0659734457731247,0.03481931984424591
1788676378456799700,11.2217998046875,0.009773843921720982,0.009162978269159794,-0.06658431142568588
1788676378472729900,11.237729736328125,0.021380282938480377,0.009773843921720982,-0.18936823308467865
1788676378488599000,11.25359912109375,0.04581489413976669,0.024434609338641167,-0.2773328125476837
1788676378504437800,11.269437744140625,0.08124507963657379,0.016493361443281174,-0.26145032048225403
1788676378520337400,11.28533740234375,0.1362229436635971,-0.00427605677396059,-0.16798794269561768
1788676378536237000,11.301237060546875,0.20036379992961884,0,0.003054326167330146
1788676378552106200,11.317106201171875,0.2528982162475586,-0.025045474991202354,0.21991148591041565
1788676378568036400,11.333036376953125,0.2583959996700287,-0.09468411654233932,0.31154128909111023
1788676378583875000,11.348875,0.26083946228027344,-0.1264491081237793,0.28038713335990906
1788676378599713500,11.364713623046875,0.26572638750076294,-0.1111774742603302,0.16310101747512817
1788676378615582700,11.380582763671875,0.2632829248905182,0.003054326167330146,0.08307767659425735
1788676378631452000,11.396451904296875,0.27611109614372253,0.19486601650714874,0.11789698898792267
1788676378647351600,11.4123515625,0.28649580478668213,0.2773328125476837,0.26022860407829285
1788676378663190300,11.428190185546875,0.27550023794174194,0.26145032048225403,0.3604104816913605
1788676378679120400,11.444120361328125,0.24617868661880493,0.17898350954055786,0.26939156651496887
1788676378702985000,11.46798486328125,0.14782938361167908,-0.24007004499435425,-0.27977627515792847
1788676378718823700,11.48382373046875,0.06230825558304787,-0.513126790523529,-0.6420193910598755
1788676378734753800,11.49975390625,0.09224065393209457,-0.44287729263305664,-0.6059783101081848
1788676378750684200,11.51568408203125,0.20830504596233368,-0.1368338167667389,-0.16004669666290283
1788676378766522600,11.531522705078125,0.3084869384765625,0.1417207419872284,0.4288274049758911
1788676378782391800,11.547391845703125,0.36224308609962463,0.08979719132184982,0.5681046843528748
1788676378798261000,11.563260986328125,0.35246923565864563,-0.00733038317412138,0.29565876722335815
1788676378814099700,11.579099609375,0.21074850857257843,-0.12217304855585098,-0.22418753802776337
1788676378830029800,11.59502978515625,0.09957103431224823,-0.10690141469240189,-0.5241223573684692
1788676378845899000,11.61089892578125,0.06536258012056351,-0.04398229718208313,-0.5632177591323853
1788676378869733000,11.634733154296875,0.06658431142568588,-0.02321287989616394,-0.33658674359321594
1788676378885663200,11.650663330078125,0.05803219974040985,-0.033597588539123535,-0.17776179313659668
1788676378901502000,11.666501953125,0.03787364438176155,-0.04337143152952194,-0.15027284622192383
1788676378917432000,11.68243212890625,-0.015882495790719986,-0.0861319974064827,-0.17043140530586243
1788676378933301200,11.69830126953125,-0.01710422709584236,-0.1160643994808197,-0.13377949595451355
1788676378949201000,11.714200927734375,0.03237585723400116,-0.10201449692249298,0.025045474991202354
1788676378965100500,11.7301005859375,0.07635815441608429,-0.09834930300712585,0.19608774781227112
1788676378980908500,11.745908447265625,0.09162978827953339,-0.08857546001672745,0.29993483424186707
1788676378996747300,11.761747314453125,0.08491026610136032,-0.06536258012056351,0.3396410644054413
1788676379012647000,11.77764697265625,0.0555887371301651,-0.02015855349600315,0.26450464129447937
1788676379028577000,11.793576904296875,0.001832595793530345,0.036651913076639175,0.09040805697441101
1788676379044446200,11.8094462890625,-0.05253441259264946,0.0555887371301651,-0.05009094998240471
1788676379060254500,11.82525439453125,-0.09224065393209457,0.04764748737215996,-0.11911872029304504
1788676379076093000,11.841093017578125,-0.11239920556545258,-0.001832595793530345,-0.09773843735456467
1788676379091992600,11.85699267578125,-0.14416420459747314,-0.045204028487205505,-0.001832595793530345
1788676379107861800,11.87286181640625,-0.18997909128665924,-0.01038470957428217,0.06841690838336945
1788676379123792000,11.8887919921875,-0.2565633952617645,0.06963863968849182,0.07208210229873657
1788676379139630600,11.904630615234375,-0.2883284091949463,0.1319468915462494,0.060475658625364304
1788676379155469300,11.92046923828125,-0.2840523421764374,0.2028072625398636,0.11972958594560623
1788676379171307800,11.936307861328125,-0.2730567753314972,0.2376265823841095,0.2968805134296417
1788676379187268600,11.9522685546875,-0.26145032048225403,0.11911872029304504,0.4447098970413208
1788676379203168300,11.968168212890625,-0.2968805134296417,-0.005497787147760391,0.38728857040405273
1788676379219006700,11.9840068359375,-0.3384193480014801,-0.09773843735456467,0.12828169763088226
1788676379234906400,11.99990625,-0.35185837745666504,-0.09896016865968704,-0.17898350954055786
1788676379250806000,12.015805908203125,-0.34636059403419495,0.0012217304902151227,-0.42760565876960754
1788676379266736400,12.031736328125,-0.2932153046131134,0.1270599663257599,-0.33475416898727417
1788676379282636000,12.047635986328125,-0.23640485107898712,0.1466076523065567,0.10690141469240189
1788676379298474500,12.063474609375,-0.2076941877603531,0.01771509274840355,0.484416127204895
1788676379314374100,12.0793740234375,-0.19120082259178162,-0.13011430203914642,0.6475171446800232
1788676379330273800,12.095273681640625,-0.17898350954055786,-0.11667526513338089,0.5314527750015259
1788676379346173400,12.11117333984375,-0.15271630883216858,0.059864792972803116,0.16249015927314758
1788676379362042600,12.127042724609375,-0.16249015927314758,0.22602014243602753,-0.19364428520202637
1788676379377911800,12.142911865234375,-0.18997909128665924,0.27122417092323303,-0.4331034719944
1788676379393720000,12.158719970703125,-0.19547687470912933,0.18448130786418915,-0.4795292317867279
1788676379409619700,12.17461962890625,-0.1875356286764145,0.05742133408784866,-0.43188172578811646
1788676379425488600,12.190488525390625,-0.15821409225463867,-0.051312681287527084,-0.33108896017074585
1788676379441388300,12.20638818359375,-0.11850785464048386,-0.0861319974064827,-0.18509216606616974
1788676379457227000,12.22222705078125,-0.04948008432984352,-0.05742133408784866,0.02687807008624077
1788676379473126700,12.238126708984375,-0.021380282938480377,-0.03848451003432274,0.1765400618314743
1788676379488965400,12.25396533203125,0.009773843921720982,-0.060475658625364304,0.251676470041275
1788676379504834600,12.26983447265625,0.03848451003432274,-0.10445795953273773,0.21624629199504852
1788676379520703500,12.285703369140625,0.04642575979232788,-0.1508837193250656,0.07513642311096191
1788676379536572700,12.30157275390625,0.0354301854968071,-0.18509216606616974,-0.08429940044879913
1788676379552441900,12.31744189453125,0.05497787147760391,-0.15454891324043274,-0.20952677726745605
1788676379568372000,12.3333720703125,0.08368854224681854,-0.05009094998240471,-0.21319197118282318
1788676379584271600,12.349271728515625,0.13439035415649414,0.05192354694008827,-0.11484266817569733
1788676379600140800,12.365140869140625,0.16493362188339233,0.06536258012056351,0.006719517521560192
1788676379615979500,12.3809794921875,0.19792033731937408,0.009162978269159794,0.09285151958465576
1788676379631787500,12.39678759765625,0.2076941877603531,-0.028099801391363144,0.08918632566928864
1788676379647687200,12.412687255859375,0.2278527319431305,-0.0006108652451075613,0.006108652334660292
1788676379663617300,12.4286171875,0.24923302233219147,0.012828170321881771,-0.10445795953273773
1788676379679517200,12.44451708984375,0.27611109614372253,0.06902777403593063,-0.21991148591041565
1788676379695355600,12.460355712890625,0.30054569244384766,0.10995574295520782,-0.20525072515010834
1788676379711224800,12.476224853515625,0.34147366881370544,0.13866640627384186,-0.007941247895359993
1788676379727155000,12.492155029296875,0.40622538328170776,0.18936823308467865,0.25045475363731384
1788676379743024000,12.508024169921875,0.3988949954509735,0.14905111491680145,0.3732386529445648
1788676379758954200,12.523954345703125,0.32131510972976685,0.030543262138962746,0.23945917189121246
1788676379774854000,12.53985400390625,0.2021963894367218,-0.15943582355976105,-0.12828169763088226
1788676379790723000,12.55572314453125,0.15027284622192383,-0.32498031854629517,-0.4337143301963806
1788676379806592300,12.57159228515625,0.11484266817569733,-0.4153883755207062,-0.5418374538421631
1788676379822461400,12.58746142578125,0.13439035415649414,-0.23945917189121246,-0.24129177629947662
1788676379838391600,12.6033916015625,0.20952677726745605,-0.03176499158143997,0.2382374405860901
1788676379854199800,12.61919970703125,0.23518311977386475,-0.001832595793530345,0.6328563690185547
1788676379870068700,12.63506884765625,0.22113321721553802,-0.04337143152952194,0.655458390712738
1788676379885968400,12.650968505859375,0.1472185254096985,-0.13500121235847473,0.3634648323059082
1788676379901868000,12.666867919921875,0.0708603709936142,-0.2571742534637451,0.05925392732024193
1788676379917737200,12.6827373046875,-0.0006108652451075613,-0.3378084897994995,-0.17287486791610718
1788676379933636900,12.698636962890625,-0.0507018156349659,-0.29077184200286865,-0.2724458873271942
1788676379949536500,12.71453662109375,-0.06719517707824707,-0.1258382350206375,-0.3188716471195221
1788676379965375200,12.730375244140625,-0.045204028487205505,0.05192354694008827,-0.2889392673969269
1788676379981244400,12.746244384765625,-0.02015855349600315,0.2070833146572113,-0.15760323405265808
1788676379997144000,12.76214404296875,0.005497787147760391,0.2480112910270691,0.00855211354792118
1788676380013043700,12.778043701171875,0.003054326167330146,0.1820378452539444,0.17043140530586243
1788676380044812500,12.8098125,-0.04398229718208313,-0.027488935738801956,0.17531833052635193
1788676380060681700,12.825681640625,-0.05009094998240471,-0.001832595793530345,0.14355333149433136
1788676380076611800,12.84161181640625,-0.060475658625364304,0.054367005825042725,0.12400564551353455
1788676380092450300,12.8574501953125,-0.10201449692249298,0.12400564551353455,0.1411098688840866
1788676380108380700,12.873380615234375,-0.14049901068210602,0.2877175211906433,0.14538592100143433
1788676380124219100,12.88921923828125,-0.17959438264369965,0.2675589919090271,0.2687807083129883
1788676380140149500,12.9051494140625,-0.19058994948863983,-0.11301007121801376,-0.13255776464939117
1788676380156049200,12.921049072265625,-0.2993239760398865,-0.004886921960860491,-0.455705463886261
1788676380171918000,12.93691796875,-0.44593164324760437,0.27977627515792847,-0.5534439086914062
1788676380187787300,12.952787353515625,-0.4813618063926697,0.34513887763023376,-0.5778785347938538
1788676380205145000,12.97014501953125,-0.5357288122177124,0.11728613078594208,-0.5106833577156067
1788676380219580000,12.984579833984375,-0.5827654600143433,-0.14477506279945374,-0.413555771112442
1788676380235571200,13.0005712890625,-0.5455026626586914,-0.23273965716362,-0.26145032048225403
1788676380251440400,13.0164404296875,-0.46731191873550415,-0.09712757170200348,0.0959058403968811
1788676380275427000,13.040427001953125,-0.323147714138031,-0.00855211354792118,0.5180137157440186
1788676380291296300,13.056296142578125,-0.3543018400669098,-0.10384709388017654,0.4740314185619354
1788676380307257000,13.072257080078124,-0.3952298164367676,-0.17470745742321014,0.1966986060142517
1788676380323187200,13.088187255859374,-0.3891211748123169,-0.15332718193531036,-0.15821409225463867
1788676380339147800,13.104147705078125,-0.35735616087913513,0.027488935738801956,-0.5314527750015259
1788676380355139000,13.12013916015625,-0.30604347586631775,0.26450464129447937,-0.5161811113357544
1788676380371100000,13.136099853515624,-0.19425514340400696,0.36224308609962463,0.007941247895359993
1788676380387060500,13.152060546875,-0.08918632566928864,0.2687807083129883,0.5925393104553223
1788676380403021000,13.16802099609375,-0.02382374368607998,0.152105450630188,0.9773843884468079
1788676380418951400,13.183951416015624,-0.001832595793530345,0.16920967400074005,0.9260717034339905
1788676380434973200,13.19997314453125,-0.05497787147760391,0.1569923609495163,0.513737678527832
1788676380450842000,13.215842041015625,-0.16249015927314758,0.09712757170200348,-0.006719517521560192
1788676380466741800,13.23174169921875,-0.22602014243602753,0.03420845419168472,-0.37629300355911255
1788676380482702600,13.24770263671875,-0.24984388053417206,-0.03481931984424591,-0.6029239892959595
1788676380498694000,13.26369384765625,-0.26145032048225403,-0.04581489413976669,-0.6200281977653503
1788676380514685000,13.279684814453125,-0.25595253705978394,-0.0354301854968071,-0.4960225820541382
1788676380530584600,13.29558447265625,-0.21074850857257843,0.028099801391363144,-0.2785545587539673
1788676380546576000,13.311575927734374,-0.13744467496871948,0.018325956538319588,0.04092797264456749
1788676380562506000,13.327506103515624,-0.059864792972803116,-0.025045474991202354,0.29504790902137756
1788676380578436000,13.34343603515625,0.01710422709584236,-0.08674286305904388,0.455705463886261
1788676380594427400,13.359427490234374,0.07330382615327835,-0.13744467496871948,0.4288274049758911
1788676380610266000,13.37526611328125,0.08552113175392151,-0.1667662113904953,0.28649580478668213
1788676380626226700,13.391226806640624,0.0555887371301651,-0.19364428520202637,0.03237585723400116
1788676380642156800,13.40715673828125,0.009162978269159794,-0.1973094791173935,-0.1966986060142517
1788676380658087200,13.423087158203124,-0.02015855349600315,-0.12522737681865692,-0.3738495409488678
1788676380674078200,13.439078125,-0.0024434609804302454,-0.031154127791523933,-0.40683624148368835
1788676380689917000,13.4549169921875,0.04886921867728233,0.04337143152952194,-0.3683517575263977
1788676380705847000,13.470846923828125,0.09162978827953339,0.06780604273080826,-0.3121521472930908
1788676380721808000,13.486807861328124,0.1264491081237793,0.05192354694008827,-0.25473082065582275
1788676380737738000,13.502738037109374,0.15393804013729095,0.00855211354792118,-0.15760323405265808
1788676380753698600,13.518698486328125,0.2272418737411499,-0.06414084881544113,0.03481931984424591
1788676380769567700,13.534567626953125,0.2742784917354584,-0.16493362188339233,0.15760323405265808
1788676380785437000,13.55043701171875,0.31642818450927734,-0.23945917189121246,0.16371189057826996
1788676380801367000,13.566366943359375,0.3683517575263977,-0.2321287989616394,0.0910189226269722
1788676380817358300,13.5823583984375,0.43127086758613586,-0.14294247329235077,0.10690141469240189
1788676380833349600,13.598349609375,0.48808133602142334,-0.018325956538319588,0.31520646810531616
1788676380849218600,13.614218505859375,0.5387831330299377,0.11362093687057495,0.5485569834709167
1788676380865209900,13.6302099609375,0.5461135506629944,0.11056660860776901,0.6206390857696533
1788676380881170700,13.646170654296874,0.5424483418464661,-0.12034045159816742,0.3830125033855438
1788676380897100800,13.662100830078124,0.40256020426750183,-0.5479460954666138,-0.2681698501110077
1788676380913091800,13.678091796875,0.20830504596233368,-0.6096435189247131,-0.8307767510414124
1788676380928961000,13.6939609375,0.15577064454555511,-0.26511552929878235,-0.9089674949645996
1788676380944860700,13.709860595703125,0.30970868468284607,0.16065755486488342,-0.38728857040405273
1788676380960760300,13.72576025390625,0.4294382631778717,0.35613444447517395,0.4092797040939331
1788676380976721200,13.74172119140625,0.44776421785354614,0.313373863697052,0.7513642311096191
1788676380992681700,13.757681640625,0.44593164324760437,0.22296582162380219,0.5870414972305298
1788676381008642600,13.773642578125,0.34025195240974426,0.033597588539123535,0.0959058403968811
1788676381024633600,13.789633544921875,0.2217440903186798,-0.11056660860776901,-0.31642818450927734
1788676381040594400,13.805594482421874,0.07941248267889023,-0.26083946228027344,-0.6444628238677979
1788676381056585700,13.821585693359374,0.013439035043120384,-0.21991148591041565,-0.7605272531509399
1788676381072576800,13.83757666015625,-0.02871066704392433,-0.18448130786418915,-0.6805039048194885
1788676381088476400,13.853476318359375,-0.01771509274840355,-0.14966198801994324,-0.4331034719944
1788676381104406800,13.86940673828125,0.03481931984424591,0.006108652334660292,-0.11667526513338089
1788676381120397800,13.885397705078125,0.025045474991202354,0.05619960278272629,0.07452555745840073
1788676381136389000,13.90138916015625,0.006719517521560192,0.021991148591041565,0.17592918872833252
1788676381152380400,13.91738037109375,0.005497787147760391,-0.0354301854968071,0.18509216606616974
1788676381168249300,13.933249267578125,0.014049900695681572,-0.04703662544488907,0.16432274878025055
1788676381184118500,13.949118408203125,0.021991148591041565,-0.01038470957428217,0.12950342893600464
1788676381200079400,13.965079345703124,0.001832595793530345,0.0012217304902151227,0.09346238523721695
1788676381216131600,13.981131591796874,-0.0354301854968071,0.01160643994808197,0.0507018156349659
1788676381232031200,13.99703125,-0.08124507963657379,-0.012828170321881771,0.01771509274840355
1788676381248022300,14.013022216796875,-0.12522737681865692,-0.039706241339445114,-0.00427605677396059
1788676381263922000,14.028921875,-0.16065755486488342,-0.04581489413976669,-0.02871066704392433
1788676381279882800,14.0448828125,-0.2174680233001709,-0.05864306539297104,-0.04642575979232788
1788676381295874000,14.0608740234375,-0.2834414839744568,-0.08124507963657379,-0.05314527451992035
1788676381311865000,14.076864990234375,-0.34025195240974426,-0.05253441259264946,-0.0659734457731247
1788676381327734300,14.092734375,-0.3952298164367676,0.036651913076639175,-0.06230825558304787
1788676381343634000,14.108634033203124,-0.4294382631778717,0.17531833052635193,0.02626720629632473
1788676381359533600,14.124533447265625,-0.44104471802711487,0.31031954288482666,0.22602014243602753
1788676381375494400,14.140494384765624,-0.4404338300228119,0.3793473243713379,0.39584067463874817
1788676381391455000,14.156455078125,-0.40072759985923767,0.42638394236564636,0.607810914516449
1788676381407385000,14.172385009765625,-0.36713001132011414,0.3023782968521118,0.7226535677909851
1788676381423376400,14.18837646484375,-0.39645153284072876,0.09224065393209457,0.6438519954681396
1788676381439337000,14.2043369140625,-0.4202753007411957,0.0024434609804302454,0.34574973583221436
1788676381455358700,14.220358642578125,-0.4966334402561188,0,-0.2718350291252136
1788676381471289000,14.2362890625,-0.6102544069290161,0.2174680233001709,-0.8747590184211731
1788676381487219200,14.25221923828125,-0.5845980644226074,0.4392121136188507,-0.9468411207199097
1788676381503149300,14.2681494140625,-0.4550946056842804,0.3579670190811157,-0.484416127204895
1788676381519110100,14.284110107421874,-0.3543018400669098,0.1270599663257599,0.10384709388017654
1788676381535101200,14.30010107421875,-0.26939156651496887,-0.1411098688840866,0.6151412725448608
1788676381551062000,14.31606201171875,-0.16859880089759827,-0.29993483424186707,0.7525860071182251
1788676381566961700,14.331961669921874,-0.08857546001672745,-0.3500257730484009,0.5711590051651001
1788676381582861300,14.347861328125,-0.07635815441608429,-0.27000242471694946,0.23945917189121246
1788676381598761000,14.363760986328124,-0.10445795953273773,-0.1661553531885147,-0.1722639948129654
1788676381614782700,14.37978271484375,-0.11972958594560623,-0.13011430203914642,-0.46364670991897583
1788676381630682400,14.395682373046874,-0.14049901068210602,-0.18020524084568024,-0.6640105247497559
1788676381646643000,14.411642822265625,-0.1722639948129654,-0.2125810980796814,-0.6884451508522034
1788676381662573000,14.427572998046875,-0.15332718193531036,-0.2119702398777008,-0.5809328556060791
1788676381678534000,14.443533935546874,-0.08979719132184982,-0.21991148591041565,-0.33719760179519653
1788676381694494500,14.459494384765625,0.02382374368607998,-0.12828169763088226,-0.12400564551353455
1788676381710516200,14.47551611328125,0.14233160018920898,0.06414084881544113,0.031154127791523933
1788676381726355000,14.49135498046875,0.18936823308467865,0.1417207419872284,0.07024950534105301
1788676381742315500,14.5073154296875,0.20586158335208893,0.18936823308467865,0.09407325088977814
1788676381758246000,14.523245849609374,0.18631389737129211,0.15332718193531036,0.0910189226269722
1788676381774206500,14.53920654296875,0.15271630883216858,0.051312681287527084,0.02382374368607998
1788676381790228200,14.555228271484374,0.12339477986097336,-0.03848451003432274,-0.07147123664617538
1788676381806067000,14.57106689453125,0.1368338167667389,-0.06719517707824707,-0.15760323405265808
1788676381822027500,14.587027587890624,0.17348572611808777,-0.054367005825042725,-0.1918116807937622
1788676381837957600,14.60295751953125,0.21319197118282318,-0.0006108652451075613,-0.1569923609495163
1788676381853857300,14.618857177734375,0.2565633952617645,0.10690141469240189,-0.04092797264456749
1788676381869818000,14.634818115234374,0.3090978264808655,0.1062905490398407,0.08185594528913498
1788676381885748200,14.650748291015624,0.38667771220207214,0.1667662113904953,0.2370157092809677
1788676381901708800,14.666708740234375,0.4392121136188507,0.11056660860776901,0.3176499307155609
1788676381917639200,14.68263916015625,0.4801400899887085,0.02626720629632473,0.29016098380088806
1788676381933599700,14.698599853515624,0.46670106053352356,-0.19058994948863983,0.17898350954055786
1788676381949560600,14.714560546875,0.5345070958137512,-0.23640485107898712,0.06169738993048668
1788676381965460200,14.730460205078124,0.6664539575576782,0.05619960278272629,0.1417207419872284
1788676381981390300,14.746390380859374,0.7929030656814575,0.2687807083129883,0.27977627515792847
1788676381997351000,14.762350830078125,0.8338310718536377,0.5308418869972229,0.19547687470912933
1788676382013281300,14.77828125,0.6212499737739563,0.5760459303855896,-0.05497787147760391
1788676382029272300,14.794272216796875,0.17348572611808777,0.2382374405860901,-0.5455026626586914
1788676382045111000,14.810111083984374,-0.16920967400074005,0.022602014243602753,-0.8497135639190674
1788676382061102300,14.826102294921874,-0.21563543379306793,0.02321287989616394,-0.6236934065818787
1788676382077123800,14.842123779296875,0.022602014243602753,0.18814650177955627,0.019547687843441963
1788676382093115100,14.858115234375,0.28955012559890747,0.33108896017074585,0.8283332586288452
1788676382109106400,14.8741064453125,0.36590829491615295,0.3188716471195221,1.1227703094482422
1788676382124975600,14.8899755859375,0.33597588539123535,0.10751228034496307,0.930347740650177
1788676382140875300,14.905875244140624,0.25045475363731384,-0.14782938361167908,0.46242499351501465
1788676382156805400,14.921805419921874,0.13377949595451355,-0.2840523421764374,-0.14049901068210602
1788676382172857600,14.937857666015624,0.06230825558304787,-0.3640756905078888,-0.47219884395599365
1788676382188757200,14.95375732421875,0.01710422709584236,-0.3536909818649292,-0.5613851547241211
1788676382204748500,14.96974853515625,0.00366519158706069,-0.22418753802776337,-0.5088507533073425
1788676382220648200,14.985648193359374,-0.021380282938480377,-0.10201449692249298,-0.44837507605552673
1788676382236578300,15.001578369140624,-0.06963863968849182,-0.03298672288656235,-0.43676865100860596
1788676382252600000,15.01760009765625,-0.036041051149368286,0.04642575979232788,-0.3799581825733185
1788676382268499700,15.033499755859374,0.04948008432984352,0.051312681287527084,-0.21807889640331268
1788676382284460300,15.049460205078125,0.06719517707824707,-0.039095375686883926,-0.01466076634824276
1788676382300421000,15.065421142578124,0.10506882518529892,-0.2736676335334778,0.2565633952617645
1788676382316381700,15.081381591796875,0.1722639948129654,-0.3744603991508484,0.3781255781650543
1788676382332281300,15.09728125,0.17592918872833252,-0.3695734739303589,0.2822197377681732
1788676382348242200,15.1132421875,0.13500121235847473,-0.21624629199504852,0.0555887371301651
1788676382364202800,15.12920263671875,0.13377949595451355,-0.17470745742321014,-0.1014036312699318
1788676382380194000,15.145194091796874,0.08735372871160507,0.04153883829712868,-0.2382374405860901
1788676382396185300,15.161185302734374,0.0507018156349659,0.182648703455925,-0.24007004499435425
1788676382412115500,15.177115478515624,-0.00855211354792118,0.12767083942890167,-0.09529497474431992
1788676382428106500,15.1931064453125,-0.05619960278272629,0.0659734457731247,0.024434609338641167
1788676382444006400,15.20900634765625,-0.12950342893600464,0.048258353024721146,0.15515977144241333
1788676382459906000,15.224906005859374,-0.1875356286764145,0.02687807008624077,0.24434609711170197
1788676382475836200,15.240836181640624,-0.21930062770843506,0.025656340643763542,0.29565876722335815
1788676382491827200,15.2568271484375,-0.23518311977386475,0.04948008432984352,0.2883284091949463
1788676382507849000,15.272848876953125,-0.22113321721553802,0.1459967941045761,0.33108896017074585
1788676382523748600,15.28874853515625,-0.18020524084568024,0.2785545587539673,0.4147774875164032
1788676382539709400,15.30470947265625,-0.21502456068992615,0.32681289315223694,0.36163222789764404
1788676382555609000,15.320609130859374,-0.30543261766433716,0.28588494658470154,0.0806342139840126
1788676382571600400,15.336600341796874,-0.3695734739303589,0.24007004499435425,-0.31642818450927734
1788676382587561000,15.35256103515625,-0.46792277693748474,0.24617868661880493,-0.8093964457511902
1788676382603399700,15.368399658203124,-0.4764748811721802,0.37201693654060364,-0.93095862865448
1788676382619299300,15.38429931640625,-0.34147366881370544,0.31642818450927734,-0.45875978469848633
1788676382635229400,15.4002294921875,-0.18448130786418915,0.12217304855585098,0.27122417092323303
1788676382651220700,15.416220703125,-0.08185594528913498,-0.14905111491680145,0.9547823667526245
1788676382667211800,15.432211669921875,-0.05253441259264946,-0.2840523421764374,1.0690141916275024
1788676382683081000,15.4480810546875,-0.06169738993048668,-0.3072652220726013,0.7415903806686401
1788676382698950100,15.4639501953125,-0.0806342139840126,-0.20097467303276062,0.17104226350784302
1788676382714849800,15.479849853515624,-0.10751228034496307,-0.039095375686883926,-0.27061331272125244
1788676382730749400,15.49574951171875,-0.15454891324043274,0.09346238523721695,-0.5809328556060791
1788676382746710000,15.5117099609375,-0.16920967400074005,0.0507018156349659,-0.6291912198066711
1788676382762548700,15.527548828125,-0.14477506279945374,-0.06352998316287994,-0.5314527750015259
1788676382778448400,15.543448486328124,-0.13011430203914642,-0.1814269721508026,-0.3579670190811157
1788676382794287000,15.559287109375,-0.0555887371301651,-0.22968533635139465,-0.11239920556545258
1788676382810186800,15.575186767578124,0.025045474991202354,-0.16920967400074005,0.07391469180583954
1788676382826086400,15.59108642578125,0.09346238523721695,-0.04948008432984352,0.2223549485206604
1788676382841924900,15.6069248046875,0.12828169763088226,-0.019547687843441963,0.22968533635139465
1788676382857824500,15.622824462890625,0.12095131725072861,-0.039706241339445114,0.10323622822761536
1788676382873755000,15.6387548828125,0.07391469180583954,-0.08979719132184982,-0.06719517707824707
1788676382889624000,15.6546240234375,0.04214970022439957,-0.1411098688840866,-0.21441370248794556
1788676382905554200,15.67055419921875,0.04398229718208313,-0.12095131725072861,-0.2565633952617645
1788676382921392600,15.686392578125,0.06230825558304787,-0.1111774742603302,-0.23640485107898712
1788676382937261800,15.70226171875,0.10873401165008545,-0.04886921867728233,-0.1362229436635971
1788676382961065500,15.7260654296875,0.17898350954055786,0.021380282938480377,0.12278391420841217
1788676382976904200,15.741904296875,0.19853121042251587,-0.01038470957428217,0.2785545587539673
1788676382992773400,15.7577734375,0.18387043476104736,-0.12828169763088226,0.33475416898727417
1788676383008703500,15.773703369140625,0.182648703455925,-0.21135938167572021,0.3188716471195221
1788676383024603100,15.78960302734375,0.21319197118282318,-0.2070833146572113,0.2681698501110077
1788676383040441900,15.80544189453125,0.24862214922904968,-0.11301007121801376,0.21013765037059784
1788676383056311000,15.82131103515625,0.2675589919090271,-0.0012217304902151227,0.2119702398777008
1788676383072180200,15.83718017578125,0.3176499307155609,0.11239920556545258,0.35124751925468445
1788676383088080000,15.853079833984374,0.3396410644054413,0.14477506279945374,0.5161811113357544
1788676383103918300,15.86891845703125,0.294437050819397,0.11484266817569733,0.5290092825889587
1788676383119757000,15.884757080078124,0.2767219543457031,0.056810468435287476,0.3494149148464203
1788676383135626200,15.900626220703124,0.23029619455337524,-0.09712757170200348,-0.054367005825042725
1788676383151526000,15.91652587890625,0.16249015927314758,-0.21319197118282318,-0.40744712948799133
1788676383167456000,15.9324560546875,0.1362229436635971,-0.11239920556545258,-0.4813618063926697
1788676383183294700,15.948294677734374,0.1771509200334549,0.06291911751031876,-0.15821409225463867
1788676383199163600,15.96416357421875,0.2828305959701538,0.11789698898792267,0.3799581825733185
1788676383215032800,15.98003271484375,0.34147366881370544,0.02382374368607998,0.6017022728919983
1788676383230902000,15.995902099609374,0.3176499307155609,-0.2076941877603531,0.4703662395477295
1788676383246771200,16.011771240234374,0.19058994948863983,-0.3836233615875244,0.14049901068210602
1788676383262701300,16.027701416015624,0.04398229718208313,-0.3952298164367676,-0.22479841113090515
1788676383278540000,16.0435400390625,-0.016493361443281174,-0.3194825351238251,-0.4178318381309509
1788676383294378500,16.05937841796875,-0.016493361443281174,-0.2015855312347412,-0.45631635189056396
1788676383310308900,16.075308837890624,0.004886921960860491,-0.05009094998240471,-0.3805690407752991
1788676383326269400,16.09126953125,0,0.07819075137376785,-0.2480112910270691
1788676383342169000,16.107169189453124,-0.02015855349600315,0.08979719132184982,-0.06841690838336945
1788676383358007800,16.1230078125,-0.045204028487205505,0.0555887371301651,0.05864306539297104
1788676383373907500,16.138907470703124,-0.05192354694008827,-0.025045474991202354,0.14416420459747314
1788676383389807000,16.15480712890625,-0.04337143152952194,-0.045204028487205505,0.1417207419872284
1788676383405737200,16.1707373046875,-0.02932153269648552,0.005497787147760391,0.07452555745840073
1788676383421606400,16.1866064453125,-0.02321287989616394,0.05925392732024193,0.015271631069481373
1788676383437475600,16.2024755859375,-0.03481931984424591,0.07024950534105301,-0.03787364438176155
1788676383453375200,16.218375244140624,-0.05497787147760391,0.059864792972803116,-0.07696902006864548
1788676383469275000,16.23427490234375,-0.07880161702632904,0.051312681287527084,-0.08857546001672745
1788676383485205000,16.250205078125,-0.11178833991289139,0.04337143152952194,-0.1007927656173706
1788676383501104600,16.266104736328124,-0.1667662113904953,0.05742133408784866,-0.09896016865968704
1788676383516943400,16.281943359375,-0.21930062770843506,0.03787364438176155,-0.06352998316287994
1788676383532812500,16.2978125,-0.24678955972194672,0.05497787147760391,0.05253441259264946
1788676383548651000,16.313651123046874,-0.27000242471694946,0.036651913076639175,0.15943582355976105
1788676383564550700,16.329550537109377,-0.28588494658470154,0.07757988572120667,0.2370157092809677
1788676383580450300,16.3454501953125,-0.28649580478668213,0.1258382350206375,0.27550023794174194
1788676383596258600,16.361258544921874,-0.27061331272125244,0.19303341209888458,0.3488040566444397
1788676383612158200,16.377158203125,-0.27122417092323303,0.16493362188339233,0.4306600093841553
1788676383628088300,16.39308837890625,-0.32131510972976685,0.07024950534105301,0.4239404797554016
1788676383643988000,16.408988037109374,-0.3891211748123169,-0.006719517521560192,0.2724458873271942
1788676383659887600,16.4248876953125,-0.43127086758613586,-0.04214970022439957,0.02932153269648552
1788676383675726300,16.440726318359374,-0.4911356568336487,-0.00855211354792118,-0.3445279896259308
1788676383691626000,16.4566259765625,-0.47769662737846375,0.1319468915462494,-0.5522221922874451
1788676383707434000,16.47243408203125,-0.38117989897727966,0.21807889640331268,-0.44104471802711487
1788676383723364000,16.488364013671877,-0.31520646810531616,0.152105450630188,-0.08918632566928864
1788676383739263700,16.504263671875,-0.2376265823841095,0.07696902006864548,0.3982841372489929
1788676383755102500,16.5201025390625,-0.18387043476104736,0.1014036312699318,0.5338962078094482
1788676383770971600,16.5359716796875,-0.21563543379306793,0.06963863968849182,0.3952298164367676
1788676383786871300,16.551871337890624,-0.21441370248794556,-0.1667662113904953,0.26511552929878235
1788676383810675000,16.575675048828124,-0.18875735998153687,-0.2015855312347412,-0.22540926933288574
1788676383826513700,16.591513671875,-0.21807889640331268,-0.13805554807186127,-0.4990769028663635
1788676383842382800,16.6073828125,-0.1722639948129654,-0.08368854224681854,-0.6004805564880371
1788676383858251800,16.623251708984377,-0.01466076634824276,-0.012217304669320583,-0.50335294008255
1788676383874121000,16.639120849609377,0.07024950534105301,-0.02687807008624077,-0.2767219543457031
1788676383898016300,16.663016357421874,0.18570303916931152,0.19608774781227112,-0.018325956538319588
1788676383913916000,16.678916015625,0.15332718193531036,0.31642818450927734,-0.013439035043120384
1788676383929785000,16.69478515625,0.059864792972803116,0.28588494658470154,0.010995574295520782
1788676383945684700,16.710684814453124,0.02076941914856434,0.16737708449363708,0.0861319974064827
1788676383961614800,16.72661474609375,0.006719517521560192,0.029932396486401558,0.10201449692249298
1788676383977484000,16.742484130859374,0.03237585723400116,-0.0555887371301651,0.027488935738801956
1788676383993322800,16.75832275390625,0.09712757170200348,-0.08429940044879913,-0.08124507963657379
1788676384009222400,16.774222412109374,0.13439035415649414,-0.0757472887635231,-0.152105450630188
1788676384025122000,16.7901220703125,0.14355333149433136,-0.05375614017248154,-0.17959438264369965
1788676384041052200,16.80605224609375,0.17592918872833252,0.01466076634824276,-0.1667662113904953
1788676384056921300,16.82192138671875,0.21868975460529327,0.03848451003432274,-0.10445795953273773
1788676384072759800,16.837759765625,0.25106561183929443,0.05192354694008827,-0.04886921867728233
1788676384088659700,16.85365966796875,0.2736676335334778,0.048258353024721146,-0.06169738993048668
1788676384104589800,16.86958984375,0.2987131178379059,0.0354301854968071,-0.08796459436416626
1788676384120489500,16.885489501953124,0.33475416898727417,0.018936822190880775,-0.045204028487205505
1788676384136389000,16.90138916015625,0.4001167416572571,-0.006108652334660292,0.11667526513338089
1788676384152227600,16.9172275390625,0.4642575979232788,0.03481931984424591,0.29626965522766113
1788676384168096800,16.9330966796875,0.5180137157440186,0.12339477986097336,0.42271876335144043
1788676384183966000,16.948966064453124,0.5155702829360962,0.15821409225463867,0.3597996234893799
1788676384199865600,16.964865478515627,0.4917465150356293,0.16859880089759827,0.11789698898792267
1788676384215765200,16.98076513671875,0.4593706727027893,0.045204028487205505,-0.2070833146572113
1788676384231604000,16.99660400390625,0.35735616087913513,-0.1966986060142517,-0.6377432942390442
1788676384247473200,17.01247314453125,0.2583959996700287,-0.26022860407829285,-0.7941248416900635
1788676384263372800,17.028372802734374,0.2583959996700287,-0.1563815027475357,-0.41722095012664795
1788676384279242000,17.044241943359374,0.3805690407752991,-0.027488935738801956,0.21991148591041565
1788676384295202600,17.06020263671875,0.48380526900291443,0.045204028487205505,0.7757988572120667
1788676384311041300,17.076041259765624,0.504574716091156,0.045204028487205505,0.8087855577468872
1788676384326941000,17.09194091796875,0.44715335965156555,-0.010995574295520782,0.42271876335144043
1788676384342779400,17.107779296875,0.3182607889175415,-0.0959058403968811,-0.001832595793530345
1788676384358740200,17.123740234375,0.14538592100143433,-0.19486601650714874,-0.3677408695220947
1788676384374578700,17.13957861328125,0.07696902006864548,-0.19914206862449646,-0.5106833577156067
1788676384390387000,17.155386962890624,0.06963863968849182,-0.14294247329235077,-0.4899139404296875
1788676384406286600,17.17128662109375,0.06902777403593063,-0.03298672288656235,-0.44165557622909546
1788676384422186200,17.187186279296874,0.05192354694008827,0.06902777403593063,-0.43188172578811646
1788676384438116400,17.203116455078124,0.027488935738801956,0.1411098688840866,-0.38667771220207214
1788676384454016000,17.21901611328125,0.04153883829712868,0.1667662113904953,-0.2577851414680481
1788676384469854700,17.234854736328124,0.05009094998240471,0.12095131725072861,-0.051312681287527084
1788676384493750000,17.25875,0.05375614017248154,0.0403171069920063,0.11972958594560623
1788676384509588500,17.27458837890625,0.039095375686883926,0.03848451003432274,0.1062905490398407
1788676384525457700,17.290457763671874,0,0.05925392732024193,0.01771509274840355
1788676384541357300,17.306357421875,-0.0507018156349659,0.07513642311096191,-0.0806342139840126
1788676384557287400,17.322287353515627,-0.07880161702632904,0.09162978827953339,-0.12950342893600464
1788676384573187000,17.33818701171875,-0.09040805697441101,0.08368854224681854,-0.14233160018920898
1788676384589025800,17.35402587890625,-0.11056660860776901,0.06108652427792549,-0.13744467496871948
1788676384604925400,17.369925537109374,-0.1362229436635971,0.04764748737215996,-0.11484266817569733
1788676384620794600,17.385794677734374,-0.19120082259178162,0.0012217304902151227,-0.054367005825042725
1788676384636724700,17.401724853515624,-0.23640485107898712,-0.06902777403593063,0.005497787147760391
1788676384652594000,17.417593994140624,-0.25961771607398987,-0.06963863968849182,0.08307767659425735
1788676384668432600,17.4334326171875,-0.26511552929878235,0.01466076634824276,0.17043140530586243
1788676384684332300,17.449332275390624,-0.25534167885780334,0.1270599663257599,0.18936823308467865
1788676384700232000,17.46523193359375,-0.2474004179239273,0.20830504596233368,0.1508837193250656
1788676384716131600,17.481131591796874,-0.18570303916931152,0.29077184200286865,0.2736676335334778
1788676384732031200,17.49703125,-0.12339477986097336,0.1472185254096985,0.4593706727027893
1788676384747900400,17.512900390625,-0.12339477986097336,-0.08674286305904388,0.48258355259895325
1788676384763769300,17.528769287109377,-0.14905111491680145,-0.18570303916931152,0.29504790902137756
1788676384779608000,17.544608154296874,-0.2675589919090271,-0.19853121042251587,-0.09285151958465576
1788676384795538200,17.5605380859375,-0.3982841372489929,-0.014049900695681572,-0.4343251883983612
1788676384811468500,17.576468505859374,-0.44226643443107605,0.24984388053417206,-0.5027421116828918
1788676384827276500,17.592276611328124,-0.3646865487098694,0.18570303916931152,-0.17592918872833252
1788676384843145700,17.608145751953124,-0.24678955972194672,-0.06169738993048668,0.33536502718925476
1788676384859015000,17.624014892578124,-0.18570303916931152,-0.13927727937698364,0.5791002511978149
1788676384874914600,17.63991455078125,-0.14538592100143433,-0.10445795953273773,0.5186246037483215
1788676384890875100,17.655875244140624,-0.1569923609495163,-0.025045474991202354,0.2632829248905182
1788676384906744300,17.671744384765624,-0.18509216606616974,0.08246681094169617,-0.10751228034496307
1788676384922613500,17.687613525390624,-0.25106561183929443,0.08979719132184982,-0.48685958981513977
1788676384938513200,17.70351318359375,-0.303600013256073,0.08918632566928864,-0.7544185519218445
1788676384954382300,17.71938232421875,-0.3127630054950714,0.11423180252313614,-0.9224064946174622
1788676384970343000,17.735343017578124,-0.2877175211906433,0.05742133408784866,-0.8784242272377014
1788676384986181600,17.751181640625,-0.1973094791173935,-0.006108652334660292,-0.5479460954666138
1788676385002050800,17.76705078125,-0.08674286305904388,0.0006108652451075613,-0.13927727937698364
1788676385017919700,17.782919677734377,0.006719517521560192,0.05619960278272629,0.18875735998153687
1788676385033880600,17.798880615234374,0.02076941914856434,0.06352998316287994,0.2119702398777008
1788676385049749800,17.814749755859374,-0.003054326167330146,0.025656340643763542,0.05192354694008827
1788676385065588200,17.830588134765627,-0.03726277872920036,-0.0555887371301651,-0.13316862285137177
1788676385081427000,17.846427001953124,-0.015271631069481373,-0.09407325088977814,-0.25595253705978394
1788676385097326600,17.86232666015625,0.02932153269648552,-0.08429940044879913,-0.2565633952617645
1788676385113195800,17.87819580078125,0.07269296050071716,-0.03420845419168472,-0.17348572611808777
1788676385129126000,17.8941259765625,0.1160643994808197,-0.0024434609804302454,-0.06291911751031876
1788676385145025500,17.910025634765624,0.12522737681865692,-0.030543262138962746,0.0354301854968071
1788676385160925200,17.92592529296875,0.13561208546161652,-0.08368854224681854,0.05253441259264946
1788676385176764000,17.941763916015624,0.14233160018920898,-0.1472185254096985,0.04214970022439957
1788676385192663600,17.95766357421875,0.16432274878025055,-0.1569923609495163,0.039706241339445114
1788676385208532700,17.97353271484375,0.22296582162380219,-0.10506882518529892,0.02932153269648552
1788676385224432400,17.989432373046874,0.2590068578720093,-0.00427605677396059,0.02015855349600315
1788676385240332000,18.00533203125,0.24923302233219147,-0.015882495790719986,0.039706241339445114
1788676385256231700,18.021231689453124,0.2480112910270691,-0.10323622822761536,0.1411098688840866
1788676385272131300,18.03713134765625,0.3219259977340698,-0.07391469180583954,0.3695734739303589
1788676385288061400,18.0530615234375,0.4050036668777466,0.02321287989616394,0.6768386960029602
1788676385303900200,18.068900146484374,0.3793473243713379,0.08185594528913498,0.7257078886032104
1788676385319769000,18.08476904296875,0.3194825351238251,0.12217304855585098,0.46670106053352356
1788676385335669000,18.1006689453125,0.24068090319633484,-0.036041051149368286,0.028099801391363144
1788676385351568600,18.116568603515624,0.13255776464939117,-0.3488040566444397,-0.5589417219161987
1788676385367407000,18.132406982421877,0.11178833991289139,-0.35185837745666504,-0.7342600226402283
1788676385383245800,18.148245849609374,0.19547687470912933,-0.15454891324043274,-0.30054569244384766
1788676385399115000,18.164114990234374,0.3378084897994995,0.07880161702632904,0.3683517575263977
1788676385415045000,18.180045166015624,0.3805690407752991,0.06352998316287994,0.8045095205307007
1788676385430944800,18.19594482421875,0.35735616087913513,0.00427605677396059,0.7012733221054077
1788676385446905300,18.2119052734375,0.2590068578720093,-0.14782938361167908,0.17592918872833252
1788676385462774500,18.2277744140625,0.1459967941045761,-0.22540926933288574,-0.3604104816913605
1788676385478674200,18.243674072265627,0.04703662544488907,-0.21868975460529327,-0.7220427393913269
1788676385494573800,18.25957373046875,-0.006108652334660292,-0.15821409225463867,-0.7281513810157776
1788676385510473500,18.275473388671877,-0.00427605677396059,0.012828170321881771,-0.504574716091156
1788676385526373000,18.291373046875,0.024434609338641167,0.12217304855585098,-0.2883284091949463
1788676385542242300,18.3072421875,0.02382374368607998,0.06352998316287994,-0.22357667982578278
1788676385558081000,18.3230810546875,-0.00733038317412138,0.004886921960860491,-0.323147714138031
1788676385573950200,18.3389501953125,-0.022602014243602753,-0.07513642311096191,-0.37751471996307373
1788676385589819100,18.354819091796877,0.04214970022439957,-0.19364428520202637,-0.2119702398777008
1788676385605780000,18.370780029296874,0.16310101747512817,-0.36529740691185,0.13255776464939117
1788676385621618700,18.38661865234375,0.22968533635139465,-0.3781255781650543,0.4343251883983612
1788676385637487600,18.402487548828127,0.2272418737411499,-0.32009339332580566,0.523511528968811
1788676385653387300,18.41838720703125,0.19975294172763824,-0.16798794269561768,0.44776421785354614
1788676385669287000,18.434286865234377,0.1417207419872284,-0.010995574295520782,0.29993483424186707
1788676385685247700,18.450247802734374,0.07696902006864548,0.15760323405265808,0.08979719132184982
1788676385701117000,18.466116943359374,0.016493361443281174,0.22052235901355743,-0.10384709388017654
1788676385716955400,18.481955322265627,-0.060475658625364304,0.2474004179239273,-0.28955012559890747
1788676385732824600,18.497824462890627,-0.10751228034496307,0.2541199326515198,-0.3286454975605011
1788676385748754700,18.513754638671877,-0.16982053220272064,0.152105450630188,-0.20830504596233368
1788676385764624000,18.529623779296877,-0.22846360504627228,-0.00366519158706069,-0.01466076634824276
1788676385780493000,18.5454931640625,-0.25106561183929443,-0.05375614017248154,0.1966986060142517
1788676385796423200,18.561423095703127,-0.24434609711170197,-0.010995574295520782,0.2669481039047241
1788676385812322800,18.57732275390625,-0.2223549485206604,0.08552113175392151,0.2767219543457031
1788676385828222500,18.593222412109377,-0.17592918872833252,0.17043140530586243,0.3323107063770294
1788676385844122000,18.6091220703125,-0.15393804013729095,0.1411098688840866,0.38117989897727966
1788676385859960800,18.6249609375,-0.2021963894367218,0.1215621829032898,0.31520646810531616
1788676385875860500,18.640860595703124,-0.31031954288482666,0.14966198801994324,0.1014036312699318
1788676385891760000,18.656760009765627,-0.43127086758613586,0.23640485107898712,-0.24617868661880493
1788676385907690200,18.672690185546877,-0.5448917746543884,0.4404338300228119,-0.6407976150512695
1788676385923590000,18.68858984375,-0.5112941861152649,0.5717698931694031,-0.5210680365562439
1788676385939459000,18.704458984375,-0.3695734739303589,0.43188172578811646,-0.04764748737215996
1788676385955328300,18.720328369140624,-0.2431243658065796,0.10934487730264664,0.5161811113357544
1788676385971197400,18.736197509765624,-0.21563543379306793,-0.11972958594560623,0.7312057018280029
1788676385987066600,18.752066650390624,-0.17959438264369965,-0.15027284622192383,0.5839871764183044
1788676386002996700,18.767996826171874,-0.1362229436635971,-0.004886921960860491,0.28038713335990906
1788676386018835500,18.78383544921875,-0.11178833991289139,0.14844025671482086,-0.04642575979232788
1788676386034704600,18.79970458984375,-0.11056660860776901,0.17776179313659668,-0.23640485107898712
1788676386050604300,18.815604248046874,-0.13316862285137177,0.1270599663257599,-0.39156460762023926
1788676386066504000,18.83150390625,-0.16310101747512817,0.04886921867728233,-0.4996877610683441
1788676386082434000,18.84743408203125,-0.2021963894367218,-0.08857546001672745,-0.5546656250953674
1788676386098242000,18.863241943359377,-0.18081611394882202,-0.16371189057826996,-0.47830748558044434
1788676386114141700,18.8791416015625,-0.07269296050071716,-0.14844025671482086,-0.2321287989616394
1788676386129980400,18.89498046875,0.006108652334660292,-0.07819075137376785,0.01160643994808197
1788676386145880000,18.910880126953124,0.022602014243602753,-0.04581489413976669,0.16249015927314758
1788676386161810200,18.92681005859375,0.018325956538319588,-0.09468411654233932,0.1612684279680252
1788676386177649000,18.94264892578125,0.014049900695681572,-0.15515977144241333,0.06414084881544113
1788676386193518000,18.95851806640625,0.01160643994808197,-0.1973094791173935,-0.04886921867728233
1788676386209417700,18.974417724609374,0.00855211354792118,-0.24862214922904968,-0.19547687470912933
1788676386225347800,18.990347900390624,0.03481931984424591,-0.2571742534637451,-0.24007004499435425
1788676386249151500,19.0141513671875,0.07819075137376785,-0.23151792585849762,-0.16249015927314758
1788676386265081600,19.03008154296875,0.09957103431224823,-0.23640485107898712,-0.05619960278272629
1788676386280950800,19.04595068359375,0.1111774742603302,-0.2174680233001709,0
1788676386296789500,19.06178955078125,0.0806342139840126,-0.21135938167572021,-0.009773843921720982
1788676386312689200,19.077689208984374,0.06291911751031876,-0.1722639948129654,-0.042760565876960754
1788676386328558300,19.093558349609374,0.10506882518529892,-0.13866640627384186,-0.0024434609804302454
1788676386344519000,19.109518798828127,0.2321287989616394,0.010995574295520782,0.18936823308467865
1788676386360388000,19.12538818359375,0.40683624148368835,0.12400564551353455,0.5571091175079346
1788676386376196000,19.141196044921877,0.45631635189056396,0.11911872029304504,0.8014551997184753
1788676386392065300,19.157065185546877,0.4355469346046448,0.19120082259178162,0.8411614298820496
1788676386407934500,19.1729345703125,0.4031710624694824,0.16493362188339233,0.6010913848876953
1788676386423864600,19.188864501953127,0.2742784917354584,0.09651670604944229,0.04581489413976669
1788676386439733800,19.204733642578127,0.14049901068210602,0.10506882518529892,-0.6053674817085266
1788676386455603000,19.22060302734375,0.024434609338641167,0.07391469180583954,-1.0775662660598755
1788676386471472000,19.23647216796875,0.06475171446800232,0.024434609338641167,-0.8136724829673767
1788676386487341300,19.25234130859375,0.3286454975605011,-0.009162978269159794,0.15271630883216858
1788676386503241000,19.268240966796874,0.5015203952789307,0,0.8778133392333984
1788676386519140600,19.284140625,0.4917465150356293,-0.13439035415649414,1.056796908378601
1788676386534979000,19.29997900390625,0.34636059403419495,-0.2638937830924988,0.6878342628479004
1788676386550878700,19.315878662109377,0.16982053220272064,-0.3591887652873993,0.1918116807937622
1788676386566778400,19.3317783203125,0.06108652427792549,-0.394618958234787,-0.2565633952617645
1788676386582708700,19.347708740234374,0.024434609338641167,-0.3597996234893799,-0.4331034719944
1788676386598578000,19.363577880859374,-0.02015855349600315,-0.15821409225463867,-0.4642575979232788
1788676386614416400,19.37941650390625,-0.06780604273080826,0.005497787147760391,-0.41599923372268677
1788676386630316000,19.39531591796875,-0.12400564551353455,0.021380282938480377,-0.3732386529445648
1788676386646215700,19.411215576171877,-0.1368338167667389,0.007941247895359993,-0.3396410644054413
1788676386662146000,19.42714599609375,-0.0910189226269722,0.04214970022439957,-0.2687807083129883
1788676386678045700,19.443045654296874,-0.025045474991202354,0.04642575979232788,-0.18936823308467865
1788676386693945300,19.4589453125,0.03176499158143997,-0.0012217304902151227,-0.08979719132184982
1788676386709783800,19.47478369140625,0.04581489413976669,-0.04764748737215996,0.013439035043120384
1788676386725714000,19.4907138671875,0.05925392732024193,-0.054367005825042725,0.11789698898792267
1788676386741613600,19.506613525390627,0.05253441259264946,0.018936822190880775,0.16982053220272064
1788676386757513500,19.522513427734374,0.009773843921720982,0.08246681094169617,0.16554448008537292
1788676386773352000,19.53835205078125,-0.025656340643763542,0.10018189996480942,0.12400564551353455
1788676386789221000,19.55422119140625,-0.07024950534105301,0.10812314599752426,0.04459316283464432
1788676386805029000,19.570029052734377,-0.10751228034496307,0.0659734457731247,-0.007941247895359993
1788676386820928800,19.5859287109375,-0.13805554807186127,0.060475658625364304,-0.024434609338641167
1788676386836859100,19.601859130859374,-0.16432274878025055,0.09346238523721695,0.02626720629632473
1788676386852697600,19.617697509765627,-0.18387043476104736,0.19914206862449646,0.13316862285137177
1788676386868566800,19.63356689453125,-0.2015855312347412,0.2767219543457031,0.2278527319431305
1788676386900305200,19.66530517578125,-0.20525072515010834,0.32009339332580566,0.40744712948799133
1788676386916265700,19.681265625,-0.1569923609495163,0.36163222789764404,0.5681046843528748
1788676386932135000,19.697135009765624,-0.10567969083786011,0.3701843321323395,0.7476990818977356
1788676386948004000,19.713004150390624,-0.15760323405265808,0.21807889640331268,0.7202101349830627
1788676386963873300,19.728873291015624,-0.25045475363731384,0.05314527451992035,0.4178318381309509
1788676386979773000,19.74477294921875,-0.31031954288482666,0.0024434609804302454,0.014049900695681572
