time,seconds_elapsed,z,y,x
1788676367508352300,0.273352294921875,0.001832595793530345,0.001832595793530345,0.00427605677396059
1788676367524221400,0.289221435546875,-0.01466076634824276,-0.003054326167330146,-0.005497787147760391
1788676367540121000,0.30512109375,-0.04398229718208313,-0.00366519158706069,0.0006108652451075613
1788676367555990000,0.320989990234375,-0.04886921867728233,-0.07757988572120667,0.06536258012056351
1788676367571920400,0.33692041015625,-0.03848451003432274,-0.1973094791173935,0.16004669666290283
1788676367587789300,0.352789306640625,-0.02015855349600315,-0.32131510972976685,0.26083946228027344
1788676367603658500,0.368658447265625,0.0006108652451075613,-0.33292156457901,0.2822197377681732
1788676367619588900,0.3845888671875,0.021380282938480377,-0.25961771607398987,0.23884831368923187
1788676367635488500,0.400488525390625,0.04398229718208313,-0.1765400618314743,0.18509216606616974
1788676367651418600,0.416418701171875,0.05803219974040985,-0.13439035415649414,0.09834930300712585
1788676367667287800,0.432287841796875,0.0659734457731247,-0.1258382350206375,0.04092797264456749
1788676367683156700,0.44815673828125,0.07757988572120667,-0.16065755486488342,0.006108652334660292
1788676367699056600,0.464056640625,0.07757988572120667,-0.192422553896904,0
1788676367714925600,0.479925537109375,0.08979719132184982,-0.21013765037059784,0.005497787147760391
1788676367730856000,0.49585595703125,0.08979719132184982,-0.21624629199504852,-0.01771509274840355
1788676367754690000,0.51968994140625,0.04459316283464432,-0.13011430203914642,-0.03176499158143997
1788676367770589700,0.535589599609375,0.021380282938480377,-0.08918632566928864,-0.006108652334660292
1788676367786459000,0.551458984375,-0.001832595793530345,-0.08979719132184982,0.03848451003432274
1788676367802328000,0.567328125,0.0024434609804302454,-0.08429940044879913,0.08674286305904388
1788676367818227700,0.583227783203125,0.04642575979232788,-0.0757472887635231,0.12095131725072861
1788676367834097000,0.599096923828125,0.11850785464048386,-0.10384709388017654,0.15760323405265808
1788676367849996500,0.61499658203125,0.1569923609495163,-0.14416420459747314,0.19058994948863983
1788676367865896200,0.630896240234375,0.18875735998153687,-0.12522737681865692,0.23029619455337524
1788676367881734700,0.646734619140625,0.20463985204696655,-0.07513642311096191,0.25106561183929443
1788676367897603800,0.662603759765625,0.19058994948863983,-0.009162978269159794,0.24556782841682434
1788676367913503500,0.67850341796875,0.1362229436635971,0.05375614017248154,0.20586158335208893
1788676367929433600,0.69443359375,0.07635815441608429,0.13072516024112701,0.11972958594560623
1788676367945302800,0.710302734375,0.04642575979232788,0.15454891324043274,0.05192354694008827
1788676367961202400,0.726202392578125,0.04153883829712868,0.12339477986097336,0.01038470957428217
1788676367977071600,0.742071533203125,0.02626720629632473,0.039095375686883926,0.007941247895359993
1788676367992940800,0.75794091796875,0.012217304669320583,-0.021380282938480377,0.03787364438176155
1788676368008871000,0.773870849609375,-0.01466076634824276,-0.07330382615327835,0.05742133408784866
1788676368024709600,0.789709716796875,-0.04398229718208313,-0.0861319974064827,0.05375614017248154
1788676368040609300,0.805609375,-0.059864792972803116,-0.08918632566928864,0.03420845419168472
1788676368056417300,0.821417236328125,-0.060475658625364304,-0.0861319974064827,0.02687807008624077
1788676368072286500,0.837286376953125,-0.03420845419168472,-0.07024950534105301,0.04948008432984352
1788676368088186000,0.85318603515625,-0.003054326167330146,-0.06841690838336945,0.07208210229873657
1788676368103994400,0.868994384765625,0.03787364438176155,-0.0659734457731247,0.0708603709936142
1788676368127889400,0.892889404296875,0.054367005825042725,-0.07452555745840073,0.060475658625364304
1788676368143758600,0.908758544921875,0.04337143152952194,-0.0910189226269722,0.08124507963657379
1788676368159658200,0.924658203125,0.024434609338641167,-0.11850785464048386,0.1007927656173706
1788676368175466500,0.940466552734375,-0.006108652334660292,-0.14844025671482086,0.09834930300712585
1788676368191366100,0.9563662109375,-0.007941247895359993,-0.1466076523065567,0.06963863968849182
1788676368207265800,0.972265869140625,0.0012217304902151227,-0.13377949595451355,0.03726277872920036
1788676368223135000,0.988135009765625,0.001832595793530345,-0.09162978827953339,0.02015855349600315
1788676368239034600,1.00403466796875,0.00427605677396059,-0.05192354694008827,0.02871066704392433
1788676368254934300,1.019934326171875,0.00733038317412138,-0.05742133408784866,0.05192354694008827
1788676368270834000,1.035833984375,0.00366519158706069,-0.08552113175392151,0.0708603709936142
1788676368286764000,1.051763916015625,-0.014049900695681572,-0.09896016865968704,0.08979719132184982
1788676368302663700,1.06766357421875,-0.03176499158143997,-0.06169738993048668,0.09529497474431992
1788676368318532900,1.083532958984375,-0.04459316283464432,-0.02076941914856434,0.06963863968849182
1788676368334402000,1.099402099609375,-0.045204028487205505,-0.004886921960860491,0.039095375686883926
1788676368350271200,1.115271240234375,-0.033597588539123535,-0.006719517521560192,0.03176499158143997
1788676368366171000,1.1311708984375,-0.022602014243602753,-0.024434609338641167,0.045204028487205505
1788676368382009300,1.14700927734375,-0.014049900695681572,-0.039095375686883926,0.06475171446800232
1788676368397878500,1.16287841796875,-0.014049900695681572,-0.07147123664617538,0.06291911751031876
1788676368413808600,1.17880859375,-0.021991148591041565,-0.11239920556545258,0.04153883829712868
1788676368429677800,1.194677734375,-0.019547687843441963,-0.1258382350206375,0.025045474991202354
1788676368445608000,1.21060791015625,-0.00733038317412138,-0.1111774742603302,0.033597588539123535
1788676368461477000,1.22647705078125,-0.0006108652451075613,-0.10506882518529892,0.056810468435287476
1788676368477315800,1.24231591796875,-0.0006108652451075613,-0.08246681094169617,0.08185594528913498
1788676368493215500,1.258215576171875,0.0006108652451075613,-0.09224065393209457,0.09040805697441101
1788676368509084700,1.274084716796875,0.0012217304902151227,-0.10201449692249298,0.09468411654233932
1788676368525014800,1.290014892578125,-0.001832595793530345,-0.10751228034496307,0.11056660860776901
1788676368540884000,1.305884033203125,-0.019547687843441963,-0.12278391420841217,0.10934487730264664
1788676368556783600,1.32178369140625,-0.04764748737215996,-0.12095131725072861,0.05864306539297104
1788676368572622000,1.3376220703125,-0.0659734457731247,-0.08735372871160507,-0.010995574295520782
1788676368588491300,1.3534912109375,-0.06841690838336945,-0.030543262138962746,-0.06352998316287994
1788676368604391000,1.369390869140625,-0.05253441259264946,0.0024434609804302454,-0.07635815441608429
1788676368620199200,1.38519921875,-0.03176499158143997,0.02687807008624077,-0.06780604273080826
1788676368636037600,1.40103759765625,-0.00427605677396059,-0.01038470957428217,0.02687807008624077
1788676368651906800,1.41690673828125,0.003054326167330146,-0.08368854224681854,0.1264491081237793
1788676368667776000,1.43277587890625,0.01466076634824276,-0.13255776464939117,0.1508837193250656
1788676368683675600,1.448675537109375,0.02626720629632473,-0.14294247329235077,0.08918632566928864
1788676368699483600,1.464483642578125,-0.021991148591041565,-0.09040805697441101,0.003054326167330146
1788676368715352800,1.480352783203125,-0.036041051149368286,-0.02626720629632473,-0.10751228034496307
1788676368731252500,1.49625244140625,-0.001832595793530345,0.013439035043120384,-0.11545353382825851
1788676368747152100,1.512152099609375,0.025656340643763542,0.039095375686883926,-0.04642575979232788
1788676368763051800,1.5280517578125,0.060475658625364304,0.01160643994808197,0.0403171069920063
1788676368778921000,1.5439208984375,0.056810468435287476,-0.06841690838336945,0.11301007121801376
1788676368794820600,1.559820556640625,0.04948008432984352,-0.12889257073402405,0.13988813757896423
1788676368810689800,1.575689697265625,0.03237585723400116,-0.1508837193250656,0.09712757170200348
1788676368826559000,1.59155908203125,-0.015271631069481373,-0.09346238523721695,-0.02015855349600315
1788676368850393000,1.61539306640625,-0.07696902006864548,0.015271631069481373,-0.23640485107898712
1788676368866262300,1.63126220703125,-0.05314527451992035,0.03176499158143997,-0.2822197377681732
1788676368882192400,1.6471923828125,0.00366519158706069,0.025656340643763542,-0.1966986060142517
1788676368898092300,1.66309228515625,-0.03726277872920036,0.001832595793530345,-0.09834930300712585
1788676368913930800,1.6789306640625,-0.06230825558304787,-0.03298672288656235,-0.027488935738801956
1788676368929830400,1.694830322265625,-0.08002334833145142,-0.09834930300712585,0.019547687843441963
1788676368945699600,1.710699462890625,-0.08124507963657379,-0.14294247329235077,0.025656340643763542
1788676368961599200,1.72659912109375,-0.05497787147760391,-0.12828169763088226,-0.006108652334660292
1788676368977468400,1.742468505859375,-0.059864792972803116,-0.07819075137376785,-0.0708603709936142
1788676368993337600,1.758337646484375,-0.0555887371301651,-0.02382374368607998,-0.11972958594560623
1788676369009237200,1.7742373046875,-0.05192354694008827,-0.033597588539123535,-0.08796459436416626
1788676369025106400,1.7901064453125,-0.10690141469240189,-0.10751228034496307,0.0659734457731247
1788676369041006000,1.806006103515625,-0.17409659922122955,-0.14905111491680145,0.16798794269561768
1788676369056875000,1.821875,-0.16432274878025055,-0.15027284622192383,0.17287486791610718
1788676369072713700,1.837713623046875,-0.11056660860776901,-0.12889257073402405,0.13011430203914642
1788676369088613400,1.85361328125,-0.06719517707824707,-0.07757988572120667,0.07696902006864548
1788676369104513000,1.869512939453125,-0.033597588539123535,-0.02076941914856434,0.03726277872920036
1788676369120443100,1.885443115234375,-0.00427605677396059,-0.00855211354792118,0.022602014243602753
1788676369136281900,1.90128173828125,-0.0012217304902151227,-0.05497787147760391,0.022602014243602753
1788676369152212000,1.9172119140625,-0.00733038317412138,-0.10567969083786011,0.031154127791523933
1788676369168020200,1.933020263671875,0.014049900695681572,-0.12461651116609573,0.05619960278272629
1788676369183919900,1.948919921875,0.05375614017248154,-0.1215621829032898,0.07330382615327835
1788676369199819500,1.964819580078125,0.11178833991289139,-0.08918632566928864,0.07513642311096191
1788676369215658000,1.980657958984375,0.14416420459747314,-0.039706241339445114,0.05925392732024193
1788676369231527200,1.996527099609375,0.1417207419872284,0.010995574295520782,0.025045474991202354
1788676369247426800,2.0124267578125,0.12278391420841217,0.025045474991202354,-0.001832595793530345
1788676369263326500,2.028326416015625,0.0861319974064827,-0.006719517521560192,0.0006108652451075613
1788676369279256800,2.0442568359375,0.05375614017248154,-0.05742133408784866,0.021991148591041565
1788676369295156500,2.060156494140625,0.03176499158143997,-0.09040805697441101,0.060475658625364304
1788676369311025400,2.076025390625,0.02015855349600315,-0.08307767659425735,0.09529497474431992
1788676369326955800,2.091955810546875,0.001832595793530345,-0.042760565876960754,0.12034045159816742
1788676369342855400,2.10785546875,-0.005497787147760391,-0.00733038317412138,0.11728613078594208
1788676369358755000,2.123755126953125,-0.016493361443281174,0.009162978269159794,0.1007927656173706
1788676369374624300,2.139624267578125,-0.04153883829712868,0.0006108652451075613,0.07269296050071716
1788676369390493200,2.1554931640625,-0.06414084881544113,-0.027488935738801956,0.039706241339445114
1788676369406392800,2.171392822265625,-0.07024950534105301,-0.05314527451992035,0.03848451003432274
1788676369422262000,2.187261962890625,-0.07391469180583954,-0.06352998316287994,0.051312681287527084
1788676369438161700,2.20316162109375,-0.07452555745840073,-0.06291911751031876,0.059864792972803116
1788676369454030800,2.21903076171875,-0.08368854224681854,-0.06780604273080826,0.04214970022439957
1788676369469900000,2.234900146484375,-0.08796459436416626,-0.18081611394882202,-0.08429940044879913
1788676369485799700,2.250799560546875,-0.0354301854968071,0.025656340643763542,-0.1466076523065567
1788676369501699300,2.26669921875,-0.0354301854968071,-0.054367005825042725,-0.1814269721508026
1788676369517568500,2.282568603515625,-0.04764748737215996,0.005497787147760391,-0.14782938361167908
1788676369533437700,2.298437744140625,-0.04214970022439957,-0.03176499158143997,-0.09285151958465576
1788676369549337300,2.31433740234375,-0.05375614017248154,-0.04092797264456749,-0.04642575979232788
1788676369565237000,2.330237060546875,-0.03726277872920036,-0.06719517707824707,-0.036651913076639175
1788676369581106200,2.346106201171875,-0.02321287989616394,-0.08429940044879913,-0.07452555745840073
1788676369596975000,2.36197509765625,-0.025045474991202354,-0.07941248267889023,-0.1270599663257599
1788676369612844300,2.37784423828125,-0.03726277872920036,-0.04886921867728233,-0.1508837193250656
1788676369628744000,2.393743896484375,-0.042760565876960754,0.0006108652451075613,-0.13011430203914642
1788676369644643600,2.4096435546875,-0.048258353024721146,0.03176499158143997,-0.07635815441608429
1788676369660512800,2.4255126953125,-0.07941248267889023,0.03481931984424591,-0.016493361443281174
1788676369676412400,2.441412353515625,-0.10018189996480942,0.054367005825042725,0.0006108652451075613
1788676369692312000,2.45731201171875,-0.08307767659425735,0.03726277872920036,-0.022602014243602753
1788676369708181200,2.47318115234375,-0.05925392732024193,0.009162978269159794,-0.03298672288656235
1788676369724081000,2.489080810546875,-0.030543262138962746,-0.02321287989616394,-0.010995574295520782
1788676369739950000,2.5049501953125,-0.00733038317412138,-0.014049900695681572,0.02626720629632473
1788676369755819300,2.5208193359375,0.006719517521560192,-0.01038470957428217,0.0354301854968071
1788676369771688400,2.5366884765625,0.02015855349600315,-0.014049900695681572,0.01710422709584236
1788676369787588000,2.552588134765625,0.045204028487205505,-0.03420845419168472,-0.0006108652451075613
1788676369803457300,2.568457275390625,0.05009094998240471,-0.02932153269648552,0.003054326167330146
1788676369819357000,2.58435693359375,0.039095375686883926,-0.02076941914856434,-0.005497787147760391
1788676369835287000,2.600287109375,0.029932396486401558,-0.00427605677396059,-0.02321287989616394
1788676369851156200,2.61615625,0.03481931984424591,0.013439035043120384,-0.04581489413976669
1788676369867055900,2.632055908203125,0.045204028487205505,0.02932153269648552,-0.04337143152952194
1788676369882925000,2.647925048828125,0.05619960278272629,0.04153883829712868,-0.02871066704392433
1788676369898824700,2.66382470703125,0.05925392732024193,0.01466076634824276,-0.02932153269648552
1788676369914754800,2.6797548828125,0.04886921867728233,-0.02076941914856434,-0.05253441259264946
1788676369930624000,2.6956240234375,0.05803219974040985,-0.0403171069920063,-0.0757472887635231
1788676369946523600,2.711523681640625,0.05803219974040985,-0.039706241339445114,-0.09468411654233932
1788676369962392600,2.727392578125,0.05192354694008827,-0.02932153269648552,-0.10873401165008545
1788676369978292500,2.74329248046875,0.05375614017248154,-0.018936822190880775,-0.10812314599752426
1788676369994222600,2.75922265625,-0.08857546001672745,0.03726277872920036,-0.02015855349600315
1788676370010122200,2.775122314453125,-0.08429940044879913,0.11545353382825851,0.07330382615327835
1788676370025991400,2.790991455078125,-0.12217304855585098,0.20097467303276062,0.10812314599752426
1788676370041891000,2.80689111328125,-0.1716531366109848,0.22846360504627228,0.11056660860776901
1788676370057760300,2.82276025390625,-0.14355333149433136,0.2987131178379059,-0.12278391420841217
1788676370073660000,2.838659912109375,-0.039095375686883926,0.27550023794174194,-0.18387043476104736
1788676370089528800,2.85452880859375,0.009162978269159794,-0.11484266817569733,-0.09896016865968704
1788676370105398000,2.87039794921875,-0.00427605677396059,-0.35124751925468445,-0.051312681287527084
1788676370121267200,2.88626708984375,0.10506882518529892,-0.44226643443107605,0.001832595793530345
1788676370137136400,2.902136474609375,0.1007927656173706,-0.5247332453727722,0.09407325088977814
1788676370153036000,2.9180361328125,-0.009773843921720982,-0.3793473243713379,-0.015271631069481373
1788676370168874800,2.933874755859375,0.012217304669320583,-0.11850785464048386,-0.12461651116609573
1788676370184743700,2.94974365234375,-0.009773843921720982,0.10018189996480942,-0.20097467303276062
1788676370200643300,2.965643310546875,0.018936822190880775,0.13805554807186127,-0.24068090319633484
1788676370216543000,2.98154296875,0.03481931984424591,0.10690141469240189,-0.2174680233001709
1788676370232473300,2.997473388671875,-0.042760565876960754,0.19547687470912933,0.036651913076639175
1788676370248342500,3.013342529296875,-0.14538592100143433,0.056810468435287476,0.12461651116609573
1788676370264242200,3.0292421875,-0.10812314599752426,0.14905111491680145,0.1258382350206375
1788676370280080600,3.04508056640625,-0.08124507963657379,0.06719517707824707,0.03237585723400116
1788676370295949800,3.06094970703125,-0.04398229718208313,-0.019547687843441963,-0.10690141469240189
1788676370311910400,3.076910400390625,-0.015271631069481373,-0.10201449692249298,-0.2119702398777008
1788676370327779600,3.092779541015625,0.014049900695681572,-0.15577064454555511,-0.28038713335990906
1788676370343648800,3.108648681640625,0.01466076634824276,-0.10384709388017654,-0.28955012559890747
1788676370359548400,3.12454833984375,-0.001832595793530345,0.04153883829712868,-0.22479841113090515
1788676370375448000,3.140447998046875,-0.027488935738801956,0.1258382350206375,-0.1313360333442688
1788676370391378200,3.156378173828125,-0.04886921867728233,0.15577064454555511,-0.02382374368607998
1788676370407247400,3.172247314453125,-0.051312681287527084,0.10812314599752426,0.048258353024721146
1788676370423147000,3.18814697265625,-0.03481931984424591,0.05925392732024193,0.10567969083786011
1788676370438985700,3.20398583984375,-0.02687807008624077,0.0403171069920063,0.12522737681865692
1788676370454855000,3.21985498046875,-0.018936822190880775,0.09896016865968704,0.08491026610136032
1788676370470785000,3.235784912109375,-0.018325956538319588,0.14477506279945374,0.014049900695681572
1788676370486654200,3.251654296875,-0.02382374368607998,0.15454891324043274,-0.02687807008624077
1788676370502493000,3.267492919921875,-0.010995574295520782,0.10445795953273773,-0.02626720629632473
1788676370518392600,3.283392578125,0.009773843921720982,0.015271631069481373,0.0012217304902151227
1788676370534292200,3.299292236328125,0.027488935738801956,-0.05314527451992035,0.028099801391363144
1788676370550191900,3.31519189453125,0.04764748737215996,-0.04459316283464432,0.0507018156349659
1788676370566060800,3.331060791015625,0.05619960278272629,-0.031154127791523933,0.06291911751031876
1788676370581991200,3.3469912109375,0.060475658625364304,-0.02871066704392433,0.05192354694008827
1788676370597799200,3.362799072265625,0.06414084881544113,-0.019547687843441963,0.02626720629632473
1788676370613668400,3.37866845703125,0.0659734457731247,-0.022602014243602753,0.015271631069481373
1788676370629568000,3.394568115234375,0.05375614017248154,-0.004886921960860491,0.015271631069481373
1788676370645406700,3.41040673828125,0.04581489413976669,-0.03787364438176155,0.03481931984424591
1788676370661306400,3.426306396484375,0.042760565876960754,-0.0910189226269722,0.05009094998240471
1788676370677144800,3.442144775390625,0.04092797264456749,-0.10323622822761536,0.01771509274840355
1788676370693014000,3.458013916015625,0.04337143152952194,-0.08002334833145142,-0.05192354694008827
1788676370708944100,3.473944091796875,0.04459316283464432,-0.036651913076639175,-0.09468411654233932
1788676370724813300,3.489813232421875,0.04337143152952194,-0.007941247895359993,-0.08796459436416626
1788676370740682500,3.5056826171875,0.04764748737215996,-0.03237585723400116,-0.04581489413976669
1788676370756490500,3.521490478515625,0.05192354694008827,-0.07880161702632904,0.006108652334660292
1788676370772359700,3.537359619140625,0.05375614017248154,-0.1014036312699318,0.02687807008624077
1788676370788290000,3.5532900390625,0.05803219974040985,-0.07880161702632904,-0.007941247895359993
1788676370804159000,3.569158935546875,0.05864306539297104,-0.07696902006864548,-0.0507018156349659
1788676370820028200,3.585028076171875,0.0507018156349659,-0.10812314599752426,-0.09896016865968704
1788676370835958300,3.600958251953125,0.04398229718208313,-0.09224065393209457,-0.11178833991289139
1788676370851827500,3.616827392578125,0.0403171069920063,-0.03420845419168472,-0.07635815441608429
1788676370867727000,3.63272705078125,0.04948008432984352,0.001832595793530345,0.006108652334660292
1788676370883596300,3.64859619140625,0.059864792972803116,-0.02015855349600315,0.08002334833145142
1788676370899496000,3.664495849609375,0.05375614017248154,-0.031154127791523933,0.06536258012056351
1788676370915334700,3.680334716796875,0.03481931984424591,-0.021991148591041565,-0.03848451003432274
1788676370931203800,3.696203857421875,0.02076941914856434,-0.03787364438176155,-0.1368338167667389
1788676370947103500,3.712103515625,0.007941247895359993,-0.09040805697441101,-0.21563543379306793
1788676370962972400,3.727972412109375,0.009162978269159794,-0.09040805697441101,-0.1820378452539444
1788676370978841600,3.743841552734375,0.02932153269648552,-0.018325956538319588,-0.06169738993048668
1788676370994649900,3.75964990234375,0.03848451003432274,0.05009094998240471,0.024434609338641167
1788676371010549500,3.775549560546875,0.03848451003432274,0.05925392732024193,0.05253441259264946
1788676371026449200,3.79144921875,0.024434609338641167,0.01160643994808197,0.018936822190880775
1788676371042318300,3.807318359375,0.001832595793530345,-0.042760565876960754,-0.02932153269648552
1788676371058156800,3.82315673828125,-0.021380282938480377,-0.09224065393209457,-0.07513642311096191
1788676371074056400,3.839056396484375,-0.02626720629632473,-0.10567969083786011,-0.08246681094169617
1788676371089895200,3.854895263671875,-0.02932153269648552,-0.08185594528913498,-0.07330382615327835
1788676371105794800,3.870794921875,-0.04092797264456749,-0.06291911751031876,-0.05009094998240471
1788676371121664000,3.8866640625,-0.042760565876960754,-0.09712757170200348,0.0024434609804302454
1788676371137563600,3.902563720703125,-0.05314527451992035,-0.11850785464048386,0.03848451003432274
1788676371153432800,3.918432861328125,-0.08368854224681854,-0.15760323405265808,0.05314527451992035
1788676371169363000,3.934363037109375,-0.1062905490398407,-0.19975294172763824,0.054367005825042725
1788676371185262600,3.9502626953125,-0.11789698898792267,-0.182648703455925,0.07391469180583954
1788676371201131800,3.9661318359375,-0.13072516024112701,-0.15882496535778046,0.07635815441608429
1788676371217001000,3.9820009765625,-0.16432274878025055,-0.1569923609495163,0.024434609338641167
1788676371232931000,3.99793115234375,-0.2064724564552307,-0.15821409225463867,-0.05497787147760391
1788676371248800300,4.01380029296875,-0.25961771607398987,-0.16371189057826996,-0.14905111491680145
1788676371264730400,4.02973046875,-0.3023782968521118,-0.07757988572120667,-0.2480112910270691
1788676371280569000,4.045569091796875,-0.3695734739303589,0.04337143152952194,-0.3579670190811157
1788676371296438000,4.06143798828125,-0.41233405470848083,0.12522737681865692,-0.4043927788734436
1788676371312307200,4.07730712890625,-0.4306600093841553,0.13744467496871948,-0.3744603991508484
1788676371328206800,4.093206787109375,-0.4129449129104614,0.06414084881544113,-0.23151792585849762
1788676371344106500,4.1091064453125,-0.35185837745666504,-0.021380282938480377,0.06658431142568588
1788676371359975700,4.1249755859375,-0.28588494658470154,0.009162978269159794,0.38179078698158264
1788676371375875300,4.140875244140625,-0.25473082065582275,0.03848451003432274,0.6200281977653503
1788676371391775000,4.15677490234375,-0.2730567753314972,-0.012217304669320583,0.607200026512146
1788676371407674600,4.172674560546875,-0.31031954288482666,-0.1007927656173706,0.3628539443016052
1788676371423574300,4.18857421875,-0.3384193480014801,-0.18325957655906677,-0.006719517521560192
1788676371439443500,4.204443359375,-0.3530801236629486,-0.22052235901355743,-0.27061331272125244
1788676371455343000,4.220343017578125,-0.36651915311813354,-0.2382374405860901,-0.4593706727027893
1788676371471304000,4.236303955078125,-0.3701843321323395,-0.192422553896904,-0.5400048494338989
1788676371487172900,4.2521728515625,-0.36590829491615295,-0.09346238523721695,-0.5729916095733643
1788676371503072500,4.268072509765625,-0.33536502718925476,-0.01038470957428217,-0.5632177591323853
1788676371518941700,4.283941650390625,-0.2590068578720093,0.08124507963657379,-0.4508185386657715
1788676371534780400,4.299780517578125,-0.16065755486488342,0.11056660860776901,-0.2174680233001709
1788676371550710500,4.31571044921875,-0.059864792972803116,0.033597588539123535,0.13744467496871948
1788676371566610200,4.331610107421875,-0.001832595793530345,-0.03481931984424591,0.36651915311813354
1788676371582509800,4.347509765625,0.0354301854968071,-0.08674286305904388,0.43799036741256714
1788676371598348500,4.3633486328125,0.04459316283464432,-0.08979719132184982,0.35674530267715454
1788676371614217700,4.3792177734375,0.03848451003432274,-0.05619960278272629,0.19058994948863983
1788676371630056200,4.39505615234375,0.02687807008624077,-0.02626720629632473,0.06841690838336945
1788676371645955800,4.410955810546875,0.02626720629632473,0,-0.0006108652451075613
1788676371661825000,4.426824951171875,0.042760565876960754,0.003054326167330146,-0.01038470957428217
1788676371677694200,4.442694091796875,0.04214970022439957,0.00366519158706069,-0.01771509274840355
1788676371693563400,4.4585634765625,0.027488935738801956,0.018325956538319588,-0.08185594528913498
1788676371709371400,4.474371337890625,0.01710422709584236,0.03848451003432274,-0.18936823308467865
1788676371725271000,4.49027099609375,0.04153883829712868,0.024434609338641167,-0.20952677726745605
1788676371741201400,4.506201416015625,0.11789698898792267,0.030543262138962746,-0.15943582355976105
1788676371757101000,4.52210107421875,0.18387043476104736,0.029932396486401558,-0.08857546001672745
1788676371772970000,4.537969970703125,0.23151792585849762,0.04214970022439957,-0.025656340643763542
1788676371788869600,4.55386962890625,0.25961771607398987,0.0507018156349659,0.036651913076639175
1788676371804738800,4.56973876953125,0.29504790902137756,0.07696902006864548,0.0959058403968811
1788676371820638500,4.585638427734375,0.33047810196876526,0.13439035415649414,0.2028072625398636
1788676371836538000,4.6015380859375,0.3494149148464203,0.17409659922122955,0.2889392673969269
1788676371852407300,4.6174072265625,0.34636059403419495,0.16920967400074005,0.29565876722335815
1788676371868276500,4.6332763671875,0.34574973583221436,0.16798794269561768,0.2278527319431305
1788676371884145700,4.649145751953125,0.35124751925468445,0.08429940044879913,0.08307767659425735
1788676371900045300,4.66504541015625,0.33536502718925476,-0.07391469180583954,-0.051312681287527084
1788676371915853300,4.680853271484375,0.2840523421764374,-0.30970868468284607,-0.22296582162380219
1788676371931661600,4.69666162109375,0.20463985204696655,-0.4251621961593628,-0.3591887652873993
1788676371947561200,4.712561279296875,0.13500121235847473,-0.47280970215797424,-0.37262779474258423
1788676371963430400,4.728430419921875,0.14049901068210602,-0.4196644127368927,-0.2064724564552307
1788676371979330000,4.744330078125,0.21074850857257843,-0.2528982162475586,0.1612684279680252
1788676371995168500,4.76016845703125,0.2681698501110077,-0.1667662113904953,0.46853363513946533
1788676372011099000,4.776098876953125,0.28955012559890747,-0.21013765037059784,0.6041457056999207
1788676372026998500,4.79199853515625,0.303600013256073,-0.29138273000717163,0.5601634383201599
1788676372042867500,4.807867431640625,0.3084869384765625,-0.3604104816913605,0.37201693654060364
1788676372058767000,4.82376708984375,0.28527405858039856,-0.3744603991508484,0.1459967941045761
1788676372074575400,4.839575439453125,0.26145032048225403,-0.3225368559360504,-0.11789698898792267
1788676372090444500,4.855444580078125,0.2474004179239273,-0.22663100063800812,-0.27611109614372253
1788676372106344200,4.87134423828125,0.2272418737411499,-0.05619960278272629,-0.33292156457901
1788676372122213400,4.88721337890625,0.20463985204696655,0.03726277872920036,-0.29138273000717163
1788676372138113000,4.903113037109375,0.16065755486488342,0.0403171069920063,-0.17592918872833252
1788676372153982000,4.91898193359375,0.12095131725072861,0.00733038317412138,-0.036041051149368286
1788676372169881600,4.934881591796875,0.10995574295520782,-0.02871066704392433,0.05253441259264946
1788676372185750800,4.950750732421875,0.08429940044879913,-0.09224065393209457,0.0354301854968071
1788676372201620000,4.966619873046875,0.045204028487205505,-0.14233160018920898,-0.029932396486401558
1788676372217519600,4.98251953125,0.05375614017248154,-0.14782938361167908,-0.03176499158143997
1788676372233327900,4.998327880859375,0.06536258012056351,-0.1508837193250656,0.021991148591041565
1788676372249227500,5.0142275390625,0.045204028487205505,-0.16065755486488342,0.06414084881544113
1788676372265157600,5.03015771484375,0.01038470957428217,-0.18448130786418915,0.02015855349600315
1788676372281026800,5.04602685546875,-0.01038470957428217,-0.152105450630188,-0.12339477986097336
1788676372296896000,5.06189599609375,-0.009773843921720982,-0.12339477986097336,-0.23151792585849762
1788676372312765000,5.077764892578125,-0.00733038317412138,-0.14844025671482086,-0.24007004499435425
1788676372328664600,5.09366455078125,0.010995574295520782,-0.1264491081237793,-0.14233160018920898
1788676372344533800,5.10953369140625,0.02321287989616394,-0.07513642311096191,-0.039095375686883926
1788676372360433400,5.125433349609375,-0.012217304669320583,-0.006108652334660292,0.015271631069481373
1788676372376363800,5.14136376953125,-0.05375614017248154,0.029932396486401558,0.06780604273080826
1788676372392232700,5.157232666015625,-0.07819075137376785,0.014049900695681572,0.09346238523721695
1788676372408071400,5.173071533203125,-0.11911872029304504,-0.05925392732024193,0.08246681094169617
1788676372423940600,5.188940673828125,-0.16737708449363708,-0.11728613078594208,0.01771509274840355
1788676372439809800,5.204809814453125,-0.21441370248794556,-0.15393804013729095,-0.11178833991289139
1788676372455740000,5.220739990234375,-0.22663100063800812,-0.1508837193250656,-0.18020524084568024
1788676372471548000,5.2365478515625,-0.21868975460529327,-0.06230825558304787,-0.14355333149433136
1788676372487417000,5.2524169921875,-0.20341812074184418,0.08552113175392151,-0.02932153269648552
1788676372503286300,5.268286376953125,-0.19120082259178162,0.25473082065582275,0.18020524084568024
1788676372519155500,5.284155517578125,-0.182648703455925,0.2168571650981903,0.3121521472930908
1788676372535085600,5.30008544921875,-0.19608774781227112,0.11789698898792267,0.32009339332580566
1788676372550924300,5.31592431640625,-0.22540926933288574,0.09896016865968704,0.1966986060142517
1788676372566762800,5.3317626953125,-0.2779437005519867,0.0861319974064827,-0.0861319974064827
1788676372582662400,5.347662353515625,-0.3078760802745819,0.12217304855585098,-0.36529740691185
1788676372598562000,5.36356201171875,-0.27550023794174194,0.24495697021484375,-0.4306600093841553
1788676372614431200,5.37943115234375,-0.20402899384498596,0.3194825351238251,-0.1875356286764145
1788676372630300400,5.395300537109375,-0.1362229436635971,0.22113321721553802,0.20463985204696655
1788676372646169600,5.411169677734375,-0.13316862285137177,0.13744467496871948,0.46792277693748474
1788676372662069200,5.4270693359375,-0.16798794269561768,0.18936823308467865,0.5241223573684692
1788676372677938400,5.4429384765625,-0.19853121042251587,0.20952677726745605,0.4660901725292206
1788676372693807600,5.4588076171875,-0.2174680233001709,0.19853121042251587,0.3640756905078888
1788676372709646000,5.47464599609375,-0.23579397797584534,0.1765400618314743,0.15454891324043274
1788676372725446100,5.490446044921875,-0.25961771607398987,0.16859880089759827,-0.09285151958465576
1788676372741345800,5.506345703125,-0.3219259977340698,0.056810468435287476,-0.3139847218990326
1788676372757245400,5.522245361328125,-0.32559117674827576,-0.04398229718208313,-0.38240164518356323
1788676372773175600,5.538175537109375,-0.27977627515792847,-0.0959058403968811,-0.32009339332580566
1788676372789044700,5.554044677734375,-0.20830504596233368,-0.12889257073402405,-0.11362093687057495
1788676372804914000,5.569913818359375,-0.09712757170200348,-0.08796459436416626,0.20952677726745605
1788676372820813600,5.5858134765625,-0.0507018156349659,-0.04642575979232788,0.3646865487098694
1788676372836682500,5.6016826171875,-0.06536258012056351,-0.09162978827953339,0.36224308609962463
1788676372852582100,5.61758203125,-0.09468411654233932,-0.1466076523065567,0.24129177629947662
1788676372868420900,5.6334208984375,-0.13011430203914642,-0.182648703455925,0.0012217304902151227
1788676372884320500,5.649320556640625,-0.1313360333442688,-0.18936823308467865,-0.192422553896904
1788676372900220200,5.66522021484375,-0.10567969083786011,-0.15271630883216858,-0.3323107063770294
1788676372916119800,5.681119873046875,-0.10323622822761536,-0.06108652427792549,-0.34697145223617554
1788676372932019500,5.69701953125,-0.09468411654233932,0.03237585723400116,-0.242513507604599
1788676372947888600,5.712888671875,-0.04459316283464432,0.03726277872920036,-0.13439035415649414
1788676372971722800,5.73672265625,0.02076941914856434,0.001832595793530345,-0.09957103431224823
1788676372987561500,5.7525615234375,0.05009094998240471,-0.03237585723400116,-0.15454891324043274
1788676373003461000,5.768461181640625,0.0806342139840126,-0.10445795953273773,-0.19120082259178162
1788676373019269400,5.784269287109375,0.1258382350206375,-0.14416420459747314,-0.1667662113904953
1788676373035138300,5.80013818359375,0.1667662113904953,-0.08491026610136032,-0.11362093687057495
1788676373051038000,5.816037841796875,0.22113321721553802,0.0006108652451075613,-0.045204028487205505
1788676373066937600,5.8319375,0.28527405858039856,0.04764748737215996,0.036651913076639175
1788676373082806800,5.847806884765625,0.36713001132011414,0.059864792972803116,0.18570303916931152
1788676373098706400,5.86370654296875,0.4086688458919525,0.03176499158143997,0.2822197377681732
1788676373114606000,5.879606201171875,0.4355469346046448,-0.015271631069481373,0.2742784917354584
1788676373130536400,5.895536376953125,0.4294382631778717,-0.01038470957428217,0.11728613078594208
1788676373146405400,5.9114052734375,0.35124751925468445,-0.006108652334660292,-0.24923302233219147
1788676373162366200,5.9273662109375,0.2620611786842346,-0.0403171069920063,-0.5461135506629944
1788676373178174200,5.94317431640625,0.2528982162475586,-0.12095131725072861,-0.6023131608963013
1788676373201947400,5.966947509765625,0.3194825351238251,-0.16554448008537292,-0.05375614017248154
1788676373217847000,5.982846923828125,0.37201693654060364,-0.12767083942890167,0.42760565876960754
1788676373233716200,5.99871630859375,0.3897320330142975,-0.16249015927314758,0.7263187766075134
1788676373257550600,6.022550537109375,0.3384193480014801,-0.2321287989616394,0.46547931432724
1788676373273419800,6.038419677734375,0.26939156651496887,-0.2871066629886627,0.11911872029304504
1788676373289350000,6.054349853515625,0.20036379992961884,-0.342695415019989,-0.24434609711170197
1788676373305219000,6.070218994140625,0.1722639948129654,-0.3219259977340698,-0.43799036741256714
1788676373321088000,6.086087890625,0.15271630883216858,-0.19364428520202637,-0.49785518646240234
1788676373336957200,6.101957275390625,0.152105450630188,-0.03848451003432274,-0.42760565876960754
1788676373352856800,6.11785693359375,0.15393804013729095,0.10323622822761536,-0.27000242471694946
1788676373368787200,6.133787109375,0.16859880089759827,0.1270599663257599,-0.10201449692249298
1788676373384656100,6.14965625,0.19364428520202637,0.11728613078594208,0.025656340643763542
1788676373400555800,6.1655556640625,0.2015855312347412,0.08185594528913498,0.08857546001672745
1788676373416486100,6.181486083984375,0.1820378452539444,0.021380282938480377,0.12400564551353455
1788676373432355300,6.197355224609375,0.14905111491680145,-0.005497787147760391,0.14355333149433136
1788676373448285400,6.213285400390625,0.10201449692249298,-0.003054326167330146,0.18509216606616974
1788676373464154600,6.229154541015625,0.06108652427792549,-0.054367005825042725,0.20891591906547546
1788676373480023600,6.2450234375,0.024434609338641167,-0.14905111491680145,0.18448130786418915
1788676373495954000,6.260953857421875,-0.00427605677396059,-0.1973094791173935,0.10201449692249298
1788676373511822800,6.27682275390625,-0.05742133408784866,-0.15515977144241333,-0.05375614017248154
1788676373527692000,6.292692138671875,-0.10567969083786011,-0.11911872029304504,-0.17592918872833252
1788676373543561200,6.308561279296875,-0.14355333149433136,-0.059864792972803116,-0.24007004499435425
1788676373559460900,6.3244609375,-0.19547687470912933,-0.005497787147760391,-0.22602014243602753
1788676373575299600,6.340299560546875,-0.2687807083129883,0.08185594528913498,-0.08857546001672745
1788676373591168800,6.356168701171875,-0.31154128909111023,0.07635815441608429,0.0806342139840126
1788676373607099000,6.372098876953125,-0.32131510972976685,0.09346238523721695,0.15515977144241333
1788676373622937600,6.3879375,-0.32070425152778625,0.12767083942890167,0.17776179313659668
1788676373638837200,6.403837158203125,-0.3188716471195221,0.152105450630188,0.21135938167572021
1788676373654737000,6.41973681640625,-0.3017674386501312,0.2174680233001709,0.3286454975605011
1788676373670636500,6.435636474609375,-0.3127630054950714,0.18936823308467865,0.40072759985923767
1788676373686566700,6.451566650390625,-0.4245513379573822,0.09468411654233932,0.28527405858039856
1788676373702405400,6.4674052734375,-0.5198463201522827,0.02076941914856434,-0.02626720629632473
1788676373718274300,6.4832744140625,-0.5943718552589417,-0.04459316283464432,-0.5009095072746277
1788676373734113000,6.499113037109375,-0.6126978397369385,-0.029932396486401558,-0.7776314616203308
1788676373749982200,6.514982177734375,-0.5351179838180542,0.10384709388017654,-0.6811147332191467
1788676373765912300,6.530912353515625,-0.42149701714515686,0.11545353382825851,-0.20952677726745605
1788676373781781500,6.546781494140625,-0.34574973583221436,-0.07513642311096191,0.48685958981513977
1788676373797650700,6.562650634765625,-0.3121521472930908,-0.23884831368923187,0.8515461683273315
1788676373813550300,6.57855029296875,-0.2987131178379059,-0.2174680233001709,0.827111542224884
1788676373829419500,6.59441943359375,-0.30482175946235657,-0.05009094998240471,0.5387831330299377
1788676373845319200,6.610319091796875,-0.323147714138031,0.08979719132184982,0.0806342139840126
1788676373861157600,6.62615771484375,-0.3396410644054413,0.06475171446800232,-0.24617868661880493
1788676373877057300,6.642057373046875,-0.33169981837272644,-0.0861319974064827,-0.4495968222618103
1788676373892957000,6.65795703125,-0.31093040108680725,-0.2064724564552307,-0.5064072608947754
1788676373908826000,6.673826171875,-0.26511552929878235,-0.2828305959701538,-0.384845107793808
1788676373924756200,6.689756103515625,-0.19364428520202637,-0.24007004499435425,-0.18387043476104736
1788676373940625400,6.70562548828125,-0.11423180252313614,-0.04153883829712868,0.02871066704392433
1788676373956494600,6.72149462890625,-0.08674286305904388,0.02871066704392433,0.16371189057826996
1788676373972333300,6.737333251953125,-0.07208210229873657,-0.03787364438176155,0.19853121042251587
1788676373988233000,6.75323291015625,-0.030543262138962746,-0.06658431142568588,0.15271630883216858
1788676374004163000,6.7691630859375,-0.01771509274840355,-0.08429940044879913,0.07330382615327835
1788676374020032300,6.7850322265625,-0.01710422709584236,-0.12950342893600464,-0.01160643994808197
1788676374035932000,6.800931884765625,0.00427605677396059,-0.19792033731937408,-0.033597588539123535
1788676374051770400,6.816770263671875,0.030543262138962746,-0.23090706765651703,-0.018936822190880775
1788676374067639600,6.8326396484375,0.05375614017248154,-0.25045475363731384,0.00855211354792118
1788676374083539200,6.848539306640625,0.09468411654233932,-0.23029619455337524,0.01771509274840355
1788676374099408400,6.864408447265625,0.1215621829032898,-0.11301007121801376,0.039095375686883926
1788676374115277600,6.880277587890625,0.15943582355976105,-0.01160643994808197,0.11789698898792267
1788676374131146800,6.896146728515625,0.18570303916931152,-0.03176499158143997,0.1667662113904953
1788676374147046400,6.91204638671875,0.19547687470912933,-0.14233160018920898,0.14477506279945374
1788676374162915600,6.92791552734375,0.2168571650981903,-0.2278527319431305,0.06475171446800232
1788676374178784800,6.94378466796875,0.2535090744495392,-0.24495697021484375,-0.04764748737215996
1788676374194684400,6.959684326171875,0.2791654169559479,-0.2076941877603531,-0.10445795953273773
1788676374210584000,6.975583984375,0.30115658044815063,-0.1258382350206375,-0.030543262138962746
1788676374234387700,6.9993876953125,0.32009339332580566,-0.003054326167330146,0.27488934993743896
1788676374250226200,7.01522607421875,0.32070425152778625,0.0012217304902151227,0.3604104816913605
1788676374266095400,7.031095458984375,0.32620203495025635,0.0012217304902151227,0.2974913716316223
1788676374281995000,7.0469951171875,0.31031954288482666,-0.07452555745840073,0.11850785464048386
1788676374297864200,7.0628642578125,0.22602014243602753,-0.29077184200286865,-0.13988813757896423
1788676374313733400,7.0787333984375,0.20341812074184418,-0.3597996234893799,-0.2217440903186798
1788676374329633000,7.094633056640625,0.23457226157188416,-0.3066543638706207,-0.07391469180583954
1788676374345532700,7.11053271484375,0.2724458873271942,-0.1966986060142517,0.16920967400074005
1788676374361401900,7.12640185546875,0.2541199326515198,-0.13377949595451355,0.32559117674827576
1788676374377271000,7.14227099609375,0.22540926933288574,-0.13561208546161652,0.26633724570274353
1788676374393109500,7.158109619140625,0.16371189057826996,-0.17531833052635193,0.09346238523721695
1788676374409009200,7.174009033203125,0.12400564551353455,-0.2168571650981903,-0.009773843921720982
1788676374424908800,7.18990869140625,0.1160643994808197,-0.242513507604599,-0.00855211354792118
1788676374440839200,7.205839111328125,0.09651670604944229,-0.19303341209888458,-0.02932153269648552
1788676374456677600,7.221677734375,0.07269296050071716,-0.04581489413976669,-0.11423180252313614
1788676374472577300,7.237577392578125,0.07269296050071716,0.07819075137376785,-0.13439035415649414
1788676374488385500,7.253385498046875,0.07330382615327835,0.11239920556545258,-0.11178833991289139
1788676374504254700,7.269254638671875,0.06963863968849182,0.06780604273080826,-0.0507018156349659
1788676374520154400,7.285154296875,0.06291911751031876,0.025045474991202354,0.059864792972803116
1788676374536023300,7.301023193359375,0.054367005825042725,-0.0024434609804302454,0.13744467496871948
1788676374551923000,7.3169228515625,0.02321287989616394,0.0006108652451075613,0.16798794269561768
1788676374567822800,7.33282275390625,-0.006719517521560192,0.013439035043120384,0.14477506279945374
1788676374583691800,7.34869189453125,-0.04153883829712868,-0.01038470957428217,0.07757988572120667
1788676374599530500,7.364530517578125,-0.08735372871160507,-0.0708603709936142,-0.01160643994808197
1788676374615399700,7.380399658203125,-0.12522737681865692,-0.09529497474431992,-0.13439035415649414
1788676374631299300,7.39629931640625,-0.16798794269561768,-0.06169738993048668,-0.24373523890972137
1788676374647168500,7.41216845703125,-0.19486601650714874,-0.022602014243602753,-0.21930062770843506
1788676374663068200,7.428068115234375,-0.19975294172763824,0.02015855349600315,-0.1111774742603302
1788676374678998300,7.443998291015625,-0.19364428520202637,0.039095375686883926,-0.033597588539123535
1788676374694867500,7.459867431640625,-0.1820378452539444,0.06291911751031876,-0.033597588539123535
1788676374710736600,7.475736572265625,-0.1875356286764145,0.10506882518529892,-0.12828169763088226
1788676374726605600,7.49160546875,-0.23518311977386475,0.12889257073402405,-0.2541199326515198
1788676374742474800,7.507474853515625,-0.26939156651496887,0.10995574295520782,-0.2871066629886627
1788676374758405000,7.523405029296875,-0.22418753802776337,0.1472185254096985,-0.17592918872833252
1788676374774274000,7.539274169921875,-0.18325957655906677,0.18875735998153687,0.054367005825042725
1788676374790112800,7.55511279296875,-0.14966198801994324,0.1667662113904953,0.33597588539123535
1788676374806012400,7.571012451171875,-0.16554448008537292,0.07269296050071716,0.41722095012664795
1788676374821881600,7.586881591796875,-0.24068090319633484,0.027488935738801956,0.21991148591041565
1788676374837781200,7.60278125,-0.3072652220726013,0.016493361443281174,-0.08124507963657379
1788676374853650400,7.618650390625,-0.32559117674827576,0.036041051149368286,-0.3488040566444397
1788676374869580500,7.63458056640625,-0.2785545587539673,0.14049901068210602,-0.3286454975605011
1788676374885480200,7.650480224609375,-0.21807889640331268,0.13805554807186127,0.02015855349600315
1788676374901319000,7.66631884765625,-0.1869247704744339,0.08002334833145142,0.4153883755207062
1788676374917187800,7.682187744140625,-0.18936823308467865,-0.030543262138962746,0.6450737118721008
1788676374933087700,7.698087646484375,-0.20402899384498596,-0.06902777403593063,0.588874101638794
1788676374948987400,7.7139873046875,-0.2278527319431305,-0.02871066704392433,0.3243694305419922
1788676374964795400,7.72979541015625,-0.24495697021484375,0.04948008432984352,-0.03420845419168472
1788676374980664600,7.74566455078125,-0.24678955972194672,0.11972958594560623,-0.3127630054950714
1788676374996594700,7.7615947265625,-0.23640485107898712,0.14355333149433136,-0.5070181488990784
1788676375012402700,7.777402587890625,-0.19120082259178162,0.12828169763088226,-0.53328537940979
1788676375028302600,7.793302490234375,-0.1270599663257599,0.08857546001672745,-0.3897320330142975
1788676375044171500,7.809171630859375,-0.08368854224681854,0.01771509274840355,-0.16737708449363708
1788676375060040700,7.825040771484375,-0.018936822190880775,0.00855211354792118,0.1258382350206375
1788676375075940400,7.8409404296875,0.009773843921720982,-0.02932153269648552,0.30543261766433716
1788676375091809500,7.8568095703125,0.01160643994808197,-0.09407325088977814,0.3237585723400116
1788676375107678700,7.8726787109375,0.02687807008624077,-0.14538592100143433,0.22296582162380219
1788676375123548000,7.8885478515625,0.0403171069920063,-0.20830504596233368,0.09162978827953339
1788676375139417000,7.9044169921875,0.048258353024721146,-0.22663100063800812,-0.00855211354792118
1788676375155347200,7.92034716796875,0.018325956538319588,-0.17531833052635193,-0.10262536257505417
1788676375171216400,7.93621630859375,-0.0006108652451075613,-0.1466076523065567,-0.13927727937698364
1788676375187085300,7.952085205078125,0.03237585723400116,-0.13561208546161652,-0.15577064454555511
1788676375202954500,7.96795458984375,0.09040805697441101,-0.14416420459747314,-0.1368338167667389
1788676375218823700,7.98382373046875,0.1514945775270462,-0.13072516024112701,-0.07941248267889023
1788676375234723300,7.999723388671875,0.17043140530586243,-0.10262536257505417,-0.018936822190880775
1788676375250562000,8.01556201171875,0.15577064454555511,-0.1258382350206375,-0.01466076634824276
1788676375266461700,8.031461669921875,0.1563815027475357,-0.1368338167667389,-0.05619960278272629
1788676375282300200,8.047300048828125,0.1820378452539444,-0.06902777403593063,-0.08246681094169617
1788676375298169300,8.06316943359375,0.2217440903186798,0.012828170321881771,-0.04703662544488907
1788676375314099700,8.079099609375,0.25106561183929443,0.09773843735456467,0.04153883829712868
1788676375329938200,8.094938232421875,0.2828305959701538,0.12522737681865692,0.1563815027475357
1788676375345807400,8.110807373046875,0.2724458873271942,0.05864306539297104,0.21319197118282318
1788676375361707000,8.12670703125,0.24373523890972137,-0.0507018156349659,0.1508837193250656
1788676375377576200,8.142576171875,0.21930062770843506,-0.2889392673969269,-0.06169738993048668
1788676375393506300,8.15850634765625,0.15943582355976105,-0.5577199459075928,-0.38728857040405273
1788676375409345000,8.174344970703125,0.09407325088977814,-0.513126790523529,-0.5302310585975647
1788676375425244700,8.19024462890625,0.07269296050071716,-0.17776179313659668,-0.19975294172763824
1788676375441144300,8.206144287109375,0.13988813757896423,0.0659734457731247,0.38606682419776917
1788676375457013500,8.222013427734375,0.17592918872833252,0.09957103431224823,0.8759807348251343
1788676375472882400,8.23788232421875,0.17287486791610718,0.04337143152952194,0.8704829812049866
1788676375488751600,8.253751708984375,0.08674286305904388,-0.0757472887635231,0.4434881806373596
1788676375504620800,8.269620849609375,0.015271631069481373,-0.21380282938480377,0.012828170321881771
1788676375520520400,8.2855205078125,-0.018325956538319588,-0.2883284091949463,-0.25045475363731384
1788676375536389600,8.3013896484375,-0.022602014243602753,-0.30604347586631775,-0.26572638750076294
1788676375552289300,8.317289306640625,0.014049900695681572,-0.24190263450145721,-0.18387043476104736
1788676375568158500,8.333158447265625,0.05314527451992035,-0.12889257073402405,-0.11728613078594208
1788676375584058000,8.34905810546875,0.0403171069920063,-0.0806342139840126,-0.05314527451992035
1788676375599866000,8.3648662109375,0.021991148591041565,-0.04153883829712868,-0.004886921960860491
1788676375615735300,8.3807353515625,0.0012217304902151227,-0.03420845419168472,0.024434609338641167
1788676375631665400,8.39666552734375,0.001832595793530345,-0.036041051149368286,0.036651913076639175
1788676375647504100,8.412504150390625,0.003054326167330146,-0.025045474991202354,0.09834930300712585
1788676375663342800,8.4283427734375,-0.024434609338641167,0.029932396486401558,0.2125810980796814
1788676375679242500,8.444242431640625,-0.0006108652451075613,-0.1973094791173935,0.6059783101081848
1788676375695111400,8.460111328125,0.06536258012056351,-0.8087855577468872,1.1148290634155273
1788676375711011300,8.47601123046875,0.02626720629632473,-0.15454891324043274,0.33108896017074585
1788676375726819300,8.4918193359375,-0.1966986060142517,0.34208452701568604,-0.36651915311813354
1788676375742749400,8.50774951171875,-0.18081611394882202,0.4856378734111786,-0.8417723178863525
1788676375758649000,8.523649169921875,-0.14782938361167908,0.35552358627319336,-0.9205739498138428
1788676375774518300,8.539518310546875,-0.10567969083786011,-0.07819075137376785,-0.6878342628479004
1788676375790387500,8.555387451171875,-0.1007927656173706,-0.3530801236629486,-0.4086688458919525
1788676375806287000,8.571287109375,-0.06780604273080826,-0.2474004179239273,-0.4404338300228119
1788676375822217200,8.58721728515625,-0.07024950534105301,0.3787364661693573,-0.6676757335662842
1788676375838239000,8.603239013671875,-0.242513507604599,1.2290608882904053,-0.6426302194595337
1788676375854138600,8.619138671875,-0.32498031854629517,0.7776314616203308,0.07269296050071716
1788676375870130000,8.6351298828125,-0.09407325088977814,0.16432274878025055,0.940732479095459
1788676375886060000,8.65106005859375,0.0006108652451075613,-0.2370157092809677,1.0390818119049072
1788676375902051300,8.66705126953125,-0.19608774781227112,-0.35735616087913513,0.4043927788734436
1788676375918012000,8.683011962890625,-0.35185837745666504,-0.19058994948863983,-0.7263187766075134
1788676375933942000,8.69894189453125,-0.3805690407752991,0.08246681094169617,-1.4972307682037354
1788676375949841700,8.714841552734375,-0.3445279896259308,0.18020524084568024,-1.5320500135421753
1788676375965680400,8.730680419921875,-0.23335053026676178,0.11667526513338089,-0.921795666217804
1788676375981671700,8.746671630859375,-0.14294247329235077,0.00733038317412138,0.02076941914856434
1788676375997632300,8.76263232421875,-0.11056660860776901,-0.1111774742603302,0.6035348773002625
1788676376013593000,8.778593017578125,-0.10873401165008545,-0.1612684279680252,0.656680166721344
1788676376029553700,8.7945537109375,-0.12278391420841217,-0.025045474991202354,0.40133845806121826
1788676376045453300,8.810453369140625,-0.15821409225463867,0.12217304855585098,0.06536258012056351
1788676376061444600,8.826444580078125,-0.21441370248794556,0.13439035415649414,-0.3127630054950714
1788676376077313800,8.842313720703125,-0.2272418737411499,0.06963863968849182,-0.5528330206871033
1788676376093244000,8.858243896484375,-0.20830504596233368,0.07452555745840073,-0.6346889734268188
1788676376109235200,8.874235107421875,-0.16737708449363708,0.10567969083786011,-0.4440990388393402
1788676376125134800,8.890134765625,-0.07635815441608429,0.11972958594560623,-0.00427605677396059
1788676376141034500,8.906034423828125,0.019547687843441963,0.14905111491680145,0.38667771220207214
1788676376157056000,8.922055908203125,0.0861319974064827,0.10201449692249298,0.6395758986473083
1788676376172956000,8.937955810546875,0.09773843735456467,0.03481931984424591,0.6688974499702454
1788676376188947000,8.953947021484375,0.08002334833145142,-0.03481931984424591,0.5473352670669556
1788676376204907800,8.96990771484375,0.056810468435287476,-0.09529497474431992,0.2926044464111328
1788676376220807400,8.985807373046875,0.04581489413976669,-0.09957103431224823,0.05253441259264946
1788676376236798500,9.001798583984375,0.05497787147760391,-0.05375614017248154,-0.11545353382825851
1788676376252667600,9.017667724609375,0.03420845419168472,-0.042760565876960754,-0.14416420459747314
1788676376268628500,9.03362841796875,0.02626720629632473,-0.08124507963657379,-0.08429940044879913
1788676376284558600,9.04955859375,0.06780604273080826,-0.08674286305904388,0
1788676376300458200,9.065458251953125,0.12339477986097336,-0.07269296050071716,0.018936822190880775
1788676376316449500,9.081449462890625,0.28466320037841797,0.12095131725072861,-0.08185594528913498
1788676376332410000,9.09741015625,0.3023782968521118,0.25106561183929443,-0.17776179313659668
1788676376356335900,9.1213359375,0.33108896017074585,0.09773843735456467,-0.11728613078594208
1788676376380170200,9.145170166015625,0.31520646810531616,-0.17592918872833252,-0.001832595793530345
1788676376396130800,9.161130859375,0.34574973583221436,-0.21502456068992615,0.05864306539297104
1788676376412122000,9.1771220703125,0.4031710624694824,-0.14966198801994324,0.24129177629947662
1788676376428082700,9.193082763671875,0.5797111392021179,-0.06719517707824707,0.45692721009254456
1788676376444012800,9.2090126953125,0.6792821288108826,-0.06780604273080826,0.5809328556060791
1788676376460004000,9.225004150390625,0.7037167549133301,-0.17104226350784302,0.4990769028663635
1788676376475873300,9.240873291015625,0.6805039048194885,-0.36224308609962463,0.15882496535778046
1788676376491773000,9.25677294921875,0.5387831330299377,-0.4508185386657715,-0.25045475363731384
1788676376507672600,9.272672607421875,0.3378084897994995,-0.2974913716316223,-0.5259549617767334
1788676376523541800,9.288541748046875,0.2974913716316223,-0.0910189226269722,-0.3646865487098694
1788676376539411000,9.304410888671875,0.3982841372489929,0.04337143152952194,0.18997909128665924
1788676376555310600,9.320310546875,0.43737950921058655,0.01038470957428217,0.6389650702476501
1788676376571179800,9.3361796875,0.42638394236564636,-0.07208210229873657,0.7550294399261475
1788676376587079400,9.352079345703125,0.35735616087913513,-0.08185594528913498,0.41233405470848083
1788676376602918000,9.36791796875,0.24190263450145721,-0.059864792972803116,-0.01771509274840355
1788676376618848000,9.383847900390625,0.13377949595451355,-0.031154127791523933,-0.3689626157283783
1788676376634686700,9.399686767578125,0.09957103431224823,-0.04886921867728233,-0.44104471802711487
1788676376650556000,9.415555908203125,0.08552113175392151,-0.0708603709936142,-0.34025195240974426
1788676376666455600,9.43145556640625,0.1258382350206375,0.04703662544488907,-0.18020524084568024
1788676376682324700,9.44732470703125,0.13561208546161652,0.10812314599752426,-0.048258353024721146
1788676376698163200,9.4631630859375,0.10934487730264664,0.08796459436416626,-0.028099801391363144
1788676376714062800,9.479062744140625,0.07513642311096191,0.042760565876960754,-0.04886921867728233
1788676376729962500,9.49496240234375,0.030543262138962746,-0.00855211354792118,-0.042760565876960754
1788676376745862400,9.5108623046875,0.021991148591041565,-0.06963863968849182,0.045204028487205505
1788676376761731300,9.5267314453125,0.028099801391363144,-0.11667526513338089,0.13255776464939117
1788676376777600500,9.5426005859375,0.025656340643763542,-0.15027284622192383,0.19975294172763824
1788676376793408800,9.55840869140625,-0.0024434609804302454,-0.14844025671482086,0.18448130786418915
1788676376809277700,9.574277587890625,-0.059864792972803116,-0.08979719132184982,0.08552113175392151
1788676376825147000,9.59014697265625,-0.09040805697441101,-0.03481931984424591,-0.033597588539123535
1788676376841016000,9.60601611328125,-0.11789698898792267,-0.03726277872920036,-0.1160643994808197
1788676376856915700,9.621915771484375,-0.13744467496871948,-0.04886921867728233,-0.1472185254096985
1788676376872815400,9.6378154296875,-0.15454891324043274,-0.0659734457731247,-0.12889257073402405
1788676376888715000,9.653715087890625,-0.18020524084568024,-0.11484266817569733,-0.08796459436416626
1788676376904645000,9.66964501953125,-0.21991148591041565,-0.11850785464048386,-0.02932153269648552
1788676376920514300,9.685514404296875,-0.24373523890972137,-0.08185594528913498,-0.014049900695681572
1788676376936353000,9.70135302734375,-0.26145032048225403,0.02871066704392433,-0.02321287989616394
1788676376952252700,9.717252685546875,-0.2724458873271942,0.09162978827953339,-0.0024434609804302454
1788676376968121900,9.733121826171875,-0.26633724570274353,0.1612684279680252,0.14355333149433136
1788676376984021500,9.749021484375,-0.22113321721553802,0.18936823308467865,0.37690386176109314
1788676376999890700,9.764890625,-0.24007004499435425,0.05314527451992035,0.46792277693748474
1788676377015759600,9.780759521484375,-0.3017674386501312,-0.060475658625364304,0.3341432809829712
1788676377031628800,9.79662890625,-0.36713001132011414,-0.051312681287527084,0.051312681287527084
1788676377047528400,9.812528564453125,-0.4184426963329315,0.10262536257505417,-0.3139847218990326
1788676377063458800,9.828458740234375,-0.40683624148368835,0.3017674386501312,-0.4050036668777466
1788676377079327700,9.84432763671875,-0.3500257730484009,0.3078760802745819,-0.15577064454555511
1788676377095227400,9.860227294921875,-0.29993483424186707,0.12339477986097336,0.19120082259178162
1788676377111127300,9.876127197265625,-0.2565633952617645,-0.1270599663257599,0.42760565876960754
1788676377127027000,9.89202685546875,-0.2076941877603531,-0.26022860407829285,0.40072759985923767
1788676377142957000,9.90795703125,-0.18020524084568024,-0.2736676335334778,0.20952677726745605
1788676377158826200,9.923826171875,-0.1966986060142517,-0.2168571650981903,-0.018936822190880775
1788676377174695200,9.939695068359375,-0.26572638750076294,-0.10751228034496307,-0.30115658044815063
1788676377190564400,9.955564453125,-0.3188716471195221,-0.08124507963657379,-0.5088507533073425
1788676377206464000,9.971464111328125,-0.33292156457901,-0.13255776464939117,-0.6860016584396362
1788676377230268000,9.995267822265625,-0.303600013256073,-0.1563815027475357,-0.6688974499702454
1788676377246136800,10.01113671875,-0.2626720666885376,-0.152105450630188,-0.44226643443107605
1788676377262006000,10.027006103515625,-0.16371189057826996,-0.14477506279945374,-0.1160643994808197
1788676377277814300,10.042814208984375,-0.09224065393209457,-0.13927727937698364,0.1160643994808197
1788676377293683200,10.05868310546875,-0.051312681287527084,-0.15515977144241333,0.26450464129447937
1788676377309552400,10.074552490234375,-0.03481931984424591,-0.19608774781227112,0.2767219543457031
1788676377325421600,10.090421630859375,-0.009773843921720982,-0.2223549485206604,0.18997909128665924
1788676377341321200,10.1063212890625,-0.012217304669320583,-0.2070833146572113,0.060475658625364304
1788676377357220900,10.122220947265625,-0.018936822190880775,-0.1411098688840866,-0.11667526513338089
1788676377373090000,10.138090087890625,-0.07452555745840073,0.1258382350206375,-0.18814650177955627
1788676377389020200,10.154020263671875,-0.022602014243602753,0.21624629199504852,-0.1771509200334549
1788676377404859000,10.16985888671875,-0.02871066704392433,0.2070833146572113,-0.11484266817569733
1788676377420758500,10.185758544921875,0.012217304669320583,0.09651670604944229,-0.029932396486401558
1788676377436627700,10.201627685546875,0.03726277872920036,0.029932396486401558,0.03298672288656235
1788676377452497000,10.217496826171875,0.06536258012056351,-0.05619960278272629,0.08185594528913498
1788676377468365800,10.23336572265625,0.12339477986097336,-0.1111774742603302,0.09040805697441101
1788676377484235000,10.249235107421875,0.2028072625398636,-0.022602014243602753,0.08674286305904388
1788676377500165400,10.265165283203125,0.2382374405860901,0.06841690838336945,0.16432274878025055
1788676377516003800,10.28100390625,0.24923302233219147,-0.033597588539123535,0.2571742534637451
1788676377531873000,10.296873046875,0.28038713335990906,-0.12095131725072861,0.3597996234893799
1788676377547772700,10.312772705078125,0.3591887652873993,-0.11911872029304504,0.5510004758834839
1788676377563641900,10.328641845703125,0.38240164518356323,-0.11911872029304504,0.6676757335662842
1788676377579541500,10.34454150390625,0.32620203495025635,-0.2272418737411499,0.5748242139816284
1788676377595410700,10.36041064453125,0.2767219543457031,-0.5021312236785889,0.2779437005519867
1788676377611280000,10.37627978515625,0.21441370248794556,-0.7660250067710876,-0.06414084881544113
1788676377627210000,10.3922099609375,0.08185594528913498,-0.7177666425704956,-0.4043927788734436
1788676377643079200,10.4080791015625,0.016493361443281174,-0.2883284091949463,-0.42638394236564636
1788676377658978800,10.423978759765625,0.05803219974040985,0.3591887652873993,-0.0555887371301651
1788676377674817300,10.4398173828125,0.15943582355976105,0.6298020482063293,0.37751471996307373
1788676377690686500,10.4556865234375,0.22602014243602753,0.47769662737846375,0.6352998614311218
1788676377706586000,10.471586181640625,0.251676470041275,0.2474004179239273,0.5607742667198181
1788676377722455300,10.487455322265625,0.23273965716362,0.025656340643763542,0.23396138846874237
1788676377738355000,10.50335498046875,0.18081611394882202,-0.11056660860776901,-0.08918632566928864
1788676377754193700,10.519193603515625,0.12767083942890167,-0.19608774781227112,-0.33047810196876526
1788676377770062800,10.535062744140625,0.1160643994808197,-0.16982053220272064,-0.4239404797554016
1788676377785931800,10.550931884765625,0.1258382350206375,-0.10567969083786011,-0.4599815309047699
1788676377801862100,10.566862060546875,0.13255776464939117,-0.06841690838336945,-0.40622538328170776
1788676377817731000,10.58273095703125,0.14294247329235077,-0.08002334833145142,-0.23335053026676178
1788676377833569800,10.59856982421875,0.13744467496871948,-0.12400564551353455,-0.03848451003432274
1788676377849469400,10.614469482421875,0.11911872029304504,-0.16004669666290283,0.15393804013729095
1788676377865369000,10.630369140625,0.10445795953273773,-0.14782938361167908,0.2174680233001709
1788676377881238300,10.64623828125,0.08552113175392151,-0.16004669666290283,0.17898350954055786
1788676377897138000,10.662137939453125,0.06780604273080826,-0.14538592100143433,0.07880161702632904
1788676377913007000,10.678007080078125,0.036041051149368286,-0.07635815441608429,-0.06719517707824707
1788676377928845600,10.693845458984375,-0.00733038317412138,0.022602014243602753,-0.15271630883216858
1788676377944745200,10.7097451171875,-0.05619960278272629,0.08429940044879913,-0.22113321721553802
1788676377960614400,10.725614501953125,-0.08185594528913498,0.08857546001672745,-0.2816088795661926
1788676377976544800,10.741544677734375,-0.10873401165008545,0.05925392732024193,-0.2932153046131134
1788676377992413700,10.75741357421875,-0.13377949595451355,0.018936822190880775,-0.22479841113090515
1788676378008283000,10.773282958984375,-0.16493362188339233,0.01466076634824276,-0.1319468915462494
1788676378024182500,10.7891826171875,-0.19792033731937408,0.03420845419168472,-0.06108652427792549
1788676378048017000,10.813016845703125,-0.22907446324825287,0.06841690838336945,0.0354301854968071
1788676378063855400,10.82885546875,-0.23457226157188416,0.11484266817569733,0.09712757170200348
1788676378079755000,10.844755126953125,-0.21441370248794556,0.2015855312347412,0.1875356286764145
1788676378095654700,10.860654541015625,-0.15393804013729095,0.27061331272125244,0.37690386176109314
1788676378111523800,10.87652392578125,-0.1472185254096985,0.1716531366109848,0.4740314185619354
1788676378127332000,10.89233203125,-0.18081611394882202,0.024434609338641167,0.38667771220207214
1788676378143201000,10.908200927734375,-0.2321287989616394,-0.06780604273080826,0.12217304855585098
1788676378159070200,10.9240703125,-0.3335324227809906,-0.10506882518529892,-0.35735616087913513
1788676378175000600,10.94000048828125,-0.37201693654060364,0.10506882518529892,-0.7147123217582703
1788676378190869500,10.955869384765625,-0.3280346393585205,0.3488040566444397,-0.6707300543785095
1788676378206769200,10.97176904296875,-0.2535090744495392,0.2474004179239273,-0.12400564551353455
1788676378222668800,10.987668701171875,-0.2119702398777008,0.02382374368607998,0.41172316670417786
1788676378238538000,11.0035380859375,-0.21930062770843506,-0.30054569244384766,0.7483099102973938
1788676378254437600,11.019437744140625,-0.2174680233001709,-0.41722095012664795,0.7153232097625732
1788676378270276400,11.0352763671875,-0.21930062770843506,-0.3695734739303589,0.43188172578811646
1788676378286145500,11.0511455078125,-0.22357667982578278,-0.23151792585849762,0.1160643994808197
1788676378302014700,11.0670146484375,-0.2370157092809677,-0.028099801391363144,-0.24129177629947662
1788676378317914400,11.082914306640625,-0.2571742534637451,0.10934487730264664,-0.4434881806373596
1788676378333814000,11.09881396484375,-0.26939156651496887,0.09712757170200348,-0.4893030524253845
1788676378349683200,11.11468310546875,-0.2370157092809677,0.014049900695681572,-0.36590829491615295
1788676378365552000,11.13055224609375,-0.16004669666290283,-0.02932153269648552,-0.13927727937698364
1788676378381390800,11.146390869140625,-0.08735372871160507,-0.01038470957428217,0.007941247895359993
1788676378397260000,11.162260009765625,-0.03726277872920036,0.03298672288656235,0.07147123664617538
1788676378421124600,11.18612451171875,-0.00855211354792118,0.0555887371301651,0.06902777403593063
1788676378436993800,11.201993896484375,0.00427605677396059,0.03787364438176155,0.05803219974040985
1788676378452893400,11.2178935546875,0.0024434609804302454,-0.012828170321881771,-0.00733038317412138
1788676378468732200,11.233732177734375,0.009773843921720982,-0.04214970022439957,-0.12278391420841217
1788676378484631800,11.2496318359375,0.028099801391363144,-0.02871066704392433,-0.24984388053417206
1788676378500470500,11.265470458984375,0.05497787147760391,-0.021991148591041565,-0.2742784917354584
1788676378516370200,11.2813701171875,0.10384709388017654,-0.04337143152952194,-0.20402899384498596
1788676378532300300,11.29730029296875,0.16065755486488342,-0.05192354694008827,-0.08674286305904388
1788676378548169500,11.31316943359375,0.23273965716362,-0.05009094998240471,0.13866640627384186
1788676378564038700,11.32903857421875,0.2541199326515198,-0.1062905490398407,0.28588494658470154
1788676378579907600,11.344907470703125,0.2541199326515198,-0.1612684279680252,0.3170390725135803
1788676378603711500,11.36871142578125,0.26083946228027344,-0.1569923609495163,0.16859880089759827
1788676378619550000,11.384550048828125,0.2583959996700287,-0.042760565876960754,0.08857546001672745
1788676378635419100,11.400419189453125,0.27122417092323303,0.14905111491680145,0.12339477986097336
1788676378651318800,11.41631884765625,0.2816088795661926,0.23151792585849762,0.26572638750076294
1788676378667188000,11.43218798828125,0.27061331272125244,0.21563543379306793,0.36590829491615295
1788676378683118000,11.4481181640625,0.24129177629947662,0.13316862285137177,0.27488934993743896
1788676378706952400,11.471952392578125,0.14294247329235077,-0.28588494658470154,-0.2742784917354584
1788676378722821600,11.487821533203125,0.05742133408784866,-0.5589417219161987,-0.636521577835083
1788676378738721300,11.50372119140625,0.08735372871160507,-0.48869219422340393,-0.6004805564880371
1788676378754621000,11.519620849609375,0.20341812074184418,-0.182648703455925,-0.15454891324043274
1788676378770489900,11.53548974609375,0.303600013256073,0.0959058403968811,0.4343251883983612
1788676378786359000,11.551359130859375,0.35735616087913513,0.04398229718208313,0.5736024379730225
1788676378802258700,11.5672587890625,0.34758231043815613,-0.05314527451992035,0.30115658044815063
1788676378818067000,11.58306689453125,0.20586158335208893,-0.16798794269561768,-0.21868975460529327
1788676378833966600,11.598966552734375,0.09468411654233932,-0.15271630883216858,-0.5186246037483215
1788676378849896700,11.614896728515625,0.060475658625364304,-0.08979719132184982,-0.5577199459075928
1788676378865766000,11.630765869140625,0.06352998316287994,-0.06291911751031876,-0.42149701714515686
1788676378881665500,11.64666552734375,0.05925392732024193,-0.07941248267889023,-0.22418753802776337
1788676378897565200,11.662565185546875,0.045204028487205505,-0.07696902006864548,-0.14538592100143433
1788676378913495300,11.678495361328125,0.0024434609804302454,-0.11362093687057495,-0.15882496535778046
1788676378929395000,11.69439501953125,-0.030543262138962746,-0.1508837193250656,-0.16065755486488342
1788676378945203200,11.710203125,0.005497787147760391,-0.15454891324043274,-0.04764748737215996
1788676378961102800,11.726102783203125,0.048258353024721146,-0.14294247329235077,0.10751228034496307
1788676378976941300,11.74194140625,0.08246681094169617,-0.13988813757896423,0.2590068578720093
1788676378992810500,11.757810546875,0.08735372871160507,-0.12767083942890167,0.3384193480014801
1788676379008710100,11.773710205078125,0.06780604273080826,-0.09712757170200348,0.3194825351238251
1788676379024579300,11.789579345703125,0.03237585723400116,-0.03420845419168472,0.19975294172763824
1788676379040448500,11.805448486328125,-0.03176499158143997,0.0006108652451075613,0.019547687843441963
1788676379056287000,11.821286865234375,-0.07635815441608429,0.013439035043120384,-0.08735372871160507
1788676379072156200,11.83715625,-0.10812314599752426,-0.016493361443281174,-0.1111774742603302
1788676379088055800,11.853055908203125,-0.12889257073402405,-0.07757988572120667,-0.056810468435287476
1788676379103925000,11.868925048828125,-0.16982053220272064,-0.07880161702632904,0.04459316283464432
1788676379119794200,11.884794189453125,-0.2223549485206604,-0.025045474991202354,0.08429940044879913
1788676379135693800,11.90069384765625,-0.2828305959701538,0.059864792972803116,0.06841690838336945
1788676379159467000,11.924467041015625,-0.2889392673969269,0.1569923609495163,0.12522737681865692
1788676379175336200,11.940336181640625,-0.2779437005519867,0.1918116807937622,0.3023782968521118
1788676379191205400,11.956205322265625,-0.26633724570274353,0.07330382615327835,0.4502076804637909
1788676379207135500,11.972135498046875,-0.3017674386501312,-0.051312681287527084,0.3927863538265228
1788676379222974200,11.98797412109375,-0.3433062732219696,-0.14355333149433136,0.13377949595451355
1788676379238904300,12.003904296875,-0.35674530267715454,-0.14477506279945374,-0.17348572611808777
1788676379254804000,12.019803955078125,-0.35124751925468445,-0.04459316283464432,-0.42210787534713745
1788676379270673200,12.035673095703125,-0.2981022298336029,0.08124507963657379,-0.3292563557624817
1788676379286603300,12.051603271484375,-0.24129177629947662,0.1007927656173706,0.11239920556545258
1788676379302472400,12.067472412109375,-0.2125810980796814,-0.028099801391363144,0.4899139404296875
1788676379318372000,12.0833720703125,-0.19608774781227112,-0.17592918872833252,0.6530149579048157
1788676379334271700,12.099271728515625,-0.18387043476104736,-0.16249015927314758,0.5369505286216736
1788676379350141000,12.115140869140625,-0.15760323405265808,0.014049900695681572,0.16798794269561768
1788676379366010000,12.131010009765625,-0.16737708449363708,0.18020524084568024,-0.18814650177955627
1788676379381879000,12.146879150390625,-0.19486601650714874,0.22540926933288574,-0.42760565876960754
1788676379397717800,12.1627177734375,-0.20036379992961884,0.13866640627384186,-0.4740314185619354
1788676379413587000,12.1785869140625,-0.192422553896904,0.01160643994808197,-0.42638394236564636
1788676379429456100,12.1944560546875,-0.16310101747512817,-0.09712757170200348,-0.32559117674827576
1788676379445355800,12.210355712890625,-0.12339477986097336,-0.1319468915462494,-0.17959438264369965
1788676379461224700,12.226224609375,-0.054367005825042725,-0.10323622822761536,0.03237585723400116
1788676379477124600,12.24212451171875,-0.02626720629632473,-0.08429940044879913,0.1820378452539444
1788676379492932600,12.2579326171875,0.004886921960860491,-0.1062905490398407,0.2571742534637451
1788676379508801800,12.2738017578125,0.033597588539123535,-0.15027284622192383,0.2217440903186798
1788676379524701400,12.289701416015625,0.04153883829712868,-0.1966986060142517,0.0806342139840126
1788676379540540000,12.305539794921875,0.030543262138962746,-0.23090706765651703,-0.07880161702632904
1788676379556439600,12.321439453125,0.05009094998240471,-0.20036379992961884,-0.20402899384498596
1788676379572370000,12.337369873046875,0.07880161702632904,-0.0959058403968811,-0.2076941877603531
1788676379588239000,12.353239013671875,0.12950342893600464,0.006108652334660292,-0.10934487730264664
1788676379604108000,12.36910791015625,0.16004669666290283,0.019547687843441963,0.012217304669320583
1788676379619946800,12.38494677734375,0.19303341209888458,-0.036651913076639175,0.09834930300712585
1788676379635785500,12.400785400390625,0.2028072625398636,-0.07391469180583954,0.09468411654233932
1788676379651654400,12.416654296875,0.22296582162380219,-0.04642575979232788,0.01160643994808197
1788676379667554000,12.432553955078125,0.24434609711170197,-0.03298672288656235,-0.09896016865968704
1788676379683484400,12.448484375,0.27122417092323303,0.02321287989616394,-0.21441370248794556
1788676379699353600,12.464353515625,0.29565876722335815,0.06414084881544113,-0.19975294172763824
1788676379715222500,12.480222412109375,0.33658674359321594,0.09285151958465576,-0.0024434609804302454
1788676379731122200,12.4961220703125,0.40133845806121826,0.14355333149433136,0.25595253705978394
1788676379747021800,12.512021728515625,0.394008070230484,0.10323622822761536,0.3787364661693573
1788676379762952200,12.5279521484375,0.31642818450927734,-0.015271631069481373,0.24495697021484375
1788676379778851800,12.543851806640625,0.1973094791173935,-0.20525072515010834,-0.12278391420841217
1788676379794690300,12.559690185546875,0.14538592100143433,-0.37079519033432007,-0.4282165467739105
1788676379810559500,12.5755595703125,0.10995574295520782,-0.4612032473087311,-0.5363397002220154
1788676379826459100,12.591459228515625,0.12950342893600464,-0.28527405858039856,-0.23579397797584534
1788676379842358800,12.60735888671875,0.20463985204696655,-0.07757988572120667,0.24373523890972137
1788676379858197500,12.623197509765625,0.23029619455337524,-0.04764748737215996,0.6383541822433472
1788676379874066700,12.639066650390625,0.21624629199504852,-0.08918632566928864,0.6609562039375305
1788676379889966300,12.65496630859375,0.14233160018920898,-0.18081611394882202,0.3689626157283783
1788676379905835500,12.67083544921875,0.0659734457731247,-0.3029891550540924,0.06475171446800232
1788676379921735200,12.686735107421875,-0.005497787147760391,-0.3836233615875244,-0.16737708449363708
1788676379937604000,12.70260400390625,-0.0555887371301651,-0.33658674359321594,-0.2669481039047241
1788676379953504000,12.71850390625,-0.07208210229873657,-0.1716531366109848,-0.313373863697052
1788676379969342500,12.734342529296875,-0.05009094998240471,0.006108652334660292,-0.2834414839744568
1788676379985211600,12.750211669921875,-0.025045474991202354,0.1612684279680252,-0.152105450630188
1788676380001141800,12.766141845703125,0.0006108652451075613,0.2021963894367218,0.014049900695681572
1788676380017011000,12.782010986328125,-0.001832595793530345,0.1362229436635971,0.17592918872833252
1788676380040875800,12.805875732421875,-0.04153883829712868,-0.06291911751031876,0.19853121042251587
1788676380056714200,12.82171435546875,-0.05314527451992035,-0.06291911751031876,0.16310101747512817
1788676380072614000,12.83761376953125,-0.05864306539297104,-0.02076941914856434,0.13377949595451355
1788676380088513500,12.853513427734375,-0.08429940044879913,0.02871066704392433,0.1368338167667389
1788676380104413200,12.8694130859375,-0.13377949595451355,0.1875356286764145,0.15882496535778046
1788676380120313000,12.88531298828125,-0.17959438264369965,0.42638394236564636,0.3243694305419922
1788676380136182000,12.90118212890625,-0.16859880089759827,-0.11484266817569733,0.04398229718208313
1788676380152051200,12.91705126953125,-0.24495697021484375,-0.10262536257505417,-0.29077184200286865
1788676380167950800,12.932950927734375,-0.4080579876899719,0.08918632566928864,-0.5406157374382019
1788676380183820000,12.948820068359375,-0.46792277693748474,0.31031954288482666,-0.5571091175079346
1788676380199719700,12.9647197265625,-0.5021312236785889,0.22479841113090515,-0.5607742667198181
1788676380215612700,12.98061279296875,-0.5613851547241211,-0.018936822190880775,-0.4740314185619354
1788676380231573500,12.996573486328124,-0.5809328556060791,-0.26450464129447937,-0.34513887763023376
1788676380247473200,13.01247314453125,-0.5082398653030396,-0.24373523890972137,-0.12950342893600464
1788676380271429400,13.036429443359374,-0.3634648323059082,-0.07452555745840073,0.4080579876899719
1788676380287329000,13.0523291015625,-0.3323107063770294,-0.08429940044879913,0.5314527750015259
1788676380303289600,13.06828955078125,-0.3836233615875244,-0.20463985204696655,0.38240164518356323
1788676380319250400,13.08425048828125,-0.39767327904701233,-0.21807889640331268,0.03481931984424591
1788676380335150000,13.100150146484374,-0.38606682419776917,-0.13988813757896423,-0.3378084897994995
1788676380351141400,13.116141357421874,-0.3396410644054413,0.10201449692249298,-0.5729916095733643
1788676380367132400,13.13213232421875,-0.2535090744495392,0.3127630054950714,-0.2638937830924988
1788676380383093200,13.14809326171875,-0.1411098688840866,0.28466320037841797,0.3170390725135803
1788676380399115000,13.164114990234374,-0.05253441259264946,0.1362229436635971,0.8717046976089478
1788676380414953500,13.179953369140625,-0.01160643994808197,0.11362093687057495,1.0012081861495972
1788676380430975200,13.195975341796874,-0.02871066704392433,0.12217304855585098,0.7257078886032104
1788676380446875000,13.211875,-0.10262536257505417,0.0910189226269722,0.2926044464111328
1788676380462774500,13.2277744140625,-0.20341812074184418,0.021380282938480377,-0.20341812074184418
1788676380478765800,13.243765869140624,-0.24434609711170197,-0.042760565876960754,-0.5002986192703247
1788676380494696000,13.259696044921874,-0.26022860407829285,-0.08857546001672745,-0.6218608021736145
1788676380510717700,13.2757177734375,-0.2687807083129883,-0.0959058403968811,-0.5809328556060791
1788676380526617300,13.291617431640624,-0.24129177629947662,-0.04703662544488907,-0.3927863538265228
1788676380542608600,13.307608642578124,-0.17776179313659668,-0.01160643994808197,-0.09529497474431992
1788676380558569200,13.3235693359375,-0.10567969083786011,-0.04703662544488907,0.182648703455925
1788676380574468900,13.33946875,-0.01710422709584236,-0.10567969083786011,0.41599923372268677
1788676380590460200,13.355460205078124,0.039706241339445114,-0.1569923609495163,0.47219884395599365
1788676380606329300,13.371329345703124,0.08002334833145142,-0.1966986060142517,0.375071257352829
1788676380622259500,13.387259521484374,0.07330382615327835,-0.22540926933288574,0.18936823308467865
1788676380638220000,13.403219970703125,0.02871066704392433,-0.24862214922904968,-0.07941248267889023
1788676380654119700,13.41911962890625,-0.015271631069481373,-0.22418753802776337,-0.28588494658470154
1788676380670080500,13.43508056640625,-0.02015855349600315,-0.11545353382825851,-0.394618958234787
1788676380685980200,13.450980224609374,0.014049900695681572,-0.04092797264456749,-0.3952298164367676
1788676380701910300,13.46691015625,0.06780604273080826,0.015882495790719986,-0.3335324227809906
1788676380717871000,13.48287109375,0.10690141469240189,0.01466076634824276,-0.27488934993743896
1788676380733740000,13.498739990234375,0.13439035415649414,-0.015882495790719986,-0.2119702398777008
1788676380749731300,13.5147314453125,0.18875735998153687,-0.07391469180583954,-0.042760565876960754
1788676380765631000,13.530630859375,0.24923302233219147,-0.15943582355976105,0.11301007121801376
1788676380781500200,13.546500244140624,0.2932153046131134,-0.26450464129447937,0.18570303916931152
1788676380797460700,13.562460693359375,0.33597588539123535,-0.29016098380088806,0.1313360333442688
1788676380813391000,13.57839111328125,0.4001167416572571,-0.2321287989616394,0.08552113175392151
1788676380829351700,13.5943515625,0.44837507605552673,-0.13866640627384186,0.17959438264369965
1788676380845251300,13.610251220703125,0.5119050741195679,0.001832595793530345,0.4434881806373596
1788676380861242600,13.62624267578125,0.5393940210342407,0.09651670604944229,0.6249151229858398
1788676380877234000,13.64223388671875,0.5448917746543884,-0.02321287989616394,0.5442809462547302
1788676380893102800,13.658102783203125,0.5009095072746277,-0.34758231043815613,0.14966198801994324
1788676380909094100,13.67409423828125,0.2938261926174164,-0.6786713004112244,-0.5760459303855896
1788676380924993800,13.689993896484374,0.13805554807186127,-0.504574716091156,-0.9669997096061707
1788676380940893400,13.7058935546875,0.2174680233001709,-0.09224065393209457,-0.6951646208763123
1788676380956854300,13.721854248046874,0.39645153284072876,0.2822197377681732,0.09834930300712585
1788676380972784400,13.737784423828124,0.43249258399009705,0.303600013256073,0.637132465839386
1788676380988684000,13.75368408203125,0.45204028487205505,0.22357667982578278,0.7263187766075134
1788676381004675300,13.76967529296875,0.403781920671463,0.10384709388017654,0.40072759985923767
1788676381020666400,13.785666259765625,0.2816088795661926,-0.09834930300712585,-0.11789698898792267
1788676381036657700,13.80165771484375,0.152105450630188,-0.21563543379306793,-0.46547931432724
1788676381052618200,13.8176181640625,0.03481931984424591,-0.31520646810531616,-0.7195992469787598
1788676381068579000,13.8335791015625,-0.015882495790719986,-0.2272418737411499,-0.7415903806686401
1788676381084509200,13.84950927734375,-0.0403171069920063,-0.23640485107898712,-0.5656611919403076
1788676381100439300,13.865439208984375,0.014049900695681572,-0.10018189996480942,-0.23884831368923187
1788676381116461000,13.8814609375,0.02932153269648552,-0.0024434609804302454,-0.006108652334660292
1788676381132422000,13.897421875,0.007941247895359993,-0.0024434609804302454,0.1563815027475357
1788676381148413000,13.913412841796875,-0.0012217304902151227,-0.051312681287527084,0.19486601650714874
1788676381164282000,13.9292822265625,0.0012217304902151227,-0.09529497474431992,0.18020524084568024
1788676381180181800,13.945181640625,0.01466076634824276,-0.07880161702632904,0.15943582355976105
1788676381196142600,13.961142578125,0.00855211354792118,-0.0507018156349659,0.11484266817569733
1788676381212133600,13.977133544921875,-0.01710422709584236,-0.0403171069920063,0.08368854224681854
1788676381228033300,13.993033203125,-0.06536258012056351,-0.0403171069920063,0.03848451003432274
1788676381244055000,14.009054931640625,-0.11239920556545258,-0.07819075137376785,0.009773843921720982
1788676381259954700,14.02495458984375,-0.1459967941045761,-0.08979719132184982,-0.01160643994808197
1788676381275946000,14.040946044921874,-0.19425514340400696,-0.10018189996480942,-0.03298672288656235
1788676381291906600,14.056906494140625,-0.24923302233219147,-0.11789698898792267,-0.04214970022439957
1788676381307867400,14.072867431640624,-0.3176499307155609,-0.11911872029304504,-0.05253441259264946
1788676381323767000,14.08876708984375,-0.3695734739303589,-0.06719517707824707,-0.0659734457731247
1788676381339666700,14.104666748046874,-0.42271876335144043,0.0555887371301651,-0.02687807008624077
1788676381355627300,14.120627197265625,-0.44226643443107605,0.19425514340400696,0.11545353382825851
1788676381371557600,14.1365576171875,-0.44593164324760437,0.2993239760398865,0.3170390725135803
1788676381387457300,14.152457275390624,-0.4349360466003418,0.3701843321323395,0.49357911944389343
1788676381403417900,14.16841796875,-0.3854559659957886,0.33536502718925476,0.6866125464439392
1788676381419409200,14.1844091796875,-0.38117989897727966,0.13316862285137177,0.7147123217582703
1788676381435400200,14.200400146484375,-0.4153883755207062,-0.015882495790719986,0.5290092825889587
1788676381451391500,14.2163916015625,-0.4550946056842804,-0.059864792972803116,0.02871066704392433
1788676381467291100,14.232291015625,-0.5601634383201599,0.006108652334660292,-0.5674937963485718
1788676381483252000,14.248251953125,-0.617584764957428,0.3188716471195221,-0.9676105380058289
1788676381499182000,14.26418212890625,-0.5381723046302795,0.3891211748123169,-0.8045095205307007
1788676381515173400,14.28017333984375,-0.4031710624694824,0.20525072515010834,-0.182648703455925
1788676381531134000,14.296134033203124,-0.323147714138031,-0.03726277872920036,0.37079519033432007
1788676381547094500,14.312094482421875,-0.22540926933288574,-0.2773328125476837,0.7269296646118164
1788676381562994400,14.327994384765624,-0.11789698898792267,-0.39706242084503174,0.6939429044723511
1788676381578894000,14.34389404296875,-0.08002334833145142,-0.3628539443016052,0.42088615894317627
1788676381594854700,14.359854736328124,-0.09529497474431992,-0.252287358045578,0.003054326167330146
1788676381610815200,14.375815185546875,-0.11850785464048386,-0.18325957655906677,-0.32498031854629517
1788676381626715100,14.391715087890624,-0.1319468915462494,-0.20036379992961884,-0.5925393104553223
1788676381642675700,14.40767578125,-0.16249015927314758,-0.24678955972194672,-0.6921103000640869
1788676381658636300,14.42363623046875,-0.1722639948129654,-0.25534167885780334,-0.6414085030555725
1788676381674597000,14.43959716796875,-0.1362229436635971,-0.2675589919090271,-0.48685958981513977
1788676381690496800,14.455496826171874,-0.04153883829712868,-0.2370157092809677,-0.21868975460529327
1788676381706518500,14.4715185546875,0.07513642311096191,-0.08735372871160507,-0.036041051149368286
1788676381722418200,14.487418212890624,0.16432274878025055,0.06414084881544113,0.06291911751031876
1788676381738348300,14.503348388671874,0.19975294172763824,0.1264491081237793,0.08979719132184982
1788676381754339600,14.519339599609374,0.1918116807937622,0.1313360333442688,0.10323622822761536
1788676381770208800,14.535208740234374,0.16432274878025055,0.056810468435287476,0.0708603709936142
1788676381786230300,14.551230224609375,0.12889257073402405,-0.045204028487205505,-0.016493361443281174
1788676381802130200,14.567130126953124,0.12217304855585098,-0.11056660860776901,-0.12034045159816742
1788676381818060300,14.583060302734374,0.1459967941045761,-0.10567969083786011,-0.17531833052635193
1788676381834051300,14.59905126953125,0.1869247704744339,-0.07819075137376785,-0.1765400618314743
1788676381849920500,14.61492041015625,0.23090706765651703,-0.006108652334660292,-0.10873401165008545
1788676381865820200,14.630820068359375,0.27611109614372253,0.07391469180583954,0.028099801391363144
1788676381881811500,14.6468115234375,0.34025195240974426,0.07269296050071716,0.15577064454555511
1788676381905706800,14.670706787109374,0.4343251883983612,0.06475171446800232,0.323147714138031
1788676381921698000,14.686697998046874,0.475253164768219,-0.019547687843441963,0.29565876722335815
1788676381945562600,14.710562744140624,0.4801400899887085,-0.3243694305419922,0.10751228034496307
1788676381961492700,14.72649267578125,0.5900958180427551,-0.152105450630188,0.08246681094169617
1788676381977453600,14.74245361328125,0.7244861721992493,0.20525072515010834,0.2321287989616394
1788676381993414100,14.7584140625,0.8442157506942749,0.31031954288482666,0.2938261926174164
1788676382009313800,14.774313720703125,0.749531626701355,0.5546656250953674,0.08979719132184982
1788676382025274600,14.790274658203124,0.4392121136188507,0.40744712948799133,-0.24129177629947662
1788676382041174300,14.80617431640625,-0.027488935738801956,0.07269296050071716,-0.7422012686729431
1788676382057134800,14.822134765625,-0.24434609711170197,-0.05619960278272629,-0.8307767510414124
1788676382073217800,14.8382177734375,-0.12095131725072861,0.05742133408784866,-0.33169981837272644
1788676382089148000,14.85414794921875,0.18997909128665924,0.2431243658065796,0.523511528968811
1788676382105108500,14.8701083984375,0.33597588539123535,0.2877175211906433,1.0390818119049072
1788676382121008000,14.886008056640625,0.35552358627319336,0.1918116807937622,1.0793988704681396
1788676382136907800,14.90190771484375,0.29565876722335815,-0.07452555745840073,0.7250970602035522
1788676382152899000,14.917899169921874,0.17592918872833252,-0.2938261926174164,0.11056660860776901
1788676382168860000,14.93385986328125,0.09407325088977814,-0.35674530267715454,-0.3176499307155609
1788676382184790000,14.9497900390625,0.03237585723400116,-0.41172316670417786,-0.5320636034011841
1788676382200781000,14.965781005859375,0.00427605677396059,-0.35552358627319336,-0.5442809462547302
1788676382216681000,14.981680908203124,-0.012217304669320583,-0.20586158335208893,-0.4660901725292206
1788676382232672000,14.997672119140624,-0.04886921867728233,-0.11850785464048386,-0.43249258399009705
1788676382248632800,15.0136328125,-0.06658431142568588,-0.03298672288656235,-0.41233405470848083
1788676382264501800,15.029501708984375,0.010995574295520782,0.012217304669320583,-0.29077184200286865
1788676382280493000,15.0454931640625,0.059864792972803116,-0.01710422709584236,-0.12095131725072861
1788676382296454000,15.061453857421874,0.07452555745840073,-0.21563543379306793,0.1514945775270462
1788676382312445000,15.07744482421875,0.13866640627384186,-0.3787364661693573,0.3488040566444397
1788676382328344600,15.093344482421875,0.17837265133857727,-0.43615779280662537,0.3530801236629486
1788676382344244200,15.109244140625,0.15027284622192383,-0.3536909818649292,0.2021963894367218
1788676382360235500,15.125235595703124,0.13439035415649414,-0.23945917189121246,-0.02687807008624077
1788676382376226800,15.141226806640624,0.11239920556545258,-0.15515977144241333,-0.15760323405265808
1788676382392248600,15.15724853515625,0.06536258012056351,0.09162978827953339,-0.2565633952617645
1788676382408117500,15.173117431640625,0.010995574295520782,0.11972958594560623,-0.15821409225463867
1788676382424139300,15.18913916015625,-0.0354301854968071,0.04214970022439957,-0.027488935738801956
1788676382440039000,15.205038818359375,-0.1014036312699318,0.01160643994808197,0.10567969083786011
1788676382455938600,15.2209384765625,-0.1661553531885147,-0.009162978269159794,0.2064724564552307
1788676382471899400,15.2368994140625,-0.21441370248794556,-0.02076941914856434,0.29016098380088806
1788676382487890400,15.252890380859375,-0.23151792585849762,-0.018325956538319588,0.2968805134296417
1788676382503851300,15.268851318359374,-0.23884831368923187,0.042760565876960754,0.3066543638706207
1788676382519811800,15.284811767578125,-0.20402899384498596,0.16737708449363708,0.38117989897727966
1788676382535742200,15.3007421875,-0.1918116807937622,0.2675589919090271,0.41599923372268677
1788676382551702800,15.316702880859374,-0.26022860407829285,0.26939156651496887,0.2724458873271942
1788676382567663600,15.33266357421875,-0.342695415019989,0.22052235901355743,-0.10018189996480942
1788676382583593700,15.34859375,-0.43127086758613586,0.17348572611808777,-0.6102544069290161
1788676382599463000,15.364462890625,-0.4911356568336487,0.2669481039047241,-0.9175195693969727
1788676382615331800,15.380331787109375,-0.4251621961593628,0.3127630054950714,-0.7312057018280029
1788676382631292700,15.396292724609374,-0.2632829248905182,0.19120082259178162,-0.10384709388017654
1788676382647222800,15.412222900390624,-0.11850785464048386,-0.07941248267889023,0.7238753437995911
1788676382663214000,15.428214111328124,-0.06719517707824707,-0.2767219543457031,1.0855075120925903
1788676382679113700,15.44411376953125,-0.05864306539297104,-0.34636059403419495,0.9468411207199097
1788676382694983000,15.45998291015625,-0.07391469180583954,-0.3280346393585205,0.5076290369033813
1788676382710913000,15.4759130859375,-0.09773843735456467,-0.16798794269561768,-0.05619960278272629
1788676382726782200,15.4917822265625,-0.13255776464939117,-0.015882495790719986,-0.43127086758613586
1788676382742712300,15.50771240234375,-0.17470745742321014,0.039095375686883926,-0.6212499737739563
1788676382758581500,15.52358154296875,-0.16371189057826996,-0.036041051149368286,-0.5955936312675476
1788676382774481200,15.539481201171874,-0.14294247329235077,-0.1716531366109848,-0.44837507605552673
1788676382790380800,15.555380859375,-0.11056660860776901,-0.2638937830924988,-0.24678955972194672
1788676382806219500,15.571219482421874,-0.02015855349600315,-0.2583959996700287,-0.006719517521560192
1788676382822088400,15.58708837890625,0.054367005825042725,-0.1569923609495163,0.1563815027475357
1788676382837988000,15.602988037109375,0.10934487730264664,-0.07269296050071716,0.24617868661880493
1788676382853918500,15.61891845703125,0.12767083942890167,-0.07147123664617538,0.1771509200334549
1788676382869818000,15.634818115234374,0.0959058403968811,-0.1062905490398407,0.025656340643763542
1788676382885656600,15.650656494140625,0.04398229718208313,-0.17348572611808777,-0.16004669666290283
1788676382901556200,15.66655615234375,0.036651913076639175,-0.17898350954055786,-0.23884831368923187
1788676382917456000,15.682455810546875,0.04398229718208313,-0.1661553531885147,-0.2528982162475586
1788676382933325000,15.698324951171875,0.07941248267889023,-0.12889257073402405,-0.18997909128665924
1788676382957098200,15.72209814453125,0.15882496535778046,-0.03237585723400116,0.04398229718208313
1788676382972967400,15.737967529296874,0.18814650177955627,-0.027488935738801956,0.20341812074184418
1788676382988836600,15.753836669921874,0.18875735998153687,-0.10995574295520782,0.3237585723400116
1788676383004705800,15.769705810546874,0.1716531366109848,-0.2272418737411499,0.34025195240974426
1788676383020605400,15.78560546875,0.19058994948863983,-0.26145032048225403,0.2987131178379059
1788676383036474600,15.801474609375,0.23029619455337524,-0.20525072515010834,0.2382374405860901
1788676383060278300,15.8252783203125,0.2626720666885376,-0.04703662544488907,0.2174680233001709
1788676383084112400,15.8491123046875,0.33169981837272644,0.0959058403968811,0.44654250144958496
1788676383099920600,15.864920654296874,0.3121521472930908,0.07941248267889023,0.5613851547241211
1788676383115789800,15.880789794921874,0.2767219543457031,0.04948008432984352,0.46547931432724
1788676383131689500,15.896689453125,0.2535090744495392,-0.06902777403593063,0.14233160018920898
1788676383147589000,15.912589111328124,0.18997909128665924,-0.21502456068992615,-0.24129177629947662
1788676383163458300,15.928458251953124,0.1362229436635971,-0.23029619455337524,-0.5076290369033813
1788676383179296800,15.944296875,0.14294247329235077,-0.06719517707824707,-0.3536909818649292
1788676383195196400,15.960196533203124,0.23335053026676178,0.07941248267889023,0.17104226350784302
1788676383211065600,15.976065673828124,0.31581732630729675,0.04092797264456749,0.5363397002220154
1788676383226965200,15.99196533203125,0.34147366881370544,-0.14966198801994324,0.5797111392021179
1788676383242804000,16.007803955078124,0.2565633952617645,-0.35124751925468445,0.3243694305419922
1788676383258734000,16.023734130859374,0.09040805697441101,-0.45814892649650574,-0.0806342139840126
1788676383274572800,16.03957275390625,0.003054326167330146,-0.4184426963329315,-0.32498031854629517
1788676383290441700,16.055441650390627,-0.02626720629632473,-0.3072652220726013,-0.4447098970413208
1788676383306372000,16.0713720703125,-0.01160643994808197,-0.18325957655906677,-0.4331034719944
1788676383322302200,16.08730224609375,0.0024434609804302454,-0.02076941914856434,-0.31459560990333557
1788676383338171400,16.10317138671875,-0.012217304669320583,0.05864306539297104,-0.16493362188339233
1788676383354071000,16.119071044921874,-0.03787364438176155,0.02871066704392433,0.006108652334660292
1788676383369940200,16.134940185546874,-0.05742133408784866,-0.030543262138962746,0.10934487730264664
1788676383385870300,16.150870361328124,-0.05375614017248154,-0.08918632566928864,0.15515977144241333
1788676383401739500,16.166739501953124,-0.042760565876960754,-0.07452555745840073,0.12339477986097336
1788676383417608400,16.1826083984375,-0.030543262138962746,-0.01038470957428217,0.04703662544488907
1788676383433538800,16.198538818359374,-0.030543262138962746,0.027488935738801956,-0.00855211354792118
1788676383449438500,16.2144384765625,-0.04886921867728233,0.018325956538319588,-0.05253441259264946
1788676383465338000,16.230338134765624,-0.07269296050071716,0.007941247895359993,-0.08429940044879913
1788676383481207300,16.246207275390624,-0.09651670604944229,-0.0006108652451075613,-0.0910189226269722
1788676383497107000,16.26210693359375,-0.14782938361167908,0.009773843921720982,-0.10018189996480942
1788676383512976000,16.277975830078127,-0.1966986060142517,-0.004886921960860491,-0.07819075137376785
1788676383528845000,16.293844970703127,-0.24434609711170197,0.005497787147760391,0.0012217304902151227
1788676383544744700,16.30974462890625,-0.26083946228027344,0,0.11362093687057495
1788676383560583400,16.32558349609375,-0.2889392673969269,0.006108652334660292,0.2168571650981903
1788676383576452600,16.34145263671875,-0.2932153046131134,0.05925392732024193,0.26145032048225403
1788676383592352300,16.357352294921874,-0.2834414839744568,0.12217304855585098,0.3139847218990326
1788676383616156000,16.381156005859374,-0.27611109614372253,0.11911872029304504,0.43615779280662537
1788676383632086000,16.3970859375,-0.32620203495025635,0.024434609338641167,0.4294382631778717
1788676383647955200,16.412955078125,-0.394008070230484,-0.05253441259264946,0.2779437005519867
1788676383663854800,16.428854736328127,-0.43615779280662537,-0.08796459436416626,0.03481931984424591
1788676383679724000,16.44472412109375,-0.4960225820541382,-0.054367005825042725,-0.3390302062034607
1788676383695623700,16.460623779296874,-0.48258355259895325,0.0861319974064827,-0.5467243790626526
1788676383711401200,16.476401123046877,-0.38606682419776917,0.1722639948129654,-0.4355469346046448
1788676383727300900,16.49230078125,-0.32009339332580566,0.1062905490398407,-0.08368854224681854
1788676383743231200,16.508231201171874,-0.242513507604599,0.031154127791523933,0.403781920671463
1788676383759131000,16.524130859375,-0.18875735998153687,0.0555887371301651,0.5393940210342407
1788676383774969300,16.53996923828125,-0.22052235901355743,0.02382374368607998,0.40072759985923767
1788676383790838500,16.555838623046874,-0.21930062770843506,-0.2125810980796814,0.27061331272125244
1788676383806707700,16.571707763671874,-0.20036379992961884,-0.30115658044815063,-0.030543262138962746
1788676383822607400,16.587607421875,-0.21013765037059784,-0.19303341209888458,-0.37262779474258423
1788676383838415400,16.603415283203127,-0.21074850857257843,-0.17409659922122955,-0.5564982295036316
1788676383854254000,16.619254150390624,-0.12034045159816742,-0.07696902006864548,-0.5931501388549805
1788676383870184200,16.63518408203125,0.02871066704392433,-0.06841690838336945,-0.38606682419776917
1788676383886053400,16.651053466796874,0.11056660860776901,-0.03420845419168472,-0.16920967400074005
1788676383901983500,16.6669833984375,0.18081611394882202,0.15027284622192383,-0.012828170321881771
1788676383917883100,16.682883056640627,0.14844025671482086,0.27061331272125244,-0.007941247895359993
1788676383941748000,16.706748046875,0.02932153269648552,0.1814269721508026,0.05314527451992035
1788676383957617200,16.7226171875,0.004886921960860491,0.04092797264456749,0.11545353382825851
1788676383973516800,16.738516845703124,0.009162978269159794,-0.06536258012056351,0.07941248267889023
1788676383989355500,16.75435546875,0.06291911751031876,-0.1215621829032898,-0.03176499158143997
1788676384005255200,16.770255126953124,0.11423180252313614,-0.13439035415649414,-0.1111774742603302
1788676384021185300,16.786185302734374,0.13439035415649414,-0.11667526513338089,-0.16371189057826996
1788676384037054500,16.802054443359374,0.14844025671482086,-0.06414084881544113,-0.17470745742321014
1788676384052923400,16.81792333984375,0.19364428520202637,-0.015882495790719986,-0.13561208546161652
1788676384068823000,16.833822998046877,0.22907446324825287,-0.0006108652451075613,-0.06719517707824707
1788676384084723000,16.849722900390624,0.2583959996700287,0.006108652334660292,-0.04581489413976669
1788676384100653000,16.865653076171874,0.2816088795661926,-0.004886921960860491,-0.07452555745840073
1788676384116491500,16.881491455078127,0.3084869384765625,-0.01466076634824276,-0.06963863968849182
1788676384132391200,16.89739111328125,0.3543018400669098,-0.04337143152952194,0.01710422709584236
1788676384148260400,16.91326025390625,0.4282165467739105,-0.039706241339445114,0.21319197118282318
1788676384172094700,16.9370947265625,0.513126790523529,0.07757988572120667,0.4282165467739105
1788676384187964000,16.9529638671875,0.5106833577156067,0.11239920556545258,0.36529740691185
1788676384203832800,16.968832763671877,0.48685958981513977,0.12278391420841217,0.12339477986097336
1788676384219732500,16.984732421875,0.4544837474822998,-0.0006108652451075613,-0.2015855312347412
1788676384235632000,17.000632080078127,0.35246923565864563,-0.242513507604599,-0.6322455406188965
1788676384251470800,17.016470947265624,0.2535090744495392,-0.30604347586631775,-0.788627028465271
1788676384267340000,17.032340087890624,0.2535090744495392,-0.2021963894367218,-0.41172316670417786
1788676384283239700,17.04823974609375,0.37568211555480957,-0.07330382615327835,0.22540926933288574
1788676384299169800,17.064169677734377,0.4789183437824249,-0.0006108652451075613,0.7812966704368591
1788676384315039000,17.0800390625,0.4996877610683441,-0.0006108652451075613,0.8142833709716797
1788676384330938600,17.095938720703124,0.44226643443107605,-0.056810468435287476,0.4282165467739105
1788676384346807800,17.111807861328124,0.313373863697052,-0.1417207419872284,0.00366519158706069
1788676384362677000,17.127677001953124,0.14049901068210602,-0.24068090319633484,-0.36224308609962463
1788676384378546200,17.143546142578124,0.07208210229873657,-0.24495697021484375,-0.5051855444908142
1788676384394384600,17.159384521484377,0.06475171446800232,-0.18875735998153687,-0.484416127204895
1788676384410284300,17.1752841796875,0.06414084881544113,-0.07880161702632904,-0.43615779280662537
1788676384426184000,17.191183837890627,0.04703662544488907,0.02321287989616394,-0.42638394236564636
1788676384442083600,17.20708349609375,0.022602014243602753,0.09529497474431992,-0.38117989897727966
1788676384457983200,17.222983154296877,0.036651913076639175,0.12095131725072861,-0.252287358045578
1788676384473852400,17.238852294921877,0.045204028487205505,0.07513642311096191,-0.04581489413976669
1788676384489752000,17.254751953125,0.04581489413976669,0.01466076634824276,0.08918632566928864
1788676384505651700,17.270651611328127,0.04214970022439957,-0.01160643994808197,0.13377949595451355
1788676384521521000,17.28652099609375,0.01710422709584236,0.0024434609804302454,0.07147123664617538
1788676384537420500,17.302420654296874,-0.036651913076639175,0.025656340643763542,-0.03726277872920036
1788676384553289700,17.318289794921874,-0.07147123664617538,0.036041051149368286,-0.1014036312699318
1788676384569189400,17.334189453125,-0.08918632566928864,0.04764748737215996,-0.13500121235847473
1788676384585058600,17.35005859375,-0.1014036312699318,0.02626720629632473,-0.13744467496871948
1788676384600958200,17.365958251953124,-0.12461651116609573,0.00855211354792118,-0.12217304855585098
1788676384616857900,17.38185791015625,-0.1618792861700058,-0.009162978269159794,-0.08674286305904388
1788676384632727000,17.39772705078125,-0.2217440903186798,-0.08185594528913498,-0.01771509274840355
1788676384648626700,17.413626708984374,-0.2541199326515198,-0.12889257073402405,0.0403171069920063
1788676384664495900,17.429495849609374,-0.2687807083129883,-0.07696902006864548,0.13255776464939117
1788676384680364800,17.44536474609375,-0.2675589919090271,0.01710422709584236,0.20341812074184418
1788676384696295200,17.461295166015624,-0.25473082065582275,0.12767083942890167,0.16798794269561768
1788676384712164400,17.477164306640624,-0.2376265823841095,0.2076941877603531,0.1771509200334549
1788676384728033300,17.493033203125,-0.152105450630188,0.2064724564552307,0.38179078698158264
1788676384743933000,17.508932861328127,-0.1258382350206375,-0.0507018156349659,0.5106833577156067
1788676384759802000,17.524802001953127,-0.13561208546161652,-0.19425514340400696,0.4147774875164032
1788676384775701800,17.54070166015625,-0.2070833146572113,-0.2565633952617645,0.09468411654233932
1788676384791571000,17.556571044921874,-0.3439171314239502,-0.1820378452539444,-0.27550023794174194
1788676384807470600,17.572470703125,-0.44837507605552673,0.11728613078594208,-0.5314527750015259
1788676384823309300,17.588309326171874,-0.4184426963329315,0.2070833146572113,-0.3701843321323395
1788676384839209000,17.604208984375,-0.2981022298336029,-0.003054326167330146,0.1319468915462494
1788676384855078100,17.620078125,-0.21991148591041565,-0.16798794269561768,0.49724429845809937
1788676384870947000,17.635947021484377,-0.1612684279680252,-0.17531833052635193,0.5919284224510193
1788676384886877400,17.65187744140625,-0.152105450630188,-0.11362093687057495,0.4105014503002167
1788676384902777000,17.667777099609374,-0.17287486791610718,0,0.060475658625364304
1788676384918646300,17.683646240234374,-0.2125810980796814,0.0507018156349659,-0.2681698501110077
1788676384934606800,17.69960693359375,-0.2871066629886627,0.039706241339445114,-0.6255260109901428
1788676384950414800,17.715414794921877,-0.31642818450927734,0.056810468435287476,-0.8478809595108032
1788676384966345200,17.73134521484375,-0.3090978264808655,0.048258353024721146,-0.9205739498138428
1788676384982244900,17.747244873046874,-0.2638937830924988,-0.02015855349600315,-0.7654141783714294
1788676384998114000,17.763114013671874,-0.1459967941045761,-0.06108652427792549,-0.34086281061172485
1788676385014013700,17.779013671875,-0.04092797264456749,-0.018936822190880775,0.04581489413976669
1788676385029882600,17.794882568359377,0.013439035043120384,0.01771509274840355,0.23090706765651703
1788676385045751800,17.810751708984377,0.012217304669320583,0.012217304669320583,0.16432274878025055
1788676385061621000,17.82662109375,-0.02871066704392433,-0.060475658625364304,-0.03726277872920036
1788676385077490200,17.842490234375,-0.04214970022439957,-0.13011430203914642,-0.1966986060142517
1788676385093389800,17.858389892578124,0.006108652334660292,-0.1417207419872284,-0.26022860407829285
1788676385109228500,17.874228515625,0.04642575979232788,-0.10506882518529892,-0.21380282938480377
1788676385125158700,17.89015869140625,0.09285151958465576,-0.054367005825042725,-0.11178833991289139
1788676385141058300,17.906058349609374,0.11972958594560623,-0.054367005825042725,0.00855211354792118
1788676385156958000,17.9219580078125,0.1270599663257599,-0.10018189996480942,0.05619960278272629
1788676385172857600,17.937857666015624,0.13377949595451355,-0.16859880089759827,0.054367005825042725
1788676385188696300,17.9536962890625,0.1459967941045761,-0.20341812074184418,0.04398229718208313
1788676385204534800,17.96953466796875,0.19120082259178162,-0.18448130786418915,0.0403171069920063
1788676385220465000,17.98546484375,0.242513507604599,-0.09773843735456467,0.02687807008624077
1788676385236364500,18.001364501953127,0.2535090744495392,-0.04337143152952194,0.031154127791523933
1788676385252295000,18.017294921875,0.23945917189121246,-0.09651670604944229,0.07147123664617538
1788676385268164000,18.0331640625,0.27122417092323303,-0.14966198801994324,0.2431243658065796
1788676385284063700,18.049063720703124,0.36224308609962463,-0.08246681094169617,0.5198463201522827
1788676385299932700,18.0649326171875,0.39645153284072876,0.009773843921720982,0.7422012686729431
1788676385315801900,18.0808017578125,0.3481931984424591,0.06658431142568588,0.6591235995292664
1788676385331732200,18.096732177734374,0.2834414839744568,0.028099801391363144,0.27061331272125244
1788676385347601200,18.11260107421875,0.18387043476104736,-0.2272418737411499,-0.2272418737411499
1788676385363409400,18.128409423828124,0.10812314599752426,-0.42577308416366577,-0.7031059265136719
1788676385379278600,18.144278564453124,0.12217304855585098,-0.3445279896259308,-0.6255260109901428
1788676385395147500,18.1601474609375,0.26450464129447937,-0.06169738993048668,0.039706241339445114
1788676385411108400,18.1761083984375,0.37079519033432007,0.05192354694008827,0.6346889734268188
1788676385426977500,18.1919775390625,0.3695734739303589,-0.0024434609804302454,0.8093964457511902
1788676385442907600,18.20790771484375,0.3078760802745819,-0.1319468915462494,0.44165557622909546
1788676385458807300,18.223807373046874,0.1966986060142517,-0.242513507604599,-0.09529497474431992
1788676385474707000,18.23970703125,0.07880161702632904,-0.27611109614372253,-0.6114761233329773
1788676385490637000,18.255636962890627,0.010995574295520782,-0.24434609711170197,-0.7519751191139221
1788676385506506200,18.27150634765625,-0.015882495790719986,-0.11362093687057495,-0.6133087277412415
1788676385522375400,18.28737548828125,0.00855211354792118,0.04153883829712868,-0.38240164518356323
1788676385538275000,18.303275146484374,0.025045474991202354,0.0555887371301651,-0.21502456068992615
1788676385554144300,18.319144287109374,0.005497787147760391,-0.014049900695681572,-0.25961771607398987
1788676385570044000,18.3350439453125,-0.030543262138962746,-0.08307767659425735,-0.3781255781650543
1788676385585852000,18.350851806640627,-0.0024434609804302454,-0.17104226350784302,-0.31459560990333557
1788676385601782300,18.3667822265625,0.10995574295520782,-0.34758231043815613,-0.01466076634824276
1788676385617682000,18.382681884765624,0.19608774781227112,-0.43676865100860596,0.28527405858039856
1788676385633581600,18.39858154296875,0.2272418737411499,-0.3988949954509735,0.5070181488990784
1788676385649450500,18.414450439453127,0.21074850857257843,-0.31459560990333557,0.5161811113357544
1788676385665319700,18.430319580078127,0.16920967400074005,-0.13255776464939117,0.384845107793808
1788676385681250000,18.44625,0.10567969083786011,0.02076941914856434,0.21991148591041565
1788676385697149700,18.462149658203124,0.04337143152952194,0.15393804013729095,0.0012217304902151227
1788676385713018600,18.4780185546875,-0.025656340643763542,0.18814650177955627,-0.18875735998153687
1788676385728887800,18.4938876953125,-0.08979719132184982,0.20586158335208893,-0.32498031854629517
1788676385744757000,18.509757080078124,-0.13500121235847473,0.192422553896904,-0.28649580478668213
1788676385760626200,18.525626220703124,-0.2070833146572113,0.02015855349600315,-0.11362093687057495
1788676385776525800,18.54152587890625,-0.24617868661880493,-0.08918632566928864,0.09162978827953339
1788676385792456000,18.5574560546875,-0.2541199326515198,-0.08185594528913498,0.25045475363731384
1788676385808386000,18.573385986328127,-0.23945917189121246,-0.013439035043120384,0.2773328125476837
1788676385824255200,18.589255126953127,-0.20830504596233368,0.09224065393209457,0.304210901260376
1788676385840124400,18.60512451171875,-0.15515977144241333,0.12339477986097336,0.3799581825733185
1788676385855993600,18.62099365234375,-0.17898350954055786,0.07269296050071716,0.3683517575263977
1788676385871893200,18.636893310546874,-0.26083946228027344,0.08918632566928864,0.2217440903186798
1788676385887823400,18.6528232421875,-0.37568211555480957,0.13072516024112701,-0.04764748737215996
1788676385903692500,18.668692626953124,-0.5088507533073425,0.30604347586631775,-0.5082398653030396
1788676385919592200,18.68459228515625,-0.5613851547241211,0.47708576917648315,-0.6572909951210022
1788676385935491800,18.700491943359374,-0.4508185386657715,0.4813618063926697,-0.30604347586631775
1788676385951391500,18.7163916015625,-0.30543261766433716,0.2583959996700287,0.22602014243602753
1788676385967260700,18.7322607421875,-0.22968533635139465,-0.07024950534105301,0.6707300543785095
1788676385983099400,18.748099365234374,-0.20830504596233368,-0.21074850857257843,0.7165449261665344
1788676385998999000,18.7639990234375,-0.16065755486488342,-0.1362229436635971,0.4434881806373596
1788676386014868000,18.779867919921877,-0.1264491081237793,0.030543262138962746,0.13316862285137177
1788676386030737200,18.795737060546877,-0.11484266817569733,0.12889257073402405,-0.14538592100143433
1788676386046667500,18.81166748046875,-0.12095131725072861,0.1215621829032898,-0.303600013256073
1788676386062536400,18.827536376953127,-0.15271630883216858,0.042760565876960754,-0.44226643443107605
1788676386078436000,18.84343603515625,-0.18814650177955627,-0.05192354694008827,-0.5302310585975647
1788676386094274800,18.85927490234375,-0.20525072515010834,-0.18509216606616974,-0.5290092825889587
1788676386110174500,18.875174560546874,-0.14355333149433136,-0.2119702398777008,-0.3854559659957886
1788676386126074000,18.89107421875,-0.030543262138962746,-0.16554448008537292,-0.09651670604944229
1788676386141943300,18.906943359375,0.01771509274840355,-0.08674286305904388,0.12950342893600464
1788676386157843000,18.922843017578124,0.013439035043120384,-0.11239920556545258,0.17592918872833252
1788676386173712100,18.938712158203124,0.01160643994808197,-0.1765400618314743,0.11972958594560623
1788676386189581300,18.954581298828124,0.007941247895359993,-0.2223549485206604,0.016493361443281174
1788676386205481000,18.97048095703125,0.00366519158706069,-0.2675589919090271,-0.1319468915462494
1788676386221350100,18.98635009765625,0.012217304669320583,-0.3072652220726013,-0.22540926933288574
1788676386245214700,19.010214599609377,0.06230825558304787,-0.2724458873271942,-0.19303341209888458
1788676386261084000,19.026083984375,0.0806342139840126,-0.2871066629886627,-0.11423180252313614
1788676386276983600,19.041983642578124,0.10384709388017654,-0.2687807083129883,-0.01466076634824276
1788676386292822300,19.057822265625,0.0959058403968811,-0.2626720666885376,0.01038470957428217
1788676386316686800,19.081686767578127,0.05803219974040985,-0.21807889640331268,-0.03726277872920036
1788676386332586500,19.09758642578125,0.10018189996480942,-0.18448130786418915,0.003054326167330146
1788676386348486100,19.113486083984377,0.2272418737411499,-0.03481931984424591,0.19486601650714874
1788676386364355300,19.129355224609377,0.40194934606552124,0.07819075137376785,0.5626068711280823
1788676386380194000,19.145194091796874,0.45142942667007446,0.07330382615327835,0.8069530129432678
1788676386396032500,19.161032470703127,0.4306600093841553,0.14538592100143433,0.846659243106842
1788676386411932400,19.176932373046874,0.3982841372489929,0.11911872029304504,0.6065891981124878
1788676386427832000,19.19283203125,0.26939156651496887,0.0507018156349659,0.051312681287527084
1788676386443731700,19.208731689453124,0.13561208546161652,0.05925392732024193,-0.5998696684837341
1788676386459600600,19.2246005859375,0.019547687843441963,0.028099801391363144,-1.072068452835083
1788676386475439400,19.240439453125,0.059864792972803116,-0.021380282938480377,-0.808174729347229
1788676386491339000,19.256339111328124,0.3237585723400116,-0.05497787147760391,0.15821409225463867
1788676386507208200,19.272208251953124,0.4966334402561188,-0.04581489413976669,0.8833111524581909
1788676386523107800,19.28810791015625,0.48685958981513977,-0.18020524084568024,1.062294602394104
1788676386538977000,19.30397705078125,0.34147366881370544,-0.30970868468284607,0.6933320760726929
1788676386554876700,19.319876708984374,0.16493362188339233,-0.4050036668777466,0.1973094791173935
1788676386570776300,19.3357763671875,0.05619960278272629,-0.4404338300228119,-0.25106561183929443
1788676386586676000,19.351676025390624,0.019547687843441963,-0.4056145250797272,-0.42760565876960754
1788676386602575600,19.36757568359375,-0.025045474991202354,-0.20402899384498596,-0.45875978469848633
1788676386618414300,19.383414306640624,-0.07269296050071716,-0.0403171069920063,-0.4105014503002167
1788676386634314000,19.39931396484375,-0.12889257073402405,-0.024434609338641167,-0.3677408695220947
1788676386650213600,19.415213623046874,-0.1417207419872284,-0.03787364438176155,-0.3341432809829712
1788676386666113300,19.43111328125,-0.0959058403968811,-0.00366519158706069,-0.2632829248905182
1788676386682043400,19.44704345703125,-0.029932396486401558,0.0006108652451075613,-0.18387043476104736
1788676386697912600,19.46291259765625,0.02687807008624077,-0.04703662544488907,-0.08429940044879913
1788676386713781800,19.47878173828125,0.04092797264456749,-0.09346238523721695,0.018936822190880775
1788676386729711900,19.4947119140625,0.054367005825042725,-0.10018189996480942,0.12339477986097336
1788676386745581000,19.5105810546875,0.04764748737215996,-0.02687807008624077,0.17531833052635193
1788676386761511200,19.52651123046875,0.004886921960860491,0.036651913076639175,0.17104226350784302
1788676386777350000,19.542349853515624,-0.030543262138962746,0.054367005825042725,0.12950342893600464
1788676386793188400,19.558188232421877,-0.07513642311096191,0.06230825558304787,0.05009094998240471
1788676386809027000,19.574027099609374,-0.11239920556545258,0.02015855349600315,-0.0024434609804302454
1788676386824926700,19.5899267578125,-0.14294247329235077,0.01466076634824276,-0.018936822190880775
1788676386840826400,19.605826416015624,-0.16920967400074005,0.04764748737215996,0.03176499158143997
1788676386856726000,19.62172607421875,-0.18875735998153687,0.15332718193531036,0.13866640627384186
1788676386872564700,19.637564697265624,-0.2064724564552307,0.23090706765651703,0.23335053026676178
1788676386896368400,19.661368408203124,-0.2223549485206604,0.2785545587539673,0.3445279896259308
1788676386912268000,19.67726806640625,-0.1918116807937622,0.29016098380088806,0.48685958981513977
1788676386928167700,19.693167724609374,-0.12950342893600464,0.34025195240974426,0.66584312915802
1788676386944036900,19.709036865234374,-0.12767083942890167,0.2626720666885376,0.769690215587616
1788676386959936500,19.7249365234375,-0.20463985204696655,0.08368854224681854,0.6291912198066711
1788676386975836200,19.740836181640624,-0.2877175211906433,-0.019547687843441963,0.23029619455337524
1788676386991674600,19.756674560546877,-0.34147366881370544,-0.06230825558304787,-0.19058994948863983
1788676387007513300,19.772513427734374,-0.36529740691185,0.01038470957428217,-0.5589417219161987
1788676387023382500,19.788382568359374,-0.31642818450927734,0.11362093687057495,-0.5589417219161987
1788676387039343000,19.804343017578127,-0.24923302233219147,0.07391469180583954,-0.14782938361167908
