time,seconds_elapsed,z,y,x
1788676367505086700,0.270086669921875,-19.68000030517578,67.19999694824219,-28.979999542236328
1788676367520956000,0.285955810546875,-19.979999542236328,67.6199951171875,-28.3799991607666
1788676367536825000,0.3018251953125,-19.799999237060547,67.55999755859375,-28.439998626708984
1788676367552755200,0.317755126953125,-19.5,66.95999908447266,-28.139999389648438
1788676367568624400,0.333624267578125,-19.439998626708984,67.37999725341797,-29.099998474121094
1788676367584493600,0.34949365234375,-19.739999771118164,67.43999481201172,-28.979999542236328
1788676367600393200,0.365393310546875,-19.31999969482422,67.55999755859375,-28.439998626708984
1788676367616323300,0.3813232421875,-19.079999923706055,67.43999481201172,-29.579999923706055
1788676367632223000,0.397222900390625,-19.619998931884766,66.72000122070312,-29.099998474121094
1788676367648153000,0.413153076171875,-19.19999885559082,67.0199966430664,-28.559999465942383
1788676367664022300,0.429022216796875,-18.84000015258789,67.13999938964844,-28.979999542236328
1788676367679891500,0.444891357421875,-18.65999984741211,67.13999938964844,-29.219999313354492
1788676367695760600,0.4607607421875,-18.53999900817871,66.23999786376953,-29.51999855041504
1788676367719625500,0.48462548828125,-18.959999084472656,66.36000061035156,-29.03999900817871
1788676367735494400,0.500494384765625,-18.959999084472656,67.43999481201172,-28.920000076293945
1788676367751424800,0.5164248046875,-18.899999618530273,67.43999481201172,-28.5
1788676367767324400,0.532324462890625,-19.68000030517578,67.26000213623047,-28.920000076293945
1788676367783193600,0.548193603515625,-19.68000030517578,67.5,-29.8799991607666
1788676367799062500,0.5640625,-19.139999389648438,67.13999938964844,-29.579999923706055
1788676367814931700,0.579931640625,-19.020000457763672,66.72000122070312,-29.459999084472656
1788676367830831400,0.595831298828125,-19.619998931884766,66.18000030517578,-29.639999389648438
1788676367846731000,0.61173095703125,-19.739999771118164,66.23999786376953,-29.15999984741211
1788676367862600200,0.62760009765625,-18.53999900817871,66.65999603271484,-28.3799991607666
1788676367878469400,0.643469482421875,-18.18000030517578,67.55999755859375,-28.5
1788676367894338600,0.659338623046875,-18.35999870300293,68.04000091552734,-28.799999237060547
1788676367910268700,0.6752685546875,-18.959999084472656,67.31999969482422,-28.31999969482422
1788676367926168300,0.691168212890625,-19.68000030517578,67.37999725341797,-28.139999389648438
1788676367942037500,0.70703759765625,-19.439998626708984,67.68000030517578,-28.739999771118164
1788676367957937200,0.722937255859375,-19.079999923706055,67.97999572753906,-29.579999923706055
1788676367973806300,0.738806396484375,-19.5,67.6199951171875,-29.279998779296875
1788676367989706000,0.7547060546875,-19.68000030517578,67.0199966430664,-28.920000076293945
1788676368005636000,0.770635986328125,-18.959999084472656,66.72000122070312,-29.51999855041504
1788676368021444000,0.786444091796875,-18.479999542236328,66.47999572753906,-28.979999542236328
1788676368037313300,0.802313232421875,-19.31999969482422,66.9000015258789,-28.85999870300293
1788676368053152000,0.818152099609375,-20.399999618530273,66.65999603271484,-29.34000015258789
1788676368069051600,0.8340517578125,-20.100000381469727,66.41999816894531,-29.51999855041504
1788676368092824800,0.857824951171875,-18.719999313354492,66.77999877929688,-28.920000076293945
1788676368108694000,0.873694091796875,-19.020000457763672,66.1199951171875,-28.68000030517578
1788676368124624100,0.8896240234375,-19.979999542236328,66.1199951171875,-29.34000015258789
1788676368140493300,0.905493408203125,-20.459999084472656,66.65999603271484,-29.399999618530273
1788676368156362500,0.921362548828125,-20.100000381469727,66.83999633789062,-28.799999237060547
1788676368172231700,0.937231689453125,-19.079999923706055,67.31999969482422,-28.619998931884766
1788676368188100600,0.9531005859375,-18.600000381469727,67.73999786376953,-29.579999923706055
1788676368204031000,0.969031005859375,-18.65999984741211,67.91999816894531,-29.459999084472656
1788676368219869400,0.984869384765625,-18.899999618530273,67.43999481201172,-28.559999465942383
1788676368235769000,1.00076904296875,-19.5,66.72000122070312,-29.15999984741211
1788676368251668700,1.016668701171875,-19.85999870300293,66.72000122070312,-29.639999389648438
1788676368267568400,1.032568359375,-19.260000228881836,67.68000030517578,-29.579999923706055
1788676368283468000,1.048468017578125,-18.53999900817871,67.19999694824219,-29.51999855041504
1788676368299367700,1.06436767578125,-18.119998931884766,66.77999877929688,-28.739999771118164
1788676368315267600,1.080267578125,-17.8799991607666,66.83999633789062,-28.31999969482422
1788676368331136500,1.096136474609375,-18.779998779296875,67.26000213623047,-28.85999870300293
1788676368347036200,1.1120361328125,-19.619998931884766,67.26000213623047,-29.51999855041504
1788676368362935800,1.127935791015625,-20.100000381469727,66.54000091552734,-29.81999969482422
1788676368378744000,1.143744140625,-19.739999771118164,66.65999603271484,-29.459999084472656
1788676368394613200,1.15961328125,-18.899999618530273,66.83999633789062,-29.579999923706055
1788676368410543400,1.17554345703125,-19.020000457763672,66.72000122070312,-29.8799991607666
1788676368426443000,1.191443115234375,-18.779998779296875,67.31999969482422,-29.219999313354492
1788676368442342700,1.2073427734375,-18.299999237060547,67.43999481201172,-28.920000076293945
1788676368458211800,1.2232119140625,-18,66.5999984741211,-29.8799991607666
1788676368474081000,1.2390810546875,-18.600000381469727,67.26000213623047,-29.579999923706055
1788676368489919500,1.25491943359375,-19.079999923706055,67.19999694824219,-29.579999923706055
1788676368505849900,1.270849853515625,-19.020000457763672,67.0199966430664,-29.8799991607666
1788676368521749500,1.28674951171875,-19.68000030517578,67.26000213623047,-29.279998779296875
1788676368537618400,1.302618408203125,-19.439998626708984,67.31999969482422,-28.619998931884766
1788676368553518000,1.31851806640625,-18.18000030517578,66.72000122070312,-28.68000030517578
1788676368569356800,1.334356689453125,-18.959999084472656,66.05999755859375,-29.579999923706055
1788676368585256400,1.35025634765625,-19.68000030517578,66.9000015258789,-29.639999389648438
1788676368601156000,1.366156005859375,-18.84000015258789,66.5999984741211,-29.34000015258789
1788676368616933600,1.38193359375,-18.719999313354492,66.23999786376953,-29.69999885559082
1788676368632802800,1.397802734375,-18.719999313354492,67.13999938964844,-29.8799991607666
1788676368648641500,1.4136416015625,-18.65999984741211,66.83999633789062,-29.399999618530273
1788676368664541200,1.429541259765625,-19.19999885559082,66.36000061035156,-29.459999084472656
1788676368680440800,1.44544091796875,-19.31999969482422,66.36000061035156,-29.459999084472656
1788676368696218400,1.46121826171875,-18.65999984741211,66.36000061035156,-29.279998779296875
1788676368712087600,1.477087646484375,-18.299999237060547,67.0199966430664,-29.51999855041504
1788676368727987200,1.4929873046875,-18.899999618530273,67.13999938964844,-28.799999237060547
1788676368743917300,1.508917236328125,-19.139999389648438,67.26000213623047,-28.739999771118164
1788676368759786500,1.524786376953125,-18.959999084472656,66.95999908447266,-29.51999855041504
1788676368775655700,1.54065576171875,-19.139999389648438,66.41999816894531,-29.459999084472656
1788676368791555300,1.556555419921875,-18.600000381469727,66.23999786376953,-29.51999855041504
1788676368807424500,1.572424560546875,-18.420000076293945,66.36000061035156,-30.299999237060547
1788676368823324200,1.58832421875,-18.53999900817871,67.5,-30.239999771118164
1788676368847127800,1.6121279296875,-18.779998779296875,67.6199951171875,-29.219999313354492
1788676368863027500,1.62802734375,-18.779998779296875,67.08000183105469,-29.099998474121094
1788676368878896600,1.643896728515625,-19.139999389648438,67.13999938964844,-29.03999900817871
1788676368894796300,1.65979638671875,-19.260000228881836,66.72000122070312,-28.979999542236328
1788676368910696000,1.675696044921875,-19.020000457763672,66.1199951171875,-29.579999923706055
1788676368926534700,1.69153466796875,-18.779998779296875,66.65999603271484,-29.639999389648438
1788676368942464800,1.70746484375,-18.719999313354492,67.0199966430664,-29.15999984741211
1788676368958334000,1.723333984375,-18.779998779296875,67.13999938964844,-29.459999084472656
1788676368974203000,1.739202880859375,-18.239999771118164,67.08000183105469,-29.8799991607666
1788676368990102800,1.755102783203125,-18.479999542236328,66.95999908447266,-29.8799991607666
1788676369013906400,1.778906494140625,-18.059999465942383,66.1199951171875,-29.760000228881836
1788676369029775600,1.794775634765625,-18.35999870300293,65.63999938964844,-30.17999839782715
1788676369045614000,1.810614013671875,-19.020000457763672,66.05999755859375,-30.17999839782715
1788676369061575000,1.826574951171875,-18.959999084472656,66.41999816894531,-29.579999923706055
1788676369077413400,1.842413330078125,-18.779998779296875,65.93999481201172,-29.34000015258789
1788676369093282600,1.858282470703125,-19.079999923706055,65.27999877929688,-29.03999900817871
1788676369109182200,1.87418212890625,-18.420000076293945,64.97999572753906,-29.69999885559082
1788676369125081900,1.890081787109375,-17.579999923706055,65.4000015258789,-30.420000076293945
1788676369140981500,1.9059814453125,-17.639999389648438,66.29999542236328,-29.639999389648438
1788676369156911900,1.921911865234375,-17.760000228881836,65.93999481201172,-29.51999855041504
1788676369172689400,1.937689453125,-16.979999542236328,65.87999725341797,-29.51999855041504
1788676369188589000,1.953589111328125,-16.799999237060547,66.05999755859375,-29.279998779296875
1788676369204458200,1.969458251953125,-16.799999237060547,65.81999969482422,-29.939998626708984
1788676369220358000,1.98535791015625,-16.619998931884766,66.1199951171875,-30.299999237060547
1788676369236257500,2.001257568359375,-17.279998779296875,65.81999969482422,-29.939998626708984
1788676369252096000,2.017095947265625,-16.799999237060547,65.69999694824219,-29.639999389648438
1788676369267995600,2.03299560546875,-16.979999542236328,66.83999633789062,-30.059999465942383
1788676369283926000,2.048926025390625,-17.940000534057617,67.19999694824219,-30.119998931884766
1788676369299856100,2.064856201171875,-17.399999618530273,66.41999816894531,-29.399999618530273
1788676369315755800,2.080755859375,-16.920000076293945,66.23999786376953,-29.219999313354492
1788676369331625000,2.096625,-16.68000030517578,66.41999816894531,-29.279998779296875
1788676369347524600,2.112524658203125,-16.739999771118164,66.18000030517578,-29.279998779296875
1788676369363424300,2.12842431640625,-17.34000015258789,66.23999786376953,-29.15999984741211
1788676369379324000,2.144323974609375,-17.100000381469727,66.5999984741211,-28.920000076293945
1788676369395193000,2.160193115234375,-16.68000030517578,66.83999633789062,-29.03999900817871
1788676369411062000,2.17606201171875,-16.920000076293945,66.83999633789062,-29.219999313354492
1788676369426931200,2.19193115234375,-16.920000076293945,66.36000061035156,-29.51999855041504
1788676369442800400,2.20780029296875,-17.459999084472656,66.23999786376953,-29.639999389648438
1788676369458730500,2.22373046875,-17.279998779296875,66.41999816894531,-29.8799991607666
1788676369474599700,2.239599609375,-16.619998931884766,66.29999542236328,-30.239999771118164
1788676369490468900,2.25546875,-16.5,66.72000122070312,-29.69999885559082
1788676369506368500,2.271368408203125,-16.619998931884766,67.19999694824219,-29.579999923706055
1788676369522207200,2.287207275390625,-17.34000015258789,66.65999603271484,-29.399999618530273
1788676369538137300,2.303137451171875,-16.739999771118164,65.63999938964844,-29.03999900817871
1788676369554037000,2.319037109375,-16.3799991607666,66.23999786376953,-29.099998474121094
1788676369569906200,2.33490625,-16.5,66.54000091552734,-29.939998626708984
1788676369585775400,2.350775390625,-16.68000030517578,65.93999481201172,-30.299999237060547
1788676369601613800,2.36661376953125,-17.8799991607666,65.81999969482422,-29.8799991607666
1788676369617544200,2.382544189453125,-18.35999870300293,65.87999725341797,-30.119998931884766
1788676369633443800,2.39844384765625,-18,65.81999969482422,-30.119998931884766
1788676369649312800,2.414312744140625,-17.579999923706055,66.05999755859375,-29.760000228881836
1788676369665182000,2.430181884765625,-17.520000457763672,66,-29.81999969482422
1788676369681051100,2.446051025390625,-18.18000030517578,65.33999633789062,-30.35999870300293
1788676369697012000,2.462011962890625,-18.479999542236328,65.04000091552734,-31.01999855041504
1788676369712881000,2.477880859375,-17.579999923706055,65.76000213623047,-30.599998474121094
1788676369728750000,2.49375,-17.219999313354492,65.87999725341797,-30.420000076293945
1788676369744588800,2.5095888671875,-17.279998779296875,65.4000015258789,-29.760000228881836
1788676369760458000,2.5254580078125,-16.799999237060547,65.58000183105469,-29.219999313354492
1788676369776388000,2.54138818359375,-16.3799991607666,65.0999984741211,-29.15999984741211
1788676369792287700,2.557287841796875,-16.85999870300293,65.45999908447266,-28.619998931884766
1788676369808157000,2.573156982421875,-17.03999900817871,66.18000030517578,-29.459999084472656
1788676369824056600,2.589056640625,-17.03999900817871,65.4000015258789,-30.059999465942383
1788676369839925800,2.60492578125,-17.459999084472656,65.27999877929688,-30.119998931884766
1788676369855855900,2.62085595703125,-17.81999969482422,66.1199951171875,-30.65999984741211
1788676369871755500,2.636755615234375,-17.34000015258789,66.47999572753906,-30.059999465942383
1788676369887624700,2.652624755859375,-17.579999923706055,66.23999786376953,-29.34000015258789
1788676369903524400,2.6685244140625,-18.479999542236328,66.23999786376953,-29.459999084472656
1788676369919393500,2.6843935546875,-18.420000076293945,65.76000213623047,-29.69999885559082
1788676369935323600,2.70032373046875,-18.600000381469727,65.5199966430664,-29.760000228881836
1788676369951223300,2.716223388671875,-17.579999923706055,65.76000213623047,-29.51999855041504
1788676369967092500,2.732092529296875,-16.440000534057617,66,-29.099998474121094
1788676369982992100,2.7479921875,-17.03999900817871,66.18000030517578,-29.15999984741211
1788676369998861300,2.763861328125,-17.760000228881836,66.18000030517578,-29.399999618530273
1788676370014822000,2.77982177734375,-17.279998779296875,66.65999603271484,-29.15999984741211
1788676370030691000,2.795691162109375,-17.69999885559082,66.65999603271484,-28.85999870300293
1788676370046560300,2.811560302734375,-18.059999465942383,66.1199951171875,-28.739999771118164
1788676370062429400,2.827429443359375,-17.520000457763672,66.54000091552734,-28.799999237060547
1788676370078329000,2.8433291015625,-17.399999618530273,66.9000015258789,-28.139999389648438
1788676370094228700,2.859228759765625,-17.279998779296875,66.95999908447266,-28.439998626708984
1788676370110097700,2.87509765625,-17.69999885559082,66.95999908447266,-28.559999465942383
1788676370125936400,2.890936279296875,-17.69999885559082,66.18000030517578,-28.799999237060547
1788676370141805600,2.9068056640625,-17.8799991607666,66.18000030517578,-29.34000015258789
1788676370157674800,2.9226748046875,-17.69999885559082,67.13999938964844,-29.15999984741211
1788676370173574400,2.938574462890625,-16.85999870300293,67.13999938964844,-29.51999855041504
1788676370189474000,2.95447412109375,-16.799999237060547,67.13999938964844,-29.579999923706055
1788676370205312500,2.9703125,-16.619998931884766,67.13999938964844,-29.219999313354492
1788676370221212200,2.986212158203125,-16.85999870300293,67.19999694824219,-28.979999542236328
1788676370237142500,3.002142578125,-17.100000381469727,66.77999877929688,-28.3799991607666
1788676370253042200,3.018042236328125,-16.979999542236328,66.1199951171875,-28.3799991607666
1788676370268941800,3.03394189453125,-17.34000015258789,66.72000122070312,-28.920000076293945
1788676370284749800,3.049749755859375,-17.459999084472656,67.37999725341797,-28.739999771118164
1788676370300619000,3.065618896484375,-17.69999885559082,67.6199951171875,-28.920000076293945
1788676370316549000,3.081549072265625,-18.18000030517578,66.5999984741211,-29.15999984741211
1788676370332448800,3.09744873046875,-18.119998931884766,66.72000122070312,-29.459999084472656
1788676370348348400,3.113348388671875,-17.399999618530273,68.04000091552734,-29.399999618530273
1788676370364217600,3.129217529296875,-17.34000015258789,67.79999542236328,-28.85999870300293
1788676370380117200,3.1451171875,-17.81999969482422,67.68000030517578,-28.920000076293945
1788676370396047400,3.16104736328125,-17.15999984741211,67.5,-29.099998474121094
1788676370411947300,3.176947265625,-16.68000030517578,67.26000213623047,-28.85999870300293
1788676370427847000,3.192846923828125,-17.459999084472656,68.0999984741211,-29.15999984741211
1788676370443655000,3.208655029296875,-18.059999465942383,67.86000061035156,-28.739999771118164
1788676370459524000,3.224524169921875,-17.69999885559082,67.19999694824219,-28.3799991607666
1788676370475423700,3.240423828125,-17.579999923706055,68.15999603271484,-28.739999771118164
1788676370491353900,3.256353759765625,-17.760000228881836,67.6199951171875,-28.439998626708984
1788676370507192600,3.272192626953125,-17.69999885559082,66.5999984741211,-28.31999969482422
1788676370523061800,3.288061767578125,-17.940000534057617,67.31999969482422,-28.31999969482422
1788676370538961400,3.30396142578125,-18.059999465942383,68.33999633789062,-28.559999465942383
1788676370554861000,3.319861083984375,-17.940000534057617,67.97999572753906,-28.559999465942383
1788676370578695200,3.343695068359375,-17.279998779296875,66.47999572753906,-28.139999389648438
1788676370594564400,3.359564453125,-17.219999313354492,66.36000061035156,-28.68000030517578
1788676370610433500,3.37543359375,-17.279998779296875,67.31999969482422,-29.099998474121094
1788676370626333200,3.391333251953125,-17.579999923706055,67.79999542236328,-28.799999237060547
1788676370642141200,3.40714111328125,-17.100000381469727,67.97999572753906,-28.01999855041504
1788676370658010400,3.42301025390625,-17.34000015258789,68.15999603271484,-27.899999618530273
1788676370673879600,3.438879638671875,-18.600000381469727,67.91999816894531,-28.139999389648438
1788676370689779200,3.454779296875,-18.420000076293945,67.43999481201172,-28.139999389648438
1788676370705709300,3.470709228515625,-18.299999237060547,67.13999938964844,-28.5
1788676370721517600,3.486517578125,-18.239999771118164,67.31999969482422,-28.559999465942383
1788676370737386500,3.502386474609375,-18.959999084472656,67.43999481201172,-27.959999084472656
1788676370753255700,3.518255615234375,-19.619998931884766,66.9000015258789,-27.65999984741211
1788676370769124900,3.534124755859375,-19.31999969482422,66.77999877929688,-28.01999855041504
1788676370784994000,3.549994140625,-19.31999969482422,66.9000015258789,-28.559999465942383
1788676370800893700,3.565893798828125,-18.899999618530273,67.0199966430664,-28.68000030517578
1788676370816763000,3.581762939453125,-18.65999984741211,67.37999725341797,-28.3799991607666
1788676370832693000,3.59769287109375,-18.65999984741211,67.79999542236328,-28.559999465942383
1788676370848592600,3.613592529296875,-18.420000076293945,68.33999633789062,-29.279998779296875
1788676370864461800,3.6294619140625,-17.399999618530273,68.87999725341797,-28.68000030517578
1788676370880331000,3.6453310546875,-17.100000381469727,68.45999908447266,-28.139999389648438
1788676370896200200,3.6612001953125,-17.940000534057617,68.04000091552734,-28.619998931884766
1788676370912069000,3.677069091796875,-17.760000228881836,67.79999542236328,-28.619998931884766
1788676370927968800,3.69296875,-17.579999923706055,67.5,-27.959999084472656
1788676370943838000,3.708837890625,-17.760000228881836,68.0999984741211,-28.19999885559082
1788676370959676700,3.7246767578125,-17.940000534057617,68.63999938964844,-28.31999969482422
1788676370975545900,3.7405458984375,-18.299999237060547,68.93999481201172,-27.599998474121094
1788676370991415000,3.7564150390625,-17.760000228881836,68.33999633789062,-27.899999618530273
1788676371007284000,3.772283935546875,-17.579999923706055,67.6199951171875,-28.260000228881836
1788676371023183600,3.78818359375,-17.69999885559082,68.27999877929688,-27.899999618530273
1788676371039052800,3.804052734375,-17.399999618530273,68.27999877929688,-27.84000015258789
1788676371054891500,3.8198916015625,-18.18000030517578,67.97999572753906,-28.079999923706055
1788676371070760700,3.8357607421875,-19.19999885559082,69.05999755859375,-28.68000030517578
1788676371086660400,3.851660400390625,-18.53999900817871,69.23999786376953,-28.559999465942383
1788676371102560000,3.86756005859375,-18,68.33999633789062,-28.139999389648438
1788676371118398500,3.8833984375,-18.420000076293945,68.33999633789062,-28.68000030517578
1788676371134298000,3.899298095703125,-18.65999984741211,69.1199951171875,-28.920000076293945
1788676371150167300,3.915167236328125,-17.81999969482422,69.23999786376953,-28.439998626708984
1788676371166463700,3.931463623046875,-16.799999237060547,69,-27.599998474121094
1788676371182027800,3.94702783203125,-16.85999870300293,68.63999938964844,-27.239999771118164
1788676371197866200,3.9628662109375,-17.279998779296875,68.58000183105469,-27.599998474121094
1788676371213735400,3.9787353515625,-17.34000015258789,68.33999633789062,-27.959999084472656
1788676371229665500,3.99466552734375,-17.520000457763672,67.55999755859375,-28.19999885559082
1788676371245565200,4.010565185546875,-17.639999389648438,67.68000030517578,-28.439998626708984
1788676371261434400,4.026434326171875,-18.119998931884766,68.04000091552734,-28.31999969482422
1788676371277303600,4.042303466796875,-17.8799991607666,67.37999725341797,-28.439998626708984
1788676371293172700,4.0581728515625,-17.760000228881836,67.31999969482422,-29.099998474121094
1788676371309042000,4.0740419921875,-17.81999969482422,68.15999603271484,-29.219999313354492
1788676371324972000,4.089971923828125,-17.459999084472656,67.86000061035156,-28.799999237060547
1788676371340871700,4.10587158203125,-17.100000381469727,67.5,-29.15999984741211
1788676371356710400,4.12171044921875,-16.619998931884766,67.43999481201172,-29.03999900817871
1788676371372610000,4.137610107421875,-17.219999313354492,67.37999725341797,-28.920000076293945
1788676371388479200,4.153479248046875,-17.940000534057617,67.08000183105469,-28.85999870300293
1788676371404409300,4.169409423828125,-18,66.65999603271484,-28.260000228881836
1788676371420339500,4.18533935546875,-17.579999923706055,66.36000061035156,-28.739999771118164
1788676371436178200,4.20117822265625,-17.579999923706055,65.33999633789062,-29.34000015258789
1788676371452077800,4.217077880859375,-17.69999885559082,64.91999816894531,-29.760000228881836
1788676371468038400,4.233038330078125,-17.459999084472656,65.33999633789062,-29.760000228881836
1788676371483938000,4.24893798828125,-17.459999084472656,65.81999969482422,-29.639999389648438
1788676371499807200,4.26480712890625,-17.760000228881836,66,-30.059999465942383
1788676371515676400,4.280676513671875,-17.399999618530273,66.47999572753906,-29.579999923706055
1788676371531515100,4.29651513671875,-17.219999313354492,66.29999542236328,-28.979999542236328
1788676371547445200,4.3124453125,-17.579999923706055,66.23999786376953,-29.760000228881836
1788676371563345000,4.328344970703125,-17.219999313354492,66.23999786376953,-29.939998626708984
1788676371579275000,4.34427490234375,-16.799999237060547,65.63999938964844,-29.8799991607666
1788676371595083000,4.3600830078125,-17.34000015258789,65.63999938964844,-29.760000228881836
1788676371610921700,4.375921630859375,-17.15999984741211,65.5199966430664,-29.099998474121094
1788676371626791000,4.391791015625,-16.85999870300293,65.04000091552734,-29.099998474121094
1788676371642721000,4.407720947265625,-17.520000457763672,64.86000061035156,-28.68000030517578
1788676371658559700,4.423559814453125,-17.459999084472656,65.04000091552734,-28.739999771118164
1788676371674429000,4.439428955078125,-17.34000015258789,65.0999984741211,-29.219999313354492
1788676371690267400,4.455267333984375,-17.940000534057617,64.86000061035156,-29.099998474121094
1788676371706136600,4.471136474609375,-17.8799991607666,64.31999969482422,-29.219999313354492
1788676371722005800,4.487005859375,-17.81999969482422,64.6199951171875,-29.219999313354492
1788676371737905400,4.502905517578125,-17.760000228881836,65.27999877929688,-29.34000015258789
1788676371753805000,4.51880517578125,-17.399999618530273,65.76000213623047,-29.579999923706055
1788676371769704700,4.53470458984375,-17.760000228881836,65.81999969482422,-28.979999542236328
1788676371785574000,4.550573974609375,-18.35999870300293,65.69999694824219,-28.739999771118164
1788676371801473500,4.5664736328125,-18.059999465942383,65.4000015258789,-28.5
1788676371817373200,4.582373291015625,-18,65.63999938964844,-28.439998626708984
1788676371833242400,4.598242431640625,-18.18000030517578,66,-29.099998474121094
1788676371849142000,4.61414208984375,-18.479999542236328,65.93999481201172,-28.68000030517578
1788676371865011200,4.63001123046875,-18.239999771118164,66.5999984741211,-28.260000228881836
1788676371880910800,4.645910888671875,-17.8799991607666,66.83999633789062,-28.260000228881836
1788676371896810500,4.661810546875,-19.19999885559082,66.77999877929688,-28.439998626708984
1788676371912588000,4.677588134765625,-19.439998626708984,66.83999633789062,-28.5
1788676371928396000,4.69339599609375,-19.3799991607666,67.43999481201172,-28.559999465942383
1788676371944265200,4.70926513671875,-19.19999885559082,67.86000061035156,-27.899999618530273
1788676371960195300,4.7251953125,-18.53999900817871,67.97999572753906,-28.079999923706055
1788676371976064500,4.741064453125,-18.119998931884766,67.97999572753906,-28.799999237060547
1788676371991903200,4.7569033203125,-18.059999465942383,67.97999572753906,-27.899999618530273
1788676372007803000,4.772802978515625,-17.81999969482422,68.33999633789062,-28.01999855041504
1788676372023702500,4.78870263671875,-18.119998931884766,68.04000091552734,-28.439998626708984
1788676372039632600,4.804632568359375,-18.059999465942383,67.5,-28.739999771118164
1788676372055532300,4.8205322265625,-17.69999885559082,67.79999542236328,-28.260000228881836
1788676372071309800,4.836309814453125,-18.299999237060547,68.4000015258789,-27.65999984741211
1788676372087179000,4.852178955078125,-18.959999084472656,68.4000015258789,-28.619998931884766
1788676372103078700,4.86807861328125,-18.479999542236328,68.45999908447266,-28.799999237060547
1788676372118978300,4.883978271484375,-18.18000030517578,68.93999481201172,-28.31999969482422
1788676372134878000,4.8998779296875,-18.239999771118164,69.65999603271484,-28.799999237060547
1788676372150716700,4.915716552734375,-17.8799991607666,69.83999633789062,-28.799999237060547
1788676372166616300,4.9316162109375,-18,69.41999816894531,-27.959999084472656
1788676372182485500,4.947485595703125,-18.239999771118164,69.54000091552734,-28.5
1788676372198385200,4.96338525390625,-18.119998931884766,70.13999938964844,-28.01999855041504
1788676372214284800,4.979284912109375,-18.35999870300293,70.19999694824219,-27.779998779296875
1788676372230062300,4.995062255859375,-18.479999542236328,70.0199966430664,-28.68000030517578
1788676372245962000,5.0109619140625,-17.639999389648438,70.19999694824219,-28.31999969482422
1788676372261892000,5.02689208984375,-17.940000534057617,70.13999938964844,-27.84000015258789
1788676372277792000,5.0427919921875,-18.53999900817871,69.41999816894531,-28.139999389648438
1788676372293630500,5.05863037109375,-17.520000457763672,69.36000061035156,-28.559999465942383
1788676372309499600,5.074499755859375,-17.279998779296875,69.65999603271484,-28.5
1788676372325399300,5.0903994140625,-17.69999885559082,69.95999908447266,-28.260000228881836
1788676372341268500,5.1062685546875,-17.639999389648438,70.55999755859375,-27.899999618530273
1788676372357198600,5.122198486328125,-17.279998779296875,71.04000091552734,-28.139999389648438
1788676372373128700,5.138128662109375,-17.279998779296875,71.15999603271484,-28.619998931884766
1788676372388937000,5.15393701171875,-17.760000228881836,70.55999755859375,-28.3799991607666
1788676372404806100,5.16980615234375,-17.760000228881836,70.37999725341797,-28.31999969482422
1788676372420675000,5.185675048828125,-18.119998931884766,69.9000015258789,-27.899999618530273
1788676372436574700,5.20157470703125,-18.18000030517578,69.54000091552734,-27.059999465942383
1788676372452505000,5.217505126953125,-17.81999969482422,69.65999603271484,-27.299999237060547
1788676372468282600,5.23328271484375,-17.579999923706055,69.9000015258789,-28.01999855041504
1788676372484151800,5.24915185546875,-17.940000534057617,70.37999725341797,-28.619998931884766
1788676372500051500,5.265051513671875,-18.35999870300293,70.08000183105469,-28.5
1788676372515920600,5.280920654296875,-18.18000030517578,69.5999984741211,-28.19999885559082
1788676372531850800,5.296850830078125,-18.299999237060547,69.65999603271484,-28.19999885559082
1788676372547658800,5.31265869140625,-19.139999389648438,69.36000061035156,-28.19999885559082
1788676372563528000,5.32852783203125,-19.619998931884766,69.1199951171875,-28.079999923706055
1788676372579366700,5.34436669921875,-19.559999465942383,69.18000030517578,-27.420000076293945
1788676372595296800,5.360296875,-19.68000030517578,69.29999542236328,-27.420000076293945
1788676372611166000,5.376166015625,-18.84000015258789,69.18000030517578,-27.53999900817871
1788676372627035100,5.39203515625,-19.31999969482422,68.76000213623047,-27.599998474121094
1788676372642904000,5.407904052734375,-20.100000381469727,68.87999725341797,-27.599998474121094
1788676372658803700,5.4238037109375,-19.3799991607666,68.33999633789062,-27.059999465942383
1788676372674673000,5.4396728515625,-19.619998931884766,67.31999969482422,-26.8799991607666
1788676372690572500,5.455572509765625,-20.520000457763672,67.19999694824219,-27
1788676372706380800,5.471380859375,-20.399999618530273,67.5,-27.35999870300293
1788676372722180600,5.4871806640625,-20.399999618530273,68.0999984741211,-27.959999084472656
1788676372738080300,5.503080322265625,-21.18000030517578,68.33999633789062,-28.079999923706055
1788676372753980000,5.51897998046875,-21.239999771118164,67.79999542236328,-27.239999771118164
1788676372769910000,5.534909912109375,-21.18000030517578,67.08000183105469,-27.059999465942383
1788676372785779200,5.550779296875,-21.239999771118164,67.08000183105469,-27.719999313354492
1788676372801648400,5.5666484375,-21.600000381469727,66.72000122070312,-27.899999618530273
1788676372817548000,5.582548095703125,-22.979999542236328,66.23999786376953,-27.719999313354492
1788676372833447700,5.59844775390625,-22.85999870300293,65.81999969482422,-27.299999237060547
1788676372849347300,5.614347412109375,-22.139999389648438,65.87999725341797,-27.479999542236328
1788676372865155600,5.630155517578125,-22.260000228881836,66.47999572753906,-27.479999542236328
1788676372881055200,5.64605517578125,-21.959999084472656,66.1199951171875,-27.53999900817871
1788676372896924400,5.66192431640625,-20.399999618530273,66.36000061035156,-28.260000228881836
1788676372912854500,5.6778544921875,-19.920000076293945,66.54000091552734,-27.599998474121094
1788676372928784600,5.69378466796875,-21.18000030517578,66.36000061035156,-27.18000030517578
1788676372944623400,5.709623291015625,-21.420000076293945,66.23999786376953,-27.84000015258789
1788676372960492300,5.7254921875,-21.059999465942383,66.36000061035156,-27.959999084472656
1788676372976392200,5.74139208984375,-20.939998626708984,66.5999984741211,-27.959999084472656
1788676372992261000,5.75726123046875,-20.939998626708984,66.65999603271484,-28.01999855041504
1788676373008160800,5.773160888671875,-20.579999923706055,67.19999694824219,-27.719999313354492
1788676373023938600,5.7889384765625,-20.520000457763672,67.79999542236328,-27.18000030517578
1788676373039807500,5.804807373046875,-19.979999542236328,67.6199951171875,-27
1788676373055676700,5.8206767578125,-19.439998626708984,67.86000061035156,-27.059999465942383
1788676373071637500,5.836637451171875,-20.100000381469727,67.79999542236328,-27.059999465942383
1788676373087506700,5.852506591796875,-20.520000457763672,67.5,-27
1788676373103375600,5.868375732421875,-20.579999923706055,67.86000061035156,-27.35999870300293
1788676373119275300,5.884275146484375,-21,68.45999908447266,-27.53999900817871
1788676373135205600,5.90020556640625,-21.420000076293945,69.36000061035156,-26.459999084472656
1788676373151501800,5.916501708984375,-21.84000015258789,69.1199951171875,-25.68000030517578
1788676373167005000,5.9320048828125,-21.899999618530273,68.69999694824219,-25.979999542236328
1788676373182843400,5.947843505859375,-21.719999313354492,68.45999908447266,-26.639999389648438
1788676373198712600,5.963712646484375,-21.299999237060547,69.18000030517578,-26.51999855041504
1788676373214551300,5.97955126953125,-20.520000457763672,70.0199966430664,-26.099998474121094
1788676373230481400,5.9954814453125,-20.69999885559082,69.95999908447266,-26.15999984741211
1788676373246381000,6.011381103515625,-21.119998931884766,69.9000015258789,-25.68000030517578
1788676373262219800,6.0272197265625,-21.18000030517578,69.77999877929688,-25.85999870300293
1788676373278089000,6.0430888671875,-21.059999465942383,70.0199966430664,-26.099998474121094
1788676373293988600,6.058988525390625,-20.399999618530273,69.83999633789062,-25.619998931884766
1788676373309888300,6.07488818359375,-20.219999313354492,69.72000122070312,-25.559999465942383
1788676373325788000,6.090787841796875,-20.399999618530273,70.31999969482422,-25.799999237060547
1788676373341626400,6.10662646484375,-20.279998779296875,70.79999542236328,-26.219999313354492
1788676373357526000,6.122526123046875,-20.459999084472656,70.6199951171875,-26.579999923706055
1788676373373456400,6.138456298828125,-20.279998779296875,70.0199966430664,-26.399999618530273
1788676373389356000,6.15435595703125,-20.15999984741211,70.26000213623047,-25.979999542236328
1788676373405286100,6.1702861328125,-20.100000381469727,70.79999542236328,-25.920000076293945
1788676373421155300,6.1861552734375,-20.459999084472656,71.15999603271484,-26.099998474121094
1788676373437024500,6.2020244140625,-21.600000381469727,71.33999633789062,-25.799999237060547
1788676373452924200,6.217924072265625,-21.18000030517578,71.04000091552734,-25.619998931884766
1788676373468854300,6.233854248046875,-20.8799991607666,70.79999542236328,-25.260000228881836
1788676373484723500,6.249723388671875,-21,70.26000213623047,-25.799999237060547
1788676373500623000,6.265623046875,-20.81999969482422,70.73999786376953,-26.69999885559082
1788676373516492300,6.2814921875,-21.059999465942383,71.04000091552734,-25.979999542236328
1788676373532330800,6.297330810546875,-20.639999389648438,70.68000030517578,-25.3799991607666
1788676373548291600,6.31329150390625,-20.579999923706055,70.79999542236328,-25.559999465942383
1788676373564160500,6.329160400390625,-21.600000381469727,70.86000061035156,-26.399999618530273
1788676373579968800,6.34496875,-21.239999771118164,70.26000213623047,-26.34000015258789
1788676373595868400,6.360868408203125,-20.579999923706055,69.47999572753906,-25.559999465942383
1788676373611768000,6.37676806640625,-20.760000228881836,69.72000122070312,-25.559999465942383
1788676373627637200,6.39263720703125,-20.579999923706055,70.26000213623047,-26.459999084472656
1788676373643567400,6.4085673828125,-20.69999885559082,70.37999725341797,-26.639999389648438
1788676373659406000,6.424406005859375,-21.35999870300293,69.29999542236328,-26.03999900817871
1788676373675305700,6.4403056640625,-22.799999237060547,68.04000091552734,-25.739999771118164
1788676373691174700,6.456174560546875,-22.920000076293945,67.5,-25.3799991607666
1788676373707105000,6.47210498046875,-21.959999084472656,68.15999603271484,-25.3799991607666
1788676373722974200,6.48797412109375,-21.959999084472656,69.36000061035156,-25.5
1788676373738782200,6.5037822265625,-21.420000076293945,69.1199951171875,-26.34000015258789
1788676373754651400,6.5196513671875,-21.600000381469727,69,-26.939998626708984
1788676373770551000,6.535551025390625,-21.84000015258789,68.63999938964844,-26.579999923706055
1788676373786481200,6.551481201171875,-21.65999984741211,68.45999908447266,-26.69999885559082
1788676373802350300,6.567350341796875,-21.959999084472656,68.04000091552734,-26.399999618530273
1788676373818219500,6.583219482421875,-22.559999465942383,67.43999481201172,-26.459999084472656
1788676373834088700,6.599088623046875,-22.19999885559082,67.79999542236328,-27.239999771118164
1788676373849988400,6.61498828125,-21.899999618530273,67.0199966430664,-27.479999542236328
1788676373865857300,6.630857177734375,-22.559999465942383,66.5999984741211,-27.299999237060547
1788676373881787600,6.64678759765625,-22.439998626708984,66.47999572753906,-27.299999237060547
1788676373897626000,6.662626220703125,-22.260000228881836,66.05999755859375,-27.779998779296875
1788676373913525800,6.67852587890625,-22.619998931884766,66.1199951171875,-27.84000015258789
1788676373929395000,6.69439501953125,-22.260000228881836,66.18000030517578,-27.53999900817871
1788676373945294600,6.710294677734375,-21.65999984741211,66.36000061035156,-27.779998779296875
1788676373961194200,6.7261943359375,-21.35999870300293,66.47999572753906,-27.35999870300293
1788676373977033000,6.742032958984375,-21.479999542236328,66.41999816894531,-26.939998626708984
1788676373992932600,6.7579326171875,-22.260000228881836,66.47999572753906,-27.53999900817871
1788676374008801800,6.7738017578125,-22.19999885559082,66.83999633789062,-27.899999618530273
1788676374024732000,6.78973193359375,-21.899999618530273,66.9000015258789,-27.959999084472656
1788676374040631600,6.805631591796875,-21.84000015258789,66.65999603271484,-27.84000015258789
1788676374056439600,6.821439453125,-21.65999984741211,66.83999633789062,-27.479999542236328
1788676374072308700,6.837308837890625,-22.079999923706055,66.29999542236328,-27.65999984741211
1788676374088208400,6.85320849609375,-21.600000381469727,65.27999877929688,-28.31999969482422
1788676374104108000,6.86910791015625,-21.299999237060547,65.69999694824219,-28.260000228881836
1788676374120007700,6.885007568359375,-21.479999542236328,66.77999877929688,-28.079999923706055
1788676374135816000,6.90081591796875,-21.899999618530273,66.9000015258789,-28.079999923706055
1788676374151685000,6.91668505859375,-21.420000076293945,66.5999984741211,-28.5
1788676374167554000,6.932553955078125,-21.059999465942383,66.65999603271484,-29.099998474121094
1788676374183484400,6.948484375,-21.479999542236328,66.41999816894531,-28.68000030517578
1788676374199384000,6.964384033203125,-21.299999237060547,66.41999816894531,-28.439998626708984
1788676374215253200,6.980253173828125,-21.420000076293945,67.31999969482422,-28.68000030517578
1788676374231122200,6.9961220703125,-21.600000381469727,67.5,-27.84000015258789
1788676374246991400,7.011991455078125,-22.079999923706055,67.37999725341797,-27.779998779296875
1788676374262860500,7.027860595703125,-22.079999923706055,67.68000030517578,-28.079999923706055
1788676374278760200,7.04376025390625,-21.719999313354492,68.15999603271484,-27.479999542236328
1788676374294599000,7.059598876953125,-21.719999313354492,68.04000091552734,-27.420000076293945
1788676374310468000,7.075468017578125,-21.420000076293945,67.6199951171875,-27.779998779296875
1788676374326337000,7.0913369140625,-20.8799991607666,68.22000122070312,-28.31999969482422
1788676374342297900,7.1072978515625,-20.69999885559082,68.45999908447266,-28.260000228881836
1788676374358136600,7.123136474609375,-21.299999237060547,68.63999938964844,-28.19999885559082
1788676374374005500,7.139005615234375,-21,69.1199951171875,-28.5
1788676374389844200,7.15484423828125,-20.760000228881836,68.63999938964844,-28.739999771118164
1788676374405774300,7.1707744140625,-21.18000030517578,68.69999694824219,-28.799999237060547
1788676374421674000,7.186674072265625,-20.939998626708984,69.29999542236328,-28.85999870300293
1788676374437604400,7.202604248046875,-21.239999771118164,69,-28.5
1788676374453412400,7.218412353515625,-21.84000015258789,68.69999694824219,-28.619998931884766
1788676374469281500,7.234281494140625,-21.420000076293945,69.47999572753906,-28.739999771118164
1788676374485150700,7.250150634765625,-20.939998626708984,69.41999816894531,-28.3799991607666
1788676374501019600,7.26601953125,-21.239999771118164,68.93999481201172,-28.31999969482422
1788676374516888800,7.281888916015625,-22.079999923706055,69.54000091552734,-28.079999923706055
1788676374532758000,7.297758056640625,-22.619998931884766,69.36000061035156,-27.84000015258789
1788676374548657700,7.31365771484375,-22.020000457763672,69.05999755859375,-28.19999885559082
1788676374564526800,7.32952685546875,-21.719999313354492,69.18000030517578,-28.85999870300293
1788676374580426500,7.345426513671875,-21,69.65999603271484,-28.85999870300293
1788676374596265200,7.36126513671875,-20.69999885559082,70.19999694824219,-28.68000030517578
1788676374612134100,7.377134033203125,-21.18000030517578,69.54000091552734,-28.260000228881836
1788676374628033800,7.39303369140625,-22.079999923706055,68.81999969482422,-28.01999855041504
1788676374643903000,7.408903076171875,-22.020000457763672,68.81999969482422,-28.139999389648438
1788676374659833300,7.424833251953125,-21.059999465942383,68.81999969482422,-28.3799991607666
1788676374675733000,7.44073291015625,-20.939998626708984,68.81999969482422,-28.559999465942383
1788676374691602000,7.456601806640625,-21.35999870300293,69.18000030517578,-29.219999313354492
1788676374707471000,7.47247119140625,-21.059999465942383,69,-29.579999923706055
1788676374723340300,7.48834033203125,-20.760000228881836,69,-29.03999900817871
1788676374739240000,7.504239990234375,-21.420000076293945,68.69999694824219,-28.799999237060547
1788676374755170000,7.520170166015625,-22.260000228881836,68.5199966430664,-28.920000076293945
1788676374771008800,7.5360087890625,-22.139999389648438,68.69999694824219,-28.920000076293945
1788676374786878000,7.5518779296875,-21.299999237060547,68.33999633789062,-28.559999465942383
1788676374802716400,7.56771630859375,-21.18000030517578,68.63999938964844,-28.31999969482422
1788676374818646800,7.583646728515625,-21.53999900817871,68.63999938964844,-28.739999771118164
1788676374834516000,7.599515869140625,-21.719999313354492,67.79999542236328,-28.799999237060547
1788676374850385000,7.615385009765625,-22.079999923706055,67.79999542236328,-28.920000076293945
1788676374866284500,7.631284423828125,-23.100000381469727,67.86000061035156,-28.739999771118164
1788676374882184200,7.64718408203125,-24.119998931884766,67.79999542236328,-28.01999855041504
1788676374898083800,7.663083740234375,-24.239999771118164,67.91999816894531,-28.31999969482422
1788676374913922600,7.678922607421875,-23.15999984741211,67.68000030517578,-28.31999969482422
1788676374929791700,7.694791748046875,-21.899999618530273,67.5,-27.719999313354492
1788676374945691400,7.71069140625,-22.3799991607666,66.9000015258789,-28.139999389648438
1788676374961560600,7.726560546875,-23.15999984741211,66.36000061035156,-28.5
1788676374977429800,7.7424296875,-22.260000228881836,66.77999877929688,-28.739999771118164
1788676374993360000,7.75835986328125,-21.719999313354492,67.43999481201172,-28.920000076293945
1788676375009137400,7.774137451171875,-22.31999969482422,67.86000061035156,-28.85999870300293
1788676375025037000,7.790037109375,-22.439998626708984,67.6199951171875,-28.920000076293945
1788676375040906200,7.80590625,-22.979999542236328,67.73999786376953,-29.03999900817871
1788676375056806000,7.821805908203125,-23.03999900817871,67.97999572753906,-28.799999237060547
1788676375072705500,7.83770556640625,-22.559999465942383,67.43999481201172,-28.31999969482422
1788676375088544300,7.853544189453125,-23.459999084472656,67.26000213623047,-28.799999237060547
1788676375104413200,7.8694130859375,-23.51999855041504,67.43999481201172,-29.03999900817871
1788676375120313000,7.88531298828125,-23.279998779296875,67.0199966430664,-29.219999313354492
1788676375136182000,7.90118212890625,-23.459999084472656,66.83999633789062,-29.03999900817871
1788676375152112400,7.9171123046875,-23.34000015258789,67.37999725341797,-28.5
1788676375167950800,7.932950927734375,-22.799999237060547,67.5,-28.079999923706055
1788676375183850500,7.9488505859375,-22.68000030517578,67.31999969482422,-28.559999465942383
1788676375199689200,7.964689208984375,-22.5,67.19999694824219,-29.399999618530273
1788676375215588900,7.9805888671875,-22.559999465942383,66.77999877929688,-28.739999771118164
1788676375231488500,7.996488525390625,-22.5,66.9000015258789,-28.920000076293945
1788676375247296500,8.012296630859375,-21.84000015258789,67.97999572753906,-29.03999900817871
1788676375263165700,8.028165771484375,-22.31999969482422,68.0999984741211,-28.739999771118164
1788676375279035000,8.044034912109375,-22.5,66.5999984741211,-29.34000015258789
1788676375294934500,8.0599345703125,-22.260000228881836,66.83999633789062,-29.279998779296875
1788676375310834200,8.075834228515625,-22.260000228881836,68.5199966430664,-29.15999984741211
1788676375326673000,8.0916728515625,-22.260000228881836,68.4000015258789,-29.69999885559082
1788676375350507000,8.115507080078125,-22.5,67.86000061035156,-28.920000076293945
1788676375366376200,8.131376220703125,-23.15999984741211,69.18000030517578,-28.19999885559082
1788676375382275800,8.14727587890625,-23.279998779296875,69.18000030517578,-28.619998931884766
1788676375398145000,8.16314501953125,-22.559999465942383,69.05999755859375,-29.34000015258789
1788676375414044700,8.179044677734375,-22.139999389648438,69.5999984741211,-29.219999313354492
1788676375429944300,8.1949443359375,-22.559999465942383,69.36000061035156,-29.15999984741211
1788676375445813500,8.2108134765625,-22.739999771118164,68.81999969482422,-29.03999900817871
1788676375461652000,8.22665185546875,-22.799999237060547,69.1199951171875,-29.219999313354492
1788676375477521200,8.242521240234375,-23.100000381469727,68.81999969482422,-29.760000228881836
1788676375493451300,8.258451171875,-23.459999084472656,68.33999633789062,-29.8799991607666
1788676375509320400,8.274320556640625,-22.920000076293945,68.15999603271484,-29.219999313354492
1788676375525189600,8.290189697265625,-22.559999465942383,68.0999984741211,-29.15999984741211
1788676375541058800,8.306058837890625,-22.979999542236328,68.4000015258789,-30.059999465942383
1788676375556928000,8.321927978515625,-22.739999771118164,69.1199951171875,-30
1788676375572858000,8.337858154296875,-22.619998931884766,70.26000213623047,-30.119998931884766
1788676375588757800,8.3537578125,-22.85999870300293,69.95999908447266,-30.65999984741211
1788676375604535300,8.369535400390625,-22.559999465942383,69.47999572753906,-30.35999870300293
1788676375620404500,8.385404541015625,-22.19999885559082,69.65999603271484,-30.239999771118164
1788676375636334600,8.40133447265625,-22.3799991607666,69.5999984741211,-29.939998626708984
1788676375652203800,8.417203857421875,-22.68000030517578,69.54000091552734,-29.399999618530273
1788676375668042500,8.43304248046875,-22.739999771118164,68.93999481201172,-29.279998779296875
1788676375683911700,8.44891162109375,-22.739999771118164,68.76000213623047,-29.939998626708984
1788676375699780900,8.46478076171875,-22.799999237060547,68.4000015258789,-30.059999465942383
1788676375715649800,8.48064990234375,-22.5,67.73999786376953,-30.35999870300293
1788676375731519000,8.49651904296875,-22.5,67.68000030517578,-30.420000076293945
1788676375747449000,8.512448974609375,-22.68000030517578,67.55999755859375,-30.17999839782715
1788676375763318300,8.528318359375,-22.739999771118164,68.33999633789062,-30.119998931884766
1788676375779187500,8.5441875,-22.85999870300293,69.5999984741211,-29.939998626708984
1788676375795026200,8.560026123046875,-22.85999870300293,69.9000015258789,-29.939998626708984
1788676375811780400,8.5767802734375,-23.219999313354492,69.36000061035156,-29.34000015258789
1788676375827252700,8.592252685546875,-23.100000381469727,69.23999786376953,-29.15999984741211
1788676375843884800,8.608884765625,-23.459999084472656,69.41999816894531,-28.979999542236328
1788676375859815000,8.62481494140625,-23.81999969482422,69.29999542236328,-28.85999870300293
1788676375876081000,8.641080810546875,-23.34000015258789,68.93999481201172,-28.619998931884766
1788676375892072000,8.657072021484375,-24.299999237060547,68.76000213623047,-28.439998626708984
1788676375907422500,8.67242236328125,-24.53999900817871,68.93999481201172,-28.439998626708984
1788676375923993300,8.688993408203125,-23.100000381469727,69,-28.920000076293945
1788676375939587800,8.704587890625,-22.739999771118164,68.81999969482422,-29.459999084472656
1788676375955457000,8.72045703125,-23.51999855041504,68.69999694824219,-29.279998779296875
1788676375971692300,8.7366923828125,-23.579999923706055,69.5999984741211,-29.51999855041504
1788676375987683600,8.75268359375,-22.979999542236328,70.31999969482422,-30.719999313354492
1788676376003613700,8.76861376953125,-23.459999084472656,69.65999603271484,-30.719999313354492
1788676376019574500,8.784574462890625,-24.299999237060547,69.47999572753906,-29.8799991607666
1788676376035169000,8.8001689453125,-24,68.81999969482422,-29.51999855041504
1788676376051434800,8.816434814453125,-24.299999237060547,68.45999908447266,-29.279998779296875
1788676376067121000,8.832120849609375,-24.479999542236328,69.36000061035156,-29.279998779296875
1788676376082959400,8.84795947265625,-23.760000228881836,69.41999816894531,-29.579999923706055
1788676376099225300,8.864225341796875,-23.639999389648438,69.23999786376953,-29.81999969482422
1788676376114850300,8.879850341796875,-23.34000015258789,69.18000030517578,-29.760000228881836
1788676376130780400,8.895780517578125,-23.459999084472656,69.05999755859375,-29.579999923706055
1788676376147046400,8.91204638671875,-23.81999969482422,69.41999816894531,-28.920000076293945
1788676376162701800,8.927701904296875,-23.8799991607666,69.41999816894531,-28.739999771118164
1788676376178632000,8.9436318359375,-23.81999969482422,69,-29.34000015258789
1788676376194898000,8.95989794921875,-24.18000030517578,68.81999969482422,-29.279998779296875
1788676376210553300,8.97555322265625,-24.65999984741211,68.27999877929688,-28.85999870300293
1788676376226788900,8.991788818359375,-25.3799991607666,67.6199951171875,-28.439998626708984
1788676376242444300,9.0074443359375,-25.3799991607666,67.73999786376953,-28.3799991607666
1788676376258313500,9.0233134765625,-24.600000381469727,67.68000030517578,-28.439998626708984
1788676376274579200,9.0395791015625,-24.719999313354492,67.73999786376953,-28.3799991607666
1788676376290235000,9.05523486328125,-24.84000015258789,68.63999938964844,-29.03999900817871
1788676376306470100,9.07147021484375,-24.779998779296875,69.47999572753906,-29.03999900817871
1788676376322431000,9.087430908203125,-24.479999542236328,69.47999572753906,-29.51999855041504
1788676376338025500,9.103025390625,-24.239999771118164,69,-29.34000015258789
1788676376354291200,9.119291259765625,-24.059999465942383,69.05999755859375,-28.260000228881836
1788676376377851000,9.142850830078125,-24.65999984741211,69.83999633789062,-28.619998931884766
1788676376393445400,9.1584453125,-25.079999923706055,69.54000091552734,-29.15999984741211
1788676376409833200,9.174833251953125,-25.31999969482422,69.1199951171875,-28.85999870300293
1788676376425458200,9.190458251953125,-25.079999923706055,69.41999816894531,-29.03999900817871
1788676376441357800,9.20635791015625,-24.959999084472656,69.41999816894531,-28.979999542236328
1788676376457013500,9.222013427734375,-25.01999855041504,69.65999603271484,-28.31999969482422
1788676376472608000,9.23760791015625,-25.079999923706055,69.72000122070312,-28.68000030517578
1788676376488538000,9.2535380859375,-24.420000076293945,70.37999725341797,-28.920000076293945
1788676376504376600,9.26937646484375,-23.399999618530273,71.5199966430664,-28.739999771118164
1788676376520245800,9.285245849609375,-23.939998626708984,71.76000213623047,-28.31999969482422
1788676376536145400,9.3011455078125,-24.479999542236328,71.58000183105469,-27.959999084472656
1788676376552014600,9.3170146484375,-24.119998931884766,71.81999969482422,-27.899999618530273
1788676376567944700,9.33294482421875,-24.18000030517578,71.69999694824219,-28.439998626708984
1788676376583814000,9.34881396484375,-24.18000030517578,71.4000015258789,-29.15999984741211
1788676376599652600,9.364652587890625,-23.69999885559082,70.86000061035156,-28.799999237060547
1788676376615552300,9.38055224609375,-23.939998626708984,70.91999816894531,-28.3799991607666
1788676376631421400,9.39642138671875,-24.119998931884766,71.76000213623047,-28.3799991607666
1788676376647321000,9.412321044921875,-23.279998779296875,71.81999969482422,-28.260000228881836
1788676376663190300,9.428190185546875,-22.439998626708984,72.18000030517578,-28.619998931884766
1788676376679059200,9.44405908203125,-23.69999885559082,72.83999633789062,-28.68000030517578
1788676376694928400,9.459928466796875,-25.19999885559082,72.72000122070312,-28.5
1788676376710797600,9.475797607421875,-24.65999984741211,72.29999542236328,-28.3799991607666
1788676376726697200,9.491697265625,-23.81999969482422,73.0199966430664,-27.779998779296875
1788676376742596900,9.507596923828125,-23.81999969482422,73.13999938964844,-27.299999237060547
1788676376758435600,9.523435546875,-24.239999771118164,72.77999877929688,-27.899999618530273
1788676376774304800,9.5393046875,-24,72.72000122070312,-28.139999389648438
1788676376790173700,9.555173583984375,-23.51999855041504,72.36000061035156,-28.079999923706055
1788676376806043000,9.57104296875,-24.239999771118164,71.87999725341797,-27.959999084472656
1788676376821881600,9.586881591796875,-24.420000076293945,72.18000030517578,-27.959999084472656
1788676376837750800,9.602750732421875,-24.18000030517578,72.36000061035156,-28.079999923706055
1788676376853650400,9.618650390625,-25.079999923706055,72.1199951171875,-27.65999984741211
1788676376869519600,9.63451953125,-25.079999923706055,72.18000030517578,-27.899999618530273
1788676376885480200,9.650480224609375,-24.35999870300293,72.29999542236328,-28.3799991607666
1788676376901379800,9.6663798828125,-24.779998779296875,72,-28.19999885559082
1788676376917249000,9.6822490234375,-24.719999313354492,71.4000015258789,-28.439998626708984
1788676376941052700,9.706052734375,-24.479999542236328,72.36000061035156,-28.31999969482422
1788676376956921900,9.721921875,-24.18000030517578,72.47999572753906,-28.5
1788676376972791000,9.737791015625,-24.18000030517578,71.93999481201172,-29.219999313354492
1788676376988690700,9.753690673828125,-24.779998779296875,71.63999938964844,-28.85999870300293
1788676377004560000,9.769559814453125,-25.260000228881836,70.37999725341797,-27.899999618530273
1788676377020459500,9.78545947265625,-25.260000228881836,69.54000091552734,-28.260000228881836
1788676377036328700,9.80132861328125,-25.68000030517578,70.19999694824219,-28.799999237060547
1788676377052228400,9.817228271484375,-25.079999923706055,70.37999725341797,-29.15999984741211
1788676377068097300,9.83309716796875,-24.18000030517578,70.0199966430664,-29.03999900817871
1788676377084027600,9.849027587890625,-24.899999618530273,70.0199966430664,-28.439998626708984
1788676377099927300,9.86492724609375,-25.31999969482422,70.08000183105469,-28.559999465942383
1788676377115796500,9.88079638671875,-25.559999465942383,70.73999786376953,-28.5
1788676377131726600,9.8967265625,-25.5,70.31999969482422,-28.619998931884766
1788676377147595800,9.912595703125,-24.479999542236328,69.65999603271484,-29.34000015258789
1788676377163526000,9.92852587890625,-24.420000076293945,69.54000091552734,-29.099998474121094
1788676377179425500,9.944425537109375,-24.779998779296875,68.58000183105469,-29.399999618530273
1788676377195264300,9.96026416015625,-24.84000015258789,68.45999908447266,-30.119998931884766
1788676377211133200,9.97613330078125,-24.479999542236328,69.54000091552734,-29.81999969482422
1788676377227002400,9.99200244140625,-24.779998779296875,69.77999877929688,-29.760000228881836
1788676377242871600,10.00787158203125,-25.079999923706055,69.05999755859375,-29.939998626708984
1788676377258771200,10.023771240234375,-24.53999900817871,68.76000213623047,-30.17999839782715
1788676377274548700,10.039548828125,-24.299999237060547,68.87999725341797,-30.53999900817871
1788676377290418000,10.05541796875,-24.299999237060547,68.45999908447266,-30.17999839782715
1788676377306287000,10.071287109375,-23.939998626708984,68.69999694824219,-30.119998931884766
1788676377322186800,10.087186767578125,-23.760000228881836,69.36000061035156,-30.65999984741211
1788676377338086400,10.10308642578125,-23.579999923706055,69.29999542236328,-30.779998779296875
1788676377353925000,10.118925048828125,-23.399999618530273,69.05999755859375,-30.479999542236328
1788676377369824800,10.13482470703125,-22.85999870300293,69.05999755859375,-30.299999237060547
1788676377385755000,10.1507548828125,-23.279998779296875,69.47999572753906,-30.119998931884766
1788676377401624000,10.1666240234375,-23.639999389648438,69.72000122070312,-30.35999870300293
1788676377417523700,10.182523681640625,-23.51999855041504,69.77999877929688,-31.31999969482422
1788676377433362200,10.198362060546875,-23.81999969482422,69.54000091552734,-31.3799991607666
1788676377449231400,10.2142314453125,-23.760000228881836,69.83999633789062,-31.079999923706055
1788676377465100500,10.2301005859375,-24.299999237060547,69.95999908447266,-30.84000015258789
1788676377481000200,10.246000244140625,-23.81999969482422,69.65999603271484,-30.239999771118164
1788676377496930300,10.261930419921875,-23.15999984741211,69.83999633789062,-30
1788676377512738600,10.277738525390625,-24.959999084472656,69.95999908447266,-30.17999839782715
1788676377528607700,10.293607666015625,-25.559999465942383,69.65999603271484,-30.53999900817871
1788676377544537900,10.309537841796875,-24.899999618530273,69.83999633789062,-30.059999465942383
1788676377560407000,10.325406982421875,-24.65999984741211,70.5,-30.17999839782715
1788676377576306700,10.341306640625,-24.420000076293945,70.13999938964844,-31.139999389648438
1788676377592145200,10.357145263671875,-25.139999389648438,70.0199966430664,-30.119998931884766
1788676377608014300,10.373014404296875,-24.479999542236328,70.37999725341797,-30.420000076293945
1788676377623944400,10.3889443359375,-23.69999885559082,70.13999938964844,-31.619998931884766
1788676377639813600,10.404813720703125,-23.939998626708984,70.37999725341797,-31.559999465942383
1788676377655682800,10.420682861328125,-22.920000076293945,71.0999984741211,-31.559999465942383
1788676377671552000,10.436552001953125,-22.260000228881836,71.15999603271484,-31.079999923706055
1788676377695386000,10.46038623046875,-24.239999771118164,70.31999969482422,-30.719999313354492
1788676377711255300,10.47625537109375,-25.01999855041504,70.6199951171875,-30.119998931884766
1788676377727094000,10.492093994140625,-25.260000228881836,71.27999877929688,-30.119998931884766
1788676377742963200,10.507963134765625,-24.53999900817871,70.91999816894531,-30.599998474121094
1788676377758893300,10.523893310546875,-23.8799991607666,70.31999969482422,-29.939998626708984
1788676377774793000,10.53979296875,-23.81999969482422,70.37999725341797,-30
1788676377790601000,10.55560107421875,-23.760000228881836,71.5199966430664,-30.299999237060547
1788676377806500600,10.57150048828125,-24.53999900817871,71.93999481201172,-30.420000076293945
1788676377822369800,10.587369873046875,-24.65999984741211,71.58000183105469,-30.959999084472656
1788676377838269400,10.60326953125,-23.69999885559082,72,-31.260000228881836
1788676377854169000,10.619169189453125,-23.939998626708984,72.47999572753906,-31.739999771118164
1788676377870038300,10.635038330078125,-24.65999984741211,72.5999984741211,-31.619998931884766
1788676377885907500,10.650907470703125,-24.959999084472656,72,-31.01999855041504
1788676377901776600,10.666776611328125,-24.53999900817871,72.05999755859375,-31.439998626708984
1788676377917706800,10.682706787109375,-24.35999870300293,72.36000061035156,-31.67999839782715
1788676377933545500,10.69854541015625,-24.18000030517578,72.47999572753906,-31.3799991607666
1788676377949414400,10.714414306640625,-23.81999969482422,72.9000015258789,-31.19999885559082
1788676377965314300,10.730314208984375,-23.219999313354492,73.31999969482422,-31.31999969482422
1788676377981183200,10.746183349609375,-22.920000076293945,73.43999481201172,-30.959999084472656
1788676377997083000,10.762082763671875,-24.119998931884766,73.0199966430664,-30.299999237060547
1788676378012982500,10.777982421875,-24.84000015258789,73.0199966430664,-30.119998931884766
1788676378028851700,10.793851806640625,-24.119998931884766,73.97999572753906,-30.35999870300293
1788676378052716500,10.817716552734375,-23.639999389648438,73.43999481201172,-30.899999618530273
1788676378068555300,10.83355517578125,-23.639999389648438,73.13999938964844,-30.53999900817871
1788676378084424200,10.849424072265625,-23.69999885559082,72.41999816894531,-30.53999900817871
1788676378100293400,10.86529345703125,-24.420000076293945,72.5999984741211,-30.599998474121094
1788676378116193000,10.881193115234375,-25.139999389648438,72.72000122070312,-30.479999542236328
1788676378132031700,10.89703173828125,-24.600000381469727,72.36000061035156,-30.779998779296875
1788676378147870500,10.912870361328125,-24.479999542236328,72.1199951171875,-30.599998474121094
1788676378163770000,10.92877001953125,-25.31999969482422,72.23999786376953,-31.3799991607666
1788676378179639000,10.94463916015625,-25.559999465942383,72.29999542236328,-31.739999771118164
1788676378195569400,10.9605693359375,-24.84000015258789,72.23999786376953,-30.84000015258789
1788676378211469000,10.976468994140625,-24.53999900817871,73.0199966430664,-30.239999771118164
1788676378227338000,10.992337890625,-25.01999855041504,72.1199951171875,-30.899999618530273
1788676378243176700,11.0081767578125,-25.260000228881836,71.27999877929688,-31.5
1788676378259046000,11.0240458984375,-24.959999084472656,71.81999969482422,-31.920000076293945
1788676378274976000,11.03997607421875,-24.959999084472656,71.76000213623047,-32.15999984741211
1788676378290875600,11.055875732421875,-25.260000228881836,71.69999694824219,-31.559999465942383
1788676378306684000,11.071683837890625,-24.779998779296875,70.79999542236328,-31.619998931884766
1788676378322583600,11.08758349609375,-24.959999084472656,70.26000213623047,-31.979999542236328
1788676378338452700,11.10345263671875,-24.899999618530273,71.5199966430664,-31.920000076293945
1788676378354382800,11.1193828125,-24.899999618530273,71.63999938964844,-32.099998474121094
1788676378370252000,11.135251953125,-25.19999885559082,71.15999603271484,-32.279998779296875
1788676378386060000,11.15106005859375,-24.299999237060547,71.04000091552734,-31.920000076293945
1788676378401929200,11.16692919921875,-24.239999771118164,69.77999877929688,-31.67999839782715
1788676378417859300,11.182859375,-24.239999771118164,69.41999816894531,-31.85999870300293
1788676378433759000,11.198759033203125,-24.18000030517578,70.91999816894531,-32.099998474121094
1788676378449597700,11.21459765625,-25.260000228881836,71.45999908447266,-32.52000045776367
1788676378465467000,11.230466796875,-24.959999084472656,71.27999877929688,-32.57999801635742
1788676378481366500,11.246366455078125,-24.65999984741211,71.93999481201172,-32.39999771118164
1788676378497205000,11.262205078125,-25.260000228881836,71.63999938964844,-32.099998474121094
1788676378513104600,11.278104736328125,-25.31999969482422,71.27999877929688,-31.920000076293945
1788676378529035000,11.294034912109375,-24.959999084472656,72.54000091552734,-32.040000915527344
1788676378544873500,11.30987353515625,-24.600000381469727,72.54000091552734,-31.979999542236328
1788676378560773000,11.325773193359375,-25.079999923706055,71.63999938964844,-31.619998931884766
1788676378576672800,11.3416728515625,-25.01999855041504,72.1199951171875,-31.920000076293945
1788676378592542000,11.3575419921875,-24.299999237060547,72.41999816894531,-31.979999542236328
1788676378608441600,11.373441650390625,-25.5,72.05999755859375,-31.739999771118164
1788676378624219100,11.38921923828125,-26.15999984741211,71.45999908447266,-31.85999870300293
1788676378640088300,11.40508837890625,-25.19999885559082,71.87999725341797,-31.739999771118164
1788676378655988000,11.420988037109375,-26.219999313354492,72.29999542236328,-31.01999855041504
1788676378672254000,11.43725390625,-26.8799991607666,72.1199951171875,-30.53999900817871
1788676378703687000,11.46868701171875,-26.8799991607666,72.1199951171875,-29.15999984741211
1788676378719556000,11.48455615234375,-27.35999870300293,72.1199951171875,-29.51999855041504
1788676378735486200,11.500486328125,-26.15999984741211,72.77999877929688,-30.84000015258789
1788676378751385900,11.5163857421875,-25.260000228881836,73.97999572753906,-31.139999389648438
1788676378767224600,11.532224609375,-25.31999969482422,74.5199966430664,-30.599998474121094
1788676378783093800,11.54809375,-24.719999313354492,74.69999694824219,-29.760000228881836
1788676378798963000,11.563962890625,-24.719999313354492,74.4000015258789,-29.760000228881836
1788676378814832000,11.57983203125,-24.899999618530273,73.37999725341797,-30.119998931884766
1788676378830731800,11.595731689453125,-24.420000076293945,73.43999481201172,-30.299999237060547
1788676378846600700,11.6116005859375,-25.139999389648438,74.33999633789062,-30.53999900817871
1788676378862500400,11.627500244140625,-24.959999084472656,74.76000213623047,-30.719999313354492
1788676378878400000,11.64339990234375,-24.119998931884766,75.05999755859375,-30.65999984741211
1788676378894269200,11.659269287109375,-24.239999771118164,75.83999633789062,-30.65999984741211
1788676378910260500,11.675260498046875,-24.479999542236328,75.72000122070312,-30.84000015258789
1788676378926099200,11.69109912109375,-24.059999465942383,75.05999755859375,-30.35999870300293
1788676378941937700,11.706937744140625,-23.399999618530273,75.54000091552734,-30.420000076293945
1788676378957806800,11.722806884765625,-23.459999084472656,75.65999603271484,-30.119998931884766
1788676378973706500,11.73870654296875,-23.69999885559082,75.1199951171875,-29.8799991607666
1788676378989575700,11.75457568359375,-24.119998931884766,74.81999969482422,-30.119998931884766
1788676379005444900,11.77044482421875,-23.8799991607666,74.33999633789062,-30.059999465942383
1788676379021314000,11.78631396484375,-24.35999870300293,75.23999786376953,-30.65999984741211
1788676379037183000,11.802182861328125,-24.479999542236328,75.9000015258789,-30.420000076293945
1788676379053052200,11.81805224609375,-24.35999870300293,76.0199966430664,-30
1788676379068921300,11.83392138671875,-24.600000381469727,75.95999908447266,-29.69999885559082
1788676379084790500,11.84979052734375,-24.600000381469727,75.29999542236328,-29.639999389648438
1788676379100629200,11.865629150390625,-24.420000076293945,74.69999694824219,-29.760000228881836
1788676379116529000,11.88152880859375,-24.059999465942383,74.76000213623047,-29.639999389648438
1788676379132428500,11.897428466796875,-24.299999237060547,75.1199951171875,-30.059999465942383
1788676379148328200,11.913328125,-24.059999465942383,75.36000061035156,-30.53999900817871
1788676379164166700,11.929166748046875,-23.8799991607666,75.77999877929688,-30.599998474121094
1788676379180005400,11.94500537109375,-24.600000381469727,74.93999481201172,-30
1788676379195874600,11.96087451171875,-25.01999855041504,73.97999572753906,-30.239999771118164
1788676379211774200,11.976774169921875,-25.739999771118164,73.5,-30.35999870300293
1788676379227673900,11.992673828125,-25.3799991607666,73.0199966430664,-29.579999923706055
1788676379243604000,12.00860400390625,-24.84000015258789,72.9000015258789,-29.69999885559082
1788676379259473200,12.02447314453125,-24,72.47999572753906,-29.939998626708984
1788676379275372800,12.040372802734375,-24,72.65999603271484,-29.69999885559082
1788676379291242000,12.056241943359375,-25.079999923706055,72.65999603271484,-30.119998931884766
1788676379307172000,12.072172119140625,-25.19999885559082,71.87999725341797,-30.35999870300293
1788676379323071700,12.08807177734375,-24.65999984741211,71.81999969482422,-29.8799991607666
1788676379338941000,12.10394091796875,-24.600000381469727,71.69999694824219,-29.69999885559082
1788676379354779400,12.119779296875,-25.139999389648438,71.33999633789062,-29.939998626708984
1788676379370648600,12.135648681640625,-24.84000015258789,71.22000122070312,-30.299999237060547
1788676379386579000,12.151578857421875,-25.139999389648438,71.5199966430664,-30.17999839782715
1788676379402417400,12.16741748046875,-25.139999389648438,71.87999725341797,-30.059999465942383
1788676379418256100,12.183256103515625,-24.779998779296875,71.27999877929688,-30.299999237060547
1788676379434125300,12.199125244140625,-24.420000076293945,71.69999694824219,-29.8799991607666
1788676379449994200,12.214994140625,-24.420000076293945,71.76000213623047,-29.459999084472656
1788676379465924600,12.230924560546875,-24.65999984741211,71.58000183105469,-29.579999923706055
1788676379481824300,12.24682421875,-24.479999542236328,72.41999816894531,-29.760000228881836
1788676379497601800,12.262601806640625,-24.779998779296875,72.1199951171875,-29.939998626708984
1788676379513440500,12.2784404296875,-25.439998626708984,71.4000015258789,-30.17999839782715
1788676379529370600,12.29437060546875,-25.5,71.15999603271484,-29.760000228881836
1788676379545239800,12.31023974609375,-24.600000381469727,71.76000213623047,-29.399999618530273
1788676379561170000,12.326169921875,-24.35999870300293,71.76000213623047,-29.81999969482422
1788676379577039000,12.3420390625,-24.899999618530273,71.58000183105469,-30.119998931884766
1788676379592877600,12.357877685546875,-24.719999313354492,71.58000183105469,-29.939998626708984
1788676379608746800,12.373746826171875,-24.600000381469727,71.58000183105469,-29.639999389648438
1788676379624646400,12.389646484375,-24.84000015258789,71.93999481201172,-29.34000015258789
1788676379640485000,12.405485107421875,-25.260000228881836,71.5199966430664,-28.739999771118164
1788676379656354300,12.421354248046875,-25.739999771118164,71.58000183105469,-29.03999900817871
1788676379672223500,12.437223388671875,-24.84000015258789,71.81999969482422,-29.639999389648438
1788676379688123100,12.453123046875,-23.81999969482422,71.87999725341797,-29.15999984741211
1788676379704022800,12.469022705078125,-24.420000076293945,72.54000091552734,-29.34000015258789
1788676379719953000,12.484952880859375,-24.899999618530273,72.18000030517578,-29.760000228881836
1788676379735791400,12.500791259765625,-24.059999465942383,72.47999572753906,-28.920000076293945
1788676379751721700,12.5167216796875,-24.35999870300293,73.19999694824219,-27.84000015258789
1788676379767591000,12.5325908203125,-24.959999084472656,73.13999938964844,-28.079999923706055
1788676379783521000,12.54852099609375,-24.239999771118164,73.73999786376953,-28.5
1788676379799420700,12.564420654296875,-24.239999771118164,73.68000030517578,-28.139999389648438
1788676379815228700,12.580228759765625,-24.35999870300293,73.31999969482422,-27.899999618530273
1788676379831128300,12.59612841796875,-23.15999984741211,73.0199966430664,-28.19999885559082
1788676379846997500,12.61199755859375,-23.399999618530273,73.19999694824219,-28.079999923706055
1788676379862866700,12.62786669921875,-24.35999870300293,73.0199966430664,-27.959999084472656
1788676379878766300,12.643766357421875,-24.059999465942383,72.83999633789062,-27.959999084472656
1788676379894635500,12.659635498046875,-24.059999465942383,73.13999938964844,-27.65999984741211
1788676379910474000,12.675473876953125,-24.35999870300293,72.95999908447266,-27.779998779296875
1788676379926404400,12.691404296875,-24.18000030517578,72.95999908447266,-27.239999771118164
1788676379942304000,12.707303955078125,-23.51999855041504,73.73999786376953,-27.420000076293945
1788676379958234000,12.723234130859375,-23.219999313354492,74.0999984741211,-28.559999465942383
1788676379974011600,12.73901171875,-23.399999618530273,73.37999725341797,-28.68000030517578
1788676379989880800,12.754880859375,-22.739999771118164,73.5,-28.439998626708984
1788676380013745700,12.77874560546875,-22.5,74.04000091552734,-28.01999855041504
1788676380037579800,12.802579833984375,-23.399999618530273,73.19999694824219,-27.53999900817871
1788676380053449000,12.818448974609375,-23.219999313354492,73.0199966430664,-27.599998474121094
1788676380069348600,12.8343486328125,-23.939998626708984,72.9000015258789,-27.479999542236328
1788676380085217800,12.8502177734375,-23.8799991607666,72.65999603271484,-27.719999313354492
1788676380101178400,12.866178466796875,-23.579999923706055,72.83999633789062,-28.260000228881836
1788676380117078000,12.882078125,-24.18000030517578,73.37999725341797,-28.5
1788676380132886300,12.89788623046875,-24.299999237060547,72.95999908447266,-28.260000228881836
1788676380148786000,12.913785888671875,-23.939998626708984,72.54000091552734,-27.239999771118164
1788676380164685600,12.929685546875,-23.939998626708984,72.18000030517578,-27.239999771118164
1788676380180585200,12.945585205078125,-24.899999618530273,72.1199951171875,-27.65999984741211
1788676380196484900,12.96148486328125,-24.65999984741211,73.19999694824219,-27.84000015258789
1788676380213598500,12.978598388671875,-23.81999969482422,73.13999938964844,-27.53999900817871
1788676380229559300,12.994559326171874,-23.459999084472656,71.93999481201172,-27.479999542236328
1788676380245153800,13.01015380859375,-23.760000228881836,71.76000213623047,-27.959999084472656
1788676380261450200,13.0264501953125,-23.51999855041504,71.4000015258789,-28.439998626708984
1788676380277105700,13.042105712890624,-23.69999885559082,71.63999938964844,-28.260000228881836
1788676380292974800,13.057974853515624,-23.8799991607666,71.76000213623047,-27.479999542236328
1788676380309271000,13.07427099609375,-23.399999618530273,71.63999938964844,-27.719999313354492
1788676380324865500,13.089865478515625,-23.399999618530273,70.97999572753906,-28.19999885559082
1788676380341162000,13.106161865234375,-22.3799991607666,69.9000015258789,-28.68000030517578
1788676380357153300,13.1221533203125,-22.559999465942383,70.55999755859375,-28.5
1788676380372778200,13.1377783203125,-22.979999542236328,71.0999984741211,-27.599998474121094
1788676380389074700,13.15407470703125,-23.03999900817871,70.86000061035156,-27.059999465942383
1788676380404730000,13.169730224609374,-23.34000015258789,69.95999908447266,-27.299999237060547
1788676380420965400,13.18596533203125,-23.34000015258789,69.72000122070312,-27.779998779296875
1788676380436651500,13.201651611328124,-23.939998626708984,69.9000015258789,-27.959999084472656
1788676380452520700,13.217520751953124,-24.119998931884766,68.81999969482422,-27.84000015258789
1788676380468450800,13.233450927734374,-24.299999237060547,68.22000122070312,-27.779998779296875
1788676380484716800,13.249716796875,-24.119998931884766,68.63999938964844,-28.01999855041504
1788676380500707800,13.265707763671875,-23.03999900817871,69.18000030517578,-27.84000015258789
1788676380516394000,13.28139404296875,-22.68000030517578,69.29999542236328,-27.779998779296875
1788676380532263200,13.29726318359375,-23.459999084472656,69.72000122070312,-27.420000076293945
1788676380548590000,13.313590087890624,-24.35999870300293,69.95999908447266,-27.059999465942383
1788676380564184600,13.3291845703125,-23.34000015258789,69.47999572753906,-26.939998626708984
1788676380580450300,13.3454501953125,-22.68000030517578,68.63999938964844,-26.760000228881836
1788676380596136400,13.361136474609374,-23.15999984741211,68.69999694824219,-26.8799991607666
1788676380611975000,13.376974853515625,-23.34000015258789,69.05999755859375,-26.81999969482422
1788676380628241000,13.393240966796874,-23.8799991607666,68.33999633789062,-26.81999969482422
1788676380643835400,13.40883544921875,-24.119998931884766,68.5199966430664,-26.51999855041504
1788676380660101000,13.42510107421875,-24.119998931884766,69,-26.579999923706055
1788676380675756800,13.4407568359375,-23.579999923706055,68.87999725341797,-27
1788676380691626000,13.4566259765625,-23.100000381469727,69.23999786376953,-27.420000076293945
1788676380707891700,13.4728916015625,-22.920000076293945,69.83999633789062,-27.899999618530273
1788676380723486200,13.488486328125,-22.85999870300293,69.65999603271484,-27.899999618530273
1788676380739752200,13.504752197265624,-22.5,68.69999694824219,-27.239999771118164
1788676380755407600,13.52040771484375,-21.600000381469727,69,-27.059999465942383
1788676380771276800,13.53627685546875,-21.65999984741211,69.72000122070312,-27.119998931884766
1788676380787146000,13.55214599609375,-22.19999885559082,69.1199951171875,-26.760000228881836
1788676380802740500,13.567740478515624,-22.31999969482422,69.5999984741211,-26.760000228881836
1788676380819372500,13.58437255859375,-22.5,71.04000091552734,-26.399999618530273
1788676380835028000,13.600028076171874,-21.959999084472656,71.0999984741211,-27
1788676380850897200,13.615897216796874,-21.239999771118164,70.5,-27.299999237060547
1788676380867224000,13.63222412109375,-21.600000381469727,70.26000213623047,-26.03999900817871
1788676380882879500,13.64787939453125,-21.600000381469727,70.86000061035156,-25.979999542236328
1788676380899115000,13.664114990234374,-21.479999542236328,71.5199966430664,-26.760000228881836
1788676380914770400,13.6797705078125,-21.119998931884766,71.33999633789062,-26.69999885559082
1788676380930639600,13.6956396484375,-20.760000228881836,71.5199966430664,-26.459999084472656
1788676380946539300,13.711539306640624,-20.520000457763672,72.05999755859375,-26.69999885559082
1788676380962774500,13.7277744140625,-19.979999542236328,72.41999816894531,-26.81999969482422
1788676380978430200,13.74343017578125,-20.639999389648438,72.47999572753906,-26.399999618530273
1788676380994696000,13.759696044921874,-22.19999885559082,72.77999877929688,-26.03999900817871
1788676381010321000,13.77532080078125,-22.559999465942383,72.83999633789062,-25.739999771118164
1788676381026312200,13.791312255859374,-21.899999618530273,72.47999572753906,-24.779998779296875
1788676381042608600,13.807608642578124,-21.600000381469727,73.08000183105469,-24.059999465942383
1788676381058630400,13.82363037109375,-21.420000076293945,73.43999481201172,-24.119998931884766
1788676381074255400,13.83925537109375,-20.520000457763672,73.13999938964844,-25.619998931884766
1788676381090490600,13.85549072265625,-19.19999885559082,72.72000122070312,-25.139999389648438
1788676381106115600,13.871115478515625,-18.779998779296875,73.08000183105469,-24.479999542236328
1788676381122412000,13.887412109375,-18.420000076293945,73.68000030517578,-25.19999885559082
1788676381138403300,13.9034033203125,-18.18000030517578,73.68000030517578,-24.84000015258789
1788676381154089200,13.919089111328125,-18.959999084472656,74.27999877929688,-25.260000228881836
1788676381169928000,13.934927978515624,-19.85999870300293,74.04000091552734,-25.439998626708984
1788676381185827600,13.95082763671875,-19.619998931884766,73.68000030517578,-25.3799991607666
1788676381202093300,13.96709326171875,-19.079999923706055,74.15999603271484,-25.139999389648438
1788676381217810000,13.982809814453125,-19.920000076293945,73.97999572753906,-24.899999618530273
1788676381234045400,13.99904541015625,-21.059999465942383,74.0999984741211,-24.959999084472656
1788676381249700900,14.014700927734374,-20.459999084472656,74.27999877929688,-25.139999389648438
1788676381265600500,14.0306005859375,-19.979999542236328,74.27999877929688,-25.559999465942383
1788676381281897000,14.04689697265625,-19.85999870300293,75.23999786376953,-25.559999465942383
1788676381297888000,14.062887939453125,-19.3799991607666,76.0199966430664,-25.559999465942383
1788676381313543700,14.078543701171874,-19.739999771118164,74.58000183105469,-25.619998931884766
1788676381329412900,14.094412841796874,-20.219999313354492,72.9000015258789,-25.260000228881836
1788676381345343000,14.110343017578124,-20.459999084472656,72.05999755859375,-25.439998626708984
1788676381361578200,14.126578125,-20.279998779296875,71.5199966430664,-26.099998474121094
1788676381377203200,14.142203125,-20.100000381469727,71.76000213623047,-25.68000030517578
1788676381392828400,14.157828369140624,-20.15999984741211,71.87999725341797,-24.719999313354492
1788676381409399300,14.1743994140625,-20.579999923706055,71.69999694824219,-23.939998626708984
1788676381425055000,14.190054931640624,-19.979999542236328,70.79999542236328,-24.299999237060547
1788676381441351200,14.20635107421875,-18.479999542236328,69.47999572753906,-24.719999313354492
1788676381457037300,14.222037353515624,-18.420000076293945,69.29999542236328,-24.420000076293945
1788676381473303000,14.238302978515625,-19.19999885559082,70.31999969482422,-24.299999237060547
1788676381489233400,14.2542333984375,-20.15999984741211,70.79999542236328,-24.84000015258789
1788676381504828000,14.269827880859374,-20.579999923706055,70.55999755859375,-25.19999885559082
1788676381521124000,14.2861240234375,-20.81999969482422,70.73999786376953,-24.84000015258789
1788676381537115400,14.302115478515624,-20.219999313354492,69.65999603271484,-25.139999389648438
1788676381552770800,14.317770751953125,-19.439998626708984,69.36000061035156,-24.84000015258789
1788676381568640000,14.333639892578125,-19.619998931884766,69.95999908447266,-24.299999237060547
1788676381584539600,14.34953955078125,-20.15999984741211,69.54000091552734,-25.079999923706055
1788676381600805600,14.3658056640625,-20.279998779296875,69.47999572753906,-25.3799991607666
1788676381616461000,14.3814609375,-19.799999237060547,69.29999542236328,-25.139999389648438
1788676381632696600,14.397696533203124,-18.959999084472656,68.69999694824219,-24.84000015258789
1788676381648657200,14.4136572265625,-17.940000534057617,70.08000183105469,-24.65999984741211
1788676381664617700,14.42961767578125,-17.940000534057617,70.86000061035156,-24.959999084472656
1788676381680212200,14.445212158203125,-18.84000015258789,69.36000061035156,-25.260000228881836
1788676381696508700,14.4615087890625,-19.260000228881836,68.4000015258789,-25.799999237060547
1788676381712194800,14.47719482421875,-18.719999313354492,68.0999984741211,-26.399999618530273
1788676381728064000,14.49306396484375,-18.65999984741211,69.36000061035156,-26.03999900817871
1788676381744329700,14.509329833984374,-18.53999900817871,70.79999542236328,-25.68000030517578
1788676381759954700,14.52495458984375,-18.18000030517578,70.91999816894531,-26.03999900817871
1788676381776220700,14.541220703125,-18.53999900817871,70.08000183105469,-25.739999771118164
1788676381791906600,14.556906494140625,-18.719999313354492,69.9000015258789,-25.19999885559082
1788676381807775700,14.572775634765625,-18.779998779296875,69.77999877929688,-25.139999389648438
1788676381824041700,14.589041748046874,-19.079999923706055,69.36000061035156,-25.19999885559082
1788676381839666700,14.604666748046874,-19.139999389648438,69.47999572753906,-24.959999084472656
1788676381855566300,14.62056640625,-18.059999465942383,70.13999938964844,-25.139999389648438
1788676381871832300,14.636832275390624,-17.459999084472656,70.86000061035156,-25.19999885559082
1788676381887762400,14.652762451171874,-18,71.0999984741211,-24.65999984741211
1788676381903387400,14.668387451171874,-18.059999465942383,71.5199966430664,-23.760000228881836
1788676381919653000,14.684653076171875,-17.8799991607666,71.5199966430664,-23.03999900817871
1788676381935308800,14.700308837890624,-17.100000381469727,71.63999938964844,-23.219999313354492
1788676381950933800,14.715933837890624,-17.69999885559082,72.36000061035156,-23.34000015258789
1788676381967474200,14.73247412109375,-18.959999084472656,72.23999786376953,-23.100000381469727
1788676381983404500,14.748404541015624,-18.239999771118164,71.45999908447266,-23.03999900817871
1788676381999029500,14.764029541015624,-18.119998931884766,72.36000061035156,-22.920000076293945
1788676382015295200,14.780295166015625,-18.53999900817871,72.9000015258789,-22.979999542236328
1788676382030951000,14.795950927734374,-18.65999984741211,73.0199966430664,-22.5
1788676382046820000,14.811820068359374,-19.3799991607666,73.73999786376953,-22.079999923706055
1788676382062445000,14.827445068359374,-18.899999618530273,74.04000091552734,-21.959999084472656
1788676382079138000,14.844137939453125,-18.239999771118164,73.5,-21.600000381469727
1788676382095129300,14.86012939453125,-17.34000015258789,73.55999755859375,-21.53999900817871
1788676382110784800,14.87578466796875,-16.920000076293945,73.13999938964844,-20.520000457763672
1788676382126654000,14.891654052734374,-18.239999771118164,72.05999755859375,-20.279998779296875
1788676382142584000,14.907583984375,-19.139999389648438,72.54000091552734,-20.520000457763672
1788676382158850000,14.92385009765625,-19.559999465942383,73.26000213623047,-20.399999618530273
1788676382174536000,14.939535888671875,-19.31999969482422,73.6199951171875,-20.279998779296875
1788676382190771500,14.955771484375,-19.260000228881836,73.55999755859375,-21.239999771118164
1788676382206427000,14.971427001953124,-19.3799991607666,73.43999481201172,-22.079999923706055
1788676382222326500,14.987326416015625,-18.959999084472656,73.79999542236328,-21.420000076293945
1788676382238592500,15.003592529296874,-18.18000030517578,74.33999633789062,-21.53999900817871
1788676382254278400,15.0192783203125,-17.459999084472656,74.5199966430664,-21.299999237060547
1788676382270514000,15.035513916015624,-16.979999542236328,74.04000091552734,-20.8799991607666
1788676382286474500,15.051474609375,-17.279998779296875,74.69999694824219,-21.420000076293945
1788676382302435300,15.067435302734374,-18.059999465942383,75.5999984741211,-21.53999900817871
1788676382318090800,15.0830908203125,-17.760000228881836,75.54000091552734,-20.939998626708984
1788676382333990400,15.098990478515624,-17.219999313354492,74.87999725341797,-20.579999923706055
1788676382350256400,15.11525634765625,-16.979999542236328,74.93999481201172,-20.639999389648438
1788676382365881300,15.13088134765625,-17.100000381469727,75.05999755859375,-20.520000457763672
1788676382382208300,15.147208251953124,-17.81999969482422,74.76000213623047,-20.459999084472656
1788676382397894100,15.16289404296875,-17.03999900817871,74.45999908447266,-20.459999084472656
1788676382414129700,15.179129638671874,-16.020000457763672,74.15999603271484,-20.579999923706055
1788676382429815600,15.194815673828124,-16.619998931884766,74.69999694824219,-20.520000457763672
1788676382445684700,15.210684814453124,-16.85999870300293,75,-20.15999984741211
1788676382461584400,15.22658447265625,-17.219999313354492,75.05999755859375,-20.03999900817871
1788676382477850400,15.242850341796874,-17.579999923706055,75.18000030517578,-20.15999984741211
1788676382493871900,15.258871826171875,-17.03999900817871,75,-20.760000228881836
1788676382509222400,15.274222412109374,-17.279998779296875,73.91999816894531,-20.69999885559082
1788676382525793300,15.290793212890625,-17.100000381469727,73.79999542236328,-19.5
1788676382541387800,15.3063876953125,-16.619998931884766,73.68000030517578,-19.31999969482422
1788676382557623300,15.322623291015624,-17.03999900817871,72.95999908447266,-19.979999542236328
1788676382573645000,15.33864501953125,-17.459999084472656,72.77999877929688,-20.639999389648438
1788676382589270000,15.35427001953125,-17.520000457763672,72.77999877929688,-20.34000015258789
1788676382605108500,15.3701083984375,-18,73.19999694824219,-19.799999237060547
1788676382620977700,15.385977783203124,-18,73.43999481201172,-19.979999542236328
1788676382636602600,15.4016025390625,-17.459999084472656,73.97999572753906,-19.5
1788676382652258300,15.41725830078125,-17.15999984741211,73.31999969482422,-19.139999389648438
1788676382667944200,15.432944091796875,-17.520000457763672,72.23999786376953,-19.260000228881836
1788676382683783000,15.448782958984374,-18,72.36000061035156,-19.139999389648438
1788676382699682600,15.4646826171875,-18,71.87999725341797,-19.739999771118164
1788676382715551700,15.4805517578125,-18.239999771118164,71.69999694824219,-20.03999900817871
1788676382731481900,15.49648193359375,-17.399999618530273,71.87999725341797,-19.68000030517578
1788676382747412000,15.512411865234375,-17.520000457763672,72.29999542236328,-19.68000030517578
1788676382763281200,15.52828125,-16.559999465942383,72.18000030517578,-19.31999969482422
1788676382779150300,15.544150390625,-16.260000228881836,72.1199951171875,-18.84000015258789
1788676382795019500,15.56001953125,-17.279998779296875,72.9000015258789,-19.3799991607666
1788676382810919200,15.575919189453124,-16.619998931884766,73.13999938964844,-19.85999870300293
1788676382826788400,15.591788330078124,-15.960000038146973,72.47999572753906,-19.85999870300293
1788676382842657300,15.6076572265625,-16.079999923706055,72.36000061035156,-19.920000076293945
1788676382858557000,15.623556884765625,-16.260000228881836,72,-19.19999885559082
1788676382874487300,15.6394873046875,-16.020000457763672,72.23999786376953,-19.68000030517578
1788676382890356500,15.6553564453125,-15.65999984741211,73.08000183105469,-20.100000381469727
1788676382906286600,15.67128662109375,-15,73.13999938964844,-19.31999969482422
1788676382922125000,15.687125,-15.839999198913574,73.19999694824219,-19.079999923706055
1788676382937963800,15.7029638671875,-16.020000457763672,73.37999725341797,-19.079999923706055
1788676382961767400,15.726767333984375,-15.899999618530273,73.86000061035156,-19.619998931884766
1788676382977636600,15.74263671875,-16.020000457763672,73.73999786376953,-18.84000015258789
1788676382993475300,15.758475341796874,-15.359999656677246,73.13999938964844,-19.020000457763672
1788676383009405400,15.774405517578124,-15.539999961853027,72.65999603271484,-19.31999969482422
1788676383025335600,15.79033544921875,-15.299999237060547,72.5999984741211,-18.959999084472656
1788676383041143800,15.806143798828124,-15.479999542236328,72.65999603271484,-19.020000457763672
1788676383064978000,15.82997802734375,-15.299999237060547,73.37999725341797,-19.19999885559082
1788676383080847000,15.84584716796875,-15.059999465942383,73.5,-19.739999771118164
1788676383096685800,15.861685791015624,-15.719999313354492,73.43999481201172,-19.19999885559082
1788676383112524300,15.877524169921875,-15.479999542236328,72.9000015258789,-18.779998779296875
1788676383128454400,15.893454345703125,-15.539999961853027,72.41999816894531,-18.84000015258789
1788676383144354000,15.90935400390625,-15.839999198913574,72.18000030517578,-18
1788676383160192800,15.92519287109375,-15.779999732971191,72.5999984741211,-17.34000015258789
1788676383176062000,15.94106201171875,-15.179999351501465,73.13999938964844,-17.639999389648438
1788676383191900700,15.956900634765624,-15.479999542236328,72.83999633789062,-18.35999870300293
1788676383207830800,15.972830810546874,-16.020000457763672,72.9000015258789,-18.600000381469727
1788676383223730400,15.98873046875,-15.420000076293945,73.31999969482422,-18.119998931884766
1788676383239538400,16.004538330078127,-15.479999542236328,73.19999694824219,-18
1788676383255438000,16.02043798828125,-15.899999618530273,73.0199966430664,-17.940000534057617
1788676383271337700,16.036337646484377,-15.239999771118164,72.72000122070312,-17.69999885559082
1788676383287207000,16.05220703125,-14.9399995803833,72.77999877929688,-17.8799991607666
1788676383303106600,16.0681064453125,-15.239999771118164,72.95999908447266,-18.119998931884766
1788676383319006200,16.084006103515627,-15.420000076293945,73.5,-18.420000076293945
1788676383334905900,16.09990576171875,-15.479999542236328,74.15999603271484,-17.760000228881836
1788676383350775000,16.115775146484374,-15.059999465942383,74.15999603271484,-17.639999389648438
1788676383366705200,16.131705078125,-14.819999694824219,73.55999755859375,-18.059999465942383
1788676383382604800,16.147604736328127,-14.34000015258789,73.31999969482422,-17.579999923706055
1788676383398474000,16.163473876953127,-14.34000015258789,73.43999481201172,-17.579999923706055
1788676383414343200,16.17934326171875,-14.880000114440918,73.26000213623047,-17.459999084472656
1788676383430273300,16.195273193359377,-14.219999313354492,72.9000015258789,-17.219999313354492
1788676383446203600,16.21120361328125,-13.799999237060547,72.9000015258789,-17.399999618530273
1788676383462072600,16.227072509765627,-14.519999504089355,72.95999908447266,-17.100000381469727
1788676383477941800,16.242941650390627,-15.059999465942383,72.95999908447266,-16.3799991607666
1788676383493811000,16.25881103515625,-14.09999942779541,72.65999603271484,-16.739999771118164
1788676383509710600,16.274710693359374,-14.15999984741211,73.0199966430664,-17.579999923706055
1788676383525610200,16.2906103515625,-14.09999942779541,73.37999725341797,-17.760000228881836
1788676383541510000,16.306510009765624,-13.979999542236328,73.0199966430664,-17.399999618530273
1788676383557318100,16.322318115234374,-14.579999923706055,72.9000015258789,-17.459999084472656
1788676383573187000,16.33818701171875,-13.979999542236328,72.41999816894531,-18.059999465942383
1788676383589056300,16.35405615234375,-13.619999885559082,72.36000061035156,-18.239999771118164
1788676383604956000,16.369955810546877,-13.679999351501465,72.77999877929688,-18.299999237060547
1788676383620886300,16.38588623046875,-13.619999885559082,72.1199951171875,-18.719999313354492
1788676383636755200,16.401755126953127,-14.460000038146973,71.4000015258789,-19.079999923706055
1788676383652624400,16.417624267578127,-14.75999927520752,70.86000061035156,-18.600000381469727
1788676383668493600,16.43349365234375,-14.039999961853027,70.55999755859375,-18.53999900817871
1788676383684423700,16.449423583984377,-13.859999656677246,70.73999786376953,-18.959999084472656
1788676383700292900,16.46529296875,-13.25999927520752,70.68000030517578,-18.420000076293945
1788676383716101000,16.48110107421875,-14.039999961853027,70.68000030517578,-18.65999984741211
1788676383732000800,16.497000732421874,-14.09999942779541,70.55999755859375,-19.19999885559082
1788676383747869700,16.51286962890625,-13.380000114440918,70.08000183105469,-18.899999618530273
1788676383763800000,16.528800048828124,-14.219999313354492,69.5999984741211,-19.020000457763672
1788676383779669000,16.5446689453125,-13.920000076293945,69.18000030517578,-18.779998779296875
1788676383803473000,16.568472900390624,-14.34000015258789,69.29999542236328,-19.19999885559082
1788676383819372500,16.58437255859375,-14.9399995803833,70.13999938964844,-19.079999923706055
1788676383835150000,16.600150146484374,-15.119999885559082,70.55999755859375,-19.139999389648438
1788676383851019300,16.616019287109374,-14.15999984741211,70.5,-19.260000228881836
1788676383866919000,16.6319189453125,-13.139999389648438,70.0199966430664,-19.31999969482422
1788676383882818600,16.647818603515624,-13.199999809265137,70.13999938964844,-19.5
1788676383906652700,16.671652587890627,-13.019999504089355,70.43999481201172,-19.5
1788676383922583000,16.6875830078125,-13.979999542236328,70.55999755859375,-19.020000457763672
1788676383938513200,16.70351318359375,-14.639999389648438,70.19999694824219,-19.139999389648438
1788676383954351600,16.7193515625,-14.219999313354492,69.29999542236328,-19.5
1788676383970251300,16.735251220703127,-13.739999771118164,69.54000091552734,-19.31999969482422
1788676383986090000,16.751090087890624,-13.619999885559082,69.65999603271484,-19.079999923706055
1788676384002020000,16.76702001953125,-13.25999927520752,69.77999877929688,-18.899999618530273
1788676384017919700,16.782919677734377,-13.139999389648438,69.77999877929688,-18.779998779296875
1788676384033789000,16.798788818359377,-12.899999618530273,70.73999786376953,-19.139999389648438
1788676384049658000,16.814658203125,-12.300000190734863,71.45999908447266,-18.65999984741211
1788676384065527300,16.83052734375,-13.139999389648438,70.55999755859375,-18.899999618530273
1788676384081488000,16.84648779296875,-13.739999771118164,70.68000030517578,-19.260000228881836
1788676384097387500,16.862387451171877,-13.25999927520752,71.33999633789062,-18.479999542236328
1788676384113226200,16.878226318359374,-13.380000114440918,70.91999816894531,-18.600000381469727
1788676384129126000,16.8941259765625,-13.679999351501465,71.45999908447266,-18.959999084472656
1788676384145025500,16.910025634765624,-13.739999771118164,71.15999603271484,-18.779998779296875
1788676384160894700,16.925894775390624,-13.4399995803833,71.04000091552734,-18.719999313354492
1788676384176824800,16.941824951171874,-12.84000015258789,71.15999603271484,-18.420000076293945
1788676384192633000,16.957633056640624,-12.420000076293945,71.27999877929688,-17.639999389648438
1788676384208502000,16.973501953125,-13.319999694824219,71.76000213623047,-17.760000228881836
1788676384224371200,16.98937109375,-14.460000038146973,71.27999877929688,-18.299999237060547
1788676384240332000,17.00533203125,-13.679999351501465,71.5199966430664,-17.639999389648438
1788676384256201200,17.021201171875,-12.300000190734863,72.65999603271484,-17.459999084472656
1788676384272009200,17.03700927734375,-12.119999885559082,72.72000122070312,-18.479999542236328
1788676384287908900,17.052908935546874,-12.420000076293945,72.36000061035156,-18.35999870300293
1788676384303808500,17.06880859375,-11.9399995803833,72.41999816894531,-18.059999465942383
1788676384319738600,17.084738525390627,-11.34000015258789,73.19999694824219,-18.299999237060547
1788676384335638300,17.10063818359375,-11.880000114440918,74.27999877929688,-17.8799991607666
1788676384351477000,17.11647705078125,-12.960000038146973,73.91999816894531,-17.639999389648438
1788676384367346200,17.13234619140625,-12.84000015258789,73.08000183105469,-17.940000534057617
1788676384383184600,17.1481845703125,-11.699999809265137,72.5999984741211,-17.639999389648438
1788676384399084300,17.164084228515627,-11.75999927520752,73.19999694824219,-17.100000381469727
1788676384414984000,17.17998388671875,-12.239999771118164,74.04000091552734,-17.520000457763672
1788676384430853000,17.19585302734375,-11.579999923706055,73.79999542236328,-18.299999237060547
1788676384446752800,17.211752685546877,-11.279999732971191,73.55999755859375,-17.760000228881836
1788676384462622000,17.2276220703125,-10.859999656677246,74.15999603271484,-17.69999885559082
1788676384478552000,17.243552001953127,-10.859999656677246,74.76000213623047,-18.239999771118164
1788676384494451700,17.25945166015625,-11.039999961853027,74.58000183105469,-18.119998931884766
1788676384510321000,17.27532080078125,-11.039999961853027,74.5199966430664,-17.940000534057617
1788676384526190000,17.291190185546874,-12.119999885559082,74.58000183105469,-18.18000030517578
1788676384542059300,17.307059326171874,-12.65999984741211,74.22000122070312,-18.18000030517578
1788676384557989400,17.3229892578125,-11.579999923706055,73.97999572753906,-17.639999389648438
1788676384573889000,17.338888916015627,-11.15999984741211,73.86000061035156,-18
1788676384589758200,17.35475830078125,-11.639999389648438,74.69999694824219,-18
1788676384605657900,17.370657958984374,-11.639999389648438,74.87999725341797,-18.119998931884766
1788676384621496600,17.38649658203125,-10.859999656677246,73.43999481201172,-18.299999237060547
1788676384637426700,17.4024267578125,-10.4399995803833,73.86000061035156,-17.940000534057617
1788676384653326300,17.418326416015624,-10.559999465942383,74.22000122070312,-17.760000228881836
1788676384669165000,17.4341650390625,-10.559999465942383,74.0999984741211,-18.600000381469727
1788676384685064700,17.450064697265624,-11.279999732971191,74.27999877929688,-19.19999885559082
1788676384700934000,17.465933837890624,-11.9399995803833,73.55999755859375,-18.059999465942383
1788676384716864000,17.481864013671874,-11.639999389648438,73.6199951171875,-17.399999618530273
1788676384732733200,17.497733154296874,-11.15999984741211,74.04000091552734,-18.18000030517578
1788676384748602000,17.51360205078125,-10.619999885559082,74.04000091552734,-19.079999923706055
1788676384764471300,17.52947119140625,-11.399999618530273,73.86000061035156,-19.260000228881836
1788676384780340500,17.545340576171874,-11.579999923706055,73.86000061035156,-18.299999237060547
1788676384796270600,17.5612705078125,-11.279999732971191,73.86000061035156,-17.760000228881836
1788676384812201000,17.577200927734374,-11.09999942779541,73.91999816894531,-18.84000015258789
1788676384828009000,17.593009033203124,-10.619999885559082,73.55999755859375,-19.559999465942383
1788676384843878100,17.608878173828124,-11.09999942779541,73.5,-19.439998626708984
1788676384859716600,17.624716552734377,-11.399999618530273,73.68000030517578,-19.19999885559082
1788676384875647000,17.64064697265625,-11.819999694824219,73.26000213623047,-19.559999465942383
1788676384891577000,17.6565771484375,-11.15999984741211,73.08000183105469,-19.979999542236328
1788676384907446300,17.6724462890625,-10.5,73.6199951171875,-19.799999237060547
1788676384923346000,17.688345947265624,-11.460000038146973,73.6199951171875,-19.799999237060547
1788676384939245600,17.70424560546875,-12.239999771118164,73.43999481201172,-20.279998779296875
1788676384955114800,17.72011474609375,-11.75999927520752,73.31999969482422,-20.34000015258789
1788676384971044900,17.736044921875,-10.679999351501465,72.77999877929688,-20.399999618530273
1788676384986914000,17.7519140625,-11.09999942779541,73.37999725341797,-20.579999923706055
1788676385002752500,17.76775244140625,-10.319999694824219,73.97999572753906,-20.459999084472656
1788676385018652200,17.783652099609377,-10.019999504089355,73.55999755859375,-20.34000015258789
1788676385034582500,17.79958251953125,-10.739999771118164,73.55999755859375,-20.639999389648438
1788676385050482200,17.815482177734374,-10.139999389648438,73.91999816894531,-21.119998931884766
1788676385066290200,17.831290283203124,-10.139999389648438,73.43999481201172,-21.059999465942383
1788676385082159400,17.847159423828124,-9.65999984741211,73.26000213623047,-21
1788676385098059000,17.86305908203125,-9.65999984741211,73.91999816894531,-20.939998626708984
1788676385113928200,17.87892822265625,-10.199999809265137,73.91999816894531,-20.69999885559082
1788676385129827800,17.894827880859374,-9.300000190734863,73.6199951171875,-20.760000228881836
1788676385145727500,17.9107275390625,-9.479999542236328,73.91999816894531,-19.85999870300293
1788676385161627100,17.926627197265624,-9.960000038146973,74.58000183105469,-19.139999389648438
1788676385177496300,17.942496337890624,-9.479999542236328,74.76000213623047,-20.100000381469727
1788676385193396000,17.95839599609375,-9.539999961853027,74.76000213623047,-20.520000457763672
1788676385209234400,17.974234375,-9.65999984741211,74.4000015258789,-20.639999389648438
1788676385225134000,17.990134033203127,-9.479999542236328,74.63999938964844,-21.239999771118164
1788676385241064400,18.006064453125,-8.699999809265137,74.87999725341797,-21.299999237060547
1788676385256933600,18.02193359375,-8.460000038146973,75,-20.520000457763672
1788676385272863700,18.03786376953125,-9.539999961853027,75.41999816894531,-20.219999313354492
1788676385288763400,18.053763427734374,-9.359999656677246,75.29999542236328,-20.279998779296875
1788676385304601900,18.069601806640627,-8.880000114440918,74.81999969482422,-20.15999984741211
1788676385320501800,18.085501708984374,-9.59999942779541,74.5199966430664,-20.15999984741211
1788676385336370700,18.10137060546875,-10.4399995803833,74.93999481201172,-20.279998779296875
1788676385352270300,18.117270263671877,-10.319999694824219,75,-20.279998779296875
1788676385368109000,18.133109130859374,-9.420000076293945,74.81999969482422,-20.34000015258789
1788676385383947800,18.14894775390625,-8.880000114440918,75.29999542236328,-19.85999870300293
1788676385399847400,18.164847412109374,-9.65999984741211,76.13999938964844,-20.459999084472656
1788676385415747000,18.1807470703125,-10.319999694824219,76.6199951171875,-21.059999465942383
1788676385431677200,18.19667724609375,-9.59999942779541,76.43999481201172,-20.15999984741211
1788676385447607300,18.212607177734377,-9,76.5,-19.619998931884766
1788676385463476500,18.2284765625,-8.880000114440918,76.79999542236328,-19.920000076293945
1788676385479406600,18.244406494140627,-9.300000190734863,77.27999877929688,-20.03999900817871
1788676385495275800,18.26027587890625,-9.179999351501465,77.27999877929688,-20.34000015258789
1788676385511206000,18.276205810546877,-8.639999389648438,76.6199951171875,-20.399999618530273
1788676385527075000,18.292074951171877,-8.519999504089355,77.0999984741211,-20.100000381469727
1788676385542944300,18.3079443359375,-8.639999389648438,77.87999725341797,-20.520000457763672
1788676385558813400,18.3238134765625,-8.039999961853027,77.75999450683594,-20.579999923706055
1788676385574682600,18.3396826171875,-7.319999694824219,77.45999908447266,-20.81999969482422
1788676385590551800,18.3555517578125,-7.139999866485596,78.23999786376953,-21
1788676385606482000,18.37148193359375,-6.899999618530273,78.72000122070312,-21.119998931884766
1788676385622351000,18.38735107421875,-6.71999979019165,78,-20.579999923706055
1788676385638220000,18.403219970703127,-6.960000038146973,77.75999450683594,-20.279998779296875
1788676385654089200,18.419089111328127,-7.859999656677246,78.29999542236328,-19.920000076293945
1788676385670019600,18.43501953125,-8.09999942779541,78.1199951171875,-19.799999237060547
1788676385685949700,18.45094970703125,-7.739999771118164,77.87999725341797,-20.459999084472656
1788676385701819000,18.46681884765625,-7.559999942779541,77.75999450683594,-20.8799991607666
1788676385717687800,18.482687744140627,-7.319999694824219,77.63999938964844,-21.35999870300293
1788676385733526500,18.498526611328124,-7.319999694824219,77.5199966430664,-21.35999870300293
1788676385749456600,18.51445654296875,-6.899999618530273,77.4000015258789,-20.8799991607666
1788676385765356300,18.530356201171877,-6.779999732971191,77.75999450683594,-20.69999885559082
1788676385781195000,18.546195068359374,-7.319999694824219,78.47999572753906,-20.81999969482422
1788676385797125000,18.562125,-7.919999599456787,79.13999938964844,-21.53999900817871
1788676385813024800,18.578024658203127,-7.980000019073486,78.36000061035156,-22.079999923706055
1788676385828955000,18.593954833984377,-8.34000015258789,77.22000122070312,-21.959999084472656
1788676385844824000,18.609823974609377,-8.039999961853027,77.0999984741211,-21.479999542236328
1788676385860693200,18.625693359375,-7.980000019073486,76.68000030517578,-21.239999771118164
1788676385876562400,18.6415625,-9.420000076293945,76.5,-22.020000457763672
1788676385892462000,18.657462158203124,-9.420000076293945,76.73999786376953,-22.139999389648438
1788676385908392200,18.67339208984375,-7.679999828338623,76.37999725341797,-22.260000228881836
1788676385924322600,18.689322509765624,-7.859999656677246,77.15999603271484,-22.5
1788676385940191500,18.70519140625,-7.559999942779541,77.63999938964844,-22.3799991607666
1788676385956060700,18.721060791015624,-8.279999732971191,77.27999877929688,-22.3799991607666
1788676385971929900,18.736929931640624,-9.359999656677246,77.0999984741211,-22.799999237060547
1788676385987799000,18.752799072265624,-8.579999923706055,76.08000183105469,-22.619998931884766
1788676386003698700,18.76869873046875,-8.579999923706055,75.83999633789062,-22.079999923706055
1788676386019537200,18.784537109375,-8.399999618530273,75.83999633789062,-21.65999984741211
1788676386035437000,18.80043701171875,-8.699999809265137,75.47999572753906,-21.899999618530273
1788676386051306000,18.816305908203127,-9.300000190734863,75.72000122070312,-22.260000228881836
1788676386067236400,18.832236328125,-8.760000228881836,76.0199966430664,-22.19999885559082
1788676386083166500,18.84816650390625,-7.799999713897705,75.95999908447266,-23.219999313354492
1788676386098944000,18.863944091796874,-7.980000019073486,75,-22.979999542236328
1788676386114843600,18.87984375,-8.639999389648438,75.29999542236328,-22.619998931884766
1788676386130712800,18.895712890625,-8.220000267028809,76.13999938964844,-23.219999313354492
1788676386146612500,18.911612548828124,-7.679999828338623,75.9000015258789,-23.69999885559082
1788676386162542600,18.92754248046875,-7.859999656677246,75.72000122070312,-24.119998931884766
1788676386178381300,18.94338134765625,-7.440000057220459,75.72000122070312,-23.34000015258789
1788676386194250500,18.95925048828125,-7.919999599456787,75.77999877929688,-22.739999771118164
1788676386210150100,18.975150146484374,-8.220000267028809,75.77999877929688,-22.920000076293945
1788676386226049800,18.9910498046875,-7.259999752044678,76.43999481201172,-23.51999855041504
1788676386241949400,19.006949462890624,-7.079999923706055,76.31999969482422,-24.35999870300293
1788676386257818600,19.022818603515624,-8.09999942779541,75.36000061035156,-24.479999542236328
1788676386273718300,19.03871826171875,-8.639999389648438,75.41999816894531,-23.939998626708984
1788676386289556700,19.054556640625,-8.34000015258789,75.77999877929688,-24.18000030517578
1788676386305487000,19.070487060546874,-7.799999713897705,76.31999969482422,-24.119998931884766
1788676386321417200,19.086417236328124,-6.659999847412109,76.68000030517578,-24.119998931884766
1788676386337255700,19.102255615234377,-7.019999980926514,77.15999603271484,-24.779998779296875
1788676386353124900,19.118124755859377,-7.559999942779541,77.15999603271484,-24.65999984741211
1788676386368994000,19.133994140625,-6.480000019073486,76.73999786376953,-24.719999313354492
1788676386384893700,19.149893798828124,-6.480000019073486,76.73999786376953,-24.719999313354492
1788676386400732400,19.165732421875,-7.079999923706055,76.0199966430664,-24.239999771118164
1788676386416601600,19.1816015625,-7.619999885559082,75.1199951171875,-24.239999771118164
1788676386432470500,19.197470458984377,-7.079999923706055,76.13999938964844,-24.239999771118164
1788676386448370200,19.2133701171875,-7.319999694824219,77.04000091552734,-23.939998626708984
1788676386464300500,19.229300537109374,-8.699999809265137,76.6199951171875,-23.579999923706055
1788676386480139000,19.245138916015627,-8.279999732971191,77.4000015258789,-23.399999618530273
1788676386496008200,19.26100830078125,-7.319999694824219,77.4000015258789,-24.18000030517578
1788676386511877400,19.27687744140625,-7.079999923706055,77.45999908447266,-23.760000228881836
1788676386527777000,19.292777099609374,-7.859999656677246,78.1199951171875,-23.399999618530273
1788676386543646200,19.308646240234374,-8.399999618530273,78,-23.760000228881836
1788676386559576300,19.324576416015624,-8.279999732971191,78.18000030517578,-23.279998779296875
1788676386575445500,19.340445556640624,-7.440000057220459,78.05999755859375,-23.03999900817871
1788676386591314700,19.356314697265624,-6.239999771118164,77.75999450683594,-23.03999900817871
1788676386607214300,19.37221435546875,-6.539999961853027,77.69999694824219,-23.69999885559082
1788676386623114000,19.388114013671874,-6.539999961853027,78.18000030517578,-24
1788676386639013600,19.404013671875,-6,78,-23.51999855041504
1788676386654882800,19.4198828125,-6.359999656677246,77.87999725341797,-22.799999237060547
1788676386670782500,19.435782470703124,-6.179999828338623,78.05999755859375,-23.219999313354492
1788676386686712600,19.451712646484374,-5.639999866485596,77.93999481201172,-24.18000030517578
1788676386702612200,19.4676123046875,-5.579999923706055,77.63999938964844,-24.059999465942383
1788676386718511900,19.483511962890624,-5.339999675750732,77.33999633789062,-23.760000228881836
1788676386734381000,19.499381103515624,-5.400000095367432,77.22000122070312,-23.34000015258789
1788676386750250200,19.515250244140624,-5.87999963760376,77.69999694824219,-23.459999084472656
1788676386766150000,19.53114990234375,-6.420000076293945,77.75999450683594,-23.51999855041504
1788676386782049500,19.547049560546874,-6.420000076293945,77.75999450683594,-23.15999984741211
1788676386797888000,19.562887939453127,-7.019999980926514,78.72000122070312,-23.03999900817871
1788676386813696300,19.5786962890625,-6.659999847412109,78.36000061035156,-23.639999389648438
1788676386829596000,19.594595947265624,-5.759999752044678,77.75999450683594,-24
1788676386845495600,19.61049560546875,-5.819999694824219,77.45999908447266,-23.51999855041504
1788676386861425700,19.62642578125,-6,77.45999908447266,-23.279998779296875
1788676386893072400,19.658072265625,-7.37999963760376,76.97999572753906,-24.35999870300293
1788676386909002500,19.67400244140625,-7.199999809265137,76.91999816894531,-24.18000030517578
1788676386924871700,19.68987158203125,-7.799999713897705,77.45999908447266,-23.939998626708984
1788676386940802000,19.705802001953124,-9,76.97999572753906,-23.51999855041504
1788676386956701700,19.72170166015625,-9.059999465942383,76.43999481201172,-23.459999084472656
1788676386972540200,19.7375400390625,-8.699999809265137,76.43999481201172,-23.579999923706055
1788676386988409300,19.753409423828124,-8.880000114440918,77.0999984741211,-22.979999542236328
1788676387004278500,19.769278564453124,-9,77.4000015258789,-23.100000381469727
1788676387020147700,19.785147705078124,-9.179999351501465,76.6199951171875,-23.8799991607666
1788676387036047400,19.80104736328125,-9.239999771118164,76.08000183105469,-24.059999465942383
1788676387051885800,19.8168857421875,-8.639999389648438,76.31999969482422,-23.81999969482422
1788676387067816200,19.832816162109374,-8.15999984741211,76.55999755859375,-23.219999313354492
1788676387083685000,19.84868505859375,-8.279999732971191,75.72000122070312,-23.399999618530273
1788676387099615500,19.864615478515624,-8.220000267028809,74.5199966430664,-23.579999923706055
1788676387115515100,19.88051513671875,-8.460000038146973,74.63999938964844,-23.34000015258789
1788676387131353600,19.896353515625,-9,75.47999572753906,-23.399999618530273
1788676387147222800,19.912222900390624,-9.239999771118164,75.41999816894531,-23.100000381469727
1788676387163122400,19.928122314453127,-9.65999984741211,75.9000015258789,-23.399999618530273
1788676387178991600,19.94399169921875,-8.880000114440918,76.0199966430664,-23.760000228881836
1788676387194921700,19.959921630859377,-8.039999961853027,75.47999572753906,-24
1788676387210791000,19.975791015625,-8.399999618530273,75.29999542236328,-23.639999389648438
1788676387226690600,19.991690673828124,-7.739999771118164,74.93999481201172,-22.739999771118164
1788676387242559700,20.007559814453124,-8.09999942779541,74.76000213623047,-22.979999542236328
1788676387258459400,20.02345947265625,-8.639999389648438,75.41999816894531,-23.579999923706055
1788676387274359000,20.039359130859374,-8.699999809265137,75.29999542236328,-23.579999923706055
1788676387290228200,20.055228271484374,-9.420000076293945,74.69999694824219,-23.03999900817871
1788676387306097400,20.071097412109374,-9.300000190734863,75.23999786376953,-23.15999984741211
1788676387322027500,20.087027587890624,-8.15999984741211,75.41999816894531,-23.8799991607666
1788676387337927200,20.10292724609375,-8.15999984741211,75.29999542236328,-24
1788676387353796400,20.11879638671875,-9,75.47999572753906,-23.51999855041504
1788676387369665500,20.13466552734375,-8.760000228881836,75.83999633789062,-23.03999900817871
1788676387385565200,20.150565185546874,-8.819999694824219,76.31999969482422,-23.100000381469727
1788676387401495300,20.166495361328124,-8.880000114440918,76.68000030517578,-23.15999984741211
1788676387417395000,20.18239501953125,-8.639999389648438,76.13999938964844,-22.619998931884766
1788676387433325000,20.198324951171877,-8.639999389648438,75.47999572753906,-21.959999084472656
1788676387449133300,20.21413330078125,-9.239999771118164,75.72000122070312,-21.959999084472656
1788676387465033000,20.230032958984374,-9.84000015258789,76.31999969482422,-22.020000457763672
1788676387480932600,20.2459326171875,-9.899999618530273,76.31999969482422,-21.53999900817871
1788676387496801800,20.2618017578125,-9.779999732971191,76.19999694824219,-21.420000076293945
1788676387512732000,20.27773193359375,-9.300000190734863,76.31999969482422,-22.079999923706055
1788676387528601000,20.29360107421875,-9.239999771118164,76.13999938964844,-21.600000381469727
1788676387544500700,20.309500732421874,-9.960000038146973,75.72000122070312,-21.65999984741211
1788676387560339200,20.325339111328127,-10.319999694824219,75.9000015258789,-21.899999618530273
1788676387576238800,20.34123876953125,-10.260000228881836,76.0199966430664,-21.059999465942383
1788676387592138500,20.357138427734377,-9.899999618530273,75.5999984741211,-20.81999969482422
1788676387608007700,20.373007568359377,-10.319999694824219,76.6199951171875,-20.8799991607666
1788676387623876900,20.388876953125,-10.319999694824219,76.68000030517578,-20.520000457763672
1788676387639746000,20.40474609375,-10.679999351501465,76.08000183105469,-19.739999771118164
1788676387655645700,20.420645751953124,-11.519999504089355,76.91999816894531,-19.31999969482422
1788676387671575800,20.436575927734374,-10.260000228881836,77.63999938964844,-19.5
1788676387687445000,20.452445068359374,-10.380000114440918,77.4000015258789,-19.139999389648438
1788676387703344600,20.4683447265625,-10.559999465942383,77.22000122070312,-19.619998931884766
1788676387719213800,20.4842138671875,-10.139999389648438,77.22000122070312,-19.799999237060547
1788676387735144000,20.50014404296875,-10.199999809265137,76.97999572753906,-19.619998931884766
1788676387751043600,20.516043701171874,-9.359999656677246,76.43999481201172,-19.979999542236328
1788676387766912800,20.531912841796874,-8.880000114440918,76.37999725341797,-19.85999870300293
1788676387784102400,20.549102294921877,-10.260000228881836,76.5,-20.15999984741211
1788676387799788300,20.564788330078127,-11.279999732971191,75.9000015258789,-19.739999771118164
1788676387815688000,20.58068798828125,-10.679999351501465,75.83999633789062,-19.920000076293945
1788676387831954000,20.596953857421877,-11.09999942779541,76.43999481201172,-20.399999618530273
1788676387847853600,20.612853515625,-12.300000190734863,76.43999481201172,-19.85999870300293
1788676387863478500,20.628478515625,-11.399999618530273,76.19999694824219,-20.15999984741211
1788676387879713800,20.6447138671875,-9.59999942779541,76.79999542236328,-19.799999237060547
1788676387895430400,20.660430419921877,-9.359999656677246,77.4000015258789,-18.779998779296875
1788676387911635200,20.67663525390625,-10.5,77.04000091552734,-18.899999618530273
1788676387927596000,20.692595947265627,-11.279999732971191,76.37999725341797,-18.899999618530273
1788676387943190500,20.7081904296875,-11.34000015258789,76.86000061035156,-19.079999923706055
1788676387959486700,20.72448681640625,-11.279999732971191,77.27999877929688,-19.559999465942383
1788676387975142400,20.740142333984377,-11.09999942779541,77.04000091552734,-20.03999900817871
1788676387990737000,20.75573681640625,-10.920000076293945,77.0999984741211,-19.979999542236328
1788676388007307800,20.772307861328127,-11.09999942779541,77.33999633789062,-20.639999389648438
1788676388022932700,20.7879326171875,-11.75999927520752,76.31999969482422,-21.479999542236328
1788676388039198700,20.80419873046875,-12.119999885559082,75.65999603271484,-21.059999465942383
1788676388054915300,20.819915283203127,-12.119999885559082,76.19999694824219,-20.939998626708984
1788676388071120100,20.8361201171875,-11.579999923706055,75.36000061035156,-20.34000015258789
1788676388086775600,20.851775634765627,-11.15999984741211,74.27999877929688,-19.439998626708984
1788676388102675200,20.86767529296875,-11.34000015258789,74.4000015258789,-19.619998931884766
1788676388118941200,20.883941162109377,-11.639999389648438,74.45999908447266,-19.799999237060547
1788676388134596600,20.8995966796875,-12.719999313354492,73.97999572753906,-19.799999237060547
1788676388150862600,20.915862548828127,-12.420000076293945,73.68000030517578,-19.619998931884766
1788676388166487600,20.931487548828127,-11.75999927520752,73.55999755859375,-19.85999870300293
1788676388182417700,20.947417724609377,-12.420000076293945,73.68000030517578,-20.279998779296875
