time,seconds_elapsed,z,y,x
1787814512577589500,0.137589599609375,2.5194942951202393,9.477452278137207,0.02148454077541828
1787814512593774000,0.153774169921875,2.531290292739868,9.4743070602417,0.021665597334504128
1787814512610009000,0.170009033203125,2.5851352214813232,9.45975399017334,0.022591186687350273
1787814512626180600,0.1861806640625,2.653710126876831,9.440741539001465,0.025037119165062904
1787814512642423800,0.202423828125,2.7065529823303223,9.425713539123535,0.030179450288414955
1787814512666700000,0.226699951171875,2.735105276107788,9.417431831359863,0.03975245729088783
1787814512682958000,0.2429580078125,2.7243244647979736,9.420557022094727,0.039414603263139725
1787814512699137300,0.25913720703125,2.714747428894043,9.423337936401367,0.035514090210199356
1787814512715366700,0.27536669921875,2.7248940467834473,9.420475006103516,-0.0004024433146696538
1787814512731608600,0.291608642578125,2.749739170074463,9.413206100463867,-0.029804186895489693
1787814512747801900,0.3078017578125,2.7607595920562744,9.409852027893066,-0.0573088638484478
1787814512764009000,0.324009033203125,2.772656202316284,9.406318664550781,-0.06271306425333023
1787814512780175000,0.340175048828125,2.785604953765869,9.40256404876709,-0.050845514982938766
1787814512796424000,0.356423828125,2.7963078022003174,9.399483680725098,-0.02775280736386776
1787814512812684500,0.3726845703125,2.809316873550415,9.395636558532715,-0.012817980721592903
1787814512828895000,0.38889501953125,2.812593698501587,9.39466381072998,-0.0029778468888252974
1787814512845123800,0.405123779296875,2.800006628036499,9.39841079711914,0.015097616240382195
1787814512861276700,0.421276611328125,2.7743961811065674,9.405982971191406,0.02431231178343296
1787814512877486000,0.437486083984375,2.772459030151367,9.4065580368042,0.02340191788971424
1787814512893708800,0.453708740234375,2.7721095085144043,9.40666389465332,0.022187573835253716
1787814512909885000,0.469885009765625,2.7730019092559814,9.406404495239258,0.020638590678572655
1787814512926129700,0.486129638671875,2.775442123413086,9.405685424804688,0.01957651600241661
1787814512942291200,0.502291259765625,2.7788145542144775,9.40468978881836,0.01919160783290863
1787814512958513000,0.518512939453125,2.781374454498291,9.403934478759766,0.019313480705022812
1787814512974742800,0.53474267578125,2.782737970352173,9.40353012084961,0.019736966118216515
1787814512990925000,0.550925048828125,2.7838799953460693,9.403188705444336,0.021399931982159615
1787814513007176700,0.5671767578125,2.785639762878418,9.40265941619873,0.02451806329190731
1787814513023355600,0.583355712890625,2.787010669708252,9.402246475219727,0.027295710518956184
1787814513039588900,0.5995888671875,2.787804126739502,9.402007102966309,0.028364216908812523
1787814513055821800,0.61582177734375,2.7887439727783203,9.401728630065918,0.028476152569055557
1787814513072007400,0.63200732421875,2.7909014225006104,9.401087760925293,0.028639819473028183
1787814513088221200,0.64822119140625,2.7938382625579834,9.400208473205566,0.030904550105333328
1787814513104401700,0.664401611328125,2.79483962059021,9.39989185333252,0.035960372537374496
1787814513120645600,0.680645751953125,2.793264150619507,9.4003324508667,0.042622461915016174
1787814513136893200,0.69689306640625,2.7911458015441895,9.400928497314453,0.049424540251493454
1787814513153090800,0.7130908203125,2.7911431789398193,9.400901794433594,0.054540861397981644
1787814513169257000,0.729257080078125,2.79481840133667,9.399778366088867,0.05959668383002281
1787814513185450200,0.7454501953125,2.799051284790039,9.398482322692871,0.06513327360153198
1787814513201702000,0.761701904296875,2.8013408184051514,9.397770881652832,0.06920125335454941
1787814513217903600,0.777903564453125,2.8021576404571533,9.397523880004883,0.06980740278959274
1787814513234112500,0.794112548828125,2.8022544384002686,9.397505760192871,0.06815145164728165
1787814513250335500,0.81033544921875,2.802140235900879,9.397561073303223,0.06530074030160904
1787814513266536200,0.8265361328125,2.8021442890167236,9.397575378417969,0.06289046257734299
1787814513282798000,0.842798095703125,2.8029232025146484,9.397348403930664,0.06214987486600876
1787814513299065900,0.85906591796875,2.8033337593078613,9.397212028503418,0.06406594067811966
1787814513315233300,0.8752333984375,2.8015224933624268,9.397740364074707,0.06608838587999344
1787814513331473200,0.89147314453125,2.797175168991089,9.399035453796387,0.06603635847568512
1787814513347632400,0.90763232421875,2.791659116744995,9.400683403015137,0.06490560621023178
1787814513363851300,0.923851318359375,2.786649227142334,9.402191162109375,0.061679042875766754
1787814513380125000,0.940125,2.783186912536621,9.403260231018066,0.05461334064602852
1787814513396295400,0.95629541015625,2.7815260887145996,9.403799057006836,0.045357730239629745
1787814513412543500,0.97254345703125,2.781189441680908,9.403938293457031,0.03674187883734703
1787814513428710100,0.988710205078125,2.7806057929992676,9.404130935668945,0.03088584542274475
1787814513444940300,1.004940185546875,2.778409481048584,9.404784202575684,0.029421618208289146
1787814513461172700,1.0211728515625,2.7754123210906982,9.405661582946777,0.0319753922522068
1787814513477352400,1.0373525390625,2.77174711227417,9.406712532043457,0.039777886122465134
1787814513493605400,1.05360546875,2.768188238143921,9.407699584960938,0.05190437659621239
1787814513509780700,1.06978076171875,2.7648444175720215,9.408600807189941,0.0653761476278305
1787814513525911800,1.085911865234375,2.762613534927368,9.409163475036621,0.07753478735685349
1787814513542021000,1.102021240234375,2.761918067932129,9.409278869628906,0.08754735440015793
1787814513558078500,1.118078369140625,2.763721227645874,9.40866470336914,0.09625468403100967
1787814513574204000,1.134203857421875,2.76729679107666,9.407532691955566,0.10387451201677322
1787814513590254300,1.15025439453125,2.7708044052124023,9.406445503234863,0.10879705846309662
1787814513606359600,1.166359619140625,2.773203134536743,9.405704498291016,0.11167553812265396
1787814513622474000,1.182473876953125,2.7746098041534424,9.405261039733887,0.11404285579919815
1787814513638537700,1.198537841796875,2.7756757736206055,9.404929161071777,0.11553163081407547
1787814513654619100,1.214619140625,2.776111125946045,9.404784202575684,0.11687339842319489
1787814513670676000,1.230676025390625,2.774261236190796,9.405312538146973,0.11817659437656403
1787814513686789600,1.24678955078125,2.7699339389801025,9.40656566619873,0.11986352503299713
1787814513702910200,1.26291015625,2.7652337551116943,9.40793514251709,0.12089140713214874
1787814513718976000,1.27897607421875,2.7621006965637207,9.40887451171875,0.11953151226043701
1787814513735074300,1.29507421875,2.7619264125823975,9.408961296081543,0.11672201007604599
1787814513751101400,1.311101318359375,2.7636702060699463,9.408465385437012,0.11524579674005508
1787814513767224000,1.32722412109375,2.7663068771362305,9.407681465148926,0.11609131097793579
1787814513783366000,1.343365966796875,2.769240617752075,9.406806945800781,0.11696838587522507
1787814513799402800,1.35940283203125,2.7718873023986816,9.406031608581543,0.11663374304771423
1787814513815513000,1.37551318359375,2.774869203567505,9.405158042907715,0.11621814966201782
1787814513831542500,1.39154248046875,2.775883197784424,9.40487289428711,0.114966981112957
1787814513847629300,1.40762939453125,2.7730441093444824,9.405755996704102,0.11121493577957153
1787814513863730400,1.42373046875,2.767225503921509,9.407523155212402,0.1065969243645668
1787814513879773000,1.43977294921875,2.7623496055603027,9.408980369567871,0.10436930507421494
1787814513895886600,1.455886474609375,2.755237579345703,9.411079406738281,0.10322802513837814
1787814513911923200,1.471923095703125,2.747798204421997,9.413265228271484,0.10215134173631668
1787814513928022000,1.48802197265625,2.7401351928710938,9.415523529052734,0.09991613030433655
1787814513944125400,1.50412548828125,2.7315871715545654,9.418054580688477,0.09536124020814896
1787814513960182300,1.520182373046875,2.7220304012298584,9.420881271362305,0.08930384367704391
1787814513976306700,1.536306640625,2.7135002613067627,9.423392295837402,0.08365443348884583
1787814513992354800,1.552354736328125,2.706602096557617,9.425406455993652,0.08002075552940369
1787814514008459000,1.568458984375,2.702677011489868,9.426529884338379,0.08037526905536652
1787814514024572400,1.584572509765625,2.703599452972412,9.426252365112305,0.08188216388225555
1787814514040631000,1.600631103515625,2.707496404647827,9.425151824951172,0.07988251745700836
1787814514056717300,1.61671728515625,2.71056866645813,9.424330711364746,0.07225333899259567
1787814514072772900,1.63277294921875,2.707726001739502,9.425206184387207,0.06412293016910553
1787814514088886500,1.648886474609375,2.6997716426849365,9.427511215209961,0.06045213341712952
1787814514105005000,1.665005126953125,2.687793493270874,9.430910110473633,0.06393705308437347
1787814514121044000,1.6810439453125,2.669332265853882,9.436070442199707,0.07506752014160156
1787814514137131300,1.69713134765625,2.6392338275909424,9.444360733032227,0.09424597024917603
1787814514153199000,1.71319921875,2.5992038249969482,9.455191612243652,0.11789865046739578
1787814514169320200,1.7293203125,2.5539605617523193,9.46713924407959,0.14478811621665955
1787814514185450500,1.745450439453125,2.510573625564575,9.478266716003418,0.1728513091802597
1787814514201529000,1.761529052734375,2.477525472640991,9.486360549926758,0.2031000256538391
1787814514217624300,1.777624267578125,2.459843873977661,9.490083694458008,0.24056319892406464
1787814514233698800,1.79369873046875,2.4655654430389404,9.487615585327148,0.2766401767730713
1787814514249836500,1.80983642578125,2.474670886993408,9.484030723571777,0.31553545594215393
1787814514265977600,1.8259775390625,2.469271183013916,9.483865737915039,0.35969871282577515
1787814514282014700,1.8420146484375,2.4524335861206055,9.48701000213623,0.39064446091651917
1787814514298123000,1.858123046875,2.4291348457336426,9.49220085144043,0.4096575081348419
1787814514314153500,1.874153564453125,2.403665781021118,9.498099327087402,0.42293432354927063
1787814514330240300,1.890240234375,2.376509428024292,9.504449844360352,0.43361762166023254
1787814514346386700,1.90638671875,2.3502254486083984,9.510696411132812,0.43989452719688416
1787814514362432800,1.922432861328125,2.326436996459961,9.516473770141602,0.441357284784317
1787814514378551000,1.938551025390625,2.3057901859283447,9.521599769592285,0.43915918469429016
1787814514394595300,1.95459521484375,2.291661024093628,9.525293350219727,0.4329962730407715
1787814514410696400,1.970696533203125,2.2820026874542236,9.527972221374512,0.42496320605278015
1787814514426805200,1.98680517578125,2.2743613719940186,9.52999210357666,0.42062458395957947
1787814514442860800,2.00286083984375,2.265740394592285,9.531915664672852,0.4235530495643616
1787814514458989300,2.0189892578125,2.257293462753296,9.533514976501465,0.4325479567050934
1787814514475038000,2.035037841796875,2.252551555633545,9.534024238586426,0.44585636258125305
1787814514491142700,2.051142578125,2.253732442855835,9.53287124633789,0.4641720652580261
1787814514507260700,2.0672607421875,2.2673964500427246,9.528491020202637,0.48702773451805115
1787814514523326700,2.08332666015625,2.2916066646575928,9.521718978881836,0.5057759881019592
1787814514539416800,2.099416748046875,2.320948600769043,9.513723373413086,0.5221648216247559
1787814514555472000,2.115471923828125,2.3520712852478027,9.50540542602539,0.5342483520507812
1787814514571579100,2.1315791015625,2.373577356338501,9.499960899353027,0.5359700322151184
1787814514587701500,2.147701416015625,2.3566782474517822,9.505277633666992,0.5159086585044861
1787814514603771000,2.16377099609375,2.325610876083374,9.51427936553955,0.4903244376182556
1787814514619861000,2.179861083984375,2.278629779815674,9.527071952819824,0.46166884899139404
1787814514635928800,2.1959287109375,2.21968936920166,9.542251586914062,0.434517502784729
1787814514652049400,2.21204931640625,2.1546430587768555,9.55842399597168,0.40555065870285034
1787814514668169200,2.228169189453125,2.0904996395111084,9.574018478393555,0.37200024724006653
1787814514684243500,2.244243408203125,2.0430455207824707,9.585541725158691,0.3372635841369629
1787814514700349200,2.26034912109375,2.0290675163269043,9.589271545410156,0.3148685097694397
1787814514716376600,2.27637646484375,2.059368848800659,9.582488059997559,0.3244882822036743
1787814514732439600,2.292439453125,2.1307618618011475,9.564839363098145,0.3796139359474182
1787814514748571100,2.308571044921875,2.2092201709747314,9.543359756469727,0.46263885498046875
1787814514764596000,2.324595947265625,2.256885051727295,9.528088569641113,0.54072105884552
1787814514780705500,2.34070556640625,2.261808156967163,9.523974418640137,0.5903773307800293
1787814514796721400,2.356721435546875,2.229172945022583,9.530778884887695,0.6045295000076294
1787814514812807400,2.372807373046875,2.1853065490722656,9.541753768920898,0.5913982391357422
1787814514828945700,2.388945556640625,2.1451873779296875,9.552787780761719,0.5593029856681824
1787814514844982800,2.404982666015625,2.110565185546875,9.56264591217041,0.521264374256134
1787814514861102300,2.421102294921875,2.0889015197753906,9.56917667388916,0.48762044310569763
1787814514877132000,2.437132080078125,2.0846219062805176,9.57133960723877,0.4628443121910095
1787814514893223400,2.453223388671875,2.097249746322632,9.569183349609375,0.4501698315143585
1787814514909267200,2.46926708984375,2.1229248046875,9.563486099243164,0.4509057402610779
1787814514925312300,2.485312255859375,2.157156467437744,9.555262565612793,0.462629497051239
1787814514941433600,2.50143359375,2.1946237087249756,9.545947074890137,0.47844696044921875
1787814514957473300,2.517473388671875,2.2275307178497314,9.537751197814941,0.4896998703479767
1787814514973581600,2.53358154296875,2.2539591789245605,9.531426429748535,0.49191901087760925
1787814514989693700,2.549693603515625,2.300172805786133,9.521754264831543,0.46453621983528137
1787814515005758700,2.5657587890625,2.3315062522888184,9.515491485595703,0.435757577419281
1787814515021844200,2.58184423828125,2.3541367053985596,9.51120376586914,0.4067351818084717
1787814515037892400,2.597892333984375,2.37154221534729,9.50775146484375,0.38581016659736633
1787814515054005500,2.614005615234375,2.398588180541992,9.50186824798584,0.36288201808929443
1787814515070120400,2.630120361328125,2.4337821006774902,9.493866920471191,0.33705198764801025
1787814515086193700,2.646193603515625,2.469193696975708,9.485601425170898,0.31124183535575867
1787814515102283500,2.662283447265625,2.5014309883117676,9.477959632873535,0.2855304777622223
1787814515118351400,2.678351318359375,2.527761697769165,9.471734046936035,0.2589890956878662
1787814515134478300,2.694478271484375,2.549107551574707,9.466747283935547,0.23055414855480194
1787814515150607000,2.710607177734375,2.5654296875,9.463001251220703,0.20141425728797913
1787814515166684400,2.726684326171875,2.57710337638855,9.460352897644043,0.1751449704170227
1787814515182784800,2.74278466796875,2.5864756107330322,9.458112716674805,0.1570136845111847
1787814515198856200,2.758856201171875,2.5928359031677246,9.456544876098633,0.14609043300151825
1787814515214990300,2.774990234375,2.593174695968628,9.456558227539062,0.13913317024707794
1787814515231120600,2.79112060546875,2.583437442779541,9.459321022033691,0.132205992937088
1787814515247208700,2.807208740234375,2.5601248741149902,9.465780258178711,0.12313099950551987
1787814515263318500,2.823318603515625,2.5212481021881104,9.476339340209961,0.11277443915605545
1787814515279353900,2.839353759765625,2.4716196060180664,9.489564895629883,0.09821370989084244
1787814515295436800,2.855436767578125,2.421630859375,9.50256061553955,0.08642799407243729
1787814515311589600,2.871589599609375,2.389758825302124,9.51068115234375,0.0798904076218605
1787814515327635200,2.88763525390625,2.4112508296966553,9.505254745483398,0.08010463416576385
1787814515343758300,2.90375830078125,2.454362630844116,9.494234085083008,0.0775403380393982
1787814515359793000,2.91979296875,2.5021018981933594,9.481789588928223,0.07453063130378723
1787814515375884000,2.935884033203125,2.535428524017334,9.472944259643555,0.07303221523761749
1787814515391986200,2.951986083984375,2.554704427719116,9.467747688293457,0.07495704293251038
1787814515408047600,2.968047607421875,2.578174352645874,9.46130657196045,0.08436550945043564
1787814515424176000,2.984176025390625,2.6168148517608643,9.450584411621094,0.09549567848443985
1787814515440225800,3.000225830078125,2.671226739883423,9.435330390930176,0.0973489060997963
1787814515456330500,3.01633056640625,2.735323905944824,9.417119979858398,0.079183429479599
1787814515472398000,3.032398193359375,2.796119451522827,9.39948558807373,0.04233896732330322
1787814515488455200,3.048455078125,2.837435007095337,9.387184143066406,-0.011399637907743454
1787814515504546300,3.06454638671875,2.844709873199463,9.384687423706055,-0.07523760944604874
1787814515520600800,3.080600830078125,2.817326784133911,9.392332077026367,-0.1309969127178192
1787814515536720100,3.09672021484375,2.7658848762512207,9.407065391540527,-0.16555209457874298
1787814515552832800,3.112832763671875,2.7003257274627686,9.425910949707031,-0.17560119926929474
1787814515568886300,3.12888623046875,2.632951498031616,9.445178031921387,-0.16298633813858032
1787814515584970200,3.14497021484375,2.568107843399048,9.46347427368164,-0.13378828763961792
1787814515601021700,3.161021728515625,2.5142953395843506,9.478370666503906,-0.09602496773004532
1787814515617128200,3.177128173828125,2.482459306716919,9.487083435058594,-0.05523848906159401
1787814515641275400,3.201275390625,2.487149477005005,9.486006736755371,0.01146656647324562
1787814515657404000,3.21740380859375,2.5195441246032715,9.477325439453125,0.05087883025407791
1787814515673482000,3.23348193359375,2.5585758686065674,9.466750144958496,0.06875322014093399
1787814515689555500,3.249555419921875,2.592743396759033,9.457551002502441,0.05292261391878128
1787814515705704200,3.2657041015625,2.6154215335845947,9.451452255249023,0.003844692837446928
1787814515721792300,3.281792236328125,2.6285388469696045,9.447606086730957,-0.06242986023426056
1787814515737878500,3.29787841796875,2.636512279510498,9.444746017456055,-0.12632891535758972
1787814515753967000,3.313967041015625,2.6403651237487793,9.442827224731445,-0.17857816815376282
1787814515770058800,3.330058837890625,2.639320135116577,9.442523002624512,-0.20774726569652557
1787814515786164200,3.346164306640625,2.6339473724365234,9.443920135498047,-0.212305948138237
1787814515802201600,3.36220166015625,2.6232991218566895,9.447158813476562,-0.19972236454486847
1787814515818295300,3.37829541015625,2.608203411102295,9.451667785644531,-0.18348346650600433
1787814515834404400,3.394404296875,2.593724250793457,9.455825805664062,-0.17420944571495056
1787814515850449400,3.410449462890625,2.5817670822143555,9.459062576293945,-0.17607203125953674
1787814515866567000,3.42656689453125,2.572119951248169,9.461461067199707,-0.18799538910388947
1787814515882610200,3.442610107421875,2.5671494007110596,9.462403297424316,-0.20752164721488953
1787814515898706200,3.4587060546875,2.565869092941284,9.462308883666992,-0.22674597799777985
1787814515914820900,3.47482080078125,2.5660271644592285,9.46187686920166,-0.24246084690093994
1787814515930885600,3.4908857421875,2.566831111907959,9.461270332336426,-0.25715339183807373
1787814515947013400,3.507013427734375,2.5673277378082275,9.46066665649414,-0.2738569974899292
1787814515963073800,3.52307373046875,2.5565075874328613,9.463187217712402,-0.28767129778862
1787814515979178000,3.539177978515625,2.524937629699707,9.471355438232422,-0.29748979210853577
1787814515995258000,3.555258056640625,2.465257167816162,9.487183570861816,-0.2937251627445221
1787814516011323400,3.571323486328125,2.3947858810424805,9.505867004394531,-0.27180150151252747
1787814516027470300,3.58747021484375,2.3248391151428223,9.524312019348145,-0.23020897805690765
1787814516043477500,3.6034775390625,2.265979290008545,9.539589881896973,-0.17877046763896942
1787814516059601400,3.619601318359375,2.21342134475708,9.552667617797852,-0.13311785459518433
1787814516075685000,3.63568505859375,2.1554906368255615,9.56619930267334,-0.10989011824131012
1787814516091760000,3.651760009765625,2.0889103412628174,9.580907821655273,-0.11428660154342651
1787814516107897300,3.6678974609375,2.0314736366271973,9.592925071716309,-0.1389767974615097
1787814516123953200,3.683953125,2.003230094909668,9.598410606384277,-0.1672261655330658
1787814516140087800,3.700087890625,2.014488458633423,9.595685958862305,-0.18717063963413239
1787814516156207000,3.71620703125,2.058720588684082,9.586335182189941,-0.18502777814865112
1787814516172282000,3.7322822265625,2.1100621223449707,9.575651168823242,-0.15784546732902527
1787814516188425000,3.748425048828125,2.140605926513672,9.569430351257324,-0.11912848800420761
1787814516204489700,3.76448974609375,2.1295087337493896,9.572253227233887,-0.08695756644010544
1787814516220620000,3.7806201171875,2.0679538249969482,9.585841178894043,-0.07490385323762894
1787814516236710700,3.796710693359375,1.985825777053833,9.603135108947754,-0.08191899210214615
1787814516252745500,3.812745361328125,1.909380555152893,9.6184663772583,-0.09897387772798538
1787814516268854800,3.828854736328125,1.8471587896347046,9.63041877746582,-0.11591244488954544
1787814516284933000,3.84493310546875,1.8035476207733154,9.63858699798584,-0.12347820401191711
1787814516301018600,3.8610185546875,1.7863088846206665,9.641888618469238,-0.11600831151008606
1787814516317131500,3.877131591796875,1.7990984916687012,9.6397705078125,-0.09205605834722519
1787814516333188900,3.89318896484375,1.8374348878860474,9.63279914855957,-0.05836217477917671
1787814516349315600,3.909315673828125,1.890936255455017,9.622589111328125,-0.023644788190722466
1787814516365410600,3.92541064453125,1.9530887603759766,9.61019229888916,0.0066992053762078285
1787814516381502500,3.94150244140625,2.01190447807312,9.598005294799805,0.030355975031852722
1787814516397608700,3.957608642578125,2.054792642593384,9.588848114013672,0.04689297825098038
1787814516413667000,3.9736669921875,2.09546160697937,9.579981803894043,0.05823270231485367
1787814516429795000,3.989795166015625,2.0899109840393066,9.581137657165527,0.06687398254871368
1787814516445886700,4.00588671875,2.0688412189483643,9.585659980773926,0.07354249805212021
1787814516461979100,4.021979248046875,2.046267032623291,9.59045124053955,0.08019699156284332
1787814516478092800,4.0380927734375,2.032484292984009,9.59328842163086,0.09058423340320587
1787814516494150700,4.054150634765625,2.0313451290130615,9.593345642089844,0.10844342410564423
1787814516510282800,4.07028271484375,2.0357327461242676,9.592119216918945,0.1320236176252365
1787814516526347500,4.086347412109375,2.0410614013671875,9.590619087219238,0.1564902514219284
1787814516542467000,4.102467041015625,2.0465614795684814,9.58906078338623,0.1786532700061798
1787814516558542800,4.11854296875,2.0523650646209717,9.587433815002441,0.1982256919145584
1787814516574621200,4.13462109375,2.0559041500091553,9.586332321166992,0.2142220139503479
1787814516590762800,4.1507626953125,2.05441951751709,9.586384773254395,0.22576865553855896
1787814516606793200,4.166793212890625,2.0488085746765137,9.587504386901855,0.2292199730873108
1787814516622924300,4.18292431640625,2.0377063751220703,9.58981704711914,0.2314642369747162
1787814516639023000,4.199023193359375,2.0148191452026367,9.594548225402832,0.23570260405540466
1787814516655113500,4.215113525390625,1.986601710319519,9.60036849975586,0.2381809800863266
1787814516671264500,4.231264404296875,1.961174726486206,9.605646133422852,0.23608547449111938
1787814516687352300,4.247352294921875,1.9456106424331665,9.608914375305176,0.2318386286497116
1787814516703493000,4.2634931640625,1.9578624963760376,9.60653305053711,0.22735564410686493
1787814516719596000,4.279595947265625,1.9926035404205322,9.599462509155273,0.22415654361248016
1787814516735640800,4.295640869140625,2.027890920639038,9.59216594696045,0.22003713250160217
1787814516751749400,4.311749267578125,2.0474560260772705,9.588170051574707,0.21292729675769806
1787814516767793000,4.32779296875,2.0608601570129395,9.585412979125977,0.20765696465969086
1787814516783886000,4.343885986328125,2.09783673286438,9.577178955078125,0.2171349823474884
1787814516799998500,4.35999853515625,2.169100761413574,9.560794830322266,0.23788754642009735
1787814516816065300,4.376065185546875,2.270145893096924,9.536897659301758,0.2537739872932434
1787814516832184600,4.3921845703125,2.3891234397888184,9.507765769958496,0.2547045350074768
1787814516848227600,4.4082275390625,2.491903305053711,9.481786727905273,0.23778000473976135
1787814516864324000,4.424323974609375,2.544358730316162,9.468523979187012,0.209032341837883
1787814516880439000,4.44043896484375,2.5237247943878174,9.474591255187988,0.18261457979679108
1787814516896496400,4.456496337890625,2.450791358947754,9.493789672851562,0.17882220447063446
1787814516912630300,4.47263037109375,2.3600287437438965,9.516308784484863,0.20133623480796814
1787814516928672800,4.4886728515625,2.2685530185699463,9.537485122680664,0.24586248397827148
1787814516944776000,4.50477587890625,2.186007499694824,9.554903984069824,0.3092120885848999
1787814516960847000,4.52084716796875,2.1238632202148438,9.566166877746582,0.3847343623638153
1787814516976911000,4.5369111328125,2.089627981185913,9.570066452026367,0.466566264629364
1787814516993052000,4.553052001953125,2.0874860286712646,9.565892219543457,0.5536299347877502
1787814517009118000,4.569117919921875,2.121093988418579,9.553323745727539,0.6366907954216003
1787814517025230800,4.58523095703125,2.183666467666626,9.534586906433105,0.7026073336601257
1787814517041303000,4.601302978515625,2.2592878341674805,9.514162063598633,0.7394190430641174
1787814517057370600,4.61737060546875,2.325864315032959,9.498392105102539,0.7357310056686401
1787814517073509600,4.633509521484375,2.3714869022369385,9.4900484085083,0.6967281699180603
1787814517089571000,4.649571044921875,2.392540454864502,9.489294052124023,0.6320172548294067
1787814517105695000,4.665695068359375,2.3974215984344482,9.492901802062988,0.5546057820320129
1787814517121777700,4.681777587890625,2.3991336822509766,9.496950149536133,0.4716907739639282
1787814517137853700,4.697853759765625,2.4034602642059326,9.499543190002441,0.39047378301620483
1787814517153954800,4.713954833984375,2.413119077682495,9.49981689453125,0.3173772692680359
1787814517169977000,4.72997705078125,2.428436756134033,9.497686386108398,0.25892916321754456
1787814517186064000,4.74606396484375,2.445652961730957,9.494468688964844,0.21036943793296814
1787814517202166800,4.762166748046875,2.4625773429870605,9.490985870361328,0.1652323603630066
1787814517218214100,4.778214111328125,2.477640151977539,9.487727165222168,0.12140081822872162
1787814517234324000,4.794323974609375,2.491788148880005,9.484477996826172,0.07785919308662415
1787814517250362000,4.810362060546875,2.510289430618286,9.479865074157715,0.03160831332206726
1787814517266458600,4.826458740234375,2.524897813796997,9.47602367401123,-0.015757834538817406
1787814517282563300,4.842563232421875,2.519589900970459,9.47728157043457,-0.05662643536925316
1787814517298613800,4.85861376953125,2.494370222091675,9.483708381652832,-0.08822393417358398
1787814517314735000,4.874735107421875,2.4520153999328613,9.49448013305664,-0.11338643729686737
1787814517330789400,4.890789306640625,2.398146152496338,9.507967948913574,-0.1335156112909317
1787814517346884400,4.90688427734375,2.3403778076171875,9.522134780883789,-0.14821049571037292
1787814517362955300,4.922955322265625,2.291506052017212,9.533933639526367,-0.15329846739768982
1787814517379058700,4.93905859375,2.2291669845581055,9.548502922058105,-0.16527298092842102
1787814517395180800,4.955180908203125,2.2350943088531494,9.547245979309082,-0.1576060950756073
1787814517411235600,4.971235595703125,2.2602617740631104,9.541376113891602,-0.1540849357843399
1787814517427338800,4.9873388671875,2.284205198287964,9.535354614257812,-0.1726689338684082
1787814517443417000,5.0034169921875,2.293760061264038,9.531974792480469,-0.22477906942367554
1787814517459464400,5.01946435546875,2.310340404510498,9.526351928710938,-0.28518298268318176
1787814517475618800,5.035618896484375,2.359370708465576,9.513073921203613,-0.3243637681007385
1787814517491764200,5.05176416015625,2.442847728729248,9.491686820983887,-0.33285629749298096
1787814517507864600,5.067864501953125,2.5387706756591797,9.46718978881836,-0.3120151460170746
1787814517523974400,5.083974365234375,2.610689878463745,9.448566436767578,-0.2815694510936737
1787814517540042500,5.10004248046875,2.631459951400757,9.4434175491333,-0.26017799973487854
1787814517556191700,5.116191650390625,2.594649076461792,9.45373821258545,-0.2549845278263092
1787814517572264000,5.132263916015625,2.5274736881256104,9.471941947937012,-0.25413230061531067
1787814517588390000,5.148389892578125,2.461087465286255,9.489694595336914,-0.24319443106651306
1787814517604476000,5.164475830078125,2.4149677753448486,9.502062797546387,-0.22163258492946625
1787814517620512000,5.180511962890625,2.3892054557800293,9.509170532226562,-0.19432517886161804
1787814517636662800,5.196662841796875,2.3780300617218018,9.5125150680542,-0.16570289433002472
1787814517652753000,5.2127529296875,2.3775386810302734,9.513092041015625,-0.1371469646692276
1787814517668843000,5.228843017578125,2.3927786350250244,9.509589195251465,-0.11287906765937805
1787814517684947000,5.244947021484375,2.425872325897217,9.501429557800293,-0.09144961833953857
1787814517700985900,5.26098583984375,2.474982738494873,9.488938331604004,-0.0700850561261177
1787814517717100000,5.27710009765625,2.532658815383911,9.473854064941406,-0.04611877724528313
1787814517733134300,5.29313427734375,2.5815515518188477,9.460736274719238,-0.021722586825489998
1787814517749229300,5.309229248046875,2.633889675140381,9.446320533752441,0.007254501339048147
1787814517765352200,5.325352294921875,2.6362929344177246,9.44560718536377,0.02972177043557167
1787814517781451300,5.341451171875,2.6202919483184814,9.449951171875,0.053791504353284836
1787814517797576400,5.357576416015625,2.5978152751922607,9.455955505371094,0.08151070028543472
1787814517813625300,5.373625244140625,2.578998565673828,9.460774421691895,0.11364684253931046
1787814517829732900,5.38973291015625,2.5663464069366455,9.463733673095703,0.14838935434818268
1787814517845848300,5.405848388671875,2.5631744861602783,9.463955879211426,0.18461598455905914
1787814517861912800,5.421912841796875,2.5709900856018066,9.461089134216309,0.21955373883247375
1787814517878043100,5.438043212890625,2.590759515762329,9.45484733581543,0.2534209191799164
1787814517894100200,5.454100341796875,2.6233837604522705,9.445009231567383,0.2829395830631256
1787814517910219500,5.470219482421875,2.669264078140259,9.431292533874512,0.31008273363113403
1787814517926298400,5.48629833984375,2.728170394897461,9.413368225097656,0.3405795693397522
1787814517942368500,5.502368408203125,2.7912895679473877,9.393548965454102,0.37458765506744385
1787814517958508300,5.51850830078125,2.850823163986206,9.374272346496582,0.4077288806438446
1787814517974566700,5.534566650390625,2.8959720134735107,9.359773635864258,0.42232319712638855
1787814517990698200,5.5506982421875,2.932814359664917,9.348240852355957,0.4235428273677826
1787814518006799400,5.56679931640625,2.9515175819396973,9.341907501220703,0.4332225024700165
1787814518022881800,5.5828818359375,2.9613354206085205,9.3378324508667,0.45363545417785645
1787814518039029000,5.599029052734375,2.9760210514068604,9.332074165344238,0.475472629070282
1787814518055105300,5.615105224609375,2.9986066818237305,9.324018478393555,0.4913596212863922
1787814518071241200,5.6312412109375,3.026339054107666,9.314698219299316,0.49806612730026245
1787814518087365000,5.647365234375,3.0533058643341064,9.306024551391602,0.4955918490886688
1787814518103383800,5.6633837890625,3.0709426403045654,9.300687789916992,0.48674511909484863
1787814518119495700,5.67949560546875,3.0806522369384766,9.297904968261719,0.47845396399497986
1787814518135584800,5.695584716796875,3.0965843200683594,9.292948722839355,0.4718766510486603
1787814518151694800,5.71169482421875,3.1191115379333496,9.286128997802734,0.4575263261795044
1787814518167804700,5.7278046875,3.145437479019165,9.278541564941406,0.43045711517333984
1787814518183848200,5.74384814453125,3.175701379776001,9.269853591918945,0.3938777446746826
1787814518199956000,5.7599560546875,3.2055439949035645,9.261395454406738,0.34848055243492126
1787814518216040400,5.77604052734375,3.220184326171875,9.258255958557129,0.29238077998161316
1787814518232135000,5.792135009765625,3.2026243209838867,9.266165733337402,0.22746260464191437
1787814518248236300,5.808236328125,3.1589434146881104,9.282471656799316,0.16489478945732117
1787814518264293400,5.82429345703125,3.1016547679901123,9.30245590209961,0.12024667859077454
1787814518280405000,5.840405029296875,3.046091318130493,9.321048736572266,0.0988280400633812
1787814518296432000,5.85643212890625,3.002413511276245,9.335183143615723,0.10126432776451111
1787814518312519200,5.872519287109375,2.9758517742156982,9.343482971191406,0.11838410049676895
1787814518328643300,5.888643310546875,2.966658592224121,9.346049308776855,0.143866628408432
1787814518344705500,5.90470556640625,2.9697701930999756,9.344611167907715,0.17054098844528198
1787814518360835300,5.92083544921875,2.979065179824829,9.341164588928223,0.195451557636261
1787814518376893200,5.93689306640625,2.991244316101074,9.336919784545898,0.21165011823177338
1787814518393006300,5.95300634765625,3.0217621326446533,9.326693534851074,0.2283347100019455
1787814518409080300,5.969080322265625,3.047964572906494,9.318327903747559,0.22150662541389465
1787814518425152300,5.98515234375,3.0561721324920654,9.316418647766113,0.18584990501403809
1787814518441285600,6.00128564453125,3.063664674758911,9.314794540405273,0.13759587705135345
1787814518457355300,6.017355224609375,3.0710091590881348,9.31300163269043,0.08555208891630173
1787814518473479000,6.03347900390625,3.0770742893218994,9.311312675476074,0.03860621154308319
1787814518489570300,6.0495703125,3.080047845840454,9.310407638549805,0.0015559972962364554
1787814518505705500,6.06570556640625,3.081606149673462,9.309859275817871,-0.024687282741069794
1787814518521849600,6.081849609375,3.0854086875915527,9.308533668518066,-0.0429699569940567
1787814518537933000,6.09793310546875,3.091897487640381,9.306286811828613,-0.05998363718390465
1787814518554066000,6.11406591796875,3.0980284214019775,9.304091453552246,-0.08058306574821472
1787814518570166000,6.130166015625,3.102374792098999,9.302395820617676,-0.10529664903879166
1787814518586209800,6.146209716796875,3.110410213470459,9.299347877502441,-0.13360270857810974
1787814518602316800,6.16231689453125,3.1194896697998047,9.295849800109863,-0.16235855221748352
1787814518618407700,6.17840771484375,3.1175355911254883,9.295975685119629,-0.19028496742248535
1787814518634508000,6.194508056640625,3.1003942489624023,9.301074981689453,-0.21899083256721497
1787814518650616300,6.2106162109375,3.0677859783172607,9.3112211227417,-0.24543549120426178
1787814518666668000,6.22666796875,3.0255119800567627,9.324395179748535,-0.26888883113861084
1787814518682787800,6.242787841796875,2.9795050621032715,9.338628768920898,-0.2880249321460724
1787814518698843600,6.25884375,2.93534517288208,9.352261543273926,-0.29890257120132446
1787814518714953000,6.274952880859375,2.8865723609924316,9.367273330688477,-0.30378860235214233
1787814518731070700,6.29107080078125,2.8553307056427,9.377090454101562,-0.29610419273376465
1787814518747129000,6.307129150390625,2.8420982360839844,9.38131046295166,-0.2896308898925781
1787814518763245800,6.323245849609375,2.8296103477478027,9.384842872619629,-0.2973211705684662
1787814518779296000,6.3392958984375,2.8036868572235107,9.391770362854004,-0.3231354057788849
1787814518795401700,6.355401611328125,2.764057159423828,9.402295112609863,-0.3566927909851074
1787814518811507000,6.3715068359375,2.732769727706909,9.410375595092773,-0.3836512267589569
1787814518827558700,6.38755859375,2.726644992828369,9.411385536193848,-0.40202128887176514
1787814518843682600,6.4036826171875,2.7463862895965576,9.405119895935059,-0.4140866994857788
1787814518859714300,6.41971435546875,2.7830429077148438,9.394376754760742,-0.4132441282272339
1787814518875814100,6.435814208984375,2.813430070877075,9.385836601257324,-0.40133947134017944
1787814518891876600,6.451876708984375,2.8181142807006836,9.385289192199707,-0.380758136510849
1787814518907939800,6.46793994140625,2.7860209941864014,9.396018028259277,-0.35119184851646423
1787814518924079000,6.4840791015625,2.7267391681671143,9.414692878723145,-0.31438392400741577
1787814518940153600,6.500153564453125,2.658647298812866,9.435259819030762,-0.2790329158306122
1787814518956271000,6.51627099609375,2.597003221511841,9.453243255615234,-0.2493070662021637
1787814518972341500,6.532341552734375,2.541201591491699,9.469141960144043,-0.21921062469482422
1787814518988458200,6.548458251953125,2.4965641498565674,9.481719970703125,-0.18590134382247925
1787814519004598500,6.5645986328125,2.470616340637207,9.489052772521973,-0.1559627205133438
1787814519020662300,6.580662353515625,2.4638116359710693,9.491311073303223,-0.12274609506130219
1787814519036790000,6.5967900390625,2.4832983016967773,9.486584663391113,-0.09140811860561371
1787814519052879400,6.61287939453125,2.5315895080566406,9.474055290222168,-0.061008304357528687
1787814519068911400,6.628911376953125,2.601188898086548,9.455336570739746,-0.028923604637384415
1787814519085058800,6.645058837890625,2.6794285774230957,9.433504104614258,0.008575228974223137
1787814519101129200,6.661129150390625,2.742661714553833,9.415205955505371,0.04578063264489174
1787814519117205800,6.677205810546875,2.7755112648010254,9.405369758605957,0.07706102728843689
1787814519133298400,6.69329833984375,2.7760956287384033,9.404979705810547,0.10027443617582321
1787814519149382700,6.709382568359375,2.762662410736084,9.408692359924316,0.12080489099025726
1787814519165492200,6.7254921875,2.7530720233917236,9.411166191101074,0.14475129544734955
1787814519181621200,6.741621337890625,2.756371259689331,9.409751892089844,0.17137247323989868
1787814519197706200,6.757706298828125,2.7751572132110596,9.403674125671387,0.19948242604732513
1787814519213810000,6.773809814453125,2.8072350025177,9.393458366394043,0.2296992838382721
1787814519229912300,6.789912353515625,2.849260091781616,9.3799467086792,0.26215484738349915
1787814519246027500,6.806027587890625,2.897902011871338,9.36404800415039,0.2952595353126526
1787814519262074600,6.82207470703125,2.9459872245788574,9.348082542419434,0.3238789141178131
1787814519278181400,6.838181396484375,2.9792239665985107,9.336634635925293,0.3491021990776062
1787814519294302700,6.854302734375,3.0015835762023926,9.328625679016113,0.37099575996398926
1787814519310363400,6.87036328125,3.021521806716919,9.321444511413574,0.389217346906662
1787814519326489300,6.8864892578125,3.0407168865203857,9.31450366973877,0.40551120042800903
1787814519342554000,6.90255419921875,3.050471544265747,9.310839653015137,0.4162687361240387
1787814519358675700,6.91867578125,3.0438358783721924,9.312946319580078,0.4177154302597046
1787814519374758400,6.93475830078125,3.025784730911255,9.319013595581055,0.41354456543922424
1787814519390822700,6.95082275390625,3.005058765411377,9.326004981994629,0.40700581669807434
1787814519406960600,6.966960693359375,2.9891433715820312,9.331368446350098,0.40120649337768555
1787814519422963200,6.982963134765625,2.9964354038238525,9.328950881958008,0.403032511472702
1787814519439091700,6.999091796875,3.030273199081421,9.317572593688965,0.413109689950943
1787814519455211500,7.01521142578125,3.070563316345215,9.303897857666016,0.4236901104450226
1787814519471268600,7.0312685546875,3.09486722946167,9.295609474182129,0.42874184250831604
1787814519487387100,7.04738720703125,3.101625680923462,9.293312072753906,0.4297241270542145
1787814519503471400,7.063471435546875,3.1134767532348633,9.289318084716797,0.43039339780807495
1787814519519610400,7.0796103515625,3.147125244140625,9.278160095214844,0.42632046341896057
1787814519535703800,7.095703857421875,3.1951725482940674,9.262717247009277,0.404142826795578
1787814519551736300,7.111736328125,3.2329697608947754,9.25127124786377,0.36371612548828125
1787814519567840500,7.127840576171875,3.242251396179199,9.250042915344238,0.308072566986084
1787814519583922200,7.143922119140625,3.2087748050689697,9.263660430908203,0.24236644804477692
1787814519600003000,7.160003173828125,3.1411800384521484,9.288336753845215,0.17375995218753815
1787814519616092700,7.1760927734375,3.058110237121582,9.31700325012207,0.1087026596069336
1787814519632136400,7.192136474609375,2.9784936904907227,9.343247413635254,0.05207914859056473
1787814519648247000,7.2082470703125,2.9064149856567383,9.366061210632324,0.007028583437204361
1787814519664289300,7.224289306640625,2.853362560272217,9.38233757019043,-0.021299686282873154
1787814519680384500,7.240384521484375,2.827188014984131,9.390226364135742,-0.032512862235307693
1787814519696496000,7.25649609375,2.8306236267089844,9.389195442199707,-0.03097381629049778
1787814519712541700,7.272541748046875,2.8591227531433105,9.380589485168457,-0.018792379647493362
1787814519728660500,7.288660400390625,2.906649351119995,9.36599063873291,0.0030891981441527605
1787814519744700200,7.3047001953125,2.9598488807678223,9.349287033081055,0.022787000983953476
1787814519760796200,7.320796142578125,3.0013368129730225,9.336054801940918,0.021618543192744255
1787814519776863200,7.33686328125,3.0236408710479736,9.328876495361328,-0.007175883278250694
1787814519792929300,7.35292919921875,3.029258966445923,9.326866149902344,-0.05940496176481247
1787814519809061600,7.3690615234375,3.0264248847961426,9.327102661132812,-0.12765344977378845
1787814519825120000,7.3851201171875,3.0270063877105713,9.325703620910645,-0.19717414677143097
1787814519841232100,7.401232177734375,3.037175416946411,9.320899963378906,-0.25845131278038025
1787814519857304000,7.417303955078125,3.0562870502471924,9.313216209411621,-0.30576106905937195
1787814519873381400,7.43338134765625,3.0784175395965576,9.304821968078613,-0.33765286207199097
1787814519889530400,7.4495302734375,3.1018409729003906,9.296382904052734,-0.35533320903778076
1787814519905645600,7.4656455078125,3.122368335723877,9.289140701293945,-0.36479485034942627
1787814519921773600,7.481773681640625,3.1344761848449707,9.284727096557617,-0.37322306632995605
1787814519937867500,7.497867431640625,3.1375770568847656,9.283227920532227,-0.38428398966789246
1787814519953950500,7.513950439453125,3.117023229598999,9.289151191711426,-0.40771278738975525
1787814519970101500,7.5301015625,3.0896551609039307,9.297168731689453,-0.43254125118255615
1787814519986123800,7.546123779296875,3.0589587688446045,9.306183815002441,-0.4561924636363983
1787814520002212400,7.56221240234375,3.0251450538635254,9.316144943237305,-0.4778624475002289
1787814520018305500,7.578305419921875,2.9934301376342773,9.325746536254883,-0.4901333153247833
1787814520034349800,7.594349853515625,2.956894636154175,9.337260246276855,-0.49269115924835205
1787814520050482700,7.610482666015625,2.910184860229492,9.352033615112305,-0.4906003475189209
1787814520066533000,7.626533203125,2.8563313484191895,9.36884880065918,-0.4862319231033325
1787814520082634200,7.64263427734375,2.8000688552856445,9.386086463928223,-0.4810214936733246
1787814520098749700,7.658749755859375,2.7450594902038574,9.402493476867676,-0.47767335176467896
1787814520114801000,7.67480078125,2.700273036956787,9.415499687194824,-0.4767454266548157
1787814520130916000,7.690916015625,2.6652863025665283,9.425442695617676,-0.47716742753982544
1787814520146964500,7.706964599609375,2.6297075748443604,9.435148239135742,-0.4827122092247009
1787814520163071700,7.72307177734375,2.585160732269287,9.447071075439453,-0.4900728166103363
1787814520179190500,7.7391904296875,2.542393445968628,9.458874702453613,-0.4861357510089874
1787814520195244500,7.75524462890625,2.518212080001831,9.466652870178223,-0.4598977267742157
1787814520211361500,7.771361572265625,2.5084400177001953,9.471473693847656,-0.4114861786365509
1787814520227417900,7.78741796875,2.5004162788391113,9.476214408874512,-0.34592825174331665
1787814520243517200,7.80351708984375,2.4808831214904785,9.483726501464844,-0.2729988992214203
1787814520259633200,7.819633056640625,2.4390079975128174,9.496308326721191,-0.20440204441547394
1787814520275704600,7.83570458984375,2.3815603256225586,9.51191234588623,-0.14862346649169922
1787814520291831300,7.851831298828125,2.319295883178711,9.527843475341797,-0.10704758763313293
1787814520307941600,7.867941650390625,2.261557102203369,9.541962623596191,-0.08183189481496811
1787814520324048600,7.884048583984375,2.2060301303863525,9.55502986907959,-0.07236673682928085
1787814520340113000,7.90011279296875,2.162673234939575,9.564919471740723,-0.07455956935882568
1787814520356171800,7.916171875,2.143612861633301,9.569194793701172,-0.07634001970291138
1787814520372310500,7.932310546875,2.1536974906921387,9.567005157470703,-0.06616904586553574
1787814520388389400,7.948389404296875,2.184269428253174,9.560194969177246,-0.045125383883714676
1787814520404521500,7.964521484375,2.2280163764953613,9.550186157226562,-0.01676701009273529
1787814520420604000,7.98060400390625,2.281724452972412,9.537493705749512,0.018484627828001976
1787814520436689700,7.996689697265625,2.341862201690674,9.522768020629883,0.05469663813710213
1787814520452837000,8.012837158203125,2.404322624206543,9.506912231445312,0.0908311977982521
1787814520468921300,8.02892138671875,2.4939379692077637,9.483469009399414,0.12037673592567444
1787814520485058800,8.045058837890625,2.5698323249816895,9.462687492370605,0.15462592244148254
1787814520501164000,8.0611640625,2.6209065914154053,9.447997093200684,0.19130145013332367
1787814520517213000,8.077212890625,2.628788948059082,9.445244789123535,0.21734219789505005
1787814520533320200,8.0933203125,2.629370927810669,9.444625854492188,0.2363213300704956
1787814520549352400,8.1093525390625,2.633089065551758,9.443265914916992,0.24890287220478058
1787814520565429800,8.1254296875,2.6460342407226562,9.439391136169434,0.25844138860702515
1787814520581522000,8.14152197265625,2.6702327728271484,9.432332992553711,0.2671300172805786
1787814520597574100,8.15757421875,2.702692747116089,9.422863960266113,0.2747507095336914
1787814520613686500,8.1736865234375,2.7387423515319824,9.412216186523438,0.28258419036865234
1787814520629730600,8.18973046875,2.7707250118255615,9.40239429473877,0.2974076569080353
1787814520645837000,8.205837158203124,2.7921741008758545,9.395323753356934,0.31944239139556885
1787814520661957000,8.22195703125,2.8095781803131104,9.38961410522461,0.3343769311904907
1787814520678017800,8.238017822265626,2.813784122467041,9.387626647949219,0.3542535901069641
1787814520694142200,8.25414208984375,2.813265800476074,9.38746166229248,0.36260202527046204
1787814520710201600,8.27020166015625,2.809922933578491,9.388867378234863,0.3520022928714752
1787814520726322400,8.286322509765625,2.8042750358581543,9.391300201416016,0.33151450753211975
1787814520742405400,8.3024052734375,2.795362949371338,9.394745826721191,0.308342307806015
1787814520758477800,8.318477783203125,2.784316301345825,9.398713111877441,0.2866208851337433
1787814520774617000,8.3346171875,2.777174711227417,9.401375770568848,0.26804888248443604
1787814520790685200,8.350685302734375,2.780313491821289,9.400813102722168,0.25491437315940857
1787814520806800000,8.3667998046875,2.7910830974578857,9.397905349731445,0.24418781697750092
1787814520822883600,8.382883544921874,2.802293062210083,9.3948335647583,0.23373745381832123
1787814520838928400,8.398928466796875,2.8045547008514404,9.394370079040527,0.22512130439281464
1787814520855070500,8.415070556640625,2.7923567295074463,9.398100852966309,0.22103315591812134
1787814520871143400,8.431143310546876,2.7615456581115723,9.407154083251953,0.22297786176204681
1787814520887256300,8.44725634765625,2.724670171737671,9.417591094970703,0.23572832345962524
1787814520903333000,8.4633330078125,2.709900140762329,9.42092227935791,0.27033552527427673
1787814520919405300,8.4794052734375,2.7295141220092773,9.41362476348877,0.322205126285553
1787814520935550200,8.49555029296875,2.7774369716644287,9.397880554199219,0.36888357996940613
1787814520951613000,8.511613037109376,2.8267195224761963,9.382022857666016,0.39714697003364563
1787814520967737600,8.527737548828124,2.8569843769073486,9.372655868530273,0.4017264246940613
1787814520983829200,8.543829345703125,2.85469388961792,9.374139785766602,0.3829047977924347
1787814520999872500,8.55987255859375,2.827969551086426,9.38315200805664,0.35978373885154724
1787814521015974400,8.575974365234375,2.7881674766540527,9.39559555053711,0.3453860878944397
1787814521032044500,8.59204443359375,2.7460243701934814,9.407991409301758,0.3456096649169922
1787814521048116700,8.60811669921875,2.713101387023926,9.417015075683594,0.3595917224884033
1787814521064209700,8.624209716796875,2.693816900253296,9.421757698059082,0.3798103332519531
1787814521080256800,8.6402568359375,2.694056987762451,9.420687675476074,0.4038362503051758
1787814521096362200,8.6563623046875,2.720167398452759,9.412064552307129,0.4290904998779297
1787814521112393500,8.6723935546875,2.7714486122131348,9.396442413330078,0.44310033321380615
1787814521128478500,8.688478515625,2.8472328186035156,9.374154090881348,0.43462973833084106
1787814521144573000,8.704572998046874,2.9384078979492188,9.347477912902832,0.4010290801525116
1787814521160615200,8.720615234375,3.016144037246704,9.324702262878418,0.3510068655014038
1787814521176725200,8.736725341796875,3.067594528198242,9.310036659240723,0.28895431756973267
1787814521192815900,8.75281591796875,3.0854318141937256,9.305980682373047,0.22193390130996704
1787814521208926000,8.768926025390625,3.0726778507232666,9.311509132385254,0.15764527022838593
1787814521225030100,8.785030029296875,3.048753499984741,9.320188522338867,0.09784428775310516
1787814521241077000,8.801076904296876,3.0320937633514404,9.326024055480957,0.045480478554964066
1787814521257200600,8.81720068359375,3.036372423171997,9.324742317199707,0.006020575761795044
1787814521273249000,8.8332490234375,3.0608162879943848,9.316734313964844,-0.01608808897435665
1787814521289360100,8.849360107421875,3.0919387340545654,9.30642318725586,-0.028243806213140488
1787814521305423400,8.86542333984375,3.1184921264648438,9.297523498535156,-0.03823065385222435
1787814521337619500,8.897619384765624,3.134931802749634,9.291821479797363,-0.06812720000743866
1787814521361761800,8.92176171875,3.1297831535339355,9.293427467346191,-0.0841144546866417
1787814521377869600,8.93786962890625,3.1135549545288086,9.298768997192383,-0.09518091380596161
1787814521393899500,8.9538994140625,3.088010311126709,9.307148933410645,-0.10757599771022797
1787814521409986800,8.96998681640625,3.052963972091675,9.318527221679688,-0.12187515199184418
1787814521426087200,8.986087158203125,3.008125066757202,9.332901000976562,-0.13611352443695068
1787814521442177800,9.002177734375,2.957268476486206,9.349003791809082,-0.14524900913238525
1787814521458306300,9.018306396484375,2.8976805210113525,9.367595672607422,-0.1483113318681717
1787814521474334000,9.034333984375,2.833930253982544,9.387191772460938,-0.1409408003091812
1787814521490429700,9.0504296875,2.7742695808410645,9.405247688293457,-0.12307021021842957
1787814521506527500,9.066527587890626,2.7283167839050293,9.418951034545898,-0.1003580242395401
1787814521522577400,9.082577392578125,2.69515061378479,9.428651809692383,-0.08414426445960999
1787814521538690300,9.098690185546875,2.6597836017608643,9.438664436340332,-0.08682224899530411
1787814521554724600,9.114724609375,2.616922616958618,9.450401306152344,-0.10961159318685532
1787814521570822000,9.13082177734375,2.577735185623169,9.460793495178223,-0.13803192973136902
1787814521586922000,9.146921875,2.5592703819274902,9.465398788452148,-0.16353344917297363
1787814521603020300,9.163020263671875,2.569612979888916,9.462306022644043,-0.17954175174236298
1787814521619139800,9.179139892578124,2.6064486503601074,9.452299118041992,-0.17570611834526062
1787814521635174100,9.195174072265624,2.6420247554779053,9.442774772644043,-0.15518003702163696
1787814521651271700,9.211271728515625,2.645143747329712,9.442209243774414,-0.13533172011375427
1787814521667313000,9.22731298828125,2.606414318084717,9.453105926513672,-0.1255994290113449
1787814521683368400,9.243368408203125,2.5413496494293213,9.470805168151855,-0.1256786435842514
1787814521699450600,9.25945068359375,2.4728119373321533,9.488882064819336,-0.1293623000383377
1787814521715545000,9.275545166015625,2.408123254776001,9.505401611328125,-0.13665099442005157
1787814521731643400,9.291643310546876,2.3471171855926514,9.520406723022461,-0.15254852175712585
1787814521747741700,9.30774169921875,2.301008462905884,9.531392097473145,-0.16821926832199097
1787814521763862800,9.32386279296875,2.276136636734009,9.537202835083008,-0.17708061635494232
1787814521779954200,9.3399541015625,2.268326759338379,9.539026260375977,-0.17910949885845184
1787814521796015400,9.356015380859375,2.2814671993255615,9.535948753356934,-0.17602701485157013
1787814521812138200,9.37213818359375,2.318500518798828,9.527092933654785,-0.1716337502002716
1787814521828255700,9.388255859375,2.3781747817993164,9.512492179870605,-0.16482698917388916
1787814521844318200,9.404318115234375,2.4527337551116943,9.493791580200195,-0.14966566860675812
1787814521860413200,9.4204130859375,2.5289180278778076,9.47412109375,-0.12640899419784546
1787814521876471800,9.436471923828124,2.5849127769470215,9.4592866897583,-0.10254939645528793
1787814521892588300,9.45258837890625,2.616302013397217,9.4508695602417,-0.08013912290334702
1787814521908724500,9.468724365234374,2.628479480743408,9.447649955749512,-0.058505672961473465
1787814521924792300,9.484792236328126,2.6315619945526123,9.446895599365234,-0.03781973570585251
1787814521940893000,9.500892822265625,2.637413740158081,9.445326805114746,-0.015958324074745178
1787814521956899600,9.516899658203124,2.652987480163574,9.440973281860352,0.008346972987055779
1787814521972967700,9.5329677734375,2.6766293048858643,9.434232711791992,0.036053311079740524
1787814521989105400,9.54910546875,2.7072575092315674,9.425312042236328,0.0682581290602684
1787814522005191700,9.565191650390625,2.7412703037261963,9.415143966674805,0.10430822521448135
1787814522021299500,9.581299560546874,2.7753655910491943,9.404654502868652,0.14223259687423706
1787814522037330000,9.597329833984375,2.807825803756714,9.394343376159668,0.1811918467283249
1787814522053419500,9.61341943359375,2.860534906387329,9.376849174499512,0.24985183775424957
1787814522069515500,9.629515625,2.911360263824463,9.359354972839355,0.31117168068885803
1787814522085558500,9.64555859375,2.959899663925171,9.3423490524292,0.36042964458465576
1787814522101673000,9.6616728515625,3.005640745162964,9.326305389404297,0.3956538140773773
1787814522117710600,9.677710693359375,3.0440497398376465,9.312965393066406,0.4157382845878601
1787814522133808400,9.693808349609375,3.075458526611328,9.302315711975098,0.4229357838630676
1787814522149912600,9.70991259765625,3.101625680923462,9.293617248535156,0.4230573773384094
1787814522165988900,9.72598876953125,3.1239097118377686,9.286151885986328,0.423074334859848
1787814522182111200,9.742111328125,3.147963523864746,9.27785587310791,0.42676031589508057
1787814522198156500,9.758156494140625,3.175511121749878,9.267977714538574,0.4371691942214966
1787814522214260500,9.774260498046875,3.2016515731811523,9.258275985717773,0.45184069871902466
1787814522238325000,9.798324951171875,3.212466239929199,9.252974510192871,0.4826362133026123
1787814522254435300,9.814435302734376,3.181363105773926,9.26162338256836,0.5212035775184631
1787814522270491100,9.8304912109375,3.123276472091675,9.277996063232422,0.5781890153884888
1787814522286551000,9.846551025390625,3.0683281421661377,9.292112350463867,0.642175018787384
1787814522302689300,9.862689208984374,3.0408875942230225,9.29605484008789,0.7118791341781616
1787814522318751700,9.878751708984375,3.0626742839813232,9.28337287902832,0.7806344032287598
1787814522334883800,9.8948837890625,3.123603105545044,9.258829116821289,0.829206109046936
1787814522350958600,9.91095849609375,3.199730634689331,9.231334686279297,0.8453380465507507
1787814522366980000,9.92697998046875,3.2615275382995605,9.210555076599121,0.8357657790184021
1787814522383122200,9.9431220703125,3.28924298286438,9.203177452087402,0.8079684972763062
1787814522399185000,9.959184814453126,3.2860336303710938,9.207201957702637,0.7744833827018738
1787814522415261400,9.975261474609376,3.2613141536712646,9.21873950958252,0.7409786581993103
1787814522431342800,9.9913427734375,3.223051071166992,9.23462963104248,0.709895133972168
1787814522447371500,10.00737158203125,3.1698997020721436,9.255322456359863,0.6790702939033508
1787814522463472400,10.023472412109374,3.1051626205444336,9.279458999633789,0.6480734348297119
1787814522479551200,10.03955126953125,3.0456414222717285,9.301236152648926,0.6176484823226929
1787814522495632100,10.055632080078125,3.0091426372528076,9.314640998840332,0.5940665006637573
1787814522511725800,10.071725830078124,3.0073654651641846,9.315974235534668,0.5820415616035461
1787814522527775000,10.08777490234375,3.0371975898742676,9.306426048278809,0.5798757076263428
1787814522543886300,10.10388623046875,3.0944125652313232,9.287177085876465,0.5859584808349609
1787814522559922200,10.119922119140625,3.166750907897949,9.26150894165039,0.605415940284729
1787814522576011800,10.13601171875,3.24556303024292,9.232017517089844,0.6376467347145081
1787814522592114200,10.1521142578125,3.3188040256500244,9.20301342010498,0.6785798072814941
1787814522608159500,10.168159423828126,3.3718035221099854,9.180696487426758,0.7184180617332458
1787814522624281000,10.184281005859376,3.396690607070923,9.168854713439941,0.7516653537750244
1787814522640328200,10.200328125,3.3909616470336914,9.169189453125,0.7731328010559082
1787814522656427300,10.21642724609375,3.366910696029663,9.177465438842773,0.7800130844116211
1787814522672481000,10.23248095703125,3.341383457183838,9.187244415283203,0.7746635675430298
1787814522688529000,10.24852880859375,3.327545166015625,9.193291664123535,0.7623810768127441
1787814522704653300,10.2646533203125,3.3312277793884277,9.193232536315918,0.7468516826629639
1787814522720701400,10.280701416015624,3.3456411361694336,9.189335823059082,0.7301905155181885
1787814522736813600,10.2968134765625,3.362492799758911,9.184741020202637,0.7103295922279358
1787814522752883000,10.312883056640626,3.3752264976501465,9.18203353881836,0.6844733357429504
1787814522768951800,10.328951904296876,3.3820300102233887,9.181966781616211,0.6509631872177124
1787814522785085200,10.345085205078124,3.3865787982940674,9.183036804199219,0.6109820008277893
1787814522801094000,10.361093994140624,3.392439365386963,9.1837797164917,0.565650999546051
1787814522817216000,10.377216064453124,3.402134418487549,9.183216094970703,0.5142303109169006
1787814522833302800,10.393302734375,3.412972927093506,9.182218551635742,0.45700913667678833
1787814522849381000,10.409381103515624,3.4195518493652344,9.182683944702148,0.39417916536331177
1787814522865468000,10.425468017578124,3.4176230430603027,9.18602180480957,0.3274967074394226
1787814522881589200,10.44158935546875,3.408895969390869,9.191306114196777,0.2640800476074219
1787814522897673200,10.457673095703125,3.396838903427124,9.19717025756836,0.20958273112773895
1787814522913772500,10.4737724609375,3.384552478790283,9.202601432800293,0.16540420055389404
1787814522929865000,10.489864990234375,3.3765532970428467,9.206023216247559,0.13576938211917877
1787814522945971500,10.505971435546876,3.3744027614593506,9.207025527954102,0.12031155824661255
1787814522962011600,10.52201171875,3.373899459838867,9.207247734069824,0.11743399500846863
1787814522978097400,10.538097412109375,3.3648674488067627,9.210503578186035,0.12129903584718704
1787814522994191600,10.554191650390624,3.339533805847168,9.21961498260498,0.12882153689861298
1787814523010291500,10.57029150390625,3.2919936180114746,9.236526489257812,0.1404534876346588
1787814523026400300,10.586400146484374,3.2245826721191406,9.259981155395508,0.15875574946403503
1787814523042445800,10.60244580078125,3.1391711235046387,9.288838386535645,0.18303188681602478
1787814523058536700,10.61853662109375,3.0426840782165527,9.32039737701416,0.2065717577934265
1787814523074637300,10.63463720703125,2.954989194869995,9.348142623901367,0.225053608417511
1787814523090688500,10.6506884765625,2.911734104156494,9.361572265625,0.23056963086128235
1787814523106814200,10.666814208984375,2.927671432495117,9.356490135192871,0.23498569428920746
1787814523122910200,10.68291015625,2.9988644123077393,9.333477020263672,0.2518348693847656
1787814523139006500,10.69900634765625,3.080307960510254,9.306374549865723,0.27111127972602844
1787814523155104000,10.71510400390625,3.117338180541992,9.293902397155762,0.27566128969192505
1787814523171157000,10.731156982421876,3.090540885925293,9.303410530090332,0.25596433877944946
1787814523187289000,10.7472890625,3.0144848823547363,9.329347610473633,0.2157408595085144
1787814523203332600,10.76333251953125,2.9276986122131348,9.35781478881836,0.1739601045846939
1787814523219444200,10.7794443359375,2.8489909172058105,9.382634162902832,0.14073733985424042
1787814523235519000,10.79551904296875,2.77238392829895,9.405869483947754,0.11804456263780594
1787814523251592700,10.8115927734375,2.6959879398345947,9.428144454956055,0.11014267057180405
1787814523267732700,10.827732666015624,2.6364102363586426,9.444893836975098,0.11714297533035278
1787814523283798000,10.843798095703125,2.5894827842712402,9.45744514465332,0.147324800491333
1787814523299883300,10.85988330078125,2.565030813217163,9.463318824768066,0.19132772088050842
1787814523315975700,10.8759755859375,2.5652639865875244,9.462013244628906,0.245172381401062
1787814523332004400,10.89200439453125,2.585139274597168,9.454964637756348,0.30180880427360535
1787814523348105200,10.908105224609375,2.6192755699157715,9.443613052368164,0.35773441195487976
1787814523364131300,10.92413134765625,2.659334421157837,9.430585861206055,0.4029780924320221
1787814523380213000,10.940212890625,2.6923186779022217,9.420180320739746,0.4266444444656372
1787814523396314400,10.956314453125,2.7122528553009033,9.41441822052002,0.42756959795951843
1787814523412411400,10.972411376953126,2.7197725772857666,9.4129056930542,0.4128209054470062
1787814523428521500,10.988521484375,2.722700357437134,9.412921905517578,0.39271897077560425
1787814523444557300,11.004557373046875,2.7278034687042236,9.412161827087402,0.37507593631744385
1787814523460647000,11.02064697265625,2.7387020587921143,9.40949821472168,0.3622649610042572
1787814523476758300,11.03675830078125,2.7570629119873047,9.404349327087402,0.35663536190986633
1787814523492811500,11.0528115234375,2.7822623252868652,9.396747589111328,0.3613279163837433
1787814523508902400,11.06890234375,2.8105645179748535,9.387785911560059,0.3749845623970032
1787814523524995800,11.084995849609374,2.83658504486084,9.379276275634766,0.3916264474391937
1787814523541099500,11.101099609375,2.8514084815979004,9.374574661254883,0.3965010344982147
1787814523557219600,11.117219482421875,2.8611385822296143,9.371696472167969,0.39444348216056824
1787814523573284600,11.13328466796875,2.8665578365325928,9.370466232299805,0.38423430919647217
1787814523589411600,11.14941162109375,2.869081497192383,9.370413780212402,0.366212397813797
1787814523605471000,11.165470947265625,2.867518901824951,9.371806144714355,0.3419877588748932
1787814523621588000,11.181587890625,2.859483480453491,9.375240325927734,0.3140091001987457
1787814523637664800,11.197664794921875,2.8421061038970947,9.38142204284668,0.28587761521339417
1787814523653738200,11.21373828125,2.8128058910369873,9.391027450561523,0.25910744071006775
1787814523669868000,11.229867919921874,2.7701358795166016,9.404315948486328,0.23575960099697113
1787814523685932800,11.245932861328125,2.7229743003845215,9.418274879455566,0.22782939672470093
1787814523702055700,11.2620556640625,2.700320243835449,9.42431640625,0.24682365357875824
1787814523718140700,11.278140625,2.7096900939941406,9.420622825622559,0.282581627368927
1787814523734270700,11.294270751953125,2.732541561126709,9.41299057006836,0.31498080492019653
1787814523750414800,11.310414794921876,2.7583746910095215,9.40463924407959,0.33844563364982605
1787814523766476300,11.326476318359376,2.775036096572876,9.399279594421387,0.3508985936641693
1787814523782591200,11.34259130859375,2.7731218338012695,9.399410247802734,0.3623053729534149
1787814523798673000,11.3586728515625,2.747770309448242,9.406228065490723,0.37816375494003296
1787814523814697000,11.374697021484375,2.7125227451324463,9.415414810180664,0.40323302149772644
1787814523830797000,11.390797119140625,2.7009036540985107,9.417180061340332,0.43844345211982727
1787814523846866400,11.406866455078125,2.7308413982391357,9.406682014465332,0.47669717669487
1787814523862955500,11.42295556640625,2.792689085006714,9.387162208557129,0.5024551749229431
1787814523879047200,11.439047119140625,2.8644471168518066,9.365021705627441,0.5115786790847778
1787814523895080000,11.455079833984374,2.9151296615600586,9.349778175354004,0.5040282607078552
1787814523911195000,11.47119482421875,2.9267377853393555,9.347434043884277,0.4796694815158844
1787814523927219700,11.4872197265625,2.892929792404175,9.35955810546875,0.4472741186618805
1787814523943317800,11.50331787109375,2.828798770904541,9.380569458007812,0.41620296239852905
1787814523959428400,11.519428466796874,2.7464828491210938,9.405954360961914,0.3940589427947998
1787814523983509200,11.54350927734375,2.6305017471313477,9.439265251159668,0.388759970664978
1787814523999651600,11.559651611328125,2.573331356048584,9.454345703125,0.40461087226867676
1787814524015701000,11.575700927734376,2.5408260822296143,9.461963653564453,0.4311028718948364
1787814524031827500,11.591827392578125,2.533982038497925,9.46253490447998,0.45800578594207764
1787814524047876000,11.6078759765625,2.5548017024993896,9.455836296081543,0.4801616370677948
1787814524063985200,11.623985107421875,2.6017158031463623,9.442229270935059,0.4957524538040161
1787814524080084200,11.640084228515626,2.6628336906433105,9.425058364868164,0.49798765778541565
1787814524096138500,11.656138427734374,2.7193667888641357,9.409790992736816,0.4809092581272125
1787814524112220400,11.672220458984375,2.7586703300476074,9.400157928466797,0.44405311346054077
1787814524128272100,11.688272216796875,2.7768304347991943,9.397040367126465,0.39399582147598267
1787814524144394500,11.70439453125,2.784905433654785,9.396720886230469,0.341099351644516
1787814524160514300,11.720514404296875,2.7948710918426514,9.395315170288086,0.2952142357826233
1787814524176593400,11.736593505859375,2.814136028289795,9.390451431274414,0.2653948664665222
1787814524192697900,11.75269775390625,2.842167615890503,9.382534980773926,0.24604104459285736
1787814524208724200,11.76872412109375,2.8754870891571045,9.372819900512695,0.2284574657678604
1787814524224810000,11.78481005859375,2.9109578132629395,9.3624267578125,0.2041565477848053
1787814524240956000,11.800955810546874,2.946751117706299,9.351912498474121,0.16964784264564514
1787814524257047000,11.817047119140625,2.9838407039642334,9.3408203125,0.12717194855213165
1787814524273151200,11.833151123046875,3.0222604274749756,9.328978538513184,0.08062310516834259
1787814524289183700,11.849183837890624,3.0563645362854004,9.31812572479248,0.039489131420850754
1787814524305272000,11.86527197265625,3.0755653381347656,9.3118896484375,-0.0018035423709079623
1787814524321367800,11.881367919921875,3.091764211654663,9.306483268737793,-0.02778349444270134
1787814524337418200,11.897418212890624,3.1120924949645996,9.299728393554688,-0.018314825370907784
1787814524353534200,11.9135341796875,3.1252095699310303,9.2953462600708,-0.002606090856716037
1787814524369578200,11.929578125,3.1238651275634766,9.295796394348145,0.004879296757280827
1787814524385683200,11.94568310546875,3.1042370796203613,9.30237102508545,-0.0017699323361739516
1787814524401799200,11.961799072265626,3.0665383338928223,9.31485652923584,-0.01378214918076992
1787814524417845200,11.97784521484375,3.018118143081665,9.330645561218262,-0.020302198827266693
1787814524433978600,11.993978515625,2.9624998569488525,9.348461151123047,-0.016384733840823174
1787814524450019800,12.010019775390624,2.909745931625366,9.365028381347656,-0.004964344669133425
1787814524466119400,12.026119384765625,2.8410332202911377,9.386101722717285,0.004580021370202303
1787814524482183000,12.042182861328126,2.7965915203094482,9.399434089660645,0.011534370481967926
1787814524498251800,12.058251708984375,2.7668144702911377,9.408242225646973,0.011105331592261791
1787814524514337300,12.074337158203125,2.745910167694092,9.414368629455566,0.0040130349807441235
1787814524530392800,12.090392822265626,2.71445631980896,9.423486709594727,-0.005873129703104496
1787814524546514000,12.106513916015626,2.67128324508667,9.43579387664795,-0.0203777477145195
1787814524562636500,12.122636474609376,2.6181437969207764,9.450596809387207,-0.04424392431974411
1787814524578701800,12.138701904296875,2.565247058868408,9.464865684509277,-0.07887567579746246
1787814524594790100,12.1547900390625,2.540032386779785,9.471343994140625,-0.11086028069257736
1787814524610846700,12.1708466796875,2.559807538986206,9.465798377990723,-0.12826091051101685
1787814524626975200,12.186975341796876,2.619513750076294,9.4493989944458,-0.13201923668384552
1787814524643092200,12.20309228515625,2.70392107963562,9.425716400146484,-0.12275135517120361
1787814524659160800,12.219160888671874,2.7976114749908447,9.398530960083008,-0.10666896402835846
1787814524675264800,12.2352646484375,2.876269817352295,9.374855995178223,-0.0978827252984047
1787814524691325000,12.251324951171876,2.914329767227173,9.362939834594727,-0.11139307171106339
1787814524707444200,12.2674443359375,2.9105029106140137,9.363714218139648,-0.14228197932243347
1787814524723574500,12.283574462890625,2.876807928085327,9.37350845336914,-0.17808496952056885
1787814524739604500,12.2996044921875,2.8337366580963135,9.386058807373047,-0.2054758071899414
1787814524755714300,12.31571435546875,2.7976484298706055,9.396499633789062,-0.22216975688934326
1787814524771734500,12.331734619140626,2.771515369415283,9.404037475585938,-0.2306000292301178
1787814524787813000,12.347813232421874,2.7525436878204346,9.409611701965332,-0.23048633337020874
1787814524803949300,12.36394921875,2.741915702819824,9.412837028503418,-0.22542598843574524
1787814524819999000,12.3799990234375,2.746591329574585,9.411602973937988,-0.21993513405323029
1787814524836125700,12.396125732421876,2.770139694213867,9.404776573181152,-0.2165975123643875
1787814524852195300,12.4121953125,2.811716318130493,9.392472267150879,-0.21475480496883392
1787814524868298500,12.428298583984375,2.86077618598938,9.377676963806152,-0.2133835256099701
1787814524884441900,12.44444189453125,2.904945135116577,9.364143371582031,-0.2109687179327011
1787814524900491300,12.4604912109375,2.9327468872070312,9.355546951293945,-0.20772197842597961
1787814524916611000,12.476611083984375,2.982059955596924,9.339729309082031,-0.2172325998544693
1787814524932657000,12.492656982421876,2.9859962463378906,9.338452339172363,-0.218033105134964
1787814524948752600,12.508752685546876,2.991295576095581,9.336658477783203,-0.22220410406589508
1787814524964857000,12.524857177734376,3.0100491046905518,9.330483436584473,-0.22819048166275024
1787814524980919000,12.5409189453125,3.0400748252868652,9.320653915405273,-0.23186318576335907
1787814524997051000,12.55705078125,3.0752909183502197,9.309106826782227,-0.2312900573015213
1787814525013103400,12.573103271484374,3.108922004699707,9.298042297363281,-0.22672611474990845
1787814525029214500,12.58921435546875,3.1356515884399414,9.289244651794434,-0.21911723911762238
1787814525045286000,12.605285888671874,3.1512222290039062,9.284213066101074,-0.20871157944202423
1787814525061361400,12.621361328125,3.155848979949951,9.282875061035156,-0.19813670217990875
1787814525077448400,12.637448486328125,3.1510398387908936,9.284668922424316,-0.19044089317321777
1787814525093509000,12.653509033203125,3.140627384185791,9.288250923156738,-0.18775515258312225
1787814525109632000,12.669632080078125,3.129190683364868,9.292102813720703,-0.18808585405349731
1787814525125772500,12.6857724609375,3.119123697280884,9.295536994934082,-0.18565000593662262
1787814525141816000,12.701816162109376,3.1073977947235107,9.299525260925293,-0.182468444108963
1787814525157925000,12.717925048828125,3.091104030609131,9.304970741271973,-0.1815742701292038
1787814525173951200,12.733951171875,3.0692479610443115,9.31216812133789,-0.18335121870040894
1787814525190034000,12.750033935546876,3.0396273136138916,9.321822166442871,-0.18623262643814087
1787814525206179300,12.766179443359375,3.0031321048736572,9.33359432220459,-0.18869316577911377
1787814525222218800,12.78221875,2.964812755584717,9.345837593078613,-0.18870660662651062
1787814525238332700,12.798332763671874,2.936479330062866,9.354884147644043,-0.18339256942272186
1787814525254365200,12.814365234375,2.923299551010132,9.359222412109375,-0.17231281101703644
1787814525270454300,12.830454345703124,2.9242634773254395,9.359228134155273,-0.15472133457660675
1787814525286553000,12.846552978515625,2.927783727645874,9.35848617553711,-0.13120236992835999
1787814525302609400,12.862609375,2.920982837677002,9.360963821411133,-0.10299407690763474
1787814525318731500,12.8787314453125,2.904451608657837,9.36643123626709,-0.06729103624820709
1787814525334776000,12.894776123046874,2.879664897918701,9.374292373657227,-0.023619214072823524
1787814525350877200,12.910877197265625,2.857217788696289,9.381150245666504,0.027206864207983017
1787814525366976800,12.926976806640624,2.8532915115356445,9.382017135620117,0.08290800452232361
1787814525383029800,12.94302978515625,2.874079465866089,9.375140190124512,0.12965631484985352
1787814525399158000,12.959157958984376,2.9175188541412354,9.361350059509277,0.15358327329158783
1787814525415193900,12.97519384765625,2.967813491821289,9.345538139343262,0.15300971269607544
1787814525431288800,12.991288818359376,3.00357985496521,9.334365844726562,0.13611148297786713
1787814525447389700,13.0073896484375,3.012477397918701,9.331811904907227,0.11258505284786224
1787814525463444500,13.023444580078126,2.987018585205078,9.340229034423828,0.0908573567867279
1787814525479532300,13.0395322265625,2.9305484294891357,9.358259201049805,0.07262567430734634
1787814525495593500,13.055593505859376,2.8498799800872803,9.383244514465332,0.057573359459638596
1787814525511697700,13.07169775390625,2.754479169845581,9.411715507507324,0.05330357328057289
1787814525527806500,13.087806396484375,2.6673505306243896,9.436700820922852,0.06552388519048691
1787814525543869000,13.103868896484375,2.604753017425537,9.45391845703125,0.09547828882932663
1787814525559960800,13.1199609375,2.5693717002868652,9.463044166564941,0.13976532220840454
1787814525576009000,13.136009033203125,2.566178560256958,9.462928771972656,0.19529037177562714
1787814525592130000,13.152130126953125,2.593604326248169,9.453939437866211,0.25816723704338074
1787814525608193000,13.168193115234375,2.652980327606201,9.435648918151855,0.31722763180732727
1787814525624261000,13.18426123046875,2.734579086303711,9.411370277404785,0.3443639278411865
1787814525640358700,13.200358642578125,2.817779779434204,9.387736320495605,0.3177078068256378
1787814525656416500,13.21641650390625,2.8862199783325195,9.369136810302734,0.24372370541095734
1787814525672530200,13.2325302734375,2.930901050567627,9.357277870178223,0.14678163826465607
1787814525688649500,13.2486494140625,2.948486804962158,9.352816581726074,0.04030453786253929
1787814525704678000,13.264677978515625,2.94960618019104,9.352347373962402,-0.06189823895692825
1787814525720787700,13.28078759765625,2.9452579021453857,9.352744102478027,-0.1484144926071167
1787814525736807400,13.296807373046875,2.9463417530059814,9.351327896118164,-0.2052510678768158
1787814525752886300,13.31288623046875,2.9605987071990967,9.34614086151123,-0.23433686792850494
1787814525769023000,13.32902294921875,2.9903223514556885,9.336358070373535,-0.24657851457595825
1787814525785064000,13.34506396484375,3.0299088954925537,9.323345184326172,-0.2555161416530609
1787814525801183700,13.361183837890625,3.070777416229248,9.309605598449707,-0.2682470381259918
1787814525817205500,13.37720556640625,3.1066858768463135,9.29710578918457,-0.28758564591407776
1787814525833285000,13.39328515625,3.138507127761841,9.285585403442383,-0.3132070004940033
1787814525849382700,13.409382568359375,3.1680052280426025,9.274502754211426,-0.343108206987381
1787814525865433900,13.425433837890624,3.191815137863159,9.2652006149292,-0.3725239932537079
1787814525881554400,13.441554443359376,3.214113473892212,9.256569862365723,-0.39469608664512634
1787814525897601800,13.457601806640625,3.227543354034424,9.25107479095459,-0.41349488496780396
1787814525913711400,13.47371142578125,3.2112131118774414,9.2555570602417,-0.4395180940628052
1787814525929830700,13.48983056640625,3.180234909057617,9.265034675598145,-0.464326947927475
1787814525945886500,13.505886474609374,3.141338586807251,9.277266502380371,-0.48448464274406433
1787814525961972500,13.521972412109376,3.102921962738037,9.289628982543945,-0.4950365722179413
1787814525978016300,13.538016357421874,3.0724761486053467,9.29971981048584,-0.4955037534236908
1787814525994135000,13.554135009765625,3.054731845855713,9.305962562561035,-0.48791709542274475
1787814526010261200,13.57026123046875,3.0473883152008057,9.30887508392334,-0.4781646430492401
1787814526026332400,13.58633251953125,3.038175106048584,9.312263488769531,-0.47080010175704956
1787814526042413300,13.602413330078125,3.0211453437805176,9.318022727966309,-0.46641048789024353
1787814526058472000,13.618471923828125,3.0113024711608887,9.321215629577637,-0.4662463665008545
1787814526074595600,13.634595703125,3.0262579917907715,9.316544532775879,-0.4627830982208252
1787814526090705000,13.650704833984374,3.071928024291992,9.302129745483398,-0.4517218768596649
1787814526106759000,13.666759033203125,3.1340739727020264,9.282240867614746,-0.43354034423828125
1787814526122854100,13.682854248046874,3.18634295463562,9.265450477600098,-0.4111236333847046
1787814526138952200,13.6989521484375,3.2045834064483643,9.260117530822754,-0.3889300525188446
1787814526155024400,13.7150244140625,3.1824867725372314,9.26855754852295,-0.368811696767807
1787814526171109400,13.731109375,3.1298704147338867,9.287238121032715,-0.3485856354236603
1787814526187155700,13.74715576171875,3.067782163619995,9.308778762817383,-0.32516998052597046
1787814526203268900,13.763268798828125,3.0129363536834717,9.327442169189453,-0.30239859223365784
1787814526219291100,13.779291015625,2.9639673233032227,9.343703269958496,-0.28369754552841187
1787814526235377200,13.795377197265625,2.9062559604644775,9.362354278564453,-0.2653290927410126
1787814526251522000,13.81152197265625,2.8635480403900146,9.375690460205078,-0.2586468458175659
1787814526267566300,13.82756640625,2.8088796138763428,9.392536163330078,-0.2467065304517746
1787814526283684400,13.843684326171875,2.768062114715576,9.40485668182373,-0.23860768973827362
1787814526299715600,13.859715576171874,2.7570137977600098,9.408121109008789,-0.23773382604122162
1787814526315810800,13.875810791015626,2.7772815227508545,9.402153015136719,-0.23794250190258026
1787814526331957500,13.89195751953125,2.8274221420288086,9.387166023254395,-0.23913829028606415
1787814526347994600,13.90799462890625,2.8993420600891113,9.364968299865723,-0.24819326400756836
1787814526364115200,13.924115234375,2.9787909984588623,9.339349746704102,-0.2715809941291809
1787814526380150300,13.940150390625,3.051621913909912,9.31470012664795,-0.30722033977508545
1787814526396243000,13.956242919921875,3.0972981452941895,9.298264503479004,-0.3455865979194641
1787814526412359700,13.972359619140626,3.119943857192993,9.289240837097168,-0.38252195715904236
1787814526428426000,13.988426025390625,3.130112409591675,9.28437328338623,-0.4161880612373352
1787814526444513300,14.00451318359375,3.138937473297119,9.279861450195312,-0.44901782274246216
1787814526460560400,14.020560302734374,3.151616096496582,9.273971557617188,-0.4807901680469513
1787814526476673800,14.036673828125,3.165111780166626,9.268206596374512,-0.5028163194656372
1787814526492790000,14.0527900390625,3.1751022338867188,9.264618873596191,-0.5059302449226379
1787814526508861700,14.06886181640625,3.175147294998169,9.265501022338867,-0.48921895027160645
1787814526524953600,14.08495361328125,3.162266731262207,9.271371841430664,-0.46058958768844604
1787814526541023500,14.1010234375,3.1370797157287598,9.281469345092773,-0.4283443093299866
1787814526557150500,14.117150390625,3.105036497116089,9.29367733001709,-0.3958522081375122
1787814526573281800,14.13328173828125,3.071794033050537,9.306154251098633,-0.36050406098365784
1787814526589358000,14.149358154296875,3.0379257202148438,9.318575859069824,-0.32490864396095276
1787814526605459000,14.165458984375,2.9977710247039795,9.33250904083252,-0.29670047760009766
1787814526621490000,14.181489990234375,2.949648857116699,9.34814167022705,-0.28673630952835083
1787814526637623000,14.197623046875,2.8957884311676025,9.364754676818848,-0.2935248911380768
1787814526653765000,14.21376513671875,2.8339526653289795,9.38310718536377,-0.3104722797870636
1787814526669807400,14.229807373046874,2.7661895751953125,9.402843475341797,-0.3242383897304535
1787814526685922300,14.24592236328125,2.6899797916412354,9.424569129943848,-0.3344910442829132
1787814526701957400,14.261957275390625,2.6267502307891846,9.441092491149902,-0.3692522346973419
1787814526718051600,14.278051513671874,2.5979232788085938,9.445573806762695,-0.44977396726608276
1787814526734132500,14.294132568359375,2.596447706222534,9.440917015075684,-0.5458639860153198
1787814526750179600,14.3101796875,2.5688576698303223,9.446852684020996,-0.573025107383728
1787814526766296800,14.326296875,2.5642621517181396,9.44626522064209,-0.6025304198265076
1787814526782326500,14.342326416015625,2.567070245742798,9.443523406982422,-0.632760763168335
1787814526798414600,14.35841455078125,2.5575220584869385,9.444609642028809,-0.6548596024513245
1787814526814561000,14.37456103515625,2.523144483566284,9.453134536743164,-0.6651206016540527
1787814526830620400,14.390620361328125,2.4702417850494385,9.467141151428223,-0.6644903421401978
1787814526846744600,14.40674462890625,2.4053361415863037,9.48425006866455,-0.6585986614227295
1787814526862790700,14.422790771484374,2.3371260166168213,9.501626968383789,-0.6536931991577148
1787814526878888700,14.438888671875,2.2734270095825195,9.517437934875488,-0.6483131051063538
1787814526894991000,14.4549912109375,2.2202374935150146,9.530627250671387,-0.638820469379425
1787814526911048000,14.4710478515625,2.1884825229644775,9.53890323638916,-0.6247159838676453
1787814526927182800,14.487182861328124,2.1822025775909424,9.54143238067627,-0.6078203320503235
1787814526943243500,14.503243408203126,2.1996562480926514,9.538567543029785,-0.5895964503288269
1787814526959359700,14.51935986328125,2.2317028045654297,9.532355308532715,-0.5693100094795227
1787814526975470800,14.535470947265624,2.2609035968780518,9.527074813842773,-0.5418134927749634
1787814526991530800,14.55153076171875,2.283750534057617,9.523438453674316,-0.5089291930198669
1787814527007617000,14.567616943359376,2.334177017211914,9.512777328491211,-0.4786316752433777
1787814527023672800,14.5836728515625,2.3431243896484375,9.511503219604492,-0.4598653018474579
1787814527039792000,14.599792236328126,2.322844982147217,9.516522407531738,-0.4588961601257324
1787814527055926000,14.615926025390625,2.287728786468506,9.524057388305664,-0.47857147455215454
1787814527072004000,14.632004150390625,2.2466394901275635,9.531594276428223,-0.5212631821632385
1787814527088104400,14.6481044921875,2.210015058517456,9.5369873046875,-0.5762845277786255
1787814527104178700,14.6641787109375,2.183985471725464,9.539390563964844,-0.632948100566864
1787814527120263700,14.680263671875,2.167698383331299,9.539579391479492,-0.6840361952781677
1787814527136410400,14.696410400390626,2.1527864933013916,9.53963851928711,-0.7288406491279602
1787814527152448000,14.712447998046875,2.1906685829162598,9.528654098510742,-0.7590408325195312
1787814527168554500,14.728554443359375,2.213590383529663,9.520798683166504,-0.790449857711792
1787814527184581400,14.744581298828125,2.214226007461548,9.518598556518555,-0.8147796988487244
1787814527200669700,14.760669677734375,2.185051679611206,9.52408218383789,-0.8293439149856567
1787814527216766700,14.7767666015625,2.137653350830078,9.534276008605957,-0.8357120156288147
1787814527232812000,14.79281201171875,2.080948829650879,9.546728134155273,-0.8366785049438477
1787814527248928800,14.8089287109375,2.020491600036621,9.560005187988281,-0.8332526087760925
1787814527264968000,14.824968017578126,1.9600573778152466,9.573107719421387,-0.827156662940979
1787814527281063200,14.841063232421876,1.9037153720855713,9.585150718688965,-0.8192439675331116
1787814527297107500,14.857107421875,1.8546786308288574,9.595526695251465,-0.8101949691772461
1787814527313152300,14.87315234375,1.8258389234542847,9.60241413116455,-0.7939438223838806
1787814527329274400,14.8892744140625,1.824379324913025,9.605009078979492,-0.7653840780258179
1787814527345320200,14.9053203125,1.8222025632858276,9.608053207397461,-0.7316282391548157
1787814527361425700,14.92142578125,1.84323251247406,9.607385635375977,-0.6863096952438354
1787814527377529000,14.937529052734375,1.8904800415039062,9.602044105529785,-0.6302551627159119
1787814527393589000,14.953589111328125,1.9496780633926392,9.593780517578125,-0.5731588006019592
1787814527409685800,14.969685791015625,1.9995489120483398,9.586091041564941,-0.5282508730888367
1787814527425772000,14.98577197265625,2.025618076324463,9.58240795135498,-0.49470046162605286
1787814527441884700,15.001884765625,2.0290205478668213,9.5833158493042,-0.46208620071411133
1787814527457992000,15.017991943359375,2.0254390239715576,9.586044311523438,-0.4192252457141876
1787814527474049000,15.034049072265624,2.0314743518829346,9.587015151977539,-0.36421266198158264
1787814527490138000,15.05013818359375,2.0446155071258545,9.586296081542969,-0.3047367036342621
1787814527506192400,15.0661923828125,2.059372901916504,9.584656715393066,-0.25247722864151
1787814527522311200,15.082311279296874,2.0736470222473145,9.582449913024902,-0.2168775051832199
1787814527538409000,15.098408935546875,2.093698501586914,9.578521728515625,-0.1968923956155777
1787814527554488600,15.114488525390625,2.125251531600952,9.571712493896484,-0.18973186612129211
1787814527570592000,15.130592041015625,2.168973684310913,9.561861991882324,-0.1916925013065338
1787814527586666800,15.146666748046876,2.213008165359497,9.55153751373291,-0.2027418613433838
1787814527602795800,15.162795654296875,2.2737579345703125,9.53736400604248,-0.19779270887374878
1787814527618929700,15.1789296875,2.342705249786377,9.52093505859375,-0.18414923548698425
1787814527634965500,15.194965576171874,2.350421667098999,9.518706321716309,-0.2004423439502716
1787814527651080400,15.21108056640625,2.35003924369812,9.518668174743652,-0.20657822489738464
1787814527667108900,15.22710888671875,2.3453853130340576,9.51993179321289,-0.20112434029579163
1787814527683187700,15.243187744140625,2.3420557975769043,9.521049499511719,-0.18648937344551086
1787814527699333400,15.25933349609375,2.343351125717163,9.5211820602417,-0.16183964908123016
1787814527715384600,15.275384521484375,2.350083827972412,9.520029067993164,-0.12866175174713135
1787814527731514000,15.29151416015625,2.3628993034362793,9.517321586608887,-0.08780878037214279
1787814527747565000,15.30756494140625,2.3776087760925293,9.5139799118042,-0.03948299214243889
1787814527763669800,15.323669677734374,2.391852617263794,9.510481834411621,0.013083938509225845
1787814527779789000,15.3397890625,2.408390998840332,9.506081581115723,0.06665931642055511
1787814527795855600,15.355855712890625,2.4329111576080322,9.499345779418945,0.1173914298415184
1787814527811990500,15.371990478515626,2.4453630447387695,9.494974136352539,0.18985256552696228
1787814527828050200,15.38805029296875,2.454051971435547,9.490840911865234,0.2682778835296631
1787814527844168000,15.40416796875,2.472550392150879,9.484373092651367,0.32182183861732483
1787814527860230100,15.420230224609375,2.4938719272613525,9.477653503417969,0.3536442220211029
1787814527876300500,15.436300537109375,2.5119619369506836,9.47222900390625,0.37057140469551086
1787814527892383700,15.4523837890625,2.5193841457366943,9.469490051269531,0.389700323343277
1787814527908444400,15.4684443359375,2.5185635089874268,9.468740463256836,0.41256725788116455
1787814527924565000,15.48456494140625,2.5182576179504395,9.467839241027832,0.4345240890979767
1787814527940698000,15.500697998046874,2.5228140354156494,9.46560287475586,0.4562538266181946
1787814527956782000,15.516781982421875,2.5328381061553955,9.461799621582031,0.4790270924568176
1787814527972888300,15.532888427734376,2.546330451965332,9.456795692443848,0.5055978298187256
1787814527988916500,15.54891650390625,2.5596349239349365,9.4514799118042,0.5368320941925049
1787814528005005600,15.565005615234375,2.57058048248291,9.446477890014648,0.5714637041091919
1787814528021151500,15.5811513671875,2.5876235961914062,9.440025329589844,0.6004518866539001
1787814528037249500,15.59724951171875,2.6157705783843994,9.430502891540527,0.627491295337677
1787814528053363000,15.613363037109375,2.643474578857422,9.420926094055176,0.6546773910522461
1787814528069392400,15.629392333984375,2.6565661430358887,9.415777206420898,0.6754266023635864
1787814528085477600,15.6454775390625,2.6341135501861572,9.42131233215332,0.6860824227333069
1787814528101616000,15.6616162109375,2.5792653560638428,9.436388969421387,0.6872839331626892
1787814528117652700,15.67765283203125,2.520247459411621,9.452178001403809,0.6892512440681458
1787814528133771300,15.693771240234375,2.4748423099517822,9.463638305664062,0.6964907050132751
1787814528149803800,15.7098037109375,2.4534265995025635,9.468284606933594,0.708996593952179
1787814528165905700,15.72590576171875,2.4563779830932617,9.46618938446045,0.7265231609344482
1787814528182009300,15.74200927734375,2.481470823287964,9.458532333374023,0.7408549189567566
1787814528198054400,15.758054443359375,2.51692271232605,9.44858455657959,0.7481542825698853
1787814528214178300,15.77417822265625,2.5562679767608643,9.43846607208252,0.7424774169921875
1787814528230217200,15.79021728515625,2.591470241546631,9.430603981018066,0.7200002074241638
1787814528246316000,15.80631591796875,2.6136646270751953,9.427128791809082,0.6843924522399902
1787814528262432500,15.8224326171875,2.6244559288024902,9.426847457885742,0.645872175693512
1787814528278499000,15.8384990234375,2.625744342803955,9.428786277770996,0.6114295125007629
1787814528294583600,15.85458349609375,2.6176013946533203,9.432793617248535,0.5838891267776489
1787814528310627600,15.870627685546875,2.6036252975463867,9.437906265258789,0.5634434819221497
1787814528326732800,15.88673291015625,2.591541051864624,9.442289352416992,0.5454191565513611
1787814528342837000,15.9028369140625,2.581608772277832,9.446060180664062,0.5269210934638977
1787814528358951400,15.918951416015625,2.577549934387207,9.44839096069336,0.5045201182365417
1787814528375039500,15.93503955078125,2.5900352001190186,9.446524620056152,0.4746279716491699
1787814528391154700,15.95115478515625,2.617189884185791,9.440847396850586,0.4372045397758484
1787814528407281200,15.96728125,2.644213914871216,9.435226440429688,0.3937421441078186
1787814528423406800,15.98340673828125,2.6486024856567383,9.435874938964844,0.34576573967933655
1787814528439483600,15.999483642578125,2.6476614475250244,9.437840461730957,0.2956725060939789
1787814528455578400,16.015578369140623,2.6432793140411377,9.440506935119629,0.24559184908866882
1787814528471703300,16.031703369140626,2.6460230350494385,9.4406099319458,0.20935995876789093
1787814528487837400,16.04783740234375,2.6416022777557373,9.442517280578613,0.1766837239265442
1787814528503977500,16.0639775390625,2.6290643215179443,9.446528434753418,0.14676760137081146
1787814528520017700,16.080017578125,2.6094706058502197,9.452303886413574,0.12251579016447067
1787814528536117800,16.09611767578125,2.5849194526672363,9.45928955078125,0.10217881202697754
1787814528552146700,16.112146728515626,2.5556905269622803,9.467414855957031,0.08295505493879318
1787814528568231700,16.128231689453123,2.524442434310913,9.475959777832031,0.061590779572725296
1787814528584373500,16.14437353515625,2.4943196773529053,9.484048843383789,0.03984656557440758
1787814528600413400,16.160413330078125,2.455979824066162,9.494132995605469,0.000221826063352637
1787814528616495400,16.176495361328126,2.4269869327545166,9.50153636932373,-0.03076309524476528
1787814528632531500,16.192531494140624,2.413315534591675,9.50493049621582,-0.05071136727929115
1787814528648624600,16.208624755859375,2.4064433574676514,9.506599426269531,-0.06344664096832275
1787814528664727000,16.22472705078125,2.3922107219696045,9.510085105895996,-0.0775628387928009
1787814528680782600,16.240782470703124,2.369316339492798,9.515645027160645,-0.09616641700267792
1787814528696905700,16.25690576171875,2.346977472305298,9.520965576171875,-0.11539777368307114
1787814528712953000,16.272953125,2.334548234939575,9.523781776428223,-0.1336117684841156
1787814528729052200,16.28905224609375,2.33766508102417,9.522796630859375,-0.14850889146327972
1787814528745164000,16.3051640625,2.358227252960205,9.517663955688477,-0.15245895087718964
1787814528761266400,16.321266357421877,2.389087200164795,9.510137557983398,-0.1412387639284134
1787814528777352400,16.3373525390625,2.4175398349761963,9.503283500671387,-0.11609409004449844
1787814528793441800,16.35344189453125,2.429429054260254,9.500589370727539,-0.08408625423908234
1787814528809537500,16.36953759765625,2.4189035892486572,9.503511428833008,-0.05052914097905159
1787814528825658600,16.38565869140625,2.3921797275543213,9.510387420654297,-0.020239362493157387
1787814528841772300,16.401772216796875,2.3534927368164062,9.520055770874023,-0.0006350830662995577
1787814528857856800,16.417856689453124,2.3052544593811035,9.53184986114502,0.0027045828755944967
1787814528873875200,16.433875244140626,2.2510488033294678,9.54479694366455,-0.0050054071471095085
1787814528889978400,16.449978271484376,2.2050347328186035,9.555520057678223,-0.016147417947649956
1787814528906093800,16.46609375,2.1813058853149414,9.560956001281738,-0.020262159407138824
1787814528922177800,16.482177734375,2.183985948562622,9.5603609085083,-0.011131050065159798
1787814528946319600,16.506319580078124,2.226059913635254,9.550621032714844,0.02657894231379032
1787814528962397200,16.522397216796875,2.2667596340179443,9.540873527526855,0.06286460161209106
1787814528978550800,16.53855078125,2.308366298675537,9.530591011047363,0.09835515916347504
1787814528994580500,16.55458056640625,2.3455302715301514,9.52123737335205,0.12211831659078598
1787814529010709000,16.570708984375,2.4207944869995117,9.5024995803833,0.11241364479064941
1787814529026802700,16.586802734375,2.488980770111084,9.484986305236816,0.10219065099954605
1787814529042839000,16.602839111328127,2.5085482597351074,9.479823112487793,0.10247034579515457
1787814529058936000,16.61893603515625,2.5181572437286377,9.477293014526367,0.10103519260883331
1787814529074972400,16.634972412109374,2.534613847732544,9.472955703735352,0.0962098240852356
1787814529091052000,16.651052001953126,2.550478935241699,9.468708992004395,0.09491466730833054
1787814529107151000,16.667151123046875,2.573204517364502,9.46251392364502,0.09926701337099075
1787814529123202300,16.683202392578124,2.5994081497192383,9.455262184143066,0.10723273456096649
1787814529139316000,16.69931591796875,2.6262714862823486,9.447726249694824,0.11645838618278503
1787814529155368700,16.71536865234375,2.6526498794555664,9.440240859985352,0.1252390742301941
1787814529171475000,16.731474853515625,2.678558826446533,9.432817459106445,0.13296908140182495
1787814529187591700,16.747591796875,2.704211711883545,9.425393104553223,0.13991042971611023
1787814529203648500,16.7636484375,2.730778694152832,9.417637825012207,0.14611585438251495
1787814529219769900,16.779769775390626,2.7616918087005615,9.408462524414062,0.15580782294273376
1787814529235821000,16.795821044921876,2.793046712875366,9.399002075195312,0.1674995720386505
1787814529251925500,16.811925537109374,2.8125791549682617,9.39303970336914,0.17493483424186707
1787814529268045600,16.828045654296876,2.802611827850342,9.395950317382812,0.17849501967430115
1787814529284109300,16.844109375,2.772081136703491,9.404875755310059,0.18515446782112122
1787814529300240400,16.860240478515625,2.7390544414520264,9.41430377960205,0.1971035599708557
1787814529316280300,16.8762802734375,2.705244541168213,9.423933982849121,0.2036997377872467
1787814529332384000,16.892384033203125,2.673550605773926,9.433094024658203,0.19815950095653534
1787814529348466200,16.908466064453126,2.6575767993927,9.437853813171387,0.18598522245883942
1787814529364545000,16.924544921875,2.674508571624756,9.433130264282227,0.18294073641300201
1787814529380688000,16.94068798828125,2.694258451461792,9.42760944366455,0.17756196856498718
1787814529396759000,16.956759033203124,2.711463212966919,9.422737121582031,0.1744059920310974
1787814529412889000,16.97288916015625,2.7406957149505615,9.414175987243652,0.17962855100631714
1787814529428980500,16.98898046875,2.787635087966919,9.400056838989258,0.1960325688123703
1787814529445056500,17.005056396484374,2.8456320762634277,9.382227897644043,0.2157774269580841
1787814529461197600,17.021197509765624,2.896352767944336,9.366490364074707,0.22447146475315094
1787814529477258200,17.03725830078125,2.9211301803588867,9.359068870544434,0.2126176506280899
1787814529493375700,17.053375732421873,2.910205841064453,9.363199234008789,0.17768719792366028
1787814529509463800,17.0694638671875,2.873155355453491,9.375435829162598,0.12879472970962524
1787814529525485800,17.08548583984375,2.825078010559082,9.390567779541016,0.08105959743261337
1787814529541587000,17.1015869140625,2.7702696323394775,9.407126426696777,0.04458265379071236
1787814529557597000,17.117596923828124,2.71714186668396,9.422674179077148,0.02702142484486103
1787814529573676000,17.133676025390624,2.6790034770965576,9.433576583862305,0.03135346248745918
1787814529589773000,17.14977294921875,2.6635096073150635,9.437861442565918,0.05385521799325943
1787814529605821000,17.165821044921874,2.675098419189453,9.434330940246582,0.08730565011501312
1787814529621931500,17.181931640625,2.7091987133026123,9.4241361618042,0.12762275338172913
1787814529638017300,17.198017333984374,2.7582051753997803,9.40939998626709,0.1609206348657608
1787814529654108200,17.214108154296873,2.808946371078491,9.394270896911621,0.16707447171211243
1787814529670208500,17.23020849609375,2.850968837738037,9.382204055786133,0.12895342707633972
1787814529686265000,17.24626513671875,2.8790369033813477,9.3743257522583,0.05970306694507599
1787814529702381000,17.262381103515626,2.8966338634490967,9.3690767288208,-0.017919395118951797
1787814529718416000,17.278415771484376,2.9057607650756836,9.365913391113281,-0.08132482320070267
1787814529734508800,17.2945087890625,2.9085540771484375,9.364656448364258,-0.11798924952745438
1787814529750621200,17.31062109375,2.90120792388916,9.366853713989258,-0.12421412020921707
1787814529766686000,17.32668603515625,2.8854291439056396,9.371898651123047,-0.11054390668869019
1787814529782812400,17.3428125,2.8669769763946533,9.377779006958008,-0.08995499461889267
1787814529798871800,17.358871826171875,2.8524551391601562,9.382360458374023,-0.07210399210453033
1787814529814990000,17.374989990234376,2.847930431365967,9.383817672729492,-0.060453884303569794
1787814529831064300,17.391064208984375,2.8594040870666504,9.380348205566406,-0.05725976452231407
1787814529847141600,17.4071416015625,2.8862762451171875,9.372076988220215,-0.06322159618139267
1787814529863287000,17.423287109375,2.924647092819214,9.36003303527832,-0.08139292150735855
1787814529879365600,17.43936572265625,2.9669899940490723,9.346389770507812,-0.11120324581861496
1787814529895497000,17.4554970703125,3.006460428237915,9.333252906799316,-0.14824819564819336
1787814529911576300,17.471576416015626,3.037644624710083,9.322443962097168,-0.1875254362821579
1787814529927657500,17.487657470703127,3.054572343826294,9.316081047058105,-0.22494156658649445
1787814529943806200,17.50380615234375,3.054257869720459,9.315469741821289,-0.2528396248817444
1787814529959885300,17.51988525390625,3.0388779640197754,9.320318222045898,-0.2593783736228943
1787814529976013600,17.536013671875,3.0132179260253906,9.32913589477539,-0.2411082684993744
1787814529992106800,17.552106689453126,2.980393648147583,9.340648651123047,-0.19988778233528137
1787814530008142600,17.568142578125,2.947974920272827,9.351907730102539,-0.14723289012908936
1787814530024245000,17.584244873046874,2.9200994968414307,9.36141586303711,-0.0854223221540451
1787814530040283600,17.60028369140625,2.901742696762085,9.367496490478516,-0.01785217598080635
1787814530056380700,17.616380615234377,2.8919005393981934,9.370416641235352,0.05095423385500908
1787814530072492800,17.632492919921877,2.881840944290161,9.372970581054688,0.11313976347446442
1787814530088551700,17.6485517578125,2.8398172855377197,9.383933067321777,0.21826836466789246
1787814530104671000,17.6646708984375,2.8017916679382324,9.393670082092285,0.2816387116909027
1787814530120658200,17.680658203125,2.768892526626587,9.40286922454834,0.2994841933250427
1787814530136760000,17.696760009765626,2.736346960067749,9.41249942779541,0.296103298664093
1787814530152878800,17.71287890625,2.708770990371704,9.421204566955566,0.2717921733856201
1787814530168941000,17.728941162109376,2.689331531524658,9.428031921386719,0.2238222062587738
1787814530185064000,17.74506396484375,2.6713380813598633,9.434391975402832,0.16301468014717102
1787814530201119500,17.761119384765625,2.6464385986328125,9.442230224609375,0.10513854026794434
1787814530217203200,17.777203125,2.606440544128418,9.453712463378906,0.06479161977767944
1787814530233277400,17.79327734375,2.5428876876831055,9.471151351928711,0.037677112966775894
1787814530249342000,17.809342041015626,2.464991331100464,9.491789817810059,0.010936112143099308
1787814530265476000,17.82547607421875,2.3992092609405518,9.508630752563477,-0.01227203756570816
1787814530281532400,17.841532470703125,2.3780717849731445,9.513927459716797,-0.01877659745514393
1787814530297649000,17.85764892578125,2.4049901962280273,9.507174491882324,-0.007620119955390692
1787814530313710600,17.873710693359374,2.464693784713745,9.49185562133789,0.01899929903447628
1787814530329762800,17.8897626953125,2.5181455612182617,9.477731704711914,0.044018883258104324
1787814530345888300,17.90588818359375,2.536421060562134,9.472827911376953,0.04977613314986229
1787814530361933600,17.92193359375,2.5147435665130615,9.47869873046875,0.027350949123501778
1787814530378041600,17.93804150390625,2.476628065109253,9.488754272460938,-0.015910394489765167
1787814530394113800,17.95411376953125,2.444153070449829,9.49692153930664,-0.07053571939468384
1787814530410175700,17.97017578125,2.4277539253234863,9.500581741333008,-0.12398264557123184
1787814530426315500,17.9863154296875,2.415498733520508,9.502876281738281,-0.17642274498939514
1787814530442369800,18.002369873046874,2.402665615081787,9.5053071975708,-0.2161523997783661
1787814530458495700,18.018495849609376,2.396055221557617,9.506625175476074,-0.23106208443641663
1787814530474586400,18.03458642578125,2.409860372543335,9.503640174865723,-0.20931904017925262
1787814530490623500,18.05062353515625,2.44425892829895,9.49581527709961,-0.1596212387084961
1787814530506720500,18.066720458984374,2.4865450859069824,9.485648155212402,-0.09995938092470169
1787814530522792700,18.082792724609376,2.5206758975982666,9.47701644897461,-0.05245353281497955
1787814530538869000,18.098868896484376,2.5399084091186523,9.471991539001465,-0.025330841541290283
1787814530554970600,18.114970703125,2.548579692840576,9.469693183898926,-0.008110241033136845
1787814530571018000,18.13101806640625,2.557224750518799,9.467331886291504,0.024745149537920952
1787814530587121200,18.14712109375,2.567049503326416,9.464298248291016,0.08786211907863617
1787814530603155500,18.163155517578126,2.5691967010498047,9.462496757507324,0.17542758584022522
1787814530619247000,18.1792470703125,2.5570290088653564,9.463662147521973,0.26661038398742676
1787814530635296800,18.195296875,2.539362668991089,9.465654373168945,0.35131898522377014
1787814530651333000,18.2113330078125,2.5268595218658447,9.465961456298828,0.42538902163505554
1787814530667444200,18.2274443359375,2.577183723449707,9.447237014770508,0.5274705290794373
1787814530683522000,18.24352197265625,2.598507881164551,9.438546180725098,0.5761807560920715
1787814530699623000,18.259622802734373,2.635561227798462,9.426039695739746,0.611550509929657
1787814530715693300,18.275693359375,2.6783556938171387,9.412566184997559,0.6327887773513794
1787814530731761000,18.291760986328125,2.7207961082458496,9.39952564239502,0.645451009273529
1787814530747879000,18.30787890625,2.7595672607421875,9.387654304504395,0.6535544991493225
1787814530763931400,18.323931396484376,2.8217904567718506,9.36849594116211,0.6626982092857361
1787814530780040000,18.3400400390625,2.9010539054870605,9.343827247619629,0.6687275171279907
1787814530796108000,18.35610791015625,2.959486722946167,9.325508117675781,0.6683885455131531
1787814530812171300,18.372171142578125,2.9502065181732178,9.326658248901367,0.6929115653038025
1787814530828304400,18.388304443359374,2.9302005767822266,9.330334663391113,0.7274371981620789
1787814530844364300,18.4043642578125,2.9013679027557373,9.335663795471191,0.7732014656066895
1787814530860473600,18.4204736328125,2.8662779331207275,9.341998100280762,0.8257739543914795
1787814530876550100,18.436550048828124,2.8303580284118652,9.34817886352539,0.8780834078788757
1787814530892619800,18.452619873046874,2.7985610961914062,9.355340003967285,0.9033586978912354
1787814530908763600,18.468763671875,2.7720775604248047,9.363536834716797,0.9000877141952515
1787814530924849000,18.484848876953127,2.7870240211486816,9.358004570007324,0.9113909006118774
1787814530940936000,18.50093603515625,2.8203775882720947,9.349059104919434,0.9005270004272461
1787814530957030400,18.517030517578124,2.8631954193115234,9.338932991027832,0.8699623346328735
1787814530973063200,18.533063232421874,2.9087913036346436,9.329111099243164,0.8228005170822144
1787814530989167600,18.549167724609376,2.9520480632781982,9.320573806762695,0.7633642554283142
1787814531005206300,18.565206298828127,2.988585948944092,9.313711166381836,0.702525794506073
1787814531021298200,18.581298095703126,3.019172191619873,9.3076810836792,0.6496674418449402
1787814531037405700,18.59740576171875,3.0464699268341064,9.30158805847168,0.6081593632698059
1787814531053452500,18.61345263671875,3.0720412731170654,9.294797897338867,0.5828303098678589
1787814531069563000,18.62956298828125,3.0955944061279297,9.287481307983398,0.5747898817062378
1787814531085601800,18.645601806640624,3.1150765419006348,9.28032112121582,0.585102915763855
1787814531101698000,18.661697998046876,3.1248092651367188,9.275545120239258,0.608435869216919
1787814531117810400,18.677810546875,3.1138124465942383,9.277910232543945,0.6284592151641846
1787814531133874200,18.693874267578124,3.0778558254241943,9.288999557495117,0.6416130065917969
1787814531149997300,18.709997314453126,3.032633066177368,9.303144454956055,0.6519429683685303
1787814531166040000,18.7260400390625,3.0137128829956055,9.308114051818848,0.6685516238212585
1787814531182147000,18.74214697265625,3.0356743335723877,9.300017356872559,0.6817381381988525
1787814531198168300,18.758168212890624,3.0893609523773193,9.282527923583984,0.6789166331291199
1787814531214229000,18.77422900390625,3.1526670455932617,9.262934684753418,0.6550737023353577
1787814531230365700,18.79036572265625,3.2010045051574707,9.248579025268555,0.6226961612701416
1787814531246366500,18.806366455078123,3.213876247406006,9.246015548706055,0.5938093662261963
1787814531262480000,18.82247998046875,3.1886377334594727,9.256277084350586,0.5694809556007385
1787814531278546700,18.838546630859376,3.125746250152588,9.279278755187988,0.5432184338569641
1787814531294611500,18.854611572265625,3.035996437072754,9.310898780822754,0.5101637244224548
1787814531310742500,18.870742431640625,2.9290249347686768,9.347091674804688,0.4723050892353058
1787814531326796300,18.88679638671875,2.82802414894104,9.380085945129395,0.43201690912246704
1787814531342865700,18.90286572265625,2.7653310298919678,9.399683952331543,0.41143620014190674
1787814531358948600,18.918948486328127,2.765254259109497,9.39866828918457,0.43450552225112915
1787814531375020500,18.9350205078125,2.8093113899230957,9.38313102722168,0.48479896783828735
1787814531391121200,18.95112109375,2.8575212955474854,9.365848541259766,0.5346469879150391
1787814531407191600,18.967191650390625,2.885776996612549,9.355384826660156,0.5651938319206238
1787814531423267000,18.98326708984375,2.8937718868255615,9.352668762207031,0.5692728757858276
1787814531439355000,18.99935498046875,2.895650863647461,9.353344917297363,0.5481891632080078
1787814531455379700,19.015379638671874,2.9018712043762207,9.353596687316895,0.5096645355224609
1787814531471486200,19.031486328125,2.9131855964660645,9.352821350097656,0.4565984010696411
1787814531487560200,19.047560302734375,2.924997091293335,9.351856231689453,0.3969610929489136
1787814531503649000,19.06364892578125,2.930166721343994,9.35239028930664,0.3425178527832031
1787814531519760000,19.079759765625,2.9247775077819824,9.355535507202148,0.30004823207855225
1787814531535808300,19.095808349609374,2.90610671043396,9.362117767333984,0.275145560503006
1787814531551886800,19.111886962890626,2.8862946033477783,9.3685884475708,0.26315438747406006
1787814531567965000,19.12796484375,2.8739731311798096,9.372572898864746,0.25603169202804565
1787814531584046600,19.144046630859375,2.875051975250244,9.372346878051758,0.252187579870224
1787814531600157000,19.160156982421874,2.877340078353882,9.37177562713623,0.24725626409053802
1787814531616210000,19.1762099609375,2.882266044616699,9.370388984680176,0.2424021065235138
1787814531632326700,19.19232666015625,2.9015848636627197,9.364469528198242,0.24065379798412323
1787814531648367600,19.20836767578125,2.9203765392303467,9.358809471130371,0.23343642055988312
1787814531664468200,19.22446826171875,2.8994500637054443,9.36609935760498,0.19936873018741608
1787814531680532000,19.240531982421874,2.9032039642333984,9.365559577941895,0.1676008403301239
1787814531696589800,19.25658984375,2.9073829650878906,9.364794731140137,0.13469605147838593
1787814531712711400,19.27271142578125,2.8847200870513916,9.372269630432129,0.0966968759894371
1787814531728759000,19.288759033203124,2.8317461013793945,9.388739585876465,0.05632073059678078
1787814531744879600,19.304879638671874,2.748854875564575,9.413488388061523,0.020729776471853256
1787814531760888800,19.320888916015626,2.6442174911499023,9.443437576293945,-0.0026554830837994814
1787814531776959500,19.33695947265625,2.5298686027526855,9.474709510803223,-0.006368950475007296
1787814531793101800,19.353101806640623,2.429849147796631,9.500842094421387,0.014991817995905876
1787814531809160200,19.36916015625,2.3708152770996094,9.515450477600098,0.07651537656784058
1787814531825216300,19.38521630859375,2.3702359199523926,9.514070510864258,0.18671207129955292
1787814531841313000,19.40131298828125,2.4110703468322754,9.499934196472168,0.3291875422000885
1787814531857342000,19.417342041015626,2.467329502105713,9.47934627532959,0.47399961948394775
1787814531873443300,19.433443359375,2.5136311054229736,9.460360527038574,0.5946753621101379
1787814531889521700,19.449521728515624,2.534712791442871,9.450141906738281,0.6636652946472168
1787814531905603000,19.46560302734375,2.534729480743408,9.449358940124512,0.6746522784233093
1787814531921705700,19.481705810546874,2.5245361328125,9.454887390136719,0.6342089176177979
1787814531937742300,19.497742431640624,2.510887384414673,9.46330451965332,0.5583283305168152
1787814531953852000,19.513851806640623,2.491792917251587,9.472990036010742,0.4730924367904663
1787814531969888300,19.52988818359375,2.4627432823181152,9.483834266662598,0.40272974967956543
1787814531985975800,19.545975830078124,2.4287290573120117,9.494096755981445,0.36577364802360535
1787814532002079700,19.562079833984374,2.3995347023010254,9.50157642364502,0.3642275929450989
1787814532018127400,19.57812744140625,2.387540578842163,9.503602027893066,0.38933542370796204
1787814532034248200,19.594248291015624,2.396029472351074,9.499894142150879,0.4259752929210663
1787814532050295300,19.61029541015625,2.425039291381836,9.490684509277344,0.4652771055698395
1787814532066397400,19.6263974609375,2.4650561809539795,9.47867202758789,0.49869275093078613
1787814532082506000,19.642506103515625,2.5074708461761475,9.466317176818848,0.5213721990585327
1787814532098558000,19.658557861328124,2.5461668968200684,9.455626487731934,0.5277946591377258
1787814532114681300,19.674681396484374,2.583017110824585,9.446101188659668,0.519219696521759
1787814532130740200,19.690740234375,2.6210386753082275,9.436606407165527,0.501014769077301
1787814532146861800,19.70686181640625,2.660834312438965,9.42640495300293,0.48295068740844727
1787814532162937000,19.72293701171875,2.7027199268341064,9.415709495544434,0.45836541056632996
1787814532179007000,19.739007080078125,2.738035202026367,9.40673542022705,0.432319700717926
1787814532195141600,19.7551416015625,2.765840768814087,9.39987564086914,0.4035714566707611
1787814532211206000,19.771205810546874,2.7831828594207764,9.395954132080078,0.3746124804019928
1787814532227328800,19.787328857421876,2.7937633991241455,9.394377708435059,0.33307576179504395
1787814532243417900,19.80341796875,2.7944045066833496,9.395593643188477,0.2907286286354065
1787814532259502800,19.8195029296875,2.7860889434814453,9.399168968200684,0.2524324953556061
1787814532275647200,19.835647216796875,2.77064847946167,9.404502868652344,0.2219032198190689
1787814532291719000,19.851718994140626,2.7628402709960938,9.406947135925293,0.21555151045322418
1787814532307803000,19.867802978515623,2.7698371410369873,9.404504776000977,0.23172493278980255
1787814532323844900,19.883844970703127,2.7790913581848145,9.401437759399414,0.2450023591518402
1787814532339885000,19.899885009765626,2.7858684062957764,9.399311065673828,0.24959464371204376
1787814532355986700,19.915986572265624,2.7542829513549805,9.409653663635254,0.20674774050712585
1787814532372009000,19.932009033203126,2.737495183944702,9.415192604064941,0.17506051063537598
1787814532388092000,19.948091796875,2.734804391860962,9.416435241699219,0.14825141429901123
1787814532404193300,19.964193359375,2.7478365898132324,9.412960052490234,0.12634383141994476
1787814532420238600,19.980238525390625,2.774641752243042,9.405257225036621,0.1136278435587883
1787814532436341500,19.996341552734375,2.8060195446014404,9.396002769470215,0.10851853340864182
1787814532452405800,20.01240576171875,2.8232057094573975,9.390911102294922,0.1033940315246582
1787814532468473600,20.0284736328125,2.8173224925994873,9.392741203308105,0.0974959135055542
1787814532484580900,20.044580810546876,2.808178186416626,9.395391464233398,0.10565496236085892
1787814532500629500,20.06062939453125,2.8212101459503174,9.391168594360352,0.130796417593956
1787814532516744400,20.076744384765625,2.8622727394104004,9.3782958984375,0.1592889428138733
1787814532532795400,20.09279541015625,2.916879415512085,9.361230850219727,0.1719689667224884
1787814532548889000,20.10888916015625,2.9592063426971436,9.348114013671875,0.16206513345241547
1787814532564952800,20.124952880859375,2.97039532661438,9.344942092895508,0.13854192197322845
1787814532581011700,20.14101171875,2.943344831466675,9.35381031036377,0.1154816523194313
1787814532597134800,20.157134765625,2.883136749267578,9.372673034667969,0.10448738187551498
1787814532613185300,20.173185302734375,2.8065543174743652,9.395872116088867,0.10601502656936646
1787814532629285000,20.18928515625,2.7216835021972656,9.42070198059082,0.11501988023519516
1787814532645346800,20.205346923828124,2.6277029514312744,9.44711971282959,0.13230770826339722
1787814532661405000,20.221405029296875,2.5406148433685303,9.470486640930176,0.15976503491401672
1787814532677532400,20.237532470703126,2.4725966453552246,9.487817764282227,0.19486002624034882
1787814532693581000,20.2535810546875,2.434831142425537,9.496734619140625,0.2324412763118744
1787814532709690000,20.269690185546875,2.4344732761383057,9.495888710021973,0.26796674728393555
1787814532725771500,20.285771484375,2.4679667949676514,9.486348152160645,0.2979062497615814
1787814532741833500,20.30183349609375,2.532229423522949,9.468823432922363,0.31557607650756836
1787814532757967600,20.317967529296876,2.618638277053833,9.445455551147461,0.31066638231277466
1787814532774032100,20.3340322265625,2.7097220420837402,9.420700073242188,0.27969488501548767
1787814532790100000,20.350099853515626,2.785602331161499,9.399845123291016,0.2318020910024643
1787814532806177000,20.366177001953126,2.8336551189422607,9.386722564697266,0.17388153076171875
1787814532822214700,20.382214599609377,2.84901762008667,9.382919311523438,0.11963585019111633
1787814532838310400,20.398310302734377,2.8473896980285645,9.383870124816895,0.0757484883069992
1787814532854376700,20.414376708984374,2.8450849056243896,9.384759902954102,0.04644055664539337
1787814532870445600,20.430445556640624,2.855663537979126,9.381609916687012,0.031088966876268387
1787814532886482000,20.44648193359375,2.882794141769409,9.373327255249023,0.025198446586728096
1787814532902547700,20.462547607421875,2.9246790409088135,9.36034107208252,0.02585252746939659
1787814532918651100,20.478651123046873,2.9767117500305176,9.34392261505127,0.026569442823529243
1787814532934634200,20.49463427734375,3.0310447216033936,9.326444625854492,0.024551965296268463
1787814532950729700,20.510729736328123,3.0843827724456787,9.308953285217285,0.019812369719147682
1787814532966826500,20.526826416015624,3.1138644218444824,9.299153327941895,0.0031900282483547926
1787814532982875000,20.542875,3.141693592071533,9.28976821899414,-0.019722646102309227
1787814532998988500,20.558988525390625,3.1677157878875732,9.280854225158691,-0.04126198589801788
1787814533015039200,20.575039306640626,3.176396608352661,9.277780532836914,-0.06091127172112465
1787814533031151600,20.591151611328126,3.163724422454834,9.281998634338379,-0.07567308098077774
1787814533047276800,20.60727685546875,3.136244535446167,9.291274070739746,-0.08132307231426239
1787814533063337200,20.623337158203125,3.0953457355499268,9.305010795593262,-0.07744038105010986
1787814533079462400,20.63946240234375,3.0432512760162354,9.322254180908203,-0.06777209788560867
1787814533095514600,20.6555146484375,2.99128794670105,9.339144706726074,-0.054313775151968
1787814533111635700,20.6716357421875,2.9493212699890137,9.352571487426758,-0.03607377037405968
1787814533127717400,20.68771728515625,2.915090322494507,9.36335563659668,-0.0154740484431386
1787814533143791600,20.70379150390625,2.889277219772339,9.371358871459961,0.00937076285481453
1787814533159928000,20.719927978515624,2.854872465133667,9.381847381591797,0.03233107551932335
1787814533175991000,20.735990966796876,2.801830291748047,9.3977632522583,0.047055765986442566
1787814533192115500,20.752115478515623,2.7446513175964355,9.414589881896973,0.05286123976111412
1787814533208202800,20.76820263671875,2.706902265548706,9.425490379333496,0.05670563876628876
