time,seconds_elapsed,z,y,x
1787814512589326800,0.149326904296875,-0.006108652334660292,-0.04092797264456749,0.01466076634824276
1787814512605464800,0.16546484375,-0.006108652334660292,-0.04092797264456749,0.01466076634824276
1787814512621946000,0.181946044921875,-0.006108652334660292,-0.04092797264456749,0.01466076634824276
1787814512637887700,0.1978876953125,-0.006108652334660292,-0.04092797264456749,0.01466076634824276
1787814512654526700,0.214526611328125,-0.006108652334660292,-0.04092797264456749,0.01466076634824276
1787814512670291500,0.23029150390625,-0.006108652334660292,-0.04092797264456749,0.01466076634824276
1787814512686532600,0.24653271484375,-0.006108652334660292,-0.04092797264456749,0.01466076634824276
1787814512710824700,0.27082470703125,-0.015271631069481373,-0.009162978269159794,0.004886921960860491
1787814512727060200,0.287060302734375,-0.009162978269159794,-0.015882495790719986,0.0012217304902151227
1787814512743564000,0.30356396484375,0.001832595793530345,-0.02932153269648552,0.009773843921720982
1787814512759450000,0.3194501953125,0.01771509274840355,-0.03787364438176155,0.014049900695681572
1787814512776159500,0.336159423828125,0.02015855349600315,-0.04764748737215996,0.01466076634824276
1787814512791878700,0.351878662109375,0.01710422709584236,-0.04337143152952194,0.016493361443281174
1787814512808125700,0.368125732421875,0.00366519158706069,-0.03848451003432274,0.019547687843441963
1787814512824675600,0.384675537109375,-0.001832595793530345,-0.04642575979232788,0.025045474991202354
1787814512840568800,0.40056884765625,0,-0.04703662544488907,0.03420845419168472
1787814512857257700,0.4172578125,-0.00855211354792118,-0.04153883829712868,0.033597588539123535
1787814512872937000,0.43293701171875,-0.01160643994808197,-0.036651913076639175,0.022602014243602753
1787814512889164000,0.4491640625,-0.014049900695681572,-0.033597588539123535,0.006108652334660292
1787814512913457000,0.473456787109375,-0.01466076634824276,-0.03787364438176155,-0.006719517521560192
1787814512929689000,0.489689208984375,-0.00733038317412138,-0.03481931984424591,-0.010995574295520782
1787814512946171100,0.506171142578125,-0.00427605677396059,-0.0354301854968071,-0.003054326167330146
1787814512962139600,0.5221396484375,-0.004886921960860491,-0.04153883829712868,0.00427605677396059
1787814512978752500,0.53875244140625,-0.0012217304902151227,-0.051312681287527084,0.00855211354792118
1787814512994567200,0.554567138671875,0.007941247895359993,-0.06230825558304787,0.00427605677396059
1787814513010757400,0.57075732421875,0.00733038317412138,-0.06108652427792549,0.004886921960860491
1787814513027229200,0.587229248046875,0.0006108652451075613,-0.05253441259264946,0.009162978269159794
1787814513043170800,0.6031708984375,-0.00427605677396059,-0.03787364438176155,0.01160643994808197
1787814513060116000,0.620115966796875,-0.00733038317412138,-0.036041051149368286,0.0024434609804302454
1787814513075915800,0.635915771484375,0.00427605677396059,-0.04764748737215996,-0.004886921960860491
1787814513091776800,0.65177685546875,0.01466076634824276,-0.07269296050071716,0.006108652334660292
1787814513108682000,0.668681884765625,0.024434609338641167,-0.08185594528913498,0.021991148591041565
1787814513124222700,0.68422265625,0.028099801391363144,-0.08002334833145142,0.02626720629632473
1787814513140895200,0.700895263671875,0.021380282938480377,-0.0555887371301651,0.01160643994808197
1787814513156652500,0.716652587890625,0.015271631069481373,-0.06108652427792549,-0.014049900695681572
1787814513172811500,0.7328115234375,0.02015855349600315,-0.06291911751031876,-0.019547687843441963
1787814513189388500,0.749388427734375,0.012828170321881771,-0.0659734457731247,-0.006108652334660292
1787814513205286100,0.7652861328125,-0.006719517521560192,-0.05619960278272629,0.006719517521560192
1787814513222019800,0.782019775390625,-0.021991148591041565,-0.051312681287527084,0.012217304669320583
1787814513237674800,0.7976748046875,-0.028099801391363144,-0.051312681287527084,0.012828170321881771
1787814513253894700,0.813894775390625,-0.024434609338641167,-0.04459316283464432,0.012828170321881771
1787814513270425900,0.83042578125,-0.012828170321881771,-0.051312681287527084,0.006719517521560192
1787814513286381600,0.846381591796875,0.00855211354792118,-0.06108652427792549,0.009773843921720982
1787814513303075800,0.863075927734375,0.013439035043120384,-0.06536258012056351,0.022602014243602753
1787814513318809000,0.87880908203125,0.003054326167330146,-0.05314527451992035,0.04398229718208313
1787814513335044400,0.89504443359375,-0.00427605677396059,-0.042760565876960754,0.05375614017248154
1787814513351518000,0.91151806640625,-0.014049900695681572,-0.024434609338641167,0.04948008432984352
1787814513367439400,0.927439453125,-0.029932396486401558,0.006108652334660292,0.04092797264456749
1787814513384225800,0.944225830078125,-0.045204028487205505,0.012828170321881771,0.02932153269648552
1787814513399873300,0.959873291015625,-0.03726277872920036,0,0.01771509274840355
1787814513416563200,0.976563232421875,-0.010995574295520782,-0.001832595793530345,0.015271631069481373
1787814513432585000,0.9925849609375,0.01771509274840355,-0.02626720629632473,0.02076941914856434
1787814513448584400,1.00858447265625,0.042760565876960754,-0.042760565876960754,0.019547687843441963
1787814513465205800,1.025205810546875,0.07024950534105301,-0.06536258012056351,0.024434609338641167
1787814513480911600,1.04091162109375,0.0861319974064827,-0.07635815441608429,0.025045474991202354
1787814513497170200,1.057170166015625,0.08429940044879913,-0.07513642311096191,0.02871066704392433
1787814513513661000,1.073660888671875,0.07391469180583954,-0.06963863968849182,0.02382374368607998
1787814513529475300,1.089475341796875,0.0507018156349659,-0.07757988572120667,0.009162978269159794
1787814513546061300,1.106061279296875,0.03176499158143997,-0.09407325088977814,-0.01160643994808197
1787814513561598000,1.121597900390625,0.01771509274840355,-0.10995574295520782,-0.02321287989616394
1787814513577713200,1.137713134765625,-0.003054326167330146,-0.12095131725072861,-0.025045474991202354
1787814513594092300,1.15409228515625,-0.018325956538319588,-0.12828169763088226,-0.010995574295520782
1787814513609900800,1.16990087890625,-0.02015855349600315,-0.1362229436635971,-0.001832595793530345
1787814513626428400,1.186428466796875,-0.022602014243602753,-0.12889257073402405,0.001832595793530345
1787814513642055200,1.20205517578125,-0.02321287989616394,-0.12950342893600464,0.006108652334660292
1787814513658133000,1.218133056640625,-0.02626720629632473,-0.13805554807186127,0.021380282938480377
1787814513674921000,1.2349208984375,-0.025656340643763542,-0.15454891324043274,0.031154127791523933
1787814513690333200,1.250333251953125,-0.02321287989616394,-0.16004669666290283,0.02626720629632473
1787814513706964200,1.266964111328125,-0.030543262138962746,-0.13866640627384186,0.009773843921720982
1787814513722958800,1.282958740234375,-0.03787364438176155,-0.14416420459747314,-0.018936822190880775
1787814513738596600,1.2985966796875,-0.03176499158143997,-0.15393804013729095,-0.03481931984424591
1787814513754929200,1.31492919921875,-0.021380282938480377,-0.1667662113904953,-0.03787364438176155
1787814513770762800,1.3307626953125,-0.02687807008624077,-0.17898350954055786,-0.0354301854968071
1787814513787317000,1.34731689453125,-0.039706241339445114,-0.17287486791610718,-0.030543262138962746
1787814513802978800,1.362978759765625,-0.04459316283464432,-0.18081611394882202,-0.030543262138962746
1787814513819033600,1.37903369140625,-0.04398229718208313,-0.18081611394882202,-0.025045474991202354
1787814513835381800,1.3953818359375,-0.0507018156349659,-0.15577064454555511,-0.004886921960860491
1787814513851187200,1.411187255859375,-0.05253441259264946,-0.15393804013729095,0.005497787147760391
1787814513867787500,1.42778759765625,-0.04398229718208313,-0.16859880089759827,0.01466076634824276
1787814513883291600,1.443291748046875,-0.029932396486401558,-0.182648703455925,0.01710422709584236
1787814513899391000,1.459390869140625,-0.021380282938480377,-0.17348572611808777,0.005497787147760391
1787814513915759400,1.47575927734375,-0.028099801391363144,-0.15332718193531036,-0.01160643994808197
1787814513931572700,1.49157275390625,-0.04581489413976669,-0.14049901068210602,-0.022602014243602753
1787814513948085800,1.508085693359375,-0.05803219974040985,-0.14355333149433136,-0.027488935738801956
1787814513963697400,1.523697509765625,-0.059864792972803116,-0.15760323405265808,-0.03787364438176155
1787814513980268800,1.540268798828125,-0.0507018156349659,-0.18509216606616974,-0.04642575979232788
1787814513996180700,1.5561806640625,-0.029932396486401558,-0.20891591906547546,-0.05253441259264946
1787814514012000800,1.572000732421875,-0.02076941914856434,-0.1875356286764145,-0.05803219974040985
1787814514028631600,1.588631591796875,-0.039706241339445114,-0.11972958594560623,-0.05192354694008827
1787814514044159000,1.604158935546875,-0.07269296050071716,-0.06841690838336945,-0.030543262138962746
1787814514060222700,1.62022265625,-0.08307767659425735,-0.056810468435287476,0.015271631069481373
1787814514076603600,1.636603759765625,-0.07208210229873657,-0.07819075137376785,0.05192354694008827
1787814514092425200,1.65242529296875,-0.04764748737215996,-0.11667526513338089,0.07757988572120667
1787814514108969000,1.668968994140625,-0.02626720629632473,-0.11178833991289139,0.09896016865968704
1787814514124573000,1.684572998046875,-0.025045474991202354,-0.07635815441608429,0.12278391420841217
1787814514140640500,1.700640625,-0.03237585723400116,-0.054367005825042725,0.13744467496871948
1787814514157034500,1.717034423828125,-0.03481931984424591,-0.06963863968849182,0.11789698898792267
1787814514172863000,1.732863037109375,-0.02626720629632473,-0.08674286305904388,0.05803219974040985
1787814514189515000,1.749514892578125,-0.00366519158706069,-0.1411098688840866,-0.00855211354792118
1787814514205060600,1.765060546875,0.04703662544488907,-0.19058994948863983,-0.08674286305904388
1787814514221146000,1.78114599609375,0.08796459436416626,-0.22846360504627228,-0.13561208546161652
1787814514237945300,1.7979453125,0.08491026610136032,-0.22540926933288574,-0.14355333149433136
1787814514253380600,1.813380615234375,0.031154127791523933,-0.1771509200334549,-0.10384709388017654
1787814514269938700,1.829938720703125,-0.04764748737215996,-0.06963863968849182,-0.028099801391363144
1787814514285997600,1.84599755859375,-0.09651670604944229,-0.006719517521560192,-0.006719517521560192
1787814514301644000,1.86164404296875,-0.10201449692249298,0.0006108652451075613,-0.03298672288656235
1787814514318004000,1.87800390625,-0.07696902006864548,-0.009162978269159794,-0.06414084881544113
1787814514333783600,1.893783447265625,-0.05803219974040985,-0.012217304669320583,-0.08307767659425735
1787814514350476500,1.9104765625,-0.04764748737215996,0.003054326167330146,-0.08735372871160507
1787814514365965300,1.92596533203125,-0.04092797264456749,0.00366519158706069,-0.09957103431224823
1787814514382072300,1.942072265625,-0.04092797264456749,-0.02015855349600315,-0.12278391420841217
1787814514398440400,1.9584404296875,-0.03726277872920036,-0.05314527451992035,-0.13316862285137177
1787814514414240300,1.974240234375,-0.02015855349600315,-0.09773843735456467,-0.12889257073402405
1787814514430776600,1.990776611328125,0.014049900695681572,-0.15332718193531036,-0.11728613078594208
1787814514446384000,2.006384033203125,0.036651913076639175,-0.1771509200334549,-0.11239920556545258
1787814514462494700,2.02249462890625,0.048258353024721146,-0.17898350954055786,-0.12889257073402405
1787814514478862300,2.0388623046875,0.060475658625364304,-0.1618792861700058,-0.1569923609495163
1787814514494676500,2.054676513671875,0.06841690838336945,-0.12400564551353455,-0.1820378452539444
1787814514511323100,2.0713232421875,0.04092797264456749,-0.0861319974064827,-0.18020524084568024
1787814514526865000,2.086864990234375,0.010995574295520782,-0.054367005825042725,-0.1514945775270462
1787814514543392300,2.103392333984375,-0.030543262138962746,0.01771509274840355,-0.07391469180583954
1787814514559301600,2.119301513671875,-0.07819075137376785,0.07635815441608429,0.042760565876960754
1787814514575125200,2.135125244140625,-0.10690141469240189,0.12339477986097336,0.14477506279945374
1787814514591670300,2.151670166015625,-0.13255776464939117,0.1667662113904953,0.2535090744495392
1787814514607306800,2.167306640625,-0.14966198801994324,0.18509216606616974,0.3530801236629486
1787814514623378400,2.18337841796875,-0.13866640627384186,0.17348572611808777,0.43188172578811646
1787814514639760400,2.199760498046875,-0.13439035415649414,0.19058994948863983,0.4648684561252594
1787814514655587600,2.215587646484375,-0.15271630883216858,0.25106561183929443,0.4550946056842804
1787814514672212200,2.232212158203125,-0.16493362188339233,0.25106561183929443,0.36651915311813354
1787814514687773700,2.247773681640625,-0.14233160018920898,0.19120082259178162,0.19303341209888458
1787814514703853300,2.263853271484375,0.00427605677396059,0.00366519158706069,-0.11239920556545258
1787814514720192000,2.28019189453125,0.23640485107898712,-0.3029891550540924,-0.42210787534713745
1787814514736023000,2.29602294921875,0.39767327904701233,-0.5119050741195679,-0.5363397002220154
1787814514752532700,2.31253271484375,0.44226643443107605,-0.48869219422340393,-0.40133845806121826
1787814514768122400,2.328122314453125,0.33169981837272644,-0.20341812074184418,-0.09529497474431992
1787814514784201700,2.34420166015625,0.16737708449363708,0.1007927656173706,0.22296582162380219
1787814514800969500,2.360969482421875,0.02871066704392433,0.24373523890972137,0.4001167416572571
1787814514816344000,2.376343994140625,-0.06352998316287994,0.43737950921058655,0.45204028487205505
1787814514832994800,2.392994873046875,-0.09407325088977814,0.5424483418464661,0.38606682419776917
1787814514848973300,2.408973388671875,-0.06902777403593063,0.5473352670669556,0.27488934993743896
1787814514864607000,2.42460693359375,-0.022602014243602753,0.46547931432724,0.12339477986097336
1787814514880966000,2.4409658203125,0.0354301854968071,0.3335324227809906,-0.00855211354792118
1787814514896768500,2.4567685546875,0.10323622822761536,0.20341812074184418,-0.10323622822761536
1787814514913212000,2.4732119140625,0.1612684279680252,0.09224065393209457,-0.16065755486488342
1787814514928843000,2.488843017578125,0.18325957655906677,-0.0024434609804302454,-0.18814650177955627
1787814514944936700,2.504936767578125,0.14477506279945374,-0.03420845419168472,-0.15882496535778046
1787814514961307600,2.5213076171875,0.08552113175392151,-0.009773843921720982,-0.11850785464048386
1787814514977119500,2.537119384765625,0.02382374368607998,0.07819075137376785,-0.0708603709936142
1787814514993752600,2.553752685546875,-0.027488935738801956,0.16065755486488342,-0.030543262138962746
1787814515009301200,2.56930126953125,-0.056810468435287476,0.20097467303276062,-0.02687807008624077
1787814515025348600,2.5853486328125,-0.06414084881544113,0.24495697021484375,-0.06169738993048668
1787814515041720000,2.601719970703125,-0.04581489413976669,0.2718350291252136,-0.1264491081237793
1787814515057547000,2.617547119140625,-0.02932153269648552,0.27061331272125244,-0.19120082259178162
1787814515074077000,2.634076904296875,-0.019547687843441963,0.23518311977386475,-0.21380282938480377
1787814515089725400,2.649725341796875,-0.006719517521560192,0.16737708449363708,-0.18936823308467865
1787814515106257200,2.666257080078125,0.001832595793530345,0.09407325088977814,-0.14355333149433136
1787814515122188000,2.68218798828125,0.00855211354792118,0.04886921867728233,-0.1007927656173706
1787814515138036700,2.69803662109375,0.016493361443281174,0.015882495790719986,-0.05497787147760391
1787814515154661400,2.714661376953125,0.04886921867728233,-0.021380282938480377,-0.013439035043120384
1787814515170221300,2.73022119140625,0.09346238523721695,-0.0708603709936142,0.014049900695681572
1787814515186311200,2.746311279296875,0.11362093687057495,-0.10751228034496307,0.045204028487205505
1787814515202688500,2.7626884765625,0.10934487730264664,-0.11850785464048386,0.09957103431224823
1787814515218529300,2.778529296875,0.08552113175392151,-0.1014036312699318,0.16554448008537292
1787814515235088000,2.795087890625,0.04948008432984352,-0.08246681094169617,0.2223549485206604
1787814515250729200,2.810729248046875,0.0012217304902151227,-0.08185594528913498,0.2681698501110077
1787814515266846700,2.8268466796875,-0.01160643994808197,-0.10384709388017654,0.24923302233219147
1787814515283187700,2.843187744140625,-0.0006108652451075613,-0.13927727937698364,0.15393804013729095
1787814515298987500,2.858987548828125,0.004886921960860491,-0.1417207419872284,0.03420845419168472
1787814515315645200,2.875645263671875,-0.01160643994808197,-0.1270599663257599,-0.12767083942890167
1787814515331169800,2.891169677734375,-0.039706241339445114,-0.14538592100143433,-0.27122417092323303
1787814515347264300,2.90726416015625,-0.05742133408784866,-0.17348572611808777,-0.31520646810531616
1787814515364040200,2.924040283203125,-0.05742133408784866,-0.1820378452539444,-0.24495697021484375
1787814515379435800,2.939435791015625,-0.05009094998240471,-0.21563543379306793,-0.1215621829032898
1787814515395938300,2.955938232421875,-0.02687807008624077,-0.3139847218990326,-0.12339477986097336
1787814515412041200,2.972041259765625,-0.013439035043120384,-0.3689626157283783,-0.20891591906547546
1787814515427706600,2.98770654296875,-0.06963863968849182,-0.39584067463874817,-0.32559117674827576
1787814515444141600,3.0041416015625,-0.1814269721508026,-0.34086281061172485,-0.4056145250797272
1787814515459889700,3.0198896484375,-0.2718350291252136,-0.25106561183929443,-0.40744712948799133
1787814515476487000,3.03648681640625,-0.3677408695220947,-0.12461651116609573,-0.3023782968521118
1787814515492065800,3.052065673828125,-0.4245513379573822,-0.02626720629632473,-0.08368854224681854
1787814515508112400,3.0681123046875,-0.394618958234787,-0.003054326167330146,0.1820378452539444
1787814515524466000,3.0844658203125,-0.2987131178379059,-0.048258353024721146,0.3836233615875244
1787814515540331300,3.100331298828125,-0.14294247329235077,-0.13377949595451355,0.5387831330299377
1787814515556843500,3.116843505859375,-0.004886921960860491,-0.192422553896904,0.598647952079773
1787814515572443000,3.13244287109375,0.09224065393209457,-0.23579397797584534,0.5607742667198181
1787814515588504300,3.14850439453125,0.1569923609495163,-0.251676470041275,0.455705463886261
1787814515604888600,3.164888671875,0.16493362188339233,-0.28649580478668213,0.2993239760398865
1787814515620728300,3.180728271484375,0.152105450630188,-0.3744603991508484,0.10751228034496307
1787814515645196000,3.205196044921875,0.09407325088977814,-0.5057964324951172,-0.14416420459747314
1787814515660936700,3.220936767578125,-0.00733038317412138,-0.4642575979232788,-0.1973094791173935
1787814515677548800,3.237548828125,-0.20036379992961884,-0.2822197377681732,-0.16554448008537292
1787814515693165300,3.253165283203125,-0.3799581825733185,-0.11850785464048386,-0.08674286305904388
1787814515709292500,3.26929248046875,-0.475253164768219,-0.018325956538319588,-0.025656340643763542
1787814515725650700,3.285650634765625,-0.46731191873550415,-0.007941247895359993,-0.00427605677396059
1787814515741420500,3.301420654296875,-0.3885102868080139,-0.04092797264456749,0.010995574295520782
1787814515758037800,3.318037841796875,-0.2541199326515198,-0.10323622822761536,0.0403171069920063
1787814515773709300,3.333709228515625,-0.11423180252313614,-0.18325957655906677,0.06475171446800232
1787814515789694500,3.349694580078125,0.009773843921720982,-0.26145032048225403,0.09651670604944229
1787814515806045700,3.366045654296875,0.04398229718208313,-0.26939156651496887,0.12339477986097336
1787814515822334700,3.382334716796875,0.02076941914856434,-0.24007004499435425,0.11972958594560623
1787814515838402600,3.398402587890625,-0.05314527451992035,-0.1618792861700058,0.09529497474431992
1787814515854031400,3.41403125,-0.1459967941045761,-0.08491026610136032,0.05925392732024193
1787814515870083000,3.4300830078125,-0.2015855312347412,-0.05742133408784866,0.013439035043120384
1787814515886491000,3.446490966796875,-0.20463985204696655,-0.05314527451992035,-0.027488935738801956
1787814515902253600,3.462253662109375,-0.17776179313659668,-0.036041051149368286,-0.05864306539297104
1787814515918847500,3.478847412109375,-0.15515977144241333,0.00427605677396059,-0.060475658625364304
1787814515934434000,3.49443408203125,-0.1313360333442688,0.045204028487205505,-0.027488935738801956
1787814515950549200,3.51054931640625,-0.08552113175392151,0.08185594528913498,0.06658431142568588
1787814515966908400,3.526908447265625,-0.03726277872920036,0.11239920556545258,0.2217440903186798
1787814515982708000,3.5427080078125,0.042760565876960754,0.10567969083786011,0.3903428912162781
1787814515999288000,3.5592880859375,0.13805554807186127,0.05803219974040985,0.47830748558044434
1787814516014891300,3.574891357421875,0.2577851414680481,-0.00733038317412138,0.4862487316131592
1787814516031026400,3.5910263671875,0.32559117674827576,-0.05009094998240471,0.41722095012664795
1787814516047358000,3.60735791015625,0.3237585723400116,-0.015882495790719986,0.3628539443016052
1787814516063152400,3.62315234375,0.23518311977386475,0.11545353382825851,0.36651915311813354
1787814516079953200,3.639953125,0.0861319974064827,0.32498031854629517,0.44165557622909546
1787814516095346700,3.6553466796875,-0.03237585723400116,0.49785518646240234,0.4098905920982361
1787814516111443700,3.671443603515625,-0.056810468435287476,0.6243042945861816,0.2590068578720093
1787814516127833900,3.687833740234375,-0.024434609338641167,0.5907067060470581,-0.01160643994808197
1787814516143615500,3.703615478515625,0.06108652427792549,0.40683624148368835,-0.2480112910270691
1787814516160243200,3.7202431640625,0.18570303916931152,0.2168571650981903,-0.3335324227809906
1787814516175856000,3.735856201171875,0.2724458873271942,0.10201449692249298,-0.251676470041275
1787814516192043000,3.75204296875,0.2571742534637451,0.10751228034496307,0.012217304669320583
1787814516208364800,3.76836474609375,0.16249015927314758,0.2272418737411499,0.35246923565864563
1787814516224162300,3.784162353515625,0.06780604273080826,0.3488040566444397,0.5717698931694031
1787814516240755000,3.8007548828125,-0.003054326167330146,0.39217549562454224,0.6542366743087769
1787814516256268000,3.81626806640625,-0.00855211354792118,0.3952298164367676,0.5632177591323853
1787814516272387600,3.8323876953125,0.022602014243602753,0.3591887652873993,0.40622538328170776
1787814516288744400,3.848744384765625,0.10018189996480942,0.26145032048225403,0.19486601650714874
1787814516304564700,3.864564697265625,0.18936823308467865,0.16310101747512817,-0.012217304669320583
1787814516321148200,3.881148193359375,0.24556782841682434,0.07269296050071716,-0.19120082259178162
1787814516336725200,3.896725341796875,0.2541199326515198,0.05742133408784866,-0.2883284091949463
1787814516352897500,3.9128974609375,0.22846360504627228,0.07269296050071716,-0.34636059403419495
1787814516369240000,3.929239990234375,0.18875735998153687,0.09896016865968704,-0.33169981837272644
1787814516385527600,3.945527587890625,0.1563815027475357,0.1569923609495163,-0.2382374405860901
1787814516401667300,3.961667236328125,0.11545353382825851,0.1918116807937622,-0.07635815441608429
1787814516417212700,3.977212646484375,0.09834930300712585,0.18387043476104736,0.07391469180583954
1787814516433396000,3.99339599609375,0.08674286305904388,0.1820378452539444,0.16310101747512817
1787814516449723400,4.009723388671875,0.08368854224681854,0.18936823308467865,0.18020524084568024
1787814516465523700,4.025523681640625,0.09834930300712585,0.1771509200334549,0.12339477986097336
1787814516482111500,4.042111572265625,0.13316862285137177,0.11850785464048386,0.036651913076639175
1787814516497682700,4.0576826171875,0.16920967400074005,0.05742133408784866,-0.009773843921720982
1787814516513828000,4.073828125,0.192422553896904,0.00733038317412138,-0.03237585723400116
1787814516530219300,4.09021923828125,0.1918116807937622,-0.04764748737215996,-0.04642575979232788
1787814516545979600,4.105979736328125,0.17959438264369965,-0.11484266817569733,-0.05009094998240471
1787814516562568700,4.122568603515625,0.1569923609495163,-0.14844025671482086,-0.02687807008624077
1787814516578169000,4.138169189453125,0.11972958594560623,-0.1508837193250656,0.039095375686883926
1787814516594325800,4.15432568359375,0.07024950534105301,-0.1667662113904953,0.10262536257505417
1787814516610662400,4.170662353515625,0.056810468435287476,-0.16065755486488342,0.14355333149433136
1787814516626456000,4.1864560546875,0.039706241339445114,-0.15393804013729095,0.18509216606616974
1787814516643298800,4.203298828125,0.003054326167330146,-0.14905111491680145,0.19975294172763824
1787814516658689000,4.21868896484375,-0.027488935738801956,-0.14538592100143433,0.14477506279945374
1787814516683347500,4.243347412109375,-0.04764748737215996,-0.13866640627384186,-0.04581489413976669
1787814516698971100,4.25897119140625,-0.054367005825042725,-0.16798794269561768,-0.15821409225463867
1787814516715070700,4.27507080078125,-0.05375614017248154,-0.19120082259178162,-0.23151792585849762
1787814516731429400,4.291429443359375,-0.05803219974040985,-0.1411098688840866,-0.20402899384498596
1787814516747239200,4.3072392578125,-0.07147123664617538,-0.11362093687057495,-0.07941248267889023
1787814516763854000,4.32385400390625,-0.060475658625364304,-0.19120082259178162,-0.08979719132184982
1787814516779362300,4.3393623046875,0.02382374368607998,-0.3084869384765625,-0.27977627515792847
1787814516795937000,4.35593701171875,0.05619960278272629,-0.3830125033855438,-0.5222898125648499
1787814516811870000,4.371869873046875,0.01038470957428217,-0.34697145223617554,-0.6963863968849182
1787814516827666000,4.387666015625,-0.06169738993048668,-0.18875735998153687,-0.770301103591919
1787814516844220700,4.404220703125,-0.15393804013729095,-0.04581489413976669,-0.5894849896430969
1787814516859817500,4.4198173828125,-0.192422553896904,0.00733038317412138,-0.23273965716362
1787814516875918800,4.4359189453125,-0.15027284622192383,-0.003054326167330146,0.251676470041275
1787814516892304100,4.45230419921875,-0.01466076634824276,-0.13927727937698364,0.6151412725448608
1787814516908097500,4.46809765625,0.13866640627384186,-0.29077184200286865,0.7525860071182251
1787814516924722200,4.48472216796875,0.24678955972194672,-0.3646865487098694,0.7165449261665344
1787814516940273700,4.500273681640625,0.34086281061172485,-0.4251621961593628,0.5589417219161987
1787814516956313600,4.516313720703125,0.394008070230484,-0.5021312236785889,0.35674530267715454
1787814516972707000,4.53270703125,0.4190535545349121,-0.5589417219161987,0.16982053220272064
1787814516988548900,4.548548828125,0.4239404797554016,-0.6004805564880371,-0.05314527451992035
1787814517005065700,4.565065673828125,0.3634648323059082,-0.607810914516449,-0.29077184200286865
1787814517020720000,4.58072021484375,0.2119702398777008,-0.5106833577156067,-0.4495968222618103
1787814517036783900,4.596783935546875,0.021380282938480377,-0.3744603991508484,-0.44837507605552673
1787814517053174800,4.6131748046875,-0.22479841113090515,-0.21441370248794556,-0.3127630054950714
1787814517069000200,4.629000244140625,-0.4251621961593628,-0.10567969083786011,-0.12278391420841217
1787814517085698000,4.645697998046875,-0.5283984541893005,-0.09040805697441101,0
1787814517101638400,4.661638427734375,-0.5754350423812866,-0.10201449692249298,0.04642575979232788
1787814517117246700,4.677246826171875,-0.588874101638794,-0.12217304855585098,0.025045474991202354
1787814517133644000,4.69364404296875,-0.5723807215690613,-0.1569923609495163,-0.02015855349600315
1787814517149436400,4.7094365234375,-0.5198463201522827,-0.22296582162380219,-0.06658431142568588
1787814517165932000,4.72593212890625,-0.4386012554168701,-0.2718350291252136,-0.12339477986097336
1787814517181535000,4.741534912109375,-0.38667771220207214,-0.26633724570274353,-0.1667662113904953
1787814517197638400,4.757638427734375,-0.36713001132011414,-0.21074850857257843,-0.18875735998153687
1787814517213993200,4.7739931640625,-0.35185837745666504,-0.1160643994808197,-0.20525072515010834
1787814517229801000,4.789801025390625,-0.33536502718925476,-0.02076941914856434,-0.2015855312347412
1787814517246428400,4.806428466796875,-0.3072652220726013,0.07391469180583954,-0.1514945775270462
1787814517261935400,4.821935302734375,-0.26939156651496887,0.12889257073402405,-0.06230825558304787
1787814517278040300,4.838040283203125,-0.2070833146572113,0.15882496535778046,0.08124507963657379
1787814517294395100,4.85439501953125,-0.13866640627384186,0.18875735998153687,0.22052235901355743
1787814517310218000,4.870218017578125,-0.08796459436416626,0.23335053026676178,0.31031954288482666
1787814517326746400,4.886746337890625,-0.03848451003432274,0.2883284091949463,0.3640756905078888
1787814517342377700,4.902377685546875,0.02321287989616394,0.30543261766433716,0.34574973583221436
1787814517358911200,4.9189111328125,0.07880161702632904,0.28038713335990906,0.23945917189121246
1787814517374848300,4.93484814453125,0.10018189996480942,0.23457226157188416,0.07880161702632904
1787814517390674000,4.950673828125,0.11545353382825851,0.21135938167572021,-0.11301007121801376
1787814517407331600,4.96733154296875,0.06841690838336945,0.31031954288482666,-0.19486601650714874
1787814517422809900,4.982809814453125,-0.06291911751031876,0.4648684561252594,-0.1417207419872284
1787814517438905900,4.99890576171875,-0.22418753802776337,0.6285803318023682,-0.05375614017248154
1787814517455270400,5.0152705078125,-0.2168571650981903,0.6524040699005127,-0.15454891324043274
1787814517471131600,5.031131591796875,-0.0507018156349659,0.5760459303855896,-0.40072759985923767
1787814517487718400,5.047718505859375,0.12034045159816742,0.484416127204895,-0.588263213634491
1787814517503361300,5.063361328125,0.29016098380088806,0.44837507605552673,-0.6206390857696533
1787814517519454500,5.079454345703125,0.34697145223617554,0.5247332453727722,-0.39217549562454224
1787814517535854300,5.095854248046875,0.30604347586631775,0.6530149579048157,-0.05253441259264946
1787814517551682300,5.111682373046875,0.23579397797584534,0.7776314616203308,0.3023782968521118
1787814517568333300,5.128333251953125,0.21991148591041565,0.7562511563301086,0.45204028487205505
1787814517583868400,5.143868408203125,0.26572638750076294,0.5955936312675476,0.4239404797554016
1787814517599950800,5.159950927734375,0.3066543638706207,0.4538728892803192,0.33475416898727417
1787814517616301600,5.176301513671875,0.31520646810531616,0.32986724376678467,0.23273965716362
1787814517632146700,5.192146728515625,0.294437050819397,0.2474004179239273,0.13500121235847473
1787814517648714800,5.20871484375,0.25473082065582275,0.1966986060142517,0.04764748737215996
1787814517664767700,5.224767822265625,0.20341812074184418,0.15577064454555511,-0.0757472887635231
1787814517680425000,5.240425048828125,0.16554448008537292,0.10567969083786011,-0.2021963894367218
1787814517696768300,5.256768310546875,0.1612684279680252,0.0806342139840126,-0.29016098380088806
1787814517712603100,5.27260302734375,0.16982053220272064,0.0659734457731247,-0.29993483424186707
1787814517729197300,5.289197265625,0.1716531366109848,0.09162978827953339,-0.19914206862449646
1787814517744704800,5.304704833984375,0.16920967400074005,0.1258382350206375,-0.030543262138962746
1787814517760839000,5.3208388671875,0.182648703455925,0.15271630883216858,0.09285151958465576
1787814517777270000,5.33727001953125,0.2125810980796814,0.18631389737129211,0.1612684279680252
1787814517793045200,5.353045166015625,0.24984388053417206,0.192422553896904,0.16371189057826996
1787814517809585400,5.36958544921875,0.2767219543457031,0.19914206862449646,0.12828169763088226
1787814517825240000,5.385239990234375,0.28588494658470154,0.1820378452539444,0.0910189226269722
1787814517841399300,5.4013994140625,0.2730567753314972,0.11911872029304504,0.022602014243602753
1787814517865442000,5.425442138671875,0.23945917189121246,0.02687807008624077,-0.09529497474431992
1787814517881572400,5.441572265625,0.20525072515010834,-0.001832595793530345,-0.17959438264369965
1787814517897960200,5.457960205078125,0.18509216606616974,0.0006108652451075613,-0.2583959996700287
1787814517913735200,5.473735107421875,0.192422553896904,-0.013439035043120384,-0.35124751925468445
1787814517930326500,5.490326416015625,0.2174680233001709,-0.03787364438176155,-0.4080579876899719
1787814517945912800,5.505912841796875,0.21624629199504852,-0.07513642311096191,-0.403781920671463
1787814517962040800,5.522040771484375,0.18631389737129211,-0.12034045159816742,-0.36224308609962463
1787814517978435300,5.538435302734375,0.13439035415649414,-0.17592918872833252,-0.2632829248905182
1787814517994242300,5.5542421875,0.08185594528913498,-0.22968533635139465,-0.13316862285137177
1787814518010838500,5.570838623046875,0.06352998316287994,-0.28466320037841797,-0.06475171446800232
1787814518026440200,5.586440185546875,0.05803219974040985,-0.32986724376678467,-0.08185594528913498
1787814518042579700,5.602579833984375,0.01771509274840355,-0.3335324227809906,-0.13988813757896423
1787814518058989600,5.618989501953125,-0.033597588539123535,-0.31459560990333557,-0.1814269721508026
1787814518075233000,5.63523291015625,-0.07757988572120667,-0.2626720666885376,-0.18570303916931152
1787814518091360300,5.6513603515625,-0.11362093687057495,-0.19853121042251587,-0.1319468915462494
1787814518106904000,5.666904052734375,-0.1258382350206375,-0.22357667982578278,-0.059864792972803116
1787814518123055900,5.683055908203125,-0.1215621829032898,-0.2626720666885376,-0.08918632566928864
1787814518139443700,5.699443603515625,-0.14905111491680145,-0.2571742534637451,-0.13744467496871948
1787814518155235300,5.7152353515625,-0.23884831368923187,-0.2480112910270691,-0.1667662113904953
1787814518171805700,5.7318056640625,-0.3084869384765625,-0.24373523890972137,-0.192422553896904
1787814518187388000,5.747387939453125,-0.3530801236629486,-0.2223549485206604,-0.2064724564552307
1787814518203513000,5.76351318359375,-0.4056145250797272,-0.15943582355976105,-0.1264491081237793
1787814518219884800,5.779884765625,-0.4489859640598297,-0.07208210229873657,0.08796459436416626
1787814518235706600,5.79570654296875,-0.4495968222618103,-0.045204028487205505,0.2974913716316223
1787814518252240100,5.812240234375,-0.36590829491615295,-0.06780604273080826,0.47342056035995483
1787814518267824600,5.82782470703125,-0.21502456068992615,-0.11362093687057495,0.503963828086853
1787814518284134100,5.844134033203125,-0.05864306539297104,-0.1459967941045761,0.4098905920982361
1787814518300252400,5.86025244140625,0.02932153269648552,-0.1612684279680252,0.28955012559890747
1787814518316117800,5.87611767578125,0.08552113175392151,-0.16310101747512817,0.14844025671482086
1787814518332709600,5.892709716796875,0.09468411654233932,-0.15027284622192383,0.06230825558304787
1787814518348281900,5.90828173828125,0.0708603709936142,-0.17531833052635193,0.025656340643763542
1787814518364371500,5.924371337890625,0.015882495790719986,-0.2028072625398636,0.005497787147760391
1787814518381133300,5.94113330078125,-0.07269296050071716,-0.19303341209888458,-0.003054326167330146
1787814518396504000,5.956504150390625,-0.1820378452539444,-0.11911872029304504,-0.006108652334660292
1787814518413089500,5.973089599609375,-0.26450464129447937,-0.0910189226269722,-0.006719517521560192
1787814518428692000,5.98869189453125,-0.33597588539123535,-0.0555887371301651,-0.01710422709584236
1787814518444810000,6.00481005859375,-0.3701843321323395,-0.07147123664617538,-0.02932153269648552
1787814518461212200,6.021212158203125,-0.3689626157283783,-0.13561208546161652,-0.029932396486401558
1787814518477024000,6.03702392578125,-0.3335324227809906,-0.22113321721553802,-0.01038470957428217
1787814518493605000,6.053605224609375,-0.27977627515792847,-0.294437050819397,0.00427605677396059
1787814518509268500,6.0692685546875,-0.22540926933288574,-0.31031954288482666,-0.005497787147760391
1787814518525393700,6.0853935546875,-0.18448130786418915,-0.2565633952617645,-0.03848451003432274
1787814518541808000,6.10180810546875,-0.17592918872833252,-0.1661553531885147,-0.07513642311096191
1787814518557610500,6.117610595703125,-0.1814269721508026,-0.09529497474431992,-0.09468411654233932
1787814518574163700,6.134163818359375,-0.18997909128665924,-0.03237585723400116,-0.09651670604944229
1787814518589769200,6.149769287109375,-0.18875735998153687,-0.006719517521560192,-0.07269296050071716
1787814518605868300,6.165868408203125,-0.16982053220272064,0.027488935738801956,0.0024434609804302454
1787814518622232000,6.182232177734375,-0.14782938361167908,0.08246681094169617,0.11301007121801376
1787814518638528300,6.1985283203125,-0.1264491081237793,0.12278391420841217,0.20525072515010834
1787814518654649600,6.214649658203125,-0.08918632566928864,0.19120082259178162,0.2822197377681732
1787814518670211000,6.230211181640625,-0.05009094998240471,0.22418753802776337,0.30543261766433716
1787814518686306600,6.246306640625,0.006719517521560192,0.23884831368923187,0.2883284091949463
1787814518702685000,6.262684814453125,0.07635815441608429,0.22846360504627228,0.24190263450145721
1787814518718519000,6.27851904296875,0.14416420459747314,0.23335053026676178,0.1563815027475357
1787814518735091200,6.29509130859375,0.15760323405265808,0.30543261766433716,0.08185594528913498
1787814518750677800,6.310677734375,0.11972958594560623,0.4349360466003418,0.06536258012056351
1787814518766801000,6.32680078125,0.04092797264456749,0.6004805564880371,0.13866640627384186
1787814518783135500,6.343135498046875,-0.021991148591041565,0.6707300543785095,0.2474004179239273
1787814518798955300,6.358955322265625,-0.0006108652451075613,0.6499606370925903,0.23151792585849762
1787814518815515000,6.375514892578125,0.06230825558304787,0.646906316280365,0.08185594528913498
1787814518831095600,6.391095458984375,0.0959058403968811,0.637132465839386,-0.10751228034496307
1787814518847183000,6.40718310546875,0.1820378452539444,0.6432411074638367,-0.24923302233219147
1787814518863566300,6.42356640625,0.26083946228027344,0.6572909951210022,-0.252287358045578
1787814518879328300,6.439328369140625,0.3274237811565399,0.6615670323371887,-0.09773843735456467
1787814518895899600,6.455899658203125,0.3799581825733185,0.6328563690185547,0.15271630883216858
1787814518911499300,6.471499267578125,0.4153883755207062,0.5919284224510193,0.34025195240974426
1787814518927630600,6.487630615234375,0.4294382631778717,0.5674937963485718,0.4789183437824249
1787814518944404200,6.504404296875,0.42210787534713745,0.5607742667198181,0.5094616413116455
1787814518959800600,6.519800537109375,0.3933972120285034,0.5265658497810364,0.4538728892803192
1787814518976403200,6.5364033203125,0.3701843321323395,0.45265114307403564,0.3628539443016052
1787814518992047000,6.552047119140625,0.3500257730484009,0.4153883755207062,0.23640485107898712
1787814519008136000,6.568135986328125,0.3280346393585205,0.3793473243713379,0.0910189226269722
1787814519024582700,6.584582763671875,0.3084869384765625,0.3543018400669098,-0.06169738993048668
1787814519040298500,6.600298583984375,0.2828305959701538,0.3017674386501312,-0.2528982162475586
1787814519056885800,6.6168857421875,0.2681698501110077,0.20402899384498596,-0.41661009192466736
1787814519072480300,6.632480224609375,0.27000242471694946,0.06780604273080826,-0.47769662737846375
1787814519088594400,6.648594482421875,0.26145032048225403,0.00733038317412138,-0.39706242084503174
1787814519104951300,6.664951416015625,0.22357667982578278,0.003054326167330146,-0.17592918872833252
1787814519120731400,6.6807314453125,0.17287486791610718,0.027488935738801956,0.039706241339445114
1787814519137319000,6.69731884765625,0.14416420459747314,0.029932396486401558,0.12950342893600464
1787814519152895700,6.712895751953125,0.15393804013729095,-0.009162978269159794,0.1062905490398407
1787814519169034200,6.7290341796875,0.16920967400074005,-0.024434609338641167,0.013439035043120384
1787814519185445600,6.745445556640625,0.17776179313659668,-0.039095375686883926,-0.08796459436416626
1787814519201741800,6.761741943359375,0.1771509200334549,-0.07696902006864548,-0.17287486791610718
1787814519217840600,6.777840576171875,0.1722639948129654,-0.152105450630188,-0.25534167885780334
1787814519233438500,6.7934384765625,0.16493362188339233,-0.21319197118282318,-0.3072652220726013
1787814519249610200,6.8096103515625,0.1258382350206375,-0.2480112910270691,-0.3188716471195221
1787814519265913000,6.8259130859375,0.08735372871160507,-0.26022860407829285,-0.2926044464111328
1787814519281730600,6.84173046875,0.05192354694008827,-0.2620611786842346,-0.2431243658065796
1787814519298304300,6.85830419921875,0.021380282938480377,-0.2779437005519867,-0.2021963894367218
1787814519313889000,6.873888916015625,0.003054326167330146,-0.323147714138031,-0.1661553531885147
1787814519330019800,6.890019775390625,-0.027488935738801956,-0.34147366881370544,-0.09040805697441101
1787814519346409500,6.906409423828125,-0.08796459436416626,-0.34574973583221436,0.02076941914856434
1787814519362178800,6.9221787109375,-0.12278391420841217,-0.3384193480014801,0.10384709388017654
1787814519378813000,6.93881298828125,-0.13927727937698364,-0.3286454975605011,0.13377949595451355
1787814519394388500,6.954388427734375,-0.1411098688840866,-0.3677408695220947,0.08307767659425735
1787814519410479400,6.970479248046875,-0.1215621829032898,-0.44837507605552673,-0.05375614017248154
1787814519426839600,6.986839599609375,-0.09834930300712585,-0.5082398653030396,-0.19975294172763824
1787814519442612200,7.0026123046875,-0.08918632566928864,-0.5247332453727722,-0.28099802136421204
1787814519459235800,7.01923583984375,-0.10384709388017654,-0.46792277693748474,-0.2021963894367218
1787814519474823000,7.034822998046875,-0.12889257073402405,-0.4398229718208313,-0.06963863968849182
1787814519490944500,7.050944580078125,-0.1417207419872284,-0.4599815309047699,-0.045204028487205505
1787814519507734000,7.067734130859375,-0.15821409225463867,-0.45814892649650574,-0.1966986060142517
1787814519523140600,7.083140625,-0.24495697021484375,-0.40194934606552124,-0.3170390725135803
1787814519539750700,7.099750732421875,-0.3494149148464203,-0.3396410644054413,-0.2968805134296417
1787814519555244300,7.115244384765625,-0.44837507605552673,-0.2932153046131134,-0.11301007121801376
1787814519571402000,7.131402099609375,-0.5143485069274902,-0.2632829248905182,0.16859880089759827
1787814519587739100,7.1477392578125,-0.5381723046302795,-0.24862214922904968,0.41233405470848083
1787814519603570400,7.1635703125,-0.5375614166259766,-0.23151792585849762,0.6035348773002625
1787814519620097500,7.18009765625,-0.503963828086853,-0.23029619455337524,0.6420193910598755
1787814519635673300,7.19567333984375,-0.423329621553421,-0.25045475363731384,0.5638286471366882
1787814519651790300,7.211790283203125,-0.3274237811565399,-0.3066543638706207,0.4306600093841553
1787814519668147200,7.228147216796875,-0.21380282938480377,-0.3836233615875244,0.23151792585849762
1787814519683928000,7.243927978515625,-0.14294247329235077,-0.4495968222618103,0.03176499158143997
1787814519700501200,7.260501220703125,-0.1111774742603302,-0.5320636034011841,-0.12950342893600464
1787814519716067000,7.276067138671875,-0.08552113175392151,-0.6603453159332275,-0.27000242471694946
1787814519732162300,7.292162353515625,-0.12522737681865692,-0.750142514705658,-0.31154128909111023
1787814519748517000,7.30851708984375,-0.23945917189121246,-0.675006091594696,-0.23090706765651703
1787814519764751400,7.32475146484375,-0.37140607833862305,-0.5161811113357544,-0.0959058403968811
1787814519780871200,7.34087109375,-0.5002986192703247,-0.3781255781650543,0.02687807008624077
1787814519796466000,7.3564658203125,-0.5595525503158569,-0.26022860407829285,0.07208210229873657
1787814519812568000,7.372568115234375,-0.5540547966957092,-0.22846360504627228,0.04459316283464432
1787814519828952600,7.38895263671875,-0.49296826124191284,-0.2217440903186798,-0.03176499158143997
1787814519844761900,7.404761962890625,-0.40133845806121826,-0.22540926933288574,-0.09773843735456467
1787814519861319200,7.421319091796875,-0.31520646810531616,-0.23640485107898712,-0.12400564551353455
1787814519876929500,7.436929443359375,-0.21624629199504852,-0.24923302233219147,-0.13500121235847473
1787814519893056800,7.453056884765625,-0.13927727937698364,-0.24129177629947662,-0.1270599663257599
1787814519909502700,7.469502685546875,-0.09651670604944229,-0.17837265133857727,-0.08674286305904388
1787814519925319400,7.4853193359375,-0.08918632566928864,-0.11789698898792267,-0.03726277872920036
1787814519941877500,7.50187744140625,-0.0806342139840126,-0.05253441259264946,-0.003054326167330146
1787814519957539600,7.51753955078125,-0.059864792972803116,-0.0024434609804302454,0
1787814519973663200,7.533663330078125,-0.039095375686883926,0.024434609338641167,0.0024434609804302454
1787814519989940500,7.5499404296875,-0.02382374368607998,0.036651913076639175,0.028099801391363144
1787814520005742800,7.565742919921875,0.009773843921720982,0.05619960278272629,0.09285151958465576
1787814520022299100,7.582299072265625,0.0403171069920063,0.08246681094169617,0.19303341209888458
1787814520037858300,7.5978583984375,0.05925392732024193,0.11789698898792267,0.2822197377681732
1787814520054007000,7.614007080078125,0.07941248267889023,0.15515977144241333,0.3500257730484009
1787814520070757400,7.63075732421875,0.10445795953273773,0.2064724564552307,0.37201693654060364
1787814520086199600,7.646199462890625,0.11423180252313614,0.2932153046131134,0.3597996234893799
1787814520102759000,7.662759033203125,0.12461651116609573,0.3878994286060333,0.31093040108680725
1787814520118316300,7.67831640625,0.14782938361167908,0.4954117238521576,0.22846360504627228
1787814520134442000,7.69444189453125,0.152105450630188,0.6200281977653503,0.2015855312347412
1787814520150833200,7.710833251953125,0.1411098688840866,0.6902777552604675,0.2577851414680481
1787814520166700300,7.7267001953125,0.1966986060142517,0.7006624341011047,0.2730567753314972
1787814520183214000,7.743214111328125,0.3084869384765625,0.6200281977653503,0.1716531366109848
1787814520198767400,7.758767333984375,0.4190535545349121,0.5082398653030396,0.0708603709936142
1787814520214906000,7.774906005859375,0.5161811113357544,0.4086688458919525,0.036651913076639175
1787814520231244000,7.791244140625,0.5674937963485718,0.32681289315223694,0.10445795953273773
1787814520247089700,7.807089599609375,0.5516113042831421,0.32986724376678467,0.24434609711170197
1787814520263643100,7.82364306640625,0.48685958981513977,0.34636059403419495,0.37262779474258423
1787814520279241000,7.839240966796875,0.394008070230484,0.40072759985923767,0.484416127204895
1787814520295365400,7.855365478515625,0.28527405858039856,0.4697553813457489,0.5149593949317932
1787814520311767800,7.871767822265625,0.19120082259178162,0.5265658497810364,0.48380526900291443
1787814520328013600,7.888013671875,0.11301007121801376,0.5632177591323853,0.3805690407752991
1787814520344118800,7.904118896484375,0.1007927656173706,0.5491678714752197,0.19914206862449646
1787814520359752700,7.919752685546875,0.15454891324043274,0.44654250144958496,-0.0012217304902151227
1787814520375850500,7.9358505859375,0.21013765037059784,0.3433062732219696,-0.14049901068210602
1787814520392244700,7.95224462890625,0.25961771607398987,0.29077184200286865,-0.23884831368923187
1787814520408092200,7.968092041015625,0.3017674386501312,0.25534167885780334,-0.29626965522766113
1787814520424613600,7.984613525390625,0.32009339332580566,0.23945917189121246,-0.33658674359321594
1787814520440243200,8.0002431640625,0.30604347586631775,0.20586158335208893,-0.35063666105270386
1787814520456372700,8.016372802734375,0.2974913716316223,0.15760323405265808,-0.31154128909111023
1787814520472772000,8.032772216796875,0.2779437005519867,0.09712757170200348,-0.2278527319431305
1787814520488591400,8.04859130859375,0.2480112910270691,0.07513642311096191,-0.12400564551353455
1787814520505141000,8.06514111328125,0.19608774781227112,0.06719517707824707,-0.02321287989616394
1787814520520722200,8.08072216796875,0.152105450630188,0.07330382615327835,0.021991148591041565
1787814520536858000,8.096858154296875,0.12217304855585098,0.0959058403968811,0.00366519158706069
1787814520553199900,8.113199951171875,0.09529497474431992,0.08368854224681854,-0.045204028487205505
1787814520568969000,8.128968994140624,0.07452555745840073,0.04214970022439957,-0.1258382350206375
1787814520585514200,8.14551416015625,0.05497787147760391,-0.005497787147760391,-0.192422553896904
1787814520601109500,8.161109619140625,0.039706241339445114,-0.05619960278272629,-0.21868975460529327
1787814520617189600,8.177189697265625,0.027488935738801956,-0.1313360333442688,-0.23396138846874237
1787814520633965800,8.1939658203125,0.01160643994808197,-0.19608774781227112,-0.21441370248794556
1787814520649394200,8.209394287109374,-0.027488935738801956,-0.23457226157188416,-0.17287486791610718
1787814520665966600,8.225966552734375,-0.09468411654233932,-0.26939156651496887,-0.11178833991289139
1787814520681589500,8.241589599609375,-0.15760323405265808,-0.2791654169559479,-0.048258353024721146
1787814520697647600,8.257647705078124,-0.20402899384498596,-0.30054569244384766,-0.0024434609804302454
1787814520714037500,8.27403759765625,-0.23273965716362,-0.304210901260376,0.02076941914856434
1787814520729857300,8.289857177734374,-0.24984388053417206,-0.3390302062034607,0.04092797264456749
1787814520746425900,8.30642578125,-0.2431243658065796,-0.3793473243713379,0.048258353024721146
1787814520762008600,8.322008544921875,-0.2272418737411499,-0.4056145250797272,0.030543262138962746
1787814520778141400,8.338141357421875,-0.20341812074184418,-0.4386012554168701,-0.02321287989616394
1787814520794541600,8.35454150390625,-0.18509216606616974,-0.4337143301963806,-0.07330382615327835
1787814520810333000,8.3703330078125,-0.17776179313659668,-0.39645153284072876,-0.07696902006864548
1787814520826878000,8.3868779296875,-0.16554448008537292,-0.36102136969566345,-0.03420845419168472
1787814520842489600,8.402489501953125,-0.11972958594560623,-0.31154128909111023,0.06475171446800232
1787814520858670000,8.418670166015625,-0.05497787147760391,-0.20952677726745605,0.18814650177955627
1787814520874969600,8.434969482421875,0.010995574295520782,-0.16920967400074005,0.26633724570274353
1787814520891225900,8.451225830078124,0.11484266817569733,-0.25473082065582275,0.17287486791610718
1787814520907347000,8.467346923828124,0.24862214922904968,-0.33719760179519653,-0.07757988572120667
1787814520922981400,8.4829814453125,0.2223549485206604,-0.3891211748123169,-0.29993483424186707
1787814520939086600,8.499086669921875,0.11545353382825851,-0.40133845806121826,-0.35246923565864563
1787814520955485400,8.5154853515625,-0.04886921867728233,-0.3543018400669098,-0.23029619455337524
1787814520971270400,8.5312705078125,-0.21807889640331268,-0.30543261766433716,0.012828170321881771
1787814520987943400,8.547943359375,-0.2889392673969269,-0.31642818450927734,0.21502456068992615
1787814521003376600,8.563376708984375,-0.2669481039047241,-0.37751471996307373,0.3494149148464203
1787814521019513300,8.579513427734375,-0.19058994948863983,-0.4813618063926697,0.35246923565864563
1787814521035850200,8.595850341796876,-0.1111774742603302,-0.5662720799446106,0.2718350291252136
1787814521051758600,8.611758544921875,-0.0910189226269722,-0.6401867866516113,0.17104226350784302
1787814521068202200,8.6282021484375,-0.08735372871160507,-0.7159340381622314,0.024434609338641167
1787814521083767000,8.64376708984375,-0.08979719132184982,-0.7538077235221863,-0.15332718193531036
1787814521099921700,8.659921630859374,-0.1264491081237793,-0.6939429044723511,-0.3017674386501312
1787814521116188000,8.67618798828125,-0.242513507604599,-0.5088507533073425,-0.45692721009254456
1787814521132076800,8.692076904296876,-0.3793473243713379,-0.3646865487098694,-0.5406157374382019
1787814521148574700,8.70857470703125,-0.46181413531303406,-0.30115658044815063,-0.45875978469848633
1787814521164135000,8.724135009765625,-0.513737678527832,-0.2638937830924988,-0.27977627515792847
1787814521180264700,8.7402646484375,-0.5406157374382019,-0.27611109614372253,-0.03481931984424591
1787814521197051400,8.757051513671875,-0.5112941861152649,-0.2718350291252136,0.14782938361167908
1787814521212464400,8.77246435546875,-0.48197266459465027,-0.28527405858039856,0.2028072625398636
1787814521229028900,8.78902880859375,-0.44104471802711487,-0.2840523421764374,0.1508837193250656
1787814521244592600,8.804592529296874,-0.3695734739303589,-0.3084869384765625,0.014049900695681572
1787814521260714000,8.8207138671875,-0.25534167885780334,-0.32070425152778625,-0.1362229436635971
1787814521277101600,8.8371015625,-0.16859880089759827,-0.294437050819397,-0.21013765037059784
1787814521292868600,8.85286865234375,-0.11239920556545258,-0.22602014243602753,-0.19975294172763824
1787814521309593600,8.869593505859376,-0.0959058403968811,-0.14355333149433136,-0.1319468915462494
1787814521341216300,8.90121630859375,-0.05314527451992035,-0.02076941914856434,-0.009162978269159794
1787814521357578200,8.917578125,-0.03420845419168472,0.05619960278272629,0.06780604273080826
1787814521373382700,8.933382568359375,-0.02626720629632473,0.1160643994808197,0.1417207419872284
1787814521389918000,8.94991796875,-0.022602014243602753,0.1612684279680252,0.1966986060142517
1787814521405476400,8.965476318359375,-0.021991148591041565,0.2064724564552307,0.26083946228027344
1787814521421579300,8.981579345703125,-0.009773843921720982,0.21624629199504852,0.32559117674827576
1787814521438039800,8.998039794921874,0.025656340643763542,0.19792033731937408,0.3543018400669098
1787814521454424000,9.014424072265625,0.08246681094169617,0.1618792861700058,0.3701843321323395
1787814521470340000,9.030340087890625,0.14355333149433136,0.14538592100143433,0.3591887652873993
1787814521485937400,9.0459375,0.17837265133857727,0.16004669666290283,0.3182607889175415
1787814521502033400,9.062033447265625,0.17837265133857727,0.18631389737129211,0.23518311977386475
1787814521518392600,9.078392578125,0.12522737681865692,0.24434609711170197,0.19792033731937408
1787814521534200600,9.09420068359375,0.018325956538319588,0.3384193480014801,0.25473082065582275
1787814521550740700,9.11074072265625,-0.07269296050071716,0.33047810196876526,0.30115658044815063
1787814521566308900,9.126308837890624,-0.1160643994808197,0.24129177629947662,0.24862214922904968
1787814521582404600,9.142404541015624,-0.11972958594560623,0.10812314599752426,0.07941248267889023
1787814521598832400,9.158832275390624,-0.09468411654233932,-0.05864306539297104,-0.09712757170200348
1787814521614644200,9.174644287109375,-0.01710422709584236,-0.2889392673969269,-0.24678955972194672
1787814521631199500,9.191199462890625,0.019547687843441963,-0.475253164768219,-0.1814269721508026
1787814521646781400,9.206781494140625,-0.03481931984424591,-0.5626068711280823,0.08491026610136032
1787814521662870300,9.222870361328125,-0.10995574295520782,-0.5809328556060791,0.33475416898727417
1787814521679180000,9.239179931640624,-0.1918116807937622,-0.5601634383201599,0.5302310585975647
1787814521694955800,9.254955810546875,-0.2583959996700287,-0.5369505286216736,0.5919284224510193
1787814521711496400,9.271496337890625,-0.3023782968521118,-0.5302310585975647,0.5650503635406494
1787814521727214800,9.28721484375,-0.3084869384765625,-0.5723807215690613,0.45814892649650574
1787814521743227600,9.3032275390625,-0.2816088795661926,-0.6493497490882874,0.3090978264808655
1787814521760049200,9.320049072265626,-0.242513507604599,-0.7434229850769043,0.1667662113904953
1787814521775456000,9.3354560546875,-0.21563543379306793,-0.8148942589759827,0.06475171446800232
1787814521792075000,9.352074951171875,-0.20525072515010834,-0.8503243923187256,-0.08185594528913498
1787814521807607300,9.367607177734374,-0.21991148591041565,-0.8857545852661133,-0.24007004499435425
1787814521823770400,9.383770263671876,-0.2321287989616394,-0.9621127843856812,-0.34574973583221436
1787814521840128500,9.40012841796875,-0.2278527319431305,-1.1081095933914185,-0.3878994286060333
1787814521855892500,9.415892578125,-0.23945917189121246,-1.2302825450897217,-0.30970868468284607
1787814521872495900,9.432495849609374,-0.2779437005519867,-1.3151928186416626,-0.13255776464939117
1787814521888115000,9.448114990234375,-0.31031954288482666,-1.3701707124710083,0.01710422709584236
1787814521904224000,9.46422412109375,-0.3280346393585205,-1.4245377779006958,0.10567969083786011
1787814521920587800,9.480587890625,-0.33475416898727417,-1.50211763381958,0.09040805697441101
1787814521936384000,9.496384033203125,-0.33597588539123535,-1.577254056930542,0.019547687843441963
1787814521952983800,9.51298388671875,-0.33108896017074585,-1.6505578756332397,-0.07391469180583954
1787814521968451000,9.528451171875,-0.32559117674827576,-1.7238616943359375,-0.1411098688840866
1787814521984587300,9.544587158203125,-0.3219259977340698,-1.7916678190231323,-0.1918116807937622
1787814522000994600,9.56099462890625,-0.32559117674827576,-1.8411478996276855,-0.21135938167572021
1787814522017260300,9.57726025390625,-0.342695415019989,-1.8863518238067627,-0.20952677726745605
1787814522033371400,9.593371337890625,-0.36590829491615295,-1.948660135269165,-0.19608774781227112
1787814522048914700,9.608914794921875,-0.39156460762023926,-1.9566013813018799,-0.17959438264369965
1787814522065014000,9.625013916015625,-0.4251621961593628,-1.93766450881958,-0.15454891324043274
1787814522081358000,9.641358154296874,-0.4642575979232788,-1.9242255687713623,-0.13500121235847473
1787814522097172000,9.657171875,-0.48869219422340393,-1.9272798299789429,-0.11484266817569733
1787814522113735400,9.6737353515625,-0.5064072608947754,-1.938886284828186,-0.0806342139840126
1787814522129319200,9.689319091796875,-0.5015203952789307,-1.95965576171875,-0.06780604273080826
1787814522145461200,9.705461181640626,-0.4703662395477295,-2.0060815811157227,-0.08491026610136032
1787814522161772800,9.721772705078125,-0.4440990388393402,-2.026850938796997,-0.1007927656173706
1787814522177595600,9.737595703125,-0.4196644127368927,-2.0396790504455566,-0.13072516024112701
1787814522194281700,9.75428173828125,-0.39767327904701233,-2.0219640731811523,-0.1411098688840866
1787814522209840600,9.769840576171875,-0.3933972120285034,-1.9901989698410034,-0.10201449692249298
1787814522225855000,9.78585498046875,-0.3781255781650543,-1.9822577238082886,0.00855211354792118
1787814522242241800,9.80224169921875,-0.34086281061172485,-1.9840903282165527,0.1563815027475357
1787814522257981000,9.81798095703125,-0.2779437005519867,-1.9914207458496094,0.2877175211906433
1787814522274510800,9.8345107421875,-0.2272418737411499,-2.0231857299804688,0.2938261926174164
1787814522290125300,9.850125244140624,-0.2028072625398636,-2.1056525707244873,0.10812314599752426
1787814522306216200,9.86621630859375,-0.21319197118282318,-2.1655173301696777,-0.2321287989616394
1787814522323011300,9.88301123046875,-0.31459560990333557,-2.1429152488708496,-0.5186246037483215
1787814522338418000,9.89841796875,-0.5161811113357544,-2.0415115356445312,-0.6762278079986572
1787814522354996500,9.91499658203125,-0.6982190012931824,-1.9407188892364502,-0.618195652961731
1787814522370524700,9.930524658203124,-0.8258898258209229,-1.8637498617172241,-0.3903428912162781
1787814522386742300,9.9467421875,-0.8729264140129089,-1.8448129892349243,-0.1569923609495163
1787814522402992400,9.962992431640625,-0.8863654732704163,-1.8582520484924316,0.07330382615327835
1787814522418825200,9.9788251953125,-0.8680394887924194,-1.8784105777740479,0.21991148591041565
1787814522435353300,9.995353271484374,-0.8539896011352539,-1.8661932945251465,0.29993483424186707
1787814522450889000,10.010888916015626,-0.8136724829673767,-1.796554684638977,0.3530801236629486
1787814522467032800,10.02703271484375,-0.7562511563301086,-1.6725490093231201,0.3286454975605011
1787814522483419600,10.043419677734375,-0.6768386960029602,-1.5552629232406616,0.21868975460529327
1787814522499177700,10.059177734375,-0.5479460954666138,-1.395827054977417,0.010995574295520782
1787814522515728100,10.07572802734375,-0.4178318381309509,-1.2388347387313843,-0.2223549485206604
1787814522531314200,10.091314208984375,-0.31642818450927734,-1.0958921909332275,-0.4202753007411957
1787814522547419100,10.107419189453125,-0.22296582162380219,-1.0561859607696533,-0.5375614166259766
1787814522563774700,10.123774658203125,-0.12217304855585098,-1.0739010572433472,-0.5949827432632446
1787814522580061400,10.1400615234375,-0.06352998316287994,-1.122159481048584,-0.5485569834709167
1787814522596186400,10.156186279296875,-0.06719517707824707,-1.1276572942733765,-0.43249258399009705
1787814522611764200,10.17176416015625,-0.13377949595451355,-1.1374311447143555,-0.23518311977386475
1787814522627812900,10.187812744140626,-0.21135938167572021,-1.1246029138565063,-0.021380282938480377
1787814522644153600,10.204153564453126,-0.27488934993743896,-1.0445796251296997,0.12034045159816742
1787814522659937300,10.219937255859374,-0.3176499307155609,-0.9480628371238708,0.1313360333442688
1787814522676494300,10.236494384765624,-0.3390302062034607,-0.8338310718536377,0.03481931984424591
1787814522692095700,10.252095703125,-0.3390302062034607,-0.7672467231750488,-0.10506882518529892
1787814522708173800,10.268173828125,-0.32498031854629517,-0.7177666425704956,-0.19364428520202637
1787814522724568600,10.284568603515625,-0.3090978264808655,-0.6395758986473083,-0.22418753802776337
1787814522740324900,10.300324951171875,-0.30970868468284607,-0.5442809462547302,-0.19486601650714874
1787814522756914700,10.316914794921875,-0.31520646810531616,-0.4331034719944,-0.14905111491680145
1787814522772496000,10.332495849609375,-0.3225368559360504,-0.3488040566444397,-0.12461651116609573
1787814522788606700,10.348606689453124,-0.33292156457901,-0.28099802136421204,-0.12767083942890167
1787814522804941600,10.364941650390625,-0.342695415019989,-0.2119702398777008,-0.14966198801994324
1787814522820718600,10.380718505859376,-0.3439171314239502,-0.14294247329235077,-0.15943582355976105
1787814522837263400,10.397263427734375,-0.3384193480014801,-0.028099801391363144,-0.13377949595451355
1787814522852898300,10.412898193359375,-0.3274237811565399,0.06352998316287994,-0.08124507963657379
1787814522869004800,10.4290048828125,-0.2877175211906433,0.12217304855585098,-0.03420845419168472
1787814522885802500,10.445802490234374,-0.22113321721553802,0.17592918872833252,0.0012217304902151227
1787814522901196500,10.461196533203125,-0.1270599663257599,0.2370157092809677,0.01466076634824276
1787814522917755600,10.477755615234376,-0.014049900695681572,0.3170390725135803,0.003054326167330146
1787814522933398500,10.4933984375,0.08307767659425735,0.37201693654060364,-0.019547687843441963
1787814522949479000,10.50947900390625,0.1722639948129654,0.39645153284072876,-0.02015855349600315
1787814522965828900,10.525828857421875,0.22296582162380219,0.4245513379573822,0.04337143152952194
1787814522981613800,10.54161376953125,0.23151792585849762,0.4202753007411957,0.14233160018920898
1787814522998184000,10.558183837890626,0.22113321721553802,0.3481931984424591,0.2968805134296417
1787814523013842200,10.57384228515625,0.22602014243602753,0.25045475363731384,0.44776421785354614
1787814523029921300,10.58992138671875,0.24495697021484375,0.20525072515010834,0.5668829679489136
1787814523046291200,10.606291259765625,0.22357667982578278,0.13927727937698364,0.656069278717041
1787814523062077200,10.6220771484375,0.16004669666290283,0.06169738993048668,0.6328563690185547
1787814523078641400,10.638641357421875,0.09529497474431992,0.11850785464048386,0.3897320330142975
1787814523094222600,10.65422265625,0.06291911751031876,0.13744467496871948,0.04214970022439957
1787814523110326800,10.670326904296875,0.11728613078594208,0.06230825558304787,-0.3854559659957886
1787814523126759700,10.686759765625,0.16798794269561768,0.07757988572120667,-0.5522221922874451
1787814523142974500,10.702974365234375,0.11911872029304504,0.14782938361167908,-0.32070425152778625
1787814523159156000,10.719156005859375,0.015271631069481373,0.25961771607398987,0.0757472887635231
1787814523174696200,10.7346962890625,-0.11667526513338089,0.3799581825733185,0.484416127204895
1787814523190862300,10.7508623046875,-0.15821409225463867,0.3933972120285034,0.6377432942390442
1787814523207197200,10.767197265625,-0.1264491081237793,0.3738495409488678,0.645684540271759
1787814523222958600,10.78295849609375,-0.06719517707824707,0.30970868468284607,0.6236934065818787
1787814523239565300,10.7995654296875,0.009162978269159794,0.2278527319431305,0.5839871764183044
1787814523255135700,10.8151357421875,0.10323622822761536,0.08735372871160507,0.48685958981513977
1787814523271254800,10.8312548828125,0.17837265133857727,-0.04153883829712868,0.3689626157283783
1787814523287615000,10.847614990234375,0.2480112910270691,-0.1765400618314743,0.20586158335208893
1787814523303412700,10.863412841796874,0.29565876722335815,-0.26939156651496887,0.036041051149368286
1787814523320123000,10.880122802734375,0.3121521472930908,-0.32620203495025635,-0.0959058403968811
1787814523335505200,10.895505126953125,0.3121521472930908,-0.34636059403419495,-0.19975294172763824
1787814523351632400,10.91163232421875,0.25473082065582275,-0.323147714138031,-0.2370157092809677
1787814523367937000,10.92793701171875,0.14294247329235077,-0.22113321721553802,-0.182648703455925
1787814523383736000,10.943736083984374,0.015882495790719986,-0.11484266817569733,-0.09468411654233932
1787814523400287500,10.96028759765625,-0.1014036312699318,-0.0659734457731247,-0.005497787147760391
1787814523415920400,10.97592041015625,-0.1472185254096985,-0.07208210229873657,0.02076941914856434
1787814523432072400,10.992072509765626,-0.152105450630188,-0.11789698898792267,-0.006108652334660292
1787814523448788000,11.0087880859375,-0.1368338167667389,-0.1918116807937622,-0.054367005825042725
1787814523464176600,11.0241767578125,-0.10506882518529892,-0.2785545587539673,-0.11972958594560623
1787814523480744200,11.040744140625,-0.06841690838336945,-0.34147366881370544,-0.16798794269561768
1787814523496327200,11.0563271484375,-0.02382374368607998,-0.3927863538265228,-0.19364428520202637
1787814523512399600,11.072399658203125,0.0024434609804302454,-0.41233405470848083,-0.18631389737129211
1787814523528824600,11.088824462890624,0.015882495790719986,-0.39645153284072876,-0.16371189057826996
1787814523544653600,11.104653564453125,0.018325956538319588,-0.3646865487098694,-0.1411098688840866
1787814523561215500,11.121215576171876,0.006108652334660292,-0.3194825351238251,-0.11239920556545258
1787814523576808000,11.136807861328125,0.0012217304902151227,-0.27977627515792847,-0.0910189226269722
1787814523592926000,11.152926025390625,-0.0024434609804302454,-0.2718350291252136,-0.059864792972803116
1787814523609321700,11.16932177734375,0.00427605677396059,-0.28955012559890747,-0.015271631069481373
1787814523625080000,11.185080078125,0.027488935738801956,-0.3292563557624817,0.04581489413976669
1787814523641661200,11.2016611328125,0.04703662544488907,-0.37262779474258423,0.08857546001672745
1787814523657269500,11.21726953125,0.048258353024721146,-0.4239404797554016,0.1111774742603302
1787814523673389800,11.233389892578124,0.056810468435287476,-0.5143485069274902,0.09285151958465576
1787814523689788000,11.249787841796875,0.07819075137376785,-0.5797111392021179,0.02015855349600315
1787814523706022000,11.26602197265625,0.08491026610136032,-0.6243042945861816,-0.0757472887635231
1787814523722150000,11.28214990234375,0.06902777403593063,-0.6163630485534668,-0.17043140530586243
1787814523737804800,11.2978046875,0.02382374368607998,-0.5473352670669556,-0.19364428520202637
1787814523753994000,11.313993896484375,-0.021991148591041565,-0.4153883755207062,-0.13439035415649414
1787814523770349000,11.33034912109375,-0.030543262138962746,-0.36163222789764404,-0.02871066704392433
1787814523786098700,11.3460986328125,0.009773843921720982,-0.30482175946235657,0.1362229436635971
1787814523802660000,11.36266015625,0.0659734457731247,-0.3066543638706207,0.24984388053417206
1787814523818189300,11.378189208984375,0.10384709388017654,-0.4050036668777466,0.14905111491680145
1787814523834327300,11.394327392578125,0.13927727937698364,-0.46181413531303406,-0.12339477986097336
1787814523850681600,11.410681640625,0.06169738993048668,-0.48258355259895325,-0.3836233615875244
1787814523866478000,11.42647802734375,-0.05253441259264946,-0.4703662395477295,-0.4905247986316681
1787814523883050800,11.44305078125,-0.14538592100143433,-0.455705463886261,-0.4147774875164032
1787814523898595600,11.458595703125,-0.26633724570274353,-0.42210787534713745,-0.1508837193250656
1787814523914734600,11.474734619140625,-0.33536502718925476,-0.42088615894317627,0.16249015927314758
1787814523931176200,11.49117626953125,-0.33597588539123535,-0.4086688458919525,0.3885102868080139
1787814523946862000,11.506862060546876,-0.294437050819397,-0.4153883755207062,0.5656611919403076
1787814523963422200,11.523422119140625,-0.2174680233001709,-0.4612032473087311,0.6157521605491638
1787814523979017200,11.539017333984376,-0.11423180252313614,-0.4966334402561188,0.5308418869972229
1787814523995128000,11.555128173828125,-0.03787364438176155,-0.523511528968811,0.3897320330142975
1787814524011897000,11.57189697265625,0.01710422709584236,-0.5216789245605469,0.19486601650714874
1787814524027324000,11.587323974609374,0.01038470957428217,-0.4917465150356293,-0.006719517521560192
1787814524043872300,11.603872314453126,-0.009773843921720982,-0.4605923891067505,-0.17531833052635193
1787814524059481900,11.61948193359375,-0.05192354694008827,-0.4343251883983612,-0.3274237811565399
1787814524075582700,11.635582763671875,-0.14905111491680145,-0.38240164518356323,-0.38667771220207214
1787814524091937000,11.65193701171875,-0.2681698501110077,-0.3176499307155609,-0.3084869384765625
1787814524107714300,11.66771435546875,-0.36102136969566345,-0.2571742534637451,-0.17898350954055786
1787814524124275000,11.68427490234375,-0.41661009192466736,-0.21930062770843506,-0.05497787147760391
1787814524139882800,11.6998828125,-0.4141666293144226,-0.22846360504627228,-0.02382374368607998
1787814524156095000,11.716094970703125,-0.36590829491615295,-0.29504790902137756,-0.06352998316287994
1787814524172383700,11.7323837890625,-0.28099802136421204,-0.3695734739303589,-0.1368338167667389
1787814524188184600,11.7481845703125,-0.22602014243602753,-0.39584067463874817,-0.19486601650714874
1787814524204727300,11.764727294921874,-0.22540926933288574,-0.35063666105270386,-0.22357667982578278
1787814524220292000,11.7802919921875,-0.2565633952617645,-0.2632829248905182,-0.24007004499435425
1787814524236445200,11.796445068359375,-0.2968805134296417,-0.1569923609495163,-0.2541199326515198
1787814524252837000,11.812837158203125,-0.3237585723400116,-0.08796459436416626,-0.26083946228027344
1787814524269079300,11.829079345703125,-0.3194825351238251,-0.05925392732024193,-0.25106561183929443
1787814524285199000,11.84519921875,-0.2675589919090271,-0.0910189226269722,-0.21624629199504852
1787814524300746800,11.860746826171875,-0.17592918872833252,-0.1722639948129654,-0.17104226350784302
1787814524316839700,11.876839599609376,-0.05925392732024193,-0.2687807083129883,-0.14477506279945374
1787814524333216500,11.893216552734375,0.02015855349600315,-0.294437050819397,-0.12034045159816742
1787814524349026300,11.9090263671875,0.04764748737215996,-0.22540926933288574,-0.05497787147760391
1787814524365578000,11.925577880859375,0.015882495790719986,-0.04886921867728233,0.0659734457731247
1787814524381147100,11.941147216796875,-0.027488935738801956,0.06963863968849182,0.18081611394882202
1787814524397282300,11.9572822265625,-0.025045474991202354,0.12522737681865692,0.28588494658470154
1787814524413675300,11.97367529296875,0.031154127791523933,0.11178833991289139,0.34086281061172485
1787814524429483000,11.98948291015625,0.09529497474431992,0.09040805697441101,0.34636059403419495
1787814524446021000,12.006021240234375,0.13439035415649414,0.1319468915462494,0.2974913716316223
1787814524461594600,12.0215947265625,0.14416420459747314,0.21930062770843506,0.19120082259178162
1787814524477729300,12.037729248046874,0.1258382350206375,0.30115658044815063,0.10690141469240189
1787814524494054100,12.05405419921875,0.09529497474431992,0.36651915311813354,0.10384709388017654
1787814524510417000,12.0704169921875,0.06658431142568588,0.38728857040405273,0.15393804013729095
1787814524526402600,12.086402587890625,0.03420845419168472,0.37262779474258423,0.22357667982578278
1787814524541992200,12.1019921875,-0.00733038317412138,0.3530801236629486,0.29626965522766113
1787814524558119700,12.11811962890625,-0.0757472887635231,0.342695415019989,0.36590829491615295
1787814524574895000,12.13489501953125,-0.14538592100143433,0.3433062732219696,0.3341432809829712
1787814524590284500,12.150284423828126,-0.08124507963657379,0.3787364661693573,0.08674286305904388
1787814524606857500,12.166857421875,0.01710422709584236,0.3744603991508484,-0.1875356286764145
1787814524622458600,12.182458740234376,0.09040805697441101,0.3445279896259308,-0.4288274049758911
1787814524638573300,12.1985732421875,0.17837265133857727,0.30970868468284607,-0.5791002511978149
1787814524654956300,12.214956298828126,0.2076941877603531,0.31459560990333557,-0.6102544069290161
1787814524670750500,12.23075048828125,0.1612684279680252,0.40683624148368835,-0.45692721009254456
1787814524687334700,12.247334716796875,0.054367005825042725,0.5528330206871033,-0.1612684279680252
1787814524702943000,12.26294287109375,-0.01038470957428217,0.6743952035903931,0.1514945775270462
1787814524719089400,12.27908935546875,0.001832595793530345,0.6933320760726929,0.33536502718925476
1787814524735404500,12.295404541015625,0.05009094998240471,0.5876523852348328,0.41172316670417786
1787814524751193900,12.31119384765625,0.10506882518529892,0.4355469346046448,0.37201693654060364
1787814524767741400,12.327741455078124,0.1362229436635971,0.31459560990333557,0.3127630054950714
1787814524783287300,12.343287353515626,0.1563815027475357,0.21013765037059784,0.22479841113090515
1787814524799439400,12.359439453125,0.14905111491680145,0.1569923609495163,0.11362093687057495
1787814524815798500,12.375798583984375,0.11728613078594208,0.10690141469240189,-0.02076941914856434
1787814524832074800,12.39207470703125,0.08918632566928864,0.08368854224681854,-0.14782938361167908
1787814524848204500,12.40820458984375,0.08552113175392151,0.09773843735456467,-0.25595253705978394
1787814524863817500,12.4238173828125,0.09346238523721695,0.13072516024112701,-0.27611109614372253
1787814524879922000,12.439921875,0.10445795953273773,0.14355333149433136,-0.2070833146572113
1787814524896283100,12.456283203125,0.10323622822761536,0.15515977144241333,-0.08735372871160507
1787814524912078000,12.472078125,0.09040805697441101,0.17470745742321014,0.003054326167330146
1787814524928670200,12.488670166015625,0.06291911751031876,0.19425514340400696,0.031154127791523933
1787814524944222700,12.50422265625,0.03848451003432274,0.18936823308467865,-0.01160643994808197
1787814524960336100,12.520336181640625,0.027488935738801956,0.16249015927314758,-0.1007927656173706
1787814524976717000,12.536717041015624,0.028099801391363144,0.09957103431224823,-0.1875356286764145
1787814524992541200,12.552541259765626,0.033597588539123535,0.04703662544488907,-0.2028072625398636
1787814525009151500,12.5691513671875,0.039095375686883926,0.00733038317412138,-0.16798794269561768
1787814525024695300,12.5846953125,0.03848451003432274,-0.021991148591041565,-0.09407325088977814
1787814525040851700,12.600851806640625,0.028099801391363144,-0.05253441259264946,-0.019547687843441963
1787814525057160700,12.61716064453125,0.007941247895359993,-0.06414084881544113,0.025045474991202354
1787814525072944400,12.6329443359375,-0.033597588539123535,-0.07269296050071716,0.05314527451992035
1787814525089512000,12.649511962890625,-0.07941248267889023,-0.07941248267889023,0.04948008432984352
1787814525105140000,12.665139892578125,-0.09040805697441101,-0.1313360333442688,0.019547687843441963
1787814525121312500,12.6813125,-0.08002334833145142,-0.18081611394882202,-0.013439035043120384
1787814525137999000,12.6979990234375,-0.08491026610136032,-0.2015855312347412,-0.01710422709584236
1787814525153420500,12.713420654296876,-0.08918632566928864,-0.1973094791173935,-0.014049900695681572
1787814525169977900,12.729977783203125,-0.07208210229873657,-0.18997909128665924,-0.009162978269159794
1787814525185502200,12.745502197265624,-0.03726277872920036,-0.2028072625398636,0.003054326167330146
1787814525201652200,12.76165234375,0.0012217304902151227,-0.2620611786842346,0.009162978269159794
1787814525218009000,12.778009033203125,0.02871066704392433,-0.3066543638706207,0.015882495790719986
1787814525233810200,12.79381005859375,0.048258353024721146,-0.32681289315223694,0.010995574295520782
1787814525250354400,12.8103544921875,0.06108652427792549,-0.3585779070854187,-0.018325956538319588
1787814525265927200,12.82592724609375,0.06658431142568588,-0.3781255781650543,-0.03176499158143997
1787814525282024700,12.842024658203124,0.06291911751031876,-0.3933972120285034,0.005497787147760391
1787814525298379500,12.858379638671876,0.06902777403593063,-0.43249258399009705,0.08124507963657379
1787814525314205700,12.874205810546876,0.10262536257505417,-0.5027421116828918,0.1459967941045761
1787814525330772700,12.890772705078126,0.13377949595451355,-0.5662720799446106,0.19120082259178162
1787814525346347000,12.906346923828124,0.15821409225463867,-0.6401867866516113,0.14477506279945374
1787814525362443800,12.92244384765625,0.17959438264369965,-0.6450737118721008,-0.010995574295520782
1787814525378803500,12.938803466796875,0.11301007121801376,-0.588874101638794,-0.16798794269561768
1787814525395088600,12.955088623046874,-0.02321287989616394,-0.48747047781944275,-0.30482175946235657
1787814525411190300,12.971190185546876,-0.14538592100143433,-0.36529740691185,-0.3182607889175415
1787814525426756600,12.986756591796874,-0.2125810980796814,-0.25534167885780334,-0.17776179313659668
1787814525442853400,13.002853271484375,-0.23579397797584534,-0.23579397797584534,0.021380282938480377
1787814525459225600,13.0192255859375,-0.22418753802776337,-0.23579397797584534,0.29626965522766113
1787814525474999800,13.034999755859374,-0.1875356286764145,-0.20952677726745605,0.5674937963485718
1787814525491583200,13.051583251953126,-0.14416420459747314,-0.17959438264369965,0.7073819637298584
1787814525507166000,13.067166015625,-0.06108652427792549,-0.2168571650981903,0.7110471725463867
1787814525523278600,13.083278564453124,0.04459316283464432,-0.2871066629886627,0.5736024379730225
1787814525539660300,13.099660400390626,0.13561208546161652,-0.3744603991508484,0.38179078698158264
1787814525555435500,13.115435546875,0.18570303916931152,-0.46792277693748474,0.1966986060142517
1787814525572006100,13.132006103515625,0.20891591906547546,-0.6218608021736145,-0.02321287989616394
1787814525587601700,13.1476015625,0.17959438264369965,-0.759305477142334,-0.242513507604599
1787814525603713500,13.163713623046876,0.08918632566928864,-0.7538077235221863,-0.4043927788734436
1787814525620060200,13.18006005859375,-0.15271630883216858,-0.5522221922874451,-0.485027015209198
1787814525635817000,13.19581689453125,-0.4795292317867279,-0.2687807083129883,-0.4098905920982361
1787814525652406500,13.212406494140625,-0.684779942035675,-0.1472185254096985,-0.2669481039047241
1787814525668005000,13.228005126953125,-0.7745771408081055,-0.10506882518529892,-0.0910189226269722
1787814525684112600,13.244112548828125,-0.7709119319915771,-0.10445795953273773,0.025045474991202354
1787814525700874800,13.260874755859374,-0.6969972252845764,-0.0959058403968811,0.0659734457731247
1787814525716269600,13.27626953125,-0.578489363193512,-0.1466076523065567,0.054367005825042725
1787814525732789200,13.292789306640625,-0.3885102868080139,-0.21013765037059784,-0.00427605677396059
1787814525748364500,13.308364501953125,-0.21441370248794556,-0.23640485107898712,-0.10751228034496307
1787814525764485400,13.3244853515625,-0.11545353382825851,-0.1771509200334549,-0.20036379992961884
1787814525780850400,13.340850341796875,-0.08002334833145142,-0.08491026610136032,-0.26511552929878235
1787814525796652800,13.35665283203125,-0.07696902006864548,0.024434609338641167,-0.26939156651496887
1787814525813217000,13.373217041015625,-0.1007927656173706,0.10567969083786011,-0.23457226157188416
1787814525828755200,13.388755126953125,-0.12339477986097336,0.15393804013729095,-0.21135938167572021
1787814525844863200,13.40486328125,-0.1368338167667389,0.17776179313659668,-0.18814650177955627
1787814525861204700,13.421204833984374,-0.12217304855585098,0.19792033731937408,-0.13500121235847473
1787814525877019600,13.43701953125,-0.09346238523721695,0.22663100063800812,-0.05497787147760391
1787814525893592600,13.453592529296875,-0.0708603709936142,0.2993239760398865,0.056810468435287476
1787814525909178400,13.469178466796874,-0.04337143152952194,0.38179078698158264,0.15332718193531036
1787814525925295900,13.4852958984375,0.0012217304902151227,0.4544837474822998,0.22479841113090515
1787814525941670100,13.501670166015625,0.05314527451992035,0.503963828086853,0.2535090744495392
1787814525957902600,13.517902587890624,0.13805554807186127,0.5485569834709167,0.21868975460529327
1787814525974009000,13.534009033203125,0.21868975460529327,0.5748242139816284,0.1368338167667389
1787814525989603000,13.54960302734375,0.2724458873271942,0.6108652353286743,0.0555887371301651
1787814526005728300,13.565728271484375,0.2889392673969269,0.6713408827781677,0.005497787147760391
1787814526022124800,13.582124755859375,0.2730567753314972,0.6860016584396362,0.028099801391363144
1787814526037878800,13.597878662109375,0.23151792585849762,0.6548475623130798,0.0757472887635231
1787814526054468400,13.61446826171875,0.21135938167572021,0.6298020482063293,0.02321287989616394
1787814526070072800,13.63007275390625,0.22846360504627228,0.5931501388549805,-0.16554448008537292
1787814526086184000,13.646183837890625,0.26511552929878235,0.5070181488990784,-0.3689626157283783
1787814526102538500,13.66253857421875,0.28466320037841797,0.43676865100860596,-0.4343251883983612
1787814526118313000,13.67831298828125,0.2981022298336029,0.403781920671463,-0.3176499307155609
1787814526134946000,13.694946044921876,0.29504790902137756,0.41111230850219727,-0.04092797264456749
1787814526150488000,13.710488037109375,0.2871066629886627,0.423329621553421,0.20036379992961884
1787814526166703600,13.72670361328125,0.2877175211906433,0.42149701714515686,0.37629300355911255
1787814526182919700,13.742919677734376,0.3072652220726013,0.39095374941825867,0.43615779280662537
1787814526198739200,13.7587392578125,0.3084869384765625,0.35246923565864563,0.44837507605552673
1787814526215538700,13.77553857421875,0.2919935882091522,0.3341432809829712,0.46181413531303406
1787814526230852600,13.7908525390625,0.27977627515792847,0.3481931984424591,0.4746423065662384
1787814526246994200,13.806994140625,0.2669481039047241,0.394008070230484,0.45265114307403564
1787814526263760100,13.823760009765625,0.22846360504627228,0.4086688458919525,0.38728857040405273
1787814526279154200,13.839154296875,0.1667662113904953,0.4050036668777466,0.23640485107898712
1787814526295761400,13.855761474609375,0.11728613078594208,0.3793473243713379,0.02932153269648552
1787814526311283700,13.87128369140625,0.10934487730264664,0.33719760179519653,-0.19058994948863983
1787814526327427800,13.887427734375,0.11239920556545258,0.3170390725135803,-0.3536909818649292
1787814526343786800,13.903786865234375,0.07819075137376785,0.34697145223617554,-0.4544837474822998
1787814526359573200,13.9195732421875,0.024434609338641167,0.40256020426750183,-0.42149701714515686
1787814526376160800,13.936160888671875,-0.007941247895359993,0.43737950921058655,-0.31459560990333557
1787814526391733200,13.951733154296875,-0.005497787147760391,0.484416127204895,-0.14477506279945374
1787814526407838500,13.96783837890625,0.029932396486401558,0.5271766781806946,-0.012828170321881771
1787814526424205600,13.98420556640625,0.08552113175392151,0.5968153476715088,0.033597588539123535
1787814526440023300,14.000023193359375,0.1319468915462494,0.685390830039978,0.013439035043120384
1787814526456555000,14.016554931640625,0.1918116807937622,0.7849618196487427,-0.03176499158143997
1787814526472142800,14.032142822265625,0.29626965522766113,0.8051204085350037,-0.04886921867728233
1787814526488268800,14.048268798828126,0.4153883755207062,0.8118399381637573,-0.02626720629632473
1787814526504639200,14.06463916015625,0.5338962078094482,0.8533787727355957,0.0354301854968071
1787814526520884500,14.080884521484375,0.6126978397369385,0.9437867999076843,0.11972958594560623
1787814526537024300,14.097024169921875,0.6426302194595337,1.0519099235534668,0.1875356286764145
1787814526552627700,14.112627685546874,0.6548475623130798,1.1301007270812988,0.21441370248794556
1787814526568754000,14.12875390625,0.6737843751907349,1.1740829944610596,0.20830504596233368
1787814526585142300,14.145142333984374,0.6896668672561646,1.281595230102539,0.22296582162380219
1787814526600920000,14.160920166015625,0.6670648455619812,1.443474531173706,0.2638937830924988
1787814526617479200,14.177479248046875,0.588874101638794,1.6389514207839966,0.31154128909111023
1787814526633086500,14.19308642578125,0.5119050741195679,1.7745635509490967,0.34758231043815613
1787814526649245000,14.209244873046876,0.47219884395599365,1.835650086402893,0.39217549562454224
1787814526665572600,14.225572509765625,0.4905247986316681,1.8112154006958008,0.43737950921058655
1787814526681384000,14.241384033203126,0.5204572081565857,1.8503108024597168,0.5027421116828918
1787814526697946600,14.257946533203125,0.5302310585975647,1.920560359954834,0.5381723046302795
1787814526713515800,14.273515869140626,0.5222898125648499,1.9822577238082886,0.48808133602142334
1787814526729661400,14.289661376953125,0.5296201705932617,2.1001546382904053,0.31093040108680725
1787814526745966800,14.305966796875,0.5369505286216736,2.246762275695801,0.10018189996480942
1787814526761763300,14.321763427734375,0.5424483418464661,2.384207010269165,-0.012828170321881771
1787814526778574800,14.338574951171875,0.5662720799446106,2.499049663543701,-0.014049900695681572
1787814526793886500,14.353886474609375,0.6334672570228577,2.5644123554229736,0.11850785464048386
1787814526810028800,14.37002880859375,0.7086036801338196,2.6309967041015625,0.31154128909111023
1787814526826806300,14.38680615234375,0.7556403279304504,2.7043004035949707,0.42760565876960754
1787814526842212600,14.402212646484376,0.7715228199958801,2.847242832183838,0.47219884395599365
1787814526858790100,14.4187900390625,0.7586946487426758,3.00118088722229,0.4398229718208313
1787814526874355000,14.43435498046875,0.7770205736160278,3.129462718963623,0.3793473243713379
1787814526890479900,14.45047998046875,0.8252789378166199,3.2754595279693604,0.26511552929878235
1787814526906838800,14.4668388671875,0.8778133392333984,3.4232888221740723,0.10018189996480942
1787814526922676700,14.4826767578125,0.9156870245933533,3.528968572616577,-0.06108652427792549
1787814526939274800,14.499274658203126,0.9437867999076843,3.579059362411499,-0.1466076523065567
1787814526954829600,14.51482958984375,0.988379955291748,3.5937201976776123,-0.1918116807937622
1787814526970983000,14.53098291015625,1.0427470207214355,3.547905445098877,-0.21441370248794556
1787814526987328800,14.547328857421874,1.062294602394104,3.4935383796691895,-0.2125810980796814
1787814527003104500,14.5631044921875,1.0317513942718506,3.4489452838897705,-0.1667662113904953
1787814527019716000,14.579716064453125,0.9486737251281738,3.450166940689087,-0.08124507963657379
1787814527035286800,14.595286865234375,0.8210029006004333,3.467271089553833,0.01466076634824276
1787814527051405600,14.611405517578126,0.6878342628479004,3.5051448345184326,0.08552113175392151
1787814527067811300,14.627811279296875,0.5247332453727722,3.528968572616577,0.1215621829032898
1787814527084061000,14.64406103515625,0.4343251883983612,3.5191946029663086,0.08429940044879913
1787814527100196000,14.660196044921875,0.4153883755207062,3.487429618835449,0.022602014243602753
1787814527115799000,14.675799072265624,0.4398229718208313,3.4465017318725586,-0.036651913076639175
1787814527131944000,14.69194384765625,0.4764748811721802,3.4550538063049316,-0.048258353024721146
1787814527148230700,14.708230712890625,0.5094616413116455,3.505755662918091,-0.04642575979232788
1787814527164019500,14.72401953125,0.5577199459075928,3.519805431365967,-0.06169738993048668
1787814527180595700,14.740595703125,0.6444628238677979,3.4910948276519775,-0.06902777403593063
1787814527196130600,14.756130615234374,0.7177666425704956,3.4434473514556885,-0.03237585723400116
1787814527212228600,14.772228515625,0.7415903806686401,3.4098498821258545,0.03787364438176155
1787814527228601000,14.78860107421875,0.7440338730812073,3.3689217567443848,0.09651670604944229
1787814527244394500,14.80439453125,0.7452555894851685,3.355482816696167,0.11423180252313614
1787814527260971500,14.820971435546875,0.7373143434524536,3.357926368713379,0.10812314599752426
1787814527276521500,14.836521484375,0.7250970602035522,3.3371567726135254,0.08368854224681854
1787814527292625400,14.85262548828125,0.7073819637298584,3.3041701316833496,0.03726277872920036
1787814527308937000,14.86893701171875,0.7079927921295166,3.238807439804077,-0.024434609338641167
1787814527324738800,14.88473876953125,0.7293730974197388,3.1227431297302246,-0.08979719132184982
1787814527341568300,14.901568359375,0.7800748944282532,2.9602530002593994,-0.17776179313659668
1787814527356876000,14.9168759765625,0.8124507665634155,2.8038713932037354,-0.304210901260376
1787814527373045200,14.933045166015624,0.8582656979560852,2.6535985469818115,-0.42760565876960754
1787814527389774800,14.94977490234375,0.8283332586288452,2.5253169536590576,-0.44837507605552673
1787814527405157400,14.965157470703126,0.7177666425704956,2.39214825630188,-0.32681289315223694
1787814527421719600,14.981719482421875,0.616973876953125,2.252260208129883,-0.10751228034496307
1787814527437356800,14.997356689453126,0.5729916095733643,2.0836613178253174,0.05803219974040985
1787814527453462500,15.013462646484374,0.5638286471366882,1.8411478996276855,0.12400564551353455
1787814527469833700,15.029833740234375,0.5668829679489136,1.5888605117797852,0.08002334833145142
1787814527485624800,15.045624755859375,0.5448917746543884,1.4343116283416748,0.03237585723400116
1787814527502185000,15.06218505859375,0.47342056035995483,1.4074335098266602,0.01466076634824276
1787814527517773800,15.07777392578125,0.36529740691185,1.4269812107086182,-0.004886921960860491
1787814527533875000,15.093875,0.27977627515792847,1.4605787992477417,-0.07391469180583954
1787814527550273800,15.110273681640624,0.2223549485206604,1.480737328529358,-0.15454891324043274
1787814527566061600,15.1260615234375,0.17959438264369965,1.454470157623291,-0.22052235901355743
1787814527582657500,15.142657470703124,0.13988813757896423,1.3933836221694946,-0.2070833146572113
1787814527598261800,15.15826171875,0.11301007121801376,1.3280210494995117,-0.1417207419872284
1787814527614398200,15.174398193359375,0.1014036312699318,1.2034045457839966,-0.05314527451992035
1787814527630755600,15.190755615234375,0.12278391420841217,1.016479730606079,0.024434609338641167
1787814527647014000,15.207013916015624,0.15882496535778046,0.8008443117141724,0.05803219974040985
1787814527663104000,15.22310400390625,0.19792033731937408,0.6352998614311218,0.05009094998240471
1787814527678657500,15.238657470703124,0.23090706765651703,0.5051855444908142,0.016493361443281174
1787814527694800100,15.254800048828125,0.2687807083129883,0.394618958234787,-0.029932396486401558
1787814527711153000,15.27115283203125,0.29077184200286865,0.30482175946235657,-0.0757472887635231
1787814527726980400,15.28698046875,0.3017674386501312,0.1869247704744339,-0.1160643994808197
1787814527743562000,15.30356201171875,0.3121521472930908,0.08124507963657379,-0.12950342893600464
1787814527759149300,15.3191494140625,0.3029891550540924,0.01038470957428217,-0.14049901068210602
1787814527775249200,15.335249267578124,0.27488934993743896,-0.025045474991202354,-0.17287486791610718
1787814527791625000,15.351625,0.22968533635139465,-0.059864792972803116,-0.2431243658065796
1787814527807463200,15.367463134765625,0.17470745742321014,-0.021380282938480377,-0.3029891550540924
1787814527824039000,15.384038818359375,0.12278391420841217,0.021380282938480377,-0.30482175946235657
1787814527839629000,15.399629150390625,0.08796459436416626,0.025656340643763542,-0.25106561183929443
1787814527855750000,15.41575,0.08979719132184982,0.025045474991202354,-0.17104226350784302
1787814527872078300,15.432078369140624,0.10873401165008545,-0.0555887371301651,-0.08368854224681854
1787814527887860000,15.44785986328125,0.13439035415649414,-0.11239920556545258,-0.018936822190880775
1787814527904693500,15.464693603515625,0.1411098688840866,-0.1973094791173935,0.015271631069481373
1787814527920106500,15.4801064453125,0.11545353382825851,-0.3017674386501312,-0.012217304669320583
1787814527936167400,15.49616748046875,0.1007927656173706,-0.3927863538265228,-0.05009094998240471
1787814527952967400,15.512967529296875,0.09162978827953339,-0.4746423065662384,-0.08857546001672745
1787814527968365600,15.528365478515624,0.09346238523721695,-0.5546656250953674,-0.10201449692249298
1787814527984907000,15.544906982421875,0.1062905490398407,-0.6090326309204102,-0.08857546001672745
1787814528000479000,15.56047900390625,0.10445795953273773,-0.6249151229858398,-0.06719517707824707
1787814528016651300,15.5766513671875,0.08979719132184982,-0.6145304441452026,-0.045204028487205505
1787814528033026800,15.59302685546875,0.04153883829712868,-0.6047565937042236,-0.025045474991202354
1787814528048832300,15.608832275390625,-0.015882495790719986,-0.5809328556060791,0.033597588539123535
1787814528065393400,15.625393310546874,-0.07819075137376785,-0.5436700582504272,0.16065755486488342
1787814528080934100,15.64093408203125,-0.11911872029304504,-0.5088507533073425,0.30604347586631775
1787814528097079800,15.657079833984374,-0.1459967941045761,-0.5015203952789307,0.39584067463874817
1787814528113428700,15.6734287109375,-0.1362229436635971,-0.5357288122177124,0.3781255781650543
1787814528129242400,15.689242431640626,-0.11362093687057495,-0.6029239892959595,0.2370157092809677
1787814528145801500,15.705801513671876,-0.09651670604944229,-0.6579018831253052,0.03420845419168472
1787814528161369000,15.721369140625,-0.09040805697441101,-0.6988298296928406,-0.1215621829032898
1787814528177476900,15.737476806640625,-0.12400564551353455,-0.6963863968849182,-0.24862214922904968
1787814528193908200,15.753908203125,-0.1667662113904953,-0.6224716901779175,-0.29016098380088806
1787814528210111500,15.770111572265625,-0.2382374405860901,-0.5021312236785889,-0.2718350291252136
1787814528226215700,15.786215576171875,-0.30482175946235657,-0.3732386529445648,-0.20341812074184418
1787814528241784300,15.801784423828124,-0.34208452701568604,-0.2632829248905182,-0.08979719132184982
1787814528257906200,15.81790625,-0.32681289315223694,-0.2278527319431305,-0.001832595793530345
1787814528274277600,15.834277587890625,-0.294437050819397,-0.24495697021484375,0.05619960278272629
1787814528290070500,15.850070556640626,-0.251676470041275,-0.3237585723400116,0.09529497474431992
1787814528306839600,15.866839599609374,-0.22052235901355743,-0.3842342495918274,0.09407325088977814
1787814528322257700,15.882257568359375,-0.21441370248794556,-0.43737950921058655,0.05009094998240471
1787814528338345500,15.898345458984375,-0.22479841113090515,-0.46547931432724,-0.04092797264456749
1787814528354776300,15.9147763671875,-0.2681698501110077,-0.4508185386657715,-0.1264491081237793
1787814528370563800,15.930563720703125,-0.32498031854629517,-0.4294382631778717,-0.19120082259178162
1787814528395024600,15.955024658203126,-0.3799581825733185,-0.37690386176109314,-0.2125810980796814
1787814528410873000,15.970873046875,-0.39095374941825867,-0.34025195240974426,-0.18448130786418915
1787814528427427800,15.987427734375,-0.37262779474258423,-0.2675589919090271,-0.12522737681865692
1787814528443027700,16.00302783203125,-0.3194825351238251,-0.18325957655906677,-0.07269296050071716
1787814528459154200,16.019154296875,-0.252287358045578,-0.10262536257505417,-0.031154127791523933
1787814528475555600,16.0355556640625,-0.2021963894367218,-0.030543262138962746,0.01160643994808197
1787814528491397600,16.051397705078124,-0.14538592100143433,0.07269296050071716,0.07330382615327835
1787814528508219000,16.068218994140626,-0.08491026610136032,0.15882496535778046,0.12461651116609573
1787814528523615500,16.083615478515625,-0.0403171069920063,0.21380282938480377,0.15577064454555511
1787814528539666000,16.099666015625,-0.009162978269159794,0.28038713335990906,0.18631389737129211
1787814528556015900,16.116015869140625,-0.0024434609804302454,0.36102136969566345,0.20586158335208893
1787814528571778800,16.13177880859375,0.0006108652451075613,0.403781920671463,0.1973094791173935
1787814528588339200,16.148339111328124,0.013439035043120384,0.39767327904701233,0.18081611394882202
1787814528604042200,16.164042236328125,0.04398229718208313,0.3488040566444397,0.14538592100143433
1787814528620515600,16.180515625,0.07635815441608429,0.3182607889175415,0.08429940044879913
1787814528636412400,16.196412353515626,0.08124507963657379,0.3139847218990326,0.05497787147760391
1787814528652176600,16.2121767578125,0.04459316283464432,0.33536502718925476,0.09834930300712585
1787814528668798500,16.228798583984375,-0.006719517521560192,0.35735616087913513,0.17104226350784302
1787814528684315100,16.244315185546874,-0.01466076634824276,0.41233405470848083,0.1716531366109848
1787814528700426800,16.2604267578125,-0.003054326167330146,0.45204028487205505,0.11789698898792267
1787814528716846800,16.276846923828124,0.02321287989616394,0.5161811113357544,0.012217304669320583
1787814528732622000,16.2926220703125,0.09162978827953339,0.5473352670669556,-0.10567969083786011
1787814528749156600,16.309156494140623,0.17409659922122955,0.5180137157440186,-0.1869247704744339
1787814528764814600,16.324814697265627,0.2675589919090271,0.45631635189056396,-0.19425514340400696
1787814528780857600,16.340857666015626,0.304210901260376,0.37201693654060364,-0.09651670604944229
1787814528797288700,16.357288818359375,0.29626965522766113,0.28588494658470154,0.04948008432984352
1787814528813088800,16.3730888671875,0.2828305959701538,0.2223549485206604,0.18448130786418915
1787814528829738500,16.389738525390626,0.23335053026676178,0.19303341209888458,0.34574973583221436
1787814528845322800,16.40532275390625,0.15027284622192383,0.23090706765651703,0.46547931432724
1787814528861380400,16.42138037109375,0.07819075137376785,0.2828305959701538,0.4758640229701996
1787814528877754600,16.437754638671876,0.0354301854968071,0.3194825351238251,0.38728857040405273
1787814528893551000,16.453551025390624,0.07024950534105301,0.3243694305419922,0.2223549485206604
1787814528910104800,16.470104736328125,0.14905111491680145,0.27611109614372253,0.03848451003432274
1787814528926207000,16.48620703125,0.22296582162380219,0.22479841113090515,-0.10201449692249298
1787814528950367700,16.51036767578125,0.33169981837272644,0.152105450630188,-0.22663100063800812
1787814528965996800,16.525996826171873,0.33597588539123535,0.12278391420841217,-0.22052235901355743
1787814528982126300,16.542126220703125,0.25961771607398987,0.13072516024112701,-0.1771509200334549
1787814528998454500,16.55845458984375,0.17531833052635193,0.13255776464939117,-0.14294247329235077
1787814529014247200,16.5742470703125,0.09834930300712585,0.10873401165008545,-0.12034045159816742
1787814529031033300,16.591033447265627,0.04886921867728233,0.07635815441608429,-0.07391469180583954
1787814529046373000,16.606373046875,0.018325956538319588,0.04642575979232788,-0.021380282938480377
1787814529062459600,16.622459716796875,0.01038470957428217,0.0403171069920063,-0.01038470957428217
1787814529078776300,16.6387763671875,0.014049900695681572,0.014049900695681572,-0.048258353024721146
1787814529094602000,16.65460205078125,0.039095375686883926,-0.00855211354792118,-0.11667526513338089
1787814529111177200,16.67117724609375,0.06536258012056351,-0.021991148591041565,-0.15577064454555511
1787814529126795000,16.686794921875,0.09162978827953339,-0.04214970022439957,-0.17470745742321014
1787814529142869500,16.702869384765624,0.12034045159816742,-0.04703662544488907,-0.1765400618314743
1787814529159232000,16.71923193359375,0.1466076523065567,-0.06963863968849182,-0.1667662113904953
1787814529175035100,16.73503515625,0.16798794269561768,-0.10018189996480942,-0.13988813757896423
1787814529191650300,16.751650390625,0.17287486791610718,-0.16065755486488342,-0.09957103431224823
1787814529207192300,16.7671923828125,0.1722639948129654,-0.2583959996700287,-0.07024950534105301
1787814529223300000,16.783300048828124,0.15577064454555511,-0.30604347586631775,-0.03420845419168472
1787814529239670800,16.7996708984375,0.09285151958465576,-0.28527405858039856,0.05314527451992035
1787814529255508200,16.81550830078125,0.021380282938480377,-0.2571742534637451,0.1618792861700058
1787814529272143400,16.832143310546876,-0.009773843921720982,-0.2742784917354584,0.2321287989616394
1787814529287671300,16.84767138671875,0.0024434609804302454,-0.33658674359321594,0.24007004499435425
1787814529303755800,16.863755859375,0.01710422709584236,-0.39095374941825867,0.19853121042251587
1787814529320119800,16.880119873046876,-0.005497787147760391,-0.37079519033432007,0.10751228034496307
1787814529336370700,16.89637060546875,-0.04092797264456749,-0.32070425152778625,0.001832595793530345
1787814529352515300,16.912515380859375,-0.06414084881544113,-0.2669481039047241,-0.1111774742603302
1787814529368143400,16.928143310546876,-0.07024950534105301,-0.20830504596233368,-0.1417207419872284
1787814529384226000,16.94422607421875,-0.07269296050071716,-0.20341812074184418,-0.10323622822761536
1787814529400603000,16.960602783203125,-0.04703662544488907,-0.24007004499435425,-0.1514945775270462
1787814529416407000,16.976406982421874,0.005497787147760391,-0.3243694305419922,-0.27488934993743896
1787814529433084200,16.993084228515624,0.010995574295520782,-0.4343251883983612,-0.37629300355911255
1787814529448609000,17.008609130859377,-0.04948008432984352,-0.48685958981513977,-0.3683517575263977
1787814529464722200,17.02472216796875,-0.1569923609495163,-0.38667771220207214,-0.20891591906547546
1787814529481098000,17.041097900390625,-0.27000242471694946,-0.22540926933288574,0.04948008432984352
1787814529496888600,17.056888671875,-0.36163222789764404,-0.1264491081237793,0.27977627515792847
1787814529513444400,17.0734443359375,-0.38179078698158264,-0.0959058403968811,0.39706242084503174
1787814529528993500,17.08899365234375,-0.3335324227809906,-0.13866640627384186,0.4593706727027893
1787814529545120300,17.105120361328126,-0.24434609711170197,-0.26572638750076294,0.4251621961593628
1787814529561405400,17.121405517578125,-0.1417207419872284,-0.38606682419776917,0.32681289315223694
1787814529577213400,17.13721337890625,-0.04398229718208313,-0.5247332453727722,0.15882496535778046
1787814529594009300,17.15400927734375,-0.02321287989616394,-0.6805039048194885,-0.024434609338641167
1787814529609348400,17.169348388671875,-0.04153883829712868,-0.8100073337554932,-0.15821409225463867
1787814529625474800,17.185474853515625,-0.0959058403968811,-0.8967501521110535,-0.2565633952617645
1787814529641832000,17.20183203125,-0.21563543379306793,-0.7470881938934326,-0.2730567753314972
1787814529657640000,17.217639892578124,-0.39095374941825867,-0.4190535545349121,-0.21563543379306793
1787814529674219000,17.234218994140626,-0.53328537940979,-0.14477506279945374,-0.12522737681865692
1787814529689780500,17.249780517578124,-0.5815436840057373,-0.012217304669320583,-0.02626720629632473
1787814529705893600,17.2658935546875,-0.49846604466438293,0.007941247895359993,0.05253441259264946
1787814529722264300,17.282264404296875,-0.3543018400669098,-0.07757988572120667,0.10323622822761536
1787814529738058500,17.29805859375,-0.16798794269561768,-0.2376265823841095,0.15454891324043274
1787814529754653200,17.314653076171876,-0.036041051149368286,-0.3799581825733185,0.19120082259178162
1787814529770219300,17.33021923828125,-0.0012217304902151227,-0.4599815309047699,0.1875356286764145
1787814529786340000,17.346340087890624,-0.019547687843441963,-0.4911356568336487,0.1508837193250656
1787814529802721300,17.36272119140625,-0.07330382615327835,-0.5277875661849976,0.07330382615327835
1787814529818503700,17.378503662109374,-0.1508837193250656,-0.5754350423812866,-0.03237585723400116
1787814529835083000,17.3950830078125,-0.22296582162380219,-0.6157521605491638,-0.13805554807186127
1787814529850708000,17.4107080078125,-0.29993483424186707,-0.5919284224510193,-0.22907446324825287
1787814529866848500,17.4268486328125,-0.3604104816913605,-0.4740314185619354,-0.2638937830924988
1787814529883230000,17.44322998046875,-0.3842342495918274,-0.3439171314239502,-0.24556782841682434
1787814529899528400,17.459528564453127,-0.37690386176109314,-0.25595253705978394,-0.1918116807937622
1787814529915607000,17.47560693359375,-0.3433062732219696,-0.17837265133857727,-0.08185594528913498
1787814529931200000,17.491199951171875,-0.2675589919090271,-0.14538592100143433,0.042760565876960754
1787814529947355000,17.50735498046875,-0.1270599663257599,-0.1814269721508026,0.14844025671482086
1787814529963753500,17.52375341796875,0.02321287989616394,-0.21930062770843506,0.2119702398777008
1787814529979548200,17.539548095703125,0.18020524084568024,-0.2535090744495392,0.2474004179239273
1787814529996089900,17.55608984375,0.2675589919090271,-0.24862214922904968,0.24129177629947662
1787814530011651800,17.57165185546875,0.3084869384765625,-0.21563543379306793,0.20097467303276062
1787814530027763000,17.587762939453125,0.3628539443016052,-0.10384709388017654,0.11789698898792267
1787814530044134000,17.6041337890625,0.3885102868080139,-0.006719517521560192,0.04214970022439957
1787814530059918300,17.61991845703125,0.34697145223617554,0.00427605677396059,0.02382374368607998
1787814530076496400,17.636496337890627,0.24617868661880493,-0.06963863968849182,0.06902777403593063
1787814530092087600,17.652087646484375,0.12461651116609573,-0.21868975460529327,0.13072516024112701
1787814530108188000,17.66818798828125,-0.03298672288656235,-0.34697145223617554,0.17837265133857727
1787814530124534000,17.684533935546874,-0.16798794269561768,-0.4178318381309509,0.18020524084568024
1787814530140318200,17.700318115234374,-0.313373863697052,-0.4550946056842804,0.14782938361167908
1787814530157134300,17.71713427734375,-0.45204028487205505,-0.44287729263305664,0.1007927656173706
1787814530172472300,17.732472412109374,-0.5375614166259766,-0.42638394236564636,0.08796459436416626
1787814530188661800,17.748661865234375,-0.5369505286216736,-0.45631635189056396,0.13866640627384186
1787814530204926500,17.764926513671874,-0.44593164324760437,-0.5448917746543884,0.24190263450145721
1787814530220715500,17.780715576171875,-0.342695415019989,-0.5925393104553223,0.39217549562454224
1787814530237287400,17.797287353515625,-0.32498031854629517,-0.5870414972305298,0.5204572081565857
1787814530252881000,17.812880859375,-0.3335324227809906,-0.656680166721344,0.4899139404296875
1787814530269002500,17.82900244140625,-0.27977627515792847,-0.8552113175392151,0.22663100063800812
1787814530285375500,17.84537548828125,-0.22907446324825287,-1.074512004852295,-0.0708603709936142
1787814530301159000,17.861158935546875,-0.19975294172763824,-1.370781660079956,-0.3500257730484009
1787814530317722400,17.877722412109375,-0.24373523890972137,-1.588249683380127,-0.375071257352829
1787814530333302500,17.893302490234376,-0.3604104816913605,-1.6218472719192505,-0.182648703455925
1787814530349443600,17.909443603515626,-0.523511528968811,-1.4721852540969849,0.1264491081237793
1787814530365871900,17.925871826171875,-0.6670648455619812,-1.2858713865280151,0.3292563557624817
1787814530381558800,17.941558837890625,-0.7550294399261475,-1.141707181930542,0.37568211555480957
1787814530398146800,17.958146728515626,-0.7745771408081055,-1.0873401165008545,0.33597588539123535
1787814530413717800,17.9737177734375,-0.7324274182319641,-1.1197160482406616,0.2767219543457031
1787814530429867800,17.98986767578125,-0.6530149579048157,-1.263269305229187,0.2620611786842346
1787814530446258400,18.006258544921874,-0.5406157374382019,-1.451415777206421,0.24556782841682434
1787814530462513000,18.022512939453126,-0.3439171314239502,-1.7092009782791138,0.14477506279945374
1787814530478593000,18.038593017578126,-0.16371189057826996,-1.8875735998153687,-0.007941247895359993
1787814530494126800,18.054126953125,-0.08429940044879913,-1.8796323537826538,-0.09407325088977814
1787814530510264600,18.0702646484375,-0.12034045159816742,-1.7409659624099731,-0.07391469180583954
1787814530526732800,18.08673291015625,-0.2223549485206604,-1.5485434532165527,0.028099801391363144
1787814530542420700,18.102420654296875,-0.2974913716316223,-1.443474531173706,0.10934487730264664
1787814530558978000,18.11897802734375,-0.2565633952617645,-1.5363260507583618,0.10873401165008545
1787814530574534000,18.134533935546877,-0.10445795953273773,-1.7440202236175537,0.07941248267889023
1787814530590624800,18.150624755859376,0.04337143152952194,-1.882686734199524,0.09285151958465576
1787814530606982400,18.166982421875,0.07819075137376785,-1.8955148458480835,0.17348572611808777
1787814530622791400,18.18279150390625,0.042760565876960754,-1.8442021608352661,0.21563543379306793
1787814530639315500,18.1993154296875,-0.021991148591041565,-1.7678439617156982,0.17043140530586243
1787814530654858500,18.2148583984375,-0.1111774742603302,-1.7427985668182373,0.033597588539123535
1787814530671004700,18.231004638671877,-0.19792033731937408,-1.7654005289077759,-0.12339477986097336
1787814530687354600,18.247354736328123,-0.3017674386501312,-1.7825047969818115,-0.2681698501110077
1787814530703123200,18.263123291015624,-0.39706242084503174,-1.7537940740585327,-0.31520646810531616
1787814530719952600,18.27995263671875,-0.45142942667007446,-1.7360789775848389,-0.3127630054950714
1787814530735287800,18.295287841796874,-0.4709770977497101,-1.7055357694625854,-0.2834414839744568
1787814530751410700,18.31141064453125,-0.4593706727027893,-1.6792685985565186,-0.2321287989616394
1787814530767775700,18.327775634765626,-0.4147774875164032,-1.6505578756332397,-0.15577064454555511
1787814530783547000,18.343546875,-0.3732386529445648,-1.6340645551681519,-0.07391469180583954
1787814530800121000,18.36012109375,-0.31154128909111023,-1.626123309135437,0.02076941914856434
1787814530815712300,18.375712158203125,-0.22663100063800812,-1.606575608253479,0.07391469180583954
1787814530831842600,18.391842529296873,-0.12522737681865692,-1.5625933408737183,0.11239920556545258
1787814530848201000,18.408200927734374,-0.054367005825042725,-1.5363260507583618,0.1362229436635971
1787814530864013600,18.424013671875,-0.03848451003432274,-1.5241087675094604,0.12767083942890167
1787814530880580900,18.440580810546876,-0.08857546001672745,-1.5204435586929321,0.05009094998240471
1787814530896169000,18.4561689453125,-0.16249015927314758,-1.4953981637954712,-0.07147123664617538
1787814530912306000,18.472305908203126,-0.27000242471694946,-1.4495831727981567,-0.23273965716362
1787814530928669700,18.488669677734375,-0.38606682419776917,-1.3622294664382935,-0.3701843321323395
1787814530944472300,18.504472412109376,-0.4746423065662384,-1.2516628503799438,-0.4306600093841553
1787814530961020400,18.5210205078125,-0.5406157374382019,-1.1252137422561646,-0.4502076804637909
1787814530976569900,18.53656982421875,-0.5595525503158569,-0.9902125597000122,-0.4190535545349121
1787814530992683800,18.552683837890626,-0.5393940210342407,-0.836885392665863,-0.34697145223617554
1787814531009037300,18.569037353515625,-0.4813618063926697,-0.7263187766075134,-0.2840523421764374
1787814531025302800,18.585302734375,-0.3805690407752991,-0.5870414972305298,-0.23151792585849762
1787814531041408500,18.601408447265626,-0.2577851414680481,-0.4550946056842804,-0.20402899384498596
1787814531056959000,18.616958984375,-0.14233160018920898,-0.35735616087913513,-0.1820378452539444
1787814531073062400,18.6330625,-0.012217304669320583,-0.2919935882091522,-0.1459967941045761
1787814531089435400,18.649435302734375,0.10262536257505417,-0.2541199326515198,-0.08735372871160507
1787814531105259000,18.665259033203125,0.11789698898792267,-0.15760323405265808,0.03848451003432274
1787814531121807000,18.68180712890625,0.09712757170200348,-0.07513642311096191,0.2064724564552307
1787814531137414000,18.697413818359376,0.07269296050071716,-0.059864792972803116,0.3182607889175415
1787814531153514000,18.713513916015625,0.1062905490398407,-0.09896016865968704,0.17898350954055786
1787814531169885200,18.72988525390625,0.10995574295520782,-0.10262536257505417,-0.07941248267889023
1787814531185678600,18.7456787109375,0.021991148591041565,-0.05619960278272629,-0.3384193480014801
1787814531202187500,18.7621875,-0.12034045159816742,-0.029932396486401558,-0.43799036741256714
1787814531217768700,18.777768798828124,-0.2119702398777008,-0.05803219974040985,-0.37201693654060364
1787814531233888300,18.79388818359375,-0.25473082065582275,-0.19486601650714874,-0.1472185254096985
1787814531250198000,18.810197998046874,-0.2681698501110077,-0.3274237811565399,0.14416420459747314
1787814531265991000,18.825990966796876,-0.29565876722335815,-0.3781255781650543,0.42149701714515686
1787814531282816500,18.84281640625,-0.33475416898727417,-0.3274237811565399,0.6218608021736145
1787814531298149600,18.858149658203125,-0.37201693654060364,-0.2480112910270691,0.7562511563301086
1787814531314276000,18.874276123046876,-0.3799581825733185,-0.1612684279680252,0.7073819637298584
1787814531330598000,18.890597900390624,-0.3243694305419922,-0.24007004499435425,0.4758640229701996
1787814531346375000,18.906375,-0.12461651116609573,-0.5064072608947754,0.02076941914856434
1787814531362991600,18.92299169921875,0.039095375686883926,-0.7324274182319641,-0.3628539443016052
1787814531378516200,18.93851611328125,0.03726277872920036,-0.769690215587616,-0.4092797040939331
1787814531394656500,18.954656494140625,-0.05314527451992035,-0.6762278079986572,-0.2571742534637451
1787814531411026200,18.971026123046876,-0.22113321721553802,-0.5277875661849976,-0.05864306539297104
1787814531426814700,18.986814697265626,-0.36224308609962463,-0.38240164518356323,0.019547687843441963
1787814531443375000,19.003375,-0.43127086758613586,-0.2987131178379059,-0.00427605677396059
1787814531458915300,19.018915283203125,-0.4709770977497101,-0.19792033731937408,-0.054367005825042725
1787814531475127300,19.035127197265624,-0.46731191873550415,-0.10812314599752426,-0.07269296050071716
1787814531491397600,19.051397705078124,-0.4098905920982361,-0.0507018156349659,-0.036651913076639175
1787814531507217000,19.067216796875,-0.3390302062034607,-0.07941248267889023,0.019547687843441963
1787814531523765200,19.08376513671875,-0.23640485107898712,-0.1466076523065567,0.10018189996480942
1787814531539335700,19.099335693359375,-0.14538592100143433,-0.19058994948863983,0.1411098688840866
1787814531555440400,19.1154404296875,-0.10506882518529892,-0.1918116807937622,0.11301007121801376
1787814531571785500,19.131785400390626,-0.08185594528913498,-0.20036379992961884,0.012217304669320583
1787814531588100900,19.148100830078125,-0.06414084881544113,-0.20830504596233368,-0.08368854224681854
1787814531604181800,19.164181640625,-0.05864306539297104,-0.2223549485206604,-0.13866640627384186
1787814531619724300,19.179724365234375,-0.04703662544488907,-0.22846360504627228,-0.17531833052635193
1787814531635849700,19.195849609375,-0.06291911751031876,-0.1973094791173935,-0.18814650177955627
1787814531652185900,19.212185791015624,-0.08979719132184982,-0.14294247329235077,-0.18081611394882202
1787814531668058000,19.22805810546875,-0.12522737681865692,-0.06658431142568588,-0.13316862285137177
1787814531684547800,19.2445478515625,-0.17348572611808777,0.019547687843441963,-0.03176499158143997
1787814531700125400,19.26012548828125,-0.20402899384498596,0.10018189996480942,0.12889257073402405
1787814531716304000,19.276303955078124,-0.2119702398777008,0.1618792861700058,0.30604347586631775
1787814531732619000,19.292618896484374,-0.17531833052635193,0.23457226157188416,0.5149593949317932
1787814531748380400,19.30838037109375,-0.09407325088977814,0.2724458873271942,0.6792821288108826
1787814531764915200,19.324915283203126,0.01466076634824276,0.23640485107898712,0.7721336483955383
1787814531780517000,19.34051708984375,0.1264491081237793,0.17470745742321014,0.7275404930114746
1787814531796630800,19.356630859375,0.33292156457901,-0.00855211354792118,0.47769662737846375
1787814531812968400,19.372968505859376,0.5894849896430969,-0.303600013256073,0.09712757170200348
1787814531828750000,19.38875,0.7507534027099609,-0.5693264007568359,-0.20402899384498596
1787814531845546800,19.405546630859376,0.7776314616203308,-0.7757988572120667,-0.3805690407752991
1787814531860845800,19.420845703125,0.6407976150512695,-0.8100073337554932,-0.36102136969566345
1787814531876991000,19.436990966796873,0.3799581825733185,-0.6102544069290161,-0.19792033731937408
1787814531893332500,19.45333251953125,0.11362093687057495,-0.2926044464111328,-0.03420845419168472
1787814531909157600,19.46915771484375,-0.17592918872833252,0.07513642311096191,0.11423180252313614
1787814531925730300,19.485730224609377,-0.36529740691185,0.3597996234893799,0.21013765037059784
1787814531941261300,19.50126123046875,-0.4098905920982361,0.4605923891067505,0.23396138846874237
1787814531957350700,19.5173505859375,-0.3396410644054413,0.41233405470848083,0.2535090744495392
1787814531973713200,19.533713134765627,-0.18509216606616974,0.23884831368923187,0.2632829248905182
1787814531989527000,19.549527099609374,-0.019547687843441963,0.08307767659425735,0.23273965716362
1787814532006105300,19.566105224609377,0.1411098688840866,-0.013439035043120384,0.13255776464939117
1787814532021686500,19.5816865234375,0.2217440903186798,-0.05253441259264946,-0.009162978269159794
1787814532037761800,19.59776171875,0.242513507604599,-0.07819075137376785,-0.15393804013729095
1787814532054142000,19.614141845703124,0.22052235901355743,-0.08246681094169617,-0.2376265823841095
1787814532069947100,19.629947021484377,0.16493362188339233,-0.027488935738801956,-0.2638937830924988
1787814532086529800,19.64652978515625,0.09040805697441101,0.06780604273080826,-0.24068090319633484
1787814532102639000,19.66263916015625,0.022602014243602753,0.1313360333442688,-0.2168571650981903
1787814532118223400,19.678223388671874,-0.03848451003432274,0.1765400618314743,-0.21319197118282318
1787814532134601700,19.694601806640627,-0.06658431142568588,0.14355333149433136,-0.23273965716362
1787814532150366200,19.7103662109375,-0.07757988572120667,0.0555887371301651,-0.23029619455337524
1787814532166963200,19.726963134765626,-0.09957103431224823,-0.02015855349600315,-0.19303341209888458
1787814532182556000,19.742555908203126,-0.1215621829032898,-0.06902777403593063,-0.1411098688840866
1787814532198665200,19.758665283203126,-0.1466076523065567,-0.08307767659425735,-0.09529497474431992
1787814532215067000,19.77506689453125,-0.16982053220272064,-0.05375614017248154,-0.05925392732024193
1787814532230859500,19.790859619140626,-0.15393804013729095,-0.05192354694008827,-0.015271631069481373
1787814532247443000,19.80744287109375,-0.09712757170200348,-0.10995574295520782,0.01466076634824276
1787814532263054000,19.82305419921875,-0.02321287989616394,-0.21868975460529327,0.01038470957428217
1787814532279183000,19.83918310546875,0.027488935738801956,-0.3072652220726013,-0.01710422709584236
1787814532295538200,19.8555380859375,0.060475658625364304,-0.38728857040405273,-0.07391469180583954
