time,seconds_elapsed,z,y,x
1787814512585891800,0.145891845703125,-144.00601196289062,-55.564002990722656,130.3870086669922
1787814512602446300,0.1624462890625,-144.2740020751953,-58.55900192260742,130.76800537109375
1787814512618361000,0.178361083984375,-143.39401245117188,-58.974002838134766,131.88400268554688
1787814512634812700,0.194812744140625,-143.8000030517578,-59.50200271606445,132.38900756835938
1787814512651336200,0.211336181640625,-144.07301330566406,-58.45700454711914,130.36199951171875
1787814512666955500,0.22695556640625,-141.510009765625,-58.669002532958984,130.8660125732422
1787814512683559000,0.243558837890625,-142.21600341796875,-59.40200424194336,132.0830078125
1787814512699876600,0.259876708984375,-143.94100952148438,-58.983001708984375,131.17201232910156
1787814512715866600,0.27586669921875,-143.00401306152344,-58.45500183105469,130.66600036621094
1787814512731840500,0.291840576171875,-142.24301147460938,-57.90500259399414,131.79000854492188
1787814512748077300,0.308077392578125,-141.92300415039062,-58.87700271606445,131.27200317382812
1787814512764550000,0.3245498046875,-142.04600524902344,-56.83400344848633,131.8000030517578
1787814512780445200,0.340445068359375,-143.5810089111328,-59.823001861572266,132.48800659179688
1787814512796955600,0.35695556640625,-142.13101196289062,-59.95500183105469,130.7530059814453
1787814512812947200,0.372947265625,-140.5380096435547,-58.012001037597656,131.9910125732422
1787814512829142300,0.389142333984375,-142.2080078125,-58.965003967285156,132.69801330566406
1787814512845683700,0.40568359375,-144.03900146484375,-59.73400115966797,131.06300354003906
1787814512861648000,0.42164794921875,-143.0550079345703,-59.82600402832031,132.2840118408203
1787814512877992000,0.437991943359375,-142.5780029296875,-58.887001037597656,130.4580078125
1787814512893971700,0.4539716796875,-142.4350128173828,-59.08100128173828,131.9840087890625
1787814512910200800,0.470200927734375,-141.61801147460938,-58.99400329589844,130.5570068359375
1787814512926710000,0.4867099609375,-142.98001098632812,-58.224002838134766,131.88999938964844
1787814512942598100,0.50259814453125,-142.87400817871094,-59.52100372314453,131.0640106201172
1787814512959440600,0.519440673828125,-144.91700744628906,-58.669002532958984,130.4630126953125
1787814512974966000,0.534966064453125,-143.11900329589844,-58.785003662109375,130.052001953125
1787814512991165200,0.551165283203125,-142.781005859375,-59.53000259399414,130.45201110839844
1787814513008166400,0.56816650390625,-142.79901123046875,-56.94700241088867,131.29000854492188
1787814513023728400,0.583728271484375,-142.57200622558594,-58.6670036315918,130.86700439453125
1787814513040137200,0.60013720703125,-145.29400634765625,-59.288002014160156,132.1890106201172
1787814513056028700,0.616028564453125,-144.89300537109375,-58.22300338745117,131.79100036621094
1787814513072212700,0.632212646484375,-143.55101013183594,-58.1400032043457,130.16000366210938
1787814513088735700,0.64873583984375,-143.74501037597656,-58.77700424194336,130.56201171875
1787814513104664600,0.66466455078125,-144.57901000976562,-58.44200134277344,131.48300170898438
1787814513121142800,0.681142822265625,-142.15501403808594,-59.105003356933594,130.2519989013672
1787814513137100500,0.6971005859375,-144.15501403808594,-58.22700119018555,131.5860137939453
1787814513153297700,0.713297607421875,-142.79100036621094,-57.483001708984375,131.28500366210938
1787814513169789400,0.72978955078125,-144.94700622558594,-57.823001861572266,129.65499877929688
1787814513185718000,0.745718017578125,-144.3660125732422,-59.415000915527344,130.86300659179688
1787814513202218500,0.762218505859375,-143.625,-59.09300231933594,130.96701049804688
1787814513218122200,0.778122314453125,-145.44400024414062,-59.09800338745117,130.35800170898438
1787814513234319600,0.794319580078125,-144.2410125732422,-59.62000274658203,131.57400512695312
1787814513250876400,0.81087646484375,-144.57301330566406,-59.84300231933594,130.8590087890625
1787814513266804000,0.826803955078125,-143.5260009765625,-58.12400436401367,131.281005859375
1787814513283304000,0.843303955078125,-142.64401245117188,-59.83500289916992,131.67201232910156
1787814513299281000,0.859281005859375,-142.37901306152344,-58.24700164794922,130.25900268554688
1787814513315899100,0.875899169921875,-143.82301330566406,-58.86700439453125,131.7840118408203
1787814513332130600,0.892130615234375,-143.08700561523438,-57.79300308227539,132.09800720214844
1787814513347906000,0.907906005859375,-142.2670135498047,-59.32500457763672,129.84201049804688
1787814513364779300,0.924779296875,-143.614013671875,-59.086002349853516,131.47601318359375
1787814513380338400,0.94033837890625,-142.4390106201172,-58.76000213623047,131.98699951171875
1787814513396491500,0.956491455078125,-142.36801147460938,-58.673004150390625,130.45899963378906
1787814513413059000,0.97305908203125,-143.64801025390625,-58.134002685546875,130.56800842285156
1787814513428983000,0.988983154296875,-143.7310028076172,-58.336002349853516,131.48300170898438
1787814513445447200,1.005447265625,-143.61700439453125,-59.52000427246094,131.06500244140625
1787814513461375000,1.021375,-145.14700317382812,-58.89500427246094,129.54400634765625
1787814513477546500,1.03754638671875,-146.06700134277344,-60.27800369262695,130.24600219726562
1787814513494260000,1.054260009765625,-142.66500854492188,-59.7400016784668,130.75601196289062
1787814513510061300,1.070061279296875,-142.44200134277344,-59.842002868652344,131.16200256347656
1787814513526738700,1.08673876953125,-143.20001220703125,-60.28200149536133,130.24301147460938
1787814513542361600,1.102361572265625,-144.41900634765625,-59.4900016784668,133.2050018310547
1787814513558271000,1.11827099609375,-142.5850067138672,-59.32400131225586,129.84300231933594
1787814513574737400,1.1347373046875,-143.83399963378906,-58.01000213623047,131.79100036621094
1787814513590498000,1.150498046875,-144.16200256347656,-58.0150032043457,131.38400268554688
1787814513606842000,1.166842041015625,-143.0080108642578,-58.458003997802734,130.46200561523438
1787814513623111700,1.183111572265625,-144.0290069580078,-60.80800247192383,130.85000610351562
1787814513638739000,1.198739013671875,-143.12701416015625,-58.682003021240234,129.74700927734375
1787814513655115800,1.21511572265625,-146.052001953125,-58.215003967285156,132.20001220703125
1787814513670934800,1.230934814453125,-143.5340118408203,-58.99400329589844,130.3560028076172
1787814513687270700,1.247270751953125,-143.61500549316406,-60.816001892089844,130.3400115966797
1787814513703166000,1.263166015625,-143.6320037841797,-59.637001037597656,130.35101318359375
1787814513719172900,1.2791728515625,-143.85501098632812,-58.67100143432617,130.4610137939453
1787814513735574000,1.295573974609375,-143.54501342773438,-58.89200210571289,129.95001220703125
1787814513751357700,1.311357666015625,-143.43099975585938,-58.45600128173828,130.56500244140625
1787814513767708700,1.327708740234375,-146.71800231933594,-59.31200408935547,130.25601196289062
1787814513783563800,1.343563720703125,-143.92100524902344,-60.26700210571289,131.2620086669922
1787814513799596300,1.35959619140625,-143.4110107421875,-58.87600326538086,131.17201232910156
1787814513816130300,1.37613037109375,-144.802001953125,-58.98800277709961,130.6630096435547
1787814513831795200,1.391795166015625,-143.27000427246094,-58.37900161743164,128.32400512695312
1787814513848108500,1.408108642578125,-143.01800537109375,-59.112003326416016,129.64100646972656
1787814513863918800,1.4239189453125,-144.7110137939453,-59.32200241088867,129.74400329589844
1787814513880416500,1.44041650390625,-146.0810089111328,-59.09700393676758,130.3590087890625
1787814513896378400,1.45637841796875,-144.24501037597656,-61.02700424194336,130.54299926757812
1787814513912176000,1.472176025390625,-145.23300170898438,-59.316001892089844,130.15200805664062
1787814513928942000,1.488942138671875,-144.59201049804688,-58.77400207519531,130.66500854492188
1787814513944349000,1.504348876953125,-146.2790069580078,-59.62900161743164,130.66000366210938
1787814513960364500,1.520364501953125,-145.57101440429688,-59.435001373291016,129.2340087890625
1787814513976804600,1.5368046875,-144.90501403808594,-58.66200256347656,130.9720001220703
1787814513992598500,1.5525986328125,-143.25601196289062,-58.371002197265625,128.9350128173828
1787814514008953000,1.568953125,-148.8560028076172,-58.561004638671875,130.06100463867188
1787814514024759300,1.58475927734375,-146.30599975585938,-59.86100387573242,129.3330078125
1787814514040839400,1.60083935546875,-146.63600158691406,-58.67900466918945,129.54800415039062
1787814514057218000,1.617218017578125,-145.12600708007812,-59.74700164794922,129.94400024414062
1787814514073028400,1.6330283203125,-145.3560028076172,-58.137001037597656,130.16200256347656
1787814514089385700,1.6493857421875,-146.6510009765625,-58.256004333496094,129.14401245117188
1787814514105203700,1.66520361328125,-146.65000915527344,-58.36300277709961,129.14300537109375
1787814514121248000,1.681248046875,-145.9110107421875,-58.36700439453125,128.9390106201172
1787814514137637000,1.69763720703125,-144.9650115966797,-56.64500427246094,129.5640106201172
1787814514153458700,1.713458740234375,-147.1330108642578,-59.630001068115234,130.45700073242188
1787814514169808600,1.72980859375,-147.62200927734375,-58.47900390625,128.32901000976562
1787814514186167800,1.746167724609375,-147.7080078125,-58.900001525878906,128.93600463867188
1787814514201839900,1.76183984375,-145.79200744628906,-58.7910041809082,129.24000549316406
1787814514218314200,1.778314208984375,-145.58200073242188,-59.44200134277344,128.72500610351562
1787814514234042400,1.79404248046875,-145.67100524902344,-59.53900146484375,129.43701171875
1787814514250326800,1.810326904296875,-146.8360137939453,-58.887001037597656,129.95401000976562
1787814514266300400,1.826300537109375,-147.37901306152344,-58.678001403808594,129.54901123046875
1787814514282206000,1.8422060546875,-146.8570098876953,-58.900001525878906,129.03700256347656
1787814514298633200,1.85863330078125,-147.39601135253906,-58.471004486083984,128.94000244140625
1787814514314398500,1.8743984375,-146.4550018310547,-58.37400436401367,128.3280029296875
1787814514330728000,1.89072802734375,-144.0850067138672,-60.19400405883789,128.71600341796875
1787814514346572800,1.90657275390625,-146.09300231933594,-59.53700256347656,129.54000854492188
1787814514362635000,1.922635009765625,-146.32501220703125,-57.81900405883789,129.75900268554688
1787814514379075800,1.939075927734375,-148.1320037841797,-59.006004333496094,128.93600463867188
1787814514394843100,1.954843017578125,-145.70700073242188,-59.237003326416016,128.01400756835938
1787814514411175700,1.97117578125,-146.8360137939453,-59.103004455566406,129.85000610351562
1787814514427004200,1.987004150390625,-147.36300659179688,-58.55900192260742,130.36500549316406
1787814514443641600,2.0036416015625,-145.75601196289062,-59.74200439453125,130.25100708007812
1787814514459492600,2.01949267578125,-147.81100463867188,-59.005001068115234,129.03700256347656
1787814514475299000,2.035299072265625,-145.989013671875,-59.53900146484375,129.43800354003906
1787814514492063700,2.052063720703125,-146.54701232910156,-59.121002197265625,128.52500915527344
1787814514507465200,2.06746533203125,-147.7220001220703,-57.935001373291016,128.94500732421875
1787814514523530800,2.08353076171875,-146.4320068359375,-58.25200271606445,129.45001220703125
1787814514539918800,2.0999189453125,-147.72100830078125,-59.12400436401367,128.22100830078125
1787814514555723800,2.115723876953125,-147.19000244140625,-59.44900131225586,128.01400756835938
1787814514572063200,2.132063232421875,-147.38800048828125,-59.22300338745117,128.8310089111328
1787814514587910700,2.14791064453125,-146.12001037597656,-58.90500259399414,128.73001098632812
1787814514604013000,2.164012939453125,-146.22401428222656,-58.579002380371094,129.03900146484375
1787814514620374500,2.18037451171875,-146.4180145263672,-58.89200210571289,129.64801025390625
1787814514636184000,2.19618408203125,-145.74700927734375,-59.737003326416016,130.6580047607422
1787814514652657200,2.2126572265625,-145.3360137939453,-59.53000259399414,130.15000915527344
1787814514668375000,2.228375,-145.7530059814453,-59.95700454711914,130.24900817871094
1787814514684435500,2.244435546875,-145.69500732421875,-58.25700378417969,129.14300537109375
1787814514700845300,2.26084521484375,-146.1850128173828,-60.60900115966797,129.52999877929688
1787814514716620500,2.27662060546875,-144.95899963378906,-57.72200393676758,129.14700317382812
1787814514732945700,2.292945556640625,-146.19100952148438,-58.99100112915039,130.2580108642578
1787814514749236200,2.309236328125,-144.94100952148438,-60.413002014160156,128.30799865722656
1787814514764785000,2.324784912109375,-146.54701232910156,-59.121002197265625,128.52500915527344
1787814514781204700,2.341204833984375,-146.45201110839844,-59.4530029296875,127.80900573730469
1787814514796986600,2.356986572265625,-147.36000061035156,-61.259002685546875,128.81300354003906
1787814514813293300,2.373293212890625,-145.3350067138672,-60.61000442504883,129.5290069580078
1787814514829169400,2.38916943359375,-146.0550079345703,-61.78400421142578,129.82501220703125
1787814514845199600,2.40519970703125,-146.08399963378906,-61.044002532958984,129.0170135498047
1787814514861597200,2.42159716796875,-145.35301208496094,-60.83700180053711,128.61000061035156
1787814514877503200,2.437503173828125,-143.41900634765625,-61.474002838134766,129.21400451660156
1787814514893695700,2.45369580078125,-145.26600646972656,-59.87600326538086,128.31300354003906
1787814514909473500,2.4694736328125,-145.34300231933594,-61.04700469970703,128.91400146484375
1787814514925497600,2.48549755859375,-146.51100158691406,-60.07200241088867,129.5360107421875
1787814514942048800,2.502048828125,-144.19700622558594,-61.60200119018555,127.5840072631836
1787814514957723000,2.517722900390625,-144.26499938964844,-61.03900146484375,129.62600708007812
1787814514974062600,2.5340625,-145.32000732421875,-62.54600143432617,129.0030059814453
1787814514989894700,2.549894775390625,-145.32901000976562,-61.68700408935547,129.11199951171875
1787814515006536200,2.5665361328125,-145.20401000976562,-61.78400421142578,129.92601013183594
1787814515022487300,2.5824873046875,-146.50601196289062,-61.906002044677734,128.60301208496094
1787814515038132200,2.59813232421875,-144.90200805664062,-61.5780029296875,129.31600952148438
1787814515054926000,2.614926025390625,-143.9560089111328,-61.478004455566406,128.9090118408203
1787814515070322400,2.630322509765625,-144.6890106201172,-61.25400161743164,129.52301025390625
1787814515086531800,2.64653173828125,-145.22601318359375,-60.82400131225586,129.52700805664062
1787814515102794000,2.6627939453125,-143.8330078125,-63.19700241088867,128.5880126953125
1787814515118599000,2.678598876953125,-145.4080047607422,-61.346004486083984,130.54200744628906
1787814515134971000,2.694970947265625,-145.22401428222656,-61.79600143432617,129.00900268554688
1787814515150815000,2.71081494140625,-142.34901428222656,-63.20000457763672,128.4840087890625
1787814515166883600,2.726883544921875,-142.35800170898438,-60.936004638671875,129.52301025390625
1787814515183300900,2.74330078125,-146.70401000976562,-61.57400131225586,129.42100524902344
1787814515199099100,2.75909912109375,-146.2880096435547,-62.660003662109375,128.3920135498047
1787814515215475200,2.77547509765625,-145.1110076904297,-61.46800231933594,129.52101135253906
1787814515231476500,2.7914765625,-145.97500610351562,-61.583003997802734,128.80799865722656
1787814515247404000,2.807404052734375,-144.7830047607422,-61.78700256347656,129.7220001220703
1787814515263821800,2.82382177734375,-145.3400115966797,-60.721004486083984,129.22300720214844
1787814515279609900,2.83960986328125,-144.0640106201172,-61.37000274658203,128.91000366210938
1787814515295911400,2.855911376953125,-144.57701110839844,-62.656002044677734,128.8990020751953
1787814515312235500,2.872235595703125,-145.4610137939453,-61.811004638671875,127.88900756835938
1787814515327832800,2.887832763671875,-146.40501403808594,-62.342002868652344,128.08900451660156
1787814515344256000,2.904256103515625,-146.0900115966797,-61.5880012512207,128.4010009765625
1787814515360046600,2.920046630859375,-146.1820068359375,-62.12000274658203,128.70201110839844
1787814515376361000,2.93636083984375,-146.29800415039062,-62.23400115966797,128.19200134277344
1787814515392322800,2.95232275390625,-146.60101318359375,-62.33200454711914,128.80300903320312
1787814515408279600,2.968279541015625,-146.27200317382812,-62.00200271606445,129.51800537109375
1787814515424693500,2.984693603515625,-145.85501098632812,-63.0880012512207,128.489013671875
1787814515440523500,3.0005234375,-145.99501037597656,-61.595001220703125,127.89200592041016
1787814515456876800,3.016876708984375,-146.30300903320312,-62.561004638671875,127.7820053100586
1787814515472653600,3.032653564453125,-147.260009765625,-61.26400375366211,128.5070037841797
1787814515488701200,3.048701171875,-146.72000122070312,-61.79900360107422,128.60400390625
1787814515505122000,3.0651220703125,-147.98001098632812,-61.1400032043457,129.6300048828125
1787814515520878000,3.080878173828125,-145.97500610351562,-61.259002685546875,129.01499938964844
1787814515537316900,3.09731689453125,-146.08700561523438,-61.803001403808594,128.3990020751953
1787814515553056000,3.113055908203125,-145.7840118408203,-61.704002380371094,127.78800964355469
1787814515569599200,3.12959912109375,-146.98699951171875,-60.75100326538086,126.7800064086914
1787814515585569000,3.145569091796875,-147.989013671875,-62.118003845214844,128.60301208496094
1787814515601316000,3.161316162109375,-147.1850128173828,-61.49900436401367,126.97700500488281
1787814515618048800,3.178048828125,-146.84300231933594,-62.35000228881836,127.47900390625
1787814515641934800,3.201934814453125,-146.45700073242188,-61.185001373291016,126.47000885009766
1787814515658276600,3.218276611328125,-148.89801025390625,-62.801002502441406,125.54200744628906
1787814515674075100,3.2340751953125,-147.37901306152344,-62.46000289916992,127.17300415039062
1787814515690183200,3.25018310546875,-147.3050079345703,-60.64200210571289,126.88300323486328
1787814515706583800,3.266583740234375,-149.239013671875,-61.302001953125,125.4530029296875
1787814515722891300,3.282891357421875,-147.4840087890625,-61.27000427246094,127.99800872802734
1787814515738784300,3.2987841796875,-147.41500854492188,-60.53600311279297,126.7820053100586
1787814515754533400,3.314533447265625,-149.6490020751953,-60.211002349853516,126.78800964355469
1787814515771162400,3.331162353515625,-149.3470001220703,-60.54600143432617,125.86800384521484
1787814515787054300,3.347054443359375,-148.0590057373047,-60.215003967285156,126.68400573730469
1787814515802908700,3.36290869140625,-148.239013671875,-60.08700180053711,128.2130126953125
1787814515819198700,3.37919873046875,-147.0570068359375,-61.59400177001953,127.89300537109375
1787814515835031300,3.39503125,-148.37600708007812,-61.83500289916992,125.75300598144531
1787814515851054300,3.411054443359375,-148.4610137939453,-59.87700271606445,127.91000366210938
1787814515867445500,3.427445556640625,-146.59600830078125,-60.66400146484375,125.35400390625
1787814515883170600,3.443170654296875,-146.88900756835938,-61.513004302978516,125.9580078125
1787814515899555000,3.45955517578125,-149.6610107421875,-61.5150032043457,125.4520034790039
1787814515915420400,3.47542041015625,-149.09100341796875,-60.73600387573242,127.69900512695312
1787814515931492600,3.49149267578125,-148.6750030517578,-60.09300231933594,127.7040023803711
1787814515947934000,3.507933837890625,-146.7840118408203,-60.75700378417969,126.37200927734375
1787814515963649800,3.52364990234375,-150.63400268554688,-58.93100357055664,126.29100799560547
1787814515980108300,3.5401083984375,-147.302001953125,-60.208003997802734,127.29400634765625
1787814515995858200,3.555858154296875,-146.99600219726562,-60.75700378417969,126.37200927734375
1787814516011924200,3.57192431640625,-148.2760009765625,-59.893001556396484,126.68700408935547
1787814516028828700,3.58882861328125,-148.07301330566406,-60.548004150390625,125.86600494384766
1787814516044132600,3.604132568359375,-147.17401123046875,-60.952003479003906,127.79700469970703
1787814516060487400,3.6204873046875,-147.1090087890625,-60.65200424194336,126.17000579833984
1787814516076285400,3.636285400390625,-147.75100708007812,-61.08700180053711,125.6570053100586
1787814516092374500,3.65237451171875,-147.61300659179688,-61.608001708984375,126.77300262451172
1787814516108810000,3.66881005859375,-143.62100219726562,-60.776004791259766,125.34900665283203
1787814516124596700,3.6845966796875,-147.37600708007812,-61.37700271606445,127.99700927734375
1787814516140962600,3.700962646484375,-144.7860107421875,-60.66400146484375,125.55500793457031
1787814516157119000,3.717118896484375,-146.14100646972656,-61.836002349853516,125.9540023803711
1787814516172875500,3.73287548828125,-144.43600463867188,-61.618003845214844,126.36100769042969
1787814516189345000,3.749344970703125,-145.87600708007812,-59.923004150390625,124.74800872802734
1787814516205123300,3.765123291015625,-145.41600036621094,-60.01100158691406,126.27500915527344
1787814516221540600,3.78154052734375,-144.37600708007812,-60.13300323486328,125.2540054321289
1787814516237376000,3.7973759765625,-143.81300354003906,-61.41200256347656,125.8530044555664
1787814516253354200,3.813354248046875,-144.47100830078125,-60.88300323486328,125.24700927734375
1787814516269778400,3.8297783203125,-144.1630096435547,-61.971004486083984,124.11700439453125
1787814516286017000,3.84601708984375,-144.13800048828125,-61.631004333496094,125.44400787353516
1787814516301952300,3.8619521484375,-144.99600219726562,-61.52700424194336,125.14000701904297
1787814516317765000,3.87776513671875,-144.27000427246094,-60.566001892089844,124.94400787353516
1787814516334281700,3.89428173828125,-145.8470001220703,-61.09400177001953,125.34900665283203
1787814516350368000,3.910367919921875,-142.885009765625,-60.8900032043457,124.94000244140625
1787814516366020900,3.926020751953125,-145.16799926757812,-60.37800216674805,122.91000366210938
1787814516382427600,3.942427734375,-144.91600036621094,-61.435001373291016,124.02100372314453
1787814516398228700,3.958228759765625,-142.73699951171875,-58.76700210571289,123.43000793457031
1787814516414301000,3.974301025390625,-142.2580108642578,-61.005001068115234,124.42900848388672
1787814516430727700,3.990727783203125,-144.81300354003906,-60.57200241088867,124.43600463867188
1787814516446539000,4.0065390625,-142.58900451660156,-60.147003173828125,124.43700408935547
1787814516462906400,4.02290625,-143.14300537109375,-59.40400314331055,123.8330078125
1787814516478735000,4.038735107421875,-142.68800354003906,-59.17000198364258,125.36200714111328
1787814516494799000,4.054799072265625,-143.35000610351562,-58.86000442504883,124.44900512695312
1787814516511258600,4.071258544921875,-143.35301208496094,-59.294002532958984,124.03800964355469
1787814516526993700,4.08699365234375,-142.82200622558594,-59.61900329589844,123.83000946044922
1787814516543385900,4.1033857421875,-143.26300048828125,-59.41200256347656,123.22100830078125
1787814516559186200,4.119186279296875,-142.51600646972656,-59.84300231933594,123.11500549316406
1787814516575180800,4.135180908203125,-140.9340057373047,-59.74400329589844,122.70600891113281
1787814516592078600,4.15207861328125,-141.13400268554688,-60.27700424194336,122.906005859375
1787814516607335700,4.167335693359375,-142.11000061035156,-60.17900466918945,122.09300231933594
1787814516623757300,4.18375732421875,-143.39500427246094,-59.211002349853516,122.20500946044922
1787814516639579100,4.1995791015625,-141.69900512695312,-58.35100173950195,122.61800384521484
1787814516655681800,4.215681884765625,-141.26901245117188,-59.862003326416016,121.89100646972656
1787814516672128300,4.232128173828125,-142.67100524902344,-58.46800231933594,121.80300903320312
1787814516687903700,4.24790380859375,-142.24600219726562,-58.36000442504883,121.9050064086914
1787814516704316000,4.26431591796875,-142.28700256347656,-57.84400177001953,120.38200378417969
1787814516720156400,4.280156494140625,-142.64401245117188,-58.7760009765625,122.81900787353516
1787814516736208000,4.296207763671875,-142.69700622558594,-57.9430046081543,120.99300384521484
1787814516752599800,4.312599853515625,-142.3560028076172,-58.038002014160156,121.90800476074219
1787814516768367900,4.328367919921875,-140.8660125732422,-59.11900329589844,121.38700866699219
1787814516784737800,4.34473779296875,-141.52700805664062,-58.70000457763672,120.5770034790039
1787814516800604400,4.3606044921875,-141.50201416015625,-57.71200180053711,122.31700897216797
1787814516816645000,4.37664501953125,-144.7220001220703,-56.53900146484375,121.51700592041016
1787814516833056000,4.393055908203125,-142.0780029296875,-57.7390022277832,120.281005859375
1787814516849273600,4.409273681640625,-143.4040069580078,-56.73100280761719,123.34700775146484
1787814516865188000,4.42518798828125,-142.62400817871094,-56.342002868652344,120.49700927734375
1787814516881002000,4.441001953125,-143.86000061035156,-58.262001037597656,120.99100494384766
1787814516897528300,4.4575283203125,-142.78001403808594,-57.92900085449219,122.01200866699219
1787814516913512200,4.47351220703125,-141.6370086669922,-57.62200164794922,121.09600830078125
1787814516929311000,4.48931103515625,-142.9300079345703,-57.09100341796875,120.59300231933594
1787814516945643500,4.5056435546875,-142.33700561523438,-60.08000183105469,121.4830093383789
1787814516961432000,4.52143212890625,-143.00201416015625,-58.25800323486328,121.39800262451172
1787814516977500700,4.537500732421875,-142.04100036621094,-58.14900207519531,121.7030029296875
1787814516993981200,4.553981201171875,-142.49000549316406,-59.35100173950195,119.8590087890625
1787814517009734700,4.569734619140625,-142.135009765625,-59.006004333496094,121.69600677490234
1787814517026122500,4.58612255859375,-143.4250030517578,-57.82500457763672,121.7080078125
1787814517041906200,4.60190625,-145.031005859375,-57.39800262451172,121.40800476074219
1787814517057966600,4.617966552734375,-144.2840118408203,-57.505001068115234,121.50800323486328
1787814517074419500,4.63441943359375,-146.07200622558594,-57.92400360107422,122.01600646972656
1787814517090206200,4.650206298828125,-144.9080047607422,-58.79300308227539,121.29400634765625
1787814517106696000,4.666696044921875,-143.41200256347656,-58.465003967285156,121.906005859375
1787814517122377200,4.682377197265625,-144.60400390625,-57.397003173828125,121.50900268554688
1787814517138446300,4.6984462890625,-144.86900329589844,-58.98500442504883,122.92200469970703
1787814517155326700,4.71532666015625,-142.69700622558594,-57.079002380371094,121.51000213623047
1787814517170588000,4.730587890625,-146.13400268554688,-58.11300277709961,123.84800720214844
1787814517186947600,4.746947509765625,-146.59100341796875,-58.45600128173828,122.21500396728516
1787814517202773000,4.76277294921875,-144.635009765625,-55.14600372314453,121.52900695800781
1787814517218832600,4.77883251953125,-147.01901245117188,-57.053001403808594,122.94100952148438
1787814517235249700,4.795249755859375,-145.77301025390625,-57.8280029296875,121.20100402832031
1787814517250956000,4.8109560546875,-145.33700561523438,-55.98500442504883,122.84700775146484
1787814517267352000,4.82735205078125,-147.0290069580078,-55.978004455566406,123.1550064086914
1787814517283174400,4.84317431640625,-145.3040008544922,-56.397003173828125,124.06600952148438
1787814517299233000,4.85923291015625,-145.18600463867188,-57.255001068115234,124.0580062866211
1787814517315670300,4.875670166015625,-144.96200561523438,-57.1400032043457,124.67000579833984
1787814517331408600,4.89140869140625,-142.51400756835938,-56.708003997802734,125.18000793457031
1787814517347820300,4.9078203125,-144.32701110839844,-57.14200210571289,124.56700897216797
1787814517363628800,4.92362890625,-143.40200805664062,-55.10900115966797,124.48200225830078
1787814517379677400,4.939677490234375,-143.61801147460938,-55.97500228881836,123.76200866699219
1787814517396109800,4.95610986328125,-144.94900512695312,-55.94300079345703,126.0050048828125
1787814517412320300,4.9723203125,-141.97300720214844,-57.243003845214844,125.27600860595703
1787814517428258300,4.98825830078125,-143.75,-56.03400421142578,127.3270034790039
1787814517444134100,5.004134033203125,-143.57000732421875,-56.81100082397461,125.38400268554688
1787814517460718300,5.02071826171875,-144.24900817871094,-57.96000289916992,127.51400756835938
1787814517476667100,5.036667236328125,-143.3800048828125,-55.52800369262695,125.19100952148438
1787814517492403700,5.05240380859375,-141.64801025390625,-55.94300079345703,126.40800476074219
1787814517508795600,5.068795654296875,-144.20700073242188,-55.83700180053711,126.0050048828125
1787814517524519200,5.084519287109375,-143.0830078125,-56.9900016784668,128.02999877929688
1787814517540592000,5.100592041015625,-143.2100067138672,-55.381004333496094,128.14700317382812
1787814517557054500,5.117054443359375,-140.88400268554688,-55.93100357055664,127.32400512695312
1787814517572817700,5.132817626953125,-141.3920135498047,-56.781002044677734,127.82600402832031
1787814517589231600,5.149231689453125,-142.41799926757812,-55.56900405883789,130.18099975585938
1787814517605030000,5.16502978515625,-140.1070098876953,-57.10100173950195,128.1269989013672
1787814517621063700,5.181063720703125,-141.44700622558594,-57.50700378417969,129.6540069580078
1787814517637532700,5.19753271484375,-139.67401123046875,-57.204002380371094,128.4320068359375
1787814517653317400,5.2133173828125,-141.60400390625,-57.105003356933594,127.62000274658203
1787814517669708500,5.22970849609375,-138.49200439453125,-57.84700393676758,128.6280059814453
1787814517685509400,5.24550927734375,-139.84500122070312,-56.531002044677734,130.6790008544922
1787814517701559800,5.261559814453125,-139.64100646972656,-57.4010009765625,129.75401306152344
1787814517718429700,5.2784296875,-140.2880096435547,-57.8380012512207,129.0380096435547
1787814517733706000,5.2937060546875,-140.92300415039062,-57.836002349853516,129.14100646972656
1787814517750115600,5.310115478515625,-141.54100036621094,-57.715003967285156,130.0590057373047
1787814517766393000,5.32639306640625,-139.77200317382812,-56.11900329589844,129.4600067138672
1787814517782047500,5.342047607421875,-140.26300048828125,-57.715003967285156,130.26100158691406
1787814517798451000,5.358450927734375,-140.4770050048828,-59.228004455566406,129.23001098632812
1787814517814216000,5.3742158203125,-138.79400634765625,-57.728004455566406,129.44500732421875
1787814517830594000,5.390593994140625,-140.69200134277344,-57.39200210571289,130.26499938964844
1787814517846450000,5.406449951171875,-138.97900390625,-58.900001525878906,129.94400024414062
1787814517862499000,5.4224990234375,-137.28201293945312,-58.255001068115234,130.2530059814453
1787814517878951700,5.43895166015625,-137.07501220703125,-59.0150032043457,129.5330047607422
1787814517894712600,5.454712646484375,-138.5600128173828,-56.95900344848633,130.8769989013672
1787814517911092000,5.471092041015625,-139.41500854492188,-57.93300247192383,130.0550079345703
1787814517926877700,5.486877685546875,-138.96800231933594,-58.353004455566406,130.76400756835938
1787814517942960600,5.502960693359375,-139.3209991455078,-57.833003997802734,129.54600524902344
1787814517959434000,5.51943408203125,-140.04400634765625,-58.14400100708008,130.2570037841797
1787814517975638300,5.53563818359375,-139.8380126953125,-58.68800354003906,129.64100646972656
1787814517991642000,5.55164208984375,-139.82901000976562,-59.00700378417969,129.84201049804688
1787814518007416300,5.567416259765625,-142.7840118408203,-58.6670036315918,130.86700439453125
1787814518023947000,5.583947021484375,-140.8730010986328,-57.48100280761719,131.58900451660156
1787814518039942100,5.599942138671875,-140.58399963378906,-58.14800262451172,129.85101318359375
1787814518055754200,5.615754150390625,-141.20001220703125,-57.702003479003906,131.0780029296875
1787814518072129800,5.6321298828125,-143.9530029296875,-58.125003814697266,131.1790008544922
1787814518088029000,5.64802880859375,-141.82400512695312,-58.6660041809082,131.07000732421875
1787814518104061700,5.664061767578125,-140.69500732421875,-58.47500228881836,129.44000244140625
1787814518120424200,5.680424072265625,-144.8360137939453,-56.84700393676758,130.47900390625
1787814518136220400,5.696220458984375,-142.7779998779297,-58.44700241088867,131.27700805664062
1787814518152588800,5.7125888671875,-141.8520050048828,-57.49400329589844,130.5709991455078
1787814518168431400,5.728431396484375,-141.75,-56.20000076293945,131.19400024414062
1787814518184478500,5.744478515625,-142.18301391601562,-57.393001556396484,130.06300354003906
1787814518200888300,5.760888427734375,-143.89100646972656,-56.423004150390625,130.27700805664062
1787814518216665300,5.776665283203125,-143.26300048828125,-56.21400451660156,129.97300720214844
1787814518233095400,5.793095458984375,-142.4910125732422,-56.30600357055664,131.19400024414062
1787814518249020400,5.8090205078125,-143.84400939941406,-57.47500228881836,131.69400024414062
1787814518264923600,5.824923583984375,-142.81300354003906,-54.90200424194336,131.91900634765625
1787814518281792300,5.841792236328125,-143.8350067138672,-57.14600372314453,132.30799865722656
1787814518297052200,5.85705224609375,-143.53900146484375,-57.160003662109375,131.28900146484375
1787814518313432600,5.8734326171875,-144.90501403808594,-56.717002868652344,132.21200561523438
1787814518329745200,5.8897451171875,-143.20201110839844,-56.82500457763672,132.3100128173828
1787814518345360400,5.9053603515625,-143.1020050048828,-57.04500198364258,131.9010009765625
1787814518361786000,5.9217861328125,-142.91200256347656,-55.762001037597656,131.7080078125
1787814518377515500,5.937515625,-144.44700622558594,-57.02100372314453,133.5330047607422
1787814518393904600,5.953904541015625,-144.2830047607422,-55.970001220703125,132.01400756835938
1787814518409706500,5.96970654296875,-143.8260040283203,-57.1400032043457,132.71600341796875
1787814518425792300,5.985792236328125,-145.34600830078125,-56.51000213623047,131.60301208496094
1787814518442236200,6.002236083984375,-144.49400329589844,-56.077003479003906,132.01300048828125
1787814518457999600,6.01799951171875,-144.51499938964844,-54.9010009765625,131.82000732421875
1787814518474296300,6.03429638671875,-142.89601135253906,-56.077003479003906,132.2150115966797
1787814518490142700,6.050142822265625,-143.60301208496094,-56.26900100708008,133.74200439453125
1787814518506273000,6.06627294921875,-145.24501037597656,-54.676002502441406,132.5360107421875
1787814518522721000,6.082720947265625,-145.14801025390625,-55.006004333496094,131.92100524902344
1787814518538596900,6.098596923828125,-146.43301391601562,-54.038002014160156,132.0340118408203
1787814518554900200,6.114900146484375,-145.0279998779297,-54.673004150390625,132.739013671875
1787814518571169000,6.1311689453125,-144.23800659179688,-53.198001861572266,131.01901245117188
1787814518587235800,6.14723583984375,-145.36199951171875,-53.71000289916992,132.64601135253906
1787814518603192300,6.1631923828125,-143.97500610351562,-54.57200241088867,132.43301391601562
1787814518618986200,6.178986328125,-144.8400115966797,-53.39200210571289,132.44500732421875
1787814518635366000,6.195365966796875,-145.17001342773438,-52.42500305175781,132.5550079345703
1787814518651211800,6.211211669921875,-143.86300659179688,-53.48800277709961,133.3590087890625
1787814518667253200,6.227253173828125,-144.61900329589844,-54.35900115966797,132.2320098876953
1787814518683687000,6.24368701171875,-145.35400390625,-55.32500076293945,132.02101135253906
1787814518699435500,6.259435546875,-142.88900756835938,-55.6400032043457,132.8300018310547
1787814518715814000,6.27581396484375,-144.36900329589844,-54.445003509521484,133.8610076904297
1787814518731651300,6.2916513671875,-144.82101440429688,-53.16400146484375,133.4650115966797
1787814518747758600,6.307758544921875,-146.0030059814453,-51.98200225830078,133.57901000976562
1787814518764157700,6.32415771484375,-144.375,-54.9890022277832,133.24501037597656
1787814518779901200,6.339901123046875,-143.74000549316406,-54.34300231933594,133.5550079345703
1787814518796235300,6.3562353515625,-140.4560089111328,-54.13600158691406,133.3489990234375
1787814518812108800,6.37210888671875,-141.51300048828125,-54.34800338745117,133.4510040283203
1787814518828118000,6.388117919921875,-143.1790008544922,-55.19000244140625,134.36199951171875
1787814518845002500,6.40500244140625,-140.531005859375,-55.090003967285156,134.156005859375
1787814518860306200,6.42030615234375,-140.5050048828125,-56.15500259399414,134.656005859375
1787814518876684300,6.436684326171875,-140.2779998779297,-56.038002014160156,135.37001037597656
1787814518892965000,6.452965087890625,-140.19400024414062,-55.08000183105469,134.97100830078125
1787814518908534500,6.468534423828125,-140.5080108642578,-55.61600112915039,134.864013671875
1787814518924996000,6.48499609375,-139.97500610351562,-55.07600402832031,135.2760009765625
1787814518940768500,6.5007685546875,-137.53500366210938,-55.72900390625,134.7580108642578
1787814518957162200,6.517162353515625,-139.1330108642578,-56.05400085449219,134.3489990234375
1787814518972936000,6.53293603515625,-139.3070068359375,-56.67900085449219,135.66799926757812
1787814518989066000,6.54906591796875,-139.85101318359375,-55.7130012512207,135.67800903320312
1787814519005508000,6.565508056640625,-137.885009765625,-59.03300094604492,136.05300903320312
1787814519021252400,6.58125244140625,-137.7340087890625,-57.55800247192383,134.2320098876953
1787814519037673000,6.5976728515625,-138.9029998779297,-57.125003814697266,134.44200134277344
1787814519053498400,6.613498291015625,-136.49501037597656,-55.31200408935547,134.04701232910156
1787814519069521700,6.629521728515625,-137.6850128173828,-57.096004486083984,136.68099975585938
1787814519085996300,6.645996337890625,-136.5780029296875,-57.13500213623047,133.9290008544922
1787814519101760800,6.6617607421875,-136.87901306152344,-57.448001861572266,134.5380096435547
1787814519118096100,6.67809619140625,-137.0550079345703,-57.10200119018555,136.375
1787814519133913600,6.69391357421875,-135.59400939941406,-57.22700119018555,135.1490020751953
1787814519150487300,6.7104873046875,-136.79200744628906,-57.89200210571289,133.4130096435547
1787814519166414300,6.726414306640625,-136.53900146484375,-58.19200134277344,135.04000854492188
1787814519182252800,6.742252685546875,-136.99900817871094,-57.13200378417969,134.1330108642578
1787814519198616800,6.758616943359375,-136.77500915527344,-57.125003814697266,134.64300537109375
1787814519214451500,6.774451416015625,-136.13900756835938,-57.55900192260742,134.33200073242188
1787814519230546400,6.79054638671875,-136.76800537109375,-58.41800308227539,134.12200927734375
1787814519246965200,6.80696533203125,-137.16799926757812,-57.970001220703125,135.552001953125
1787814519262722300,6.822722412109375,-137.22100830078125,-57.24500274658203,133.6230010986328
1787814519279108400,6.8391083984375,-136.6790008544922,-57.888004302978516,133.71900939941406
1787814519294929400,6.854929443359375,-138.01300048828125,-59.58700180053711,134.7239990234375
1787814519311010600,6.871010498046875,-137.2030029296875,-57.55900192260742,134.2320098876953
1787814519327423000,6.887423095703125,-139.0240020751953,-57.566001892089844,133.52101135253906
1787814519343210000,6.9032099609375,-137.19100952148438,-58.092002868652344,134.43099975585938
1787814519359676400,6.919676513671875,-137.8610076904297,-58.00300216674805,133.00601196289062
1787814519375373800,6.935373779296875,-140.1070098876953,-58.009002685546875,132.29600524902344
1787814519391461400,6.95146142578125,-138.3830108642578,-57.34800338745117,133.8280029296875
1787814519408367900,6.968367919921875,-138.91400146484375,-58.64400100708008,133.0019989013672
1787814519423525600,6.983525634765625,-140.51100158691406,-57.996002197265625,133.2130126953125
1787814519439918600,6.999918701171875,-139.47000122070312,-57.470001220703125,132.6060028076172
1787814519456211500,7.01621142578125,-137.98001098632812,-57.90200424194336,132.4980010986328
1787814519471816700,7.031816650390625,-138.18800354003906,-57.89900207519531,132.70201110839844
1787814519488245000,7.048244873046875,-139.35400390625,-57.68000411987305,132.9090118408203
1787814519504196000,7.064196044921875,-140.84600830078125,-58.1140022277832,132.39801025390625
1787814519520455200,7.080455078125,-138.30101013183594,-56.715003967285156,133.12001037597656
1787814519536260900,7.0962607421875,-141.9340057373047,-56.39800262451172,132.31300354003906
1787814519552275200,7.112275146484375,-141.07301330566406,-57.25700378417969,132.3040008544922
1787814519568763400,7.128763427734375,-141.74501037597656,-56.845001220703125,130.9840087890625
1787814519584477000,7.144476806640625,-143.4550018310547,-56.20100402832031,130.88999938964844
1787814519600857900,7.16085791015625,-141.85101318359375,-55.87200164794922,131.60400390625
1787814519616664000,7.1766640625,-140.33900451660156,-56.07500076293945,132.61900329589844
1787814519632702000,7.192701904296875,-140.67001342773438,-55.32600402832031,132.5240020751953
1787814519649153800,7.20915380859375,-141.5,-56.39400100708008,132.72000122070312
1787814519664859400,7.224859375,-139.29100036621094,-55.87000274658203,132.11000061035156
1787814519681243100,7.2412431640625,-142.00201416015625,-56.051002502441406,134.25100708007812
1787814519697067300,7.2570673828125,-141.9350128173828,-54.346004486083984,133.55300903320312
1787814519713560800,7.273560791015625,-140.0590057373047,-54.802001953125,131.7130126953125
1787814519729529600,7.289529541015625,-142.6850128173828,-54.88900375366211,132.93800354003906
1787814519745390300,7.305390380859375,-142.81800842285156,-54.90500259399414,131.71600341796875
1787814519761652500,7.321652587890625,-144.27301025390625,-55.85600280761719,132.5240020751953
1787814519777425200,7.337425048828125,-142.72500610351562,-54.2650032043457,131.5170135498047
1787814519793524700,7.353524658203125,-142.82501220703125,-54.58500289916992,131.61700439453125
1787814519809944300,7.3699443359375,-142.5,-53.717002868652344,132.4390106201172
1787814519825692400,7.3856923828125,-143.12400817871094,-55.005001068115234,132.22500610351562
1787814519842083800,7.402083740234375,-142.94000244140625,-53.61700439453125,131.82901000976562
1787814519857895700,7.417895751953125,-143.16600036621094,-53.08500289916992,131.5279998779297
1787814519873975600,7.4339755859375,-143.125,-53.92500305175781,132.84500122070312
1787814519890419500,7.45041943359375,-143.35301208496094,-54.25800323486328,131.92601013183594
1787814519906238000,7.466238037109375,-143.26300048828125,-53.728004455566406,131.52301025390625
1787814519922639000,7.48263916015625,-141.58399963378906,-52.013004302978516,131.74000549316406
1787814519938454800,7.498454833984375,-144.75601196289062,-53.621002197265625,131.32200622558594
1787814519954562300,7.514562255859375,-143.03201293945312,-53.285003662109375,132.64700317382812
1787814519971465700,7.5314658203125,-142.3280029296875,-54.066001892089844,130.39801025390625
1787814519986773200,7.546773193359375,-144.3380126953125,-52.11300277709961,131.9459991455078
1787814520003095000,7.563094970703125,-145.9580078125,-52.01900100708008,130.8280029296875
1787814520019391000,7.579390869140625,-144.7740020751953,-52.01100158691406,131.54000854492188
1787814520034954800,7.594954833984375,-144.09901428222656,-54.583003997802734,131.61801147460938
1787814520051439000,7.611439208984375,-144.29800415039062,-54.68300247192383,132.1269989013672
1787814520067160000,7.62716015625,-141.4610137939453,-53.84100341796875,131.31600952148438
1787814520083532000,7.643531982421875,-143.864013671875,-55.21800231933594,132.2239990234375
1787814520099392300,7.659392333984375,-143.3360137939453,-54.68000411987305,132.43099975585938
1787814520115447000,7.675447021484375,-141.7480010986328,-54.14500427246094,132.5360107421875
1787814520131861800,7.69186181640625,-142.57701110839844,-54.996002197265625,132.93701171875
1787814520147635200,7.70763525390625,-143.03500366210938,-53.935001373291016,132.1320037841797
1787814520164032800,7.72403271484375,-140.4840087890625,-53.93700408935547,132.2310028076172
1787814520179840000,7.739840087890625,-139.68600463867188,-55.09400177001953,133.9510040283203
1787814520195870000,7.755869873046875,-140.1330108642578,-56.29600143432617,132.20899963378906
1787814520212307700,7.7723076171875,-141.92401123046875,-56.93300247192383,132.41000366210938
1787814520228131800,7.7881318359375,-139.50100708007812,-54.89500427246094,132.83200073242188
1787814520244433000,7.804432861328125,-140.64801025390625,-56.93400192260742,132.510009765625
1787814520260295700,7.820295654296875,-139.99400329589844,-56.81700134277344,133.32501220703125
1787814520276804600,7.8368046875,-139.0760040283203,-57.381004333496094,131.28201293945312
1787814520292757800,7.8527578125,-137.78900146484375,-57.48400115966797,131.7880096435547
1787814520308590300,7.86859033203125,-136.91900634765625,-58.33700180053711,132.18701171875
1787814520324975600,7.8849755859375,-136.90200805664062,-58.21900177001953,133.0030059814453
1787814520340734200,7.900734130859375,-135.57701110839844,-57.3900032043457,131.07301330566406
1787814520356827100,7.9168271484375,-136.0550079345703,-58.43700408935547,132.79600524902344
1787814520373132000,7.933132080078125,-135.9340057373047,-58.64500427246094,133.3040008544922
1787814520388919300,7.948919189453125,-135.30599975585938,-57.35400390625,133.7220001220703
1787814520405358800,7.96535888671875,-135.74600219726562,-57.68700408935547,132.80300903320312
1787814520421164500,7.98116455078125,-136.08700561523438,-58.24100112915039,131.4739990234375
1787814520437223700,7.9972236328125,-134.67401123046875,-59.73600387573242,131.96800231933594
1787814520453725700,8.0137255859375,-134.781005859375,-58.87200164794922,132.48500061035156
1787814520469464300,8.02946435546875,-136.39500427246094,-58.6660041809082,131.67401123046875
1787814520485903600,8.045903564453125,-135.3330078125,-59.53200149536133,131.156005859375
1787814520501731000,8.06173095703125,-136.57301330566406,-60.15800476074219,132.27301025390625
1787814520517760000,8.077760009765624,-136.39100646972656,-59.42000198364258,131.36199951171875
1787814520534645800,8.094645751953125,-134.44700622558594,-60.70000457763672,132.06100463867188
1787814520549931300,8.10993115234375,-133.83700561523438,-60.50200271606445,130.94200134277344
1787814520566295000,8.126294921875,-136.04701232910156,-59.62200164794922,132.37901306152344
1787814520582554600,8.1425546875,-135.11801147460938,-58.88200378417969,131.67100524902344
1787814520598133000,8.158133056640626,-135.65000915527344,-60.28700256347656,130.74200439453125
1787814520614557000,8.174556884765625,-138.29400634765625,-59.73600387573242,131.56500244140625
1787814520630308600,8.19030859375,-135.01100158691406,-60.07100296020508,130.94700622558594
1787814520646789000,8.2067890625,-135.31800842285156,-59.7400016784668,131.6630096435547
1787814520662512600,8.2225126953125,-133.8330078125,-59.85000228881836,131.5590057373047
1787814520678575400,8.238575439453125,-134.8050079345703,-58.67000198364258,131.57000732421875
1787814520695042600,8.25504248046875,-136.07701110839844,-58.99100112915039,131.46701049804688
1787814520710797600,8.270797607421875,-136.7310028076172,-58.24400329589844,131.16900634765625
1787814520727242500,8.287242431640625,-135.44000244140625,-59.74900436401367,130.95001220703125
1787814520743016400,8.303016357421875,-136.3050079345703,-58.02700424194336,131.37400817871094
1787814520759053300,8.31905322265625,-135.76600646972656,-58.2400016784668,131.57501220703125
1787814520775508500,8.335508544921876,-136.6070098876953,-58.342002868652344,131.88101196289062
1787814520791272700,8.351272705078125,-137.4630126953125,-58.560001373291016,131.47300720214844
1787814520807691000,8.36769091796875,-135.75100708007812,-57.69000244140625,132.5989990234375
1787814520823504400,8.38350439453125,-136.18600463867188,-57.91200256347656,131.9860076904297
1787814520840093400,8.400093505859376,-137.3820037841797,-58.35900115966797,130.4560089111328
1787814520856298200,8.41629833984375,-134.7340087890625,-57.39500427246094,130.7670135498047
1787814520871739000,8.43173876953125,-136.4560089111328,-57.406002044677734,129.75
1787814520888268000,8.44826806640625,-137.906005859375,-58.246002197265625,130.86500549316406
1787814520903941400,8.46394140625,-136.63400268554688,-57.38500213623047,131.2779998779297
1787814520920084500,8.48008447265625,-135.9130096435547,-58.26400375366211,129.74200439453125
1787814520936451300,8.496451416015624,-136.625,-59.217002868652344,130.54901123046875
1787814520952212200,8.512212158203125,-137.72500610351562,-58.2650032043457,129.43800354003906
1787814520968613000,8.528613037109375,-135.5709991455078,-59.65500259399414,129.93299865722656
1787814520984443100,8.544443115234374,-138.03900146484375,-57.39800262451172,130.16000366210938
1787814521000497700,8.56049755859375,-136.25401306152344,-57.30500411987305,129.34300231933594
1787814521016871700,8.57687158203125,-139.4320068359375,-57.51100158691406,129.54901123046875
1787814521032632600,8.592632568359376,-138.13400268554688,-57.60700225830078,130.56500244140625
1787814521049007900,8.6090078125,-138.12901306152344,-58.577003479003906,130.1490020751953
1787814521064813300,8.624813232421875,-137.07400512695312,-58.583003997802734,129.84201049804688
1787814521080880400,8.64088037109375,-138.44900512695312,-58.36100387573242,130.2530059814453
1787814521097746000,8.657745849609375,-139.5640106201172,-57.419002532958984,128.4300079345703
1787814521113060400,8.673060302734376,-139.2030029296875,-57.71800231933594,130.1580047607422
1787814521129359600,8.689359619140625,-140.19400024414062,-57.630001068115234,128.6320037841797
1787814521145640200,8.70564013671875,-139.0030059814453,-57.833003997802734,129.54600524902344
1787814521161228000,8.72122802734375,-140.5360107421875,-55.91400146484375,128.64801025390625
1787814521177636000,8.737635986328126,-141.03900146484375,-56.97700119018555,129.25
1787814521193450500,8.753450439453125,-141.79200744628906,-57.41400146484375,128.5340118408203
1787814521209823200,8.7698232421875,-141.69900512695312,-55.801002502441406,128.9560089111328
1787814521225668400,8.78566845703125,-140.8570098876953,-55.915000915527344,128.54600524902344
1787814521241738500,8.801738525390626,-138.52101135253906,-54.406002044677734,129.4739990234375
1787814521258159900,8.818159912109374,-139.94801330566406,-56.637001037597656,130.77999877929688
1787814521273907500,8.833907470703124,-140.2550048828125,-54.208003997802734,128.05101013183594
1787814521290280200,8.8502802734375,-141.7830047607422,-56.220001220703125,129.66500854492188
1787814521306046500,8.86604638671875,-141.9650115966797,-53.2390022277832,128.16400146484375
1787814521338491000,8.898490966796874,-141.7030029296875,-55.047000885009766,129.26800537109375
1787814521361980000,8.92197998046875,-139.6110076904297,-55.178001403808594,127.73600769042969
1787814521378434300,8.938434326171874,-140.2030029296875,-55.474002838134766,129.56800842285156
1787814521394194200,8.954194091796875,-141.16600036621094,-54.93600082397461,129.57400512695312
1787814521410502100,8.970502197265626,-139.56201171875,-54.28300094604492,130.49501037597656
1787814521426331600,8.98633154296875,-140.16700744628906,-56.74900436401367,130.37200927734375
1787814521442479600,9.002479736328125,-139.906005859375,-54.73100280761719,129.06500244140625
1787814521458850800,9.018850830078126,-139.59800720214844,-54.19700241088867,128.96701049804688
1787814521474677200,9.03467724609375,-138.19000244140625,-55.15500259399414,129.56800842285156
1787814521490936000,9.05093603515625,-139.67601013183594,-56.233001708984375,128.95001220703125
1787814521507238700,9.06723876953125,-137.71800231933594,-56.10000228881836,131.08700561523438
1787814521522795800,9.082795654296875,-138.73699951171875,-54.191001892089844,129.47601318359375
1787814521539220200,9.09922021484375,-138.3140106201172,-54.733001708984375,129.06300354003906
1787814521555492900,9.115492919921875,-137.76300048828125,-55.695003509521484,129.3590087890625
1787814521571325000,9.131324951171875,-138.80300903320312,-55.46400451660156,130.48300170898438
1787814521587166000,9.147166015625,-137.53201293945312,-55.900001525878906,130.07000732421875
1787814521603235600,9.163235595703124,-137.3489990234375,-55.37800216674805,129.05599975585938
1787814521619660800,9.179660888671876,-136.04800415039062,-55.03900146484375,130.48300170898438
1787814521635471400,9.195471435546875,-138.83399963378906,-55.483001708984375,129.0570068359375
1787814521651795700,9.211795654296875,-139.4770050048828,-55.26900100708008,128.9580078125
1787814521667560400,9.227560546875,-137.5550079345703,-54.833003997802734,129.67201232910156
1787814521683582000,9.24358203125,-137.5709991455078,-55.70700454711914,128.44200134277344
1787814521700018200,9.26001806640625,-138.79701232910156,-55.56800079345703,130.68600463867188
1787814521715837000,9.2758369140625,-138.82501220703125,-55.69300079345703,129.3610076904297
1787814521732138500,9.292138427734375,-139.47100830078125,-54.833003997802734,129.47100830078125
1787814521748002000,9.308001953125,-137.31201171875,-56.76000213623047,129.8590087890625
1787814521764111000,9.324111083984375,-138.1160125732422,-54.5260009765625,128.5550079345703
1787814521780492500,9.340492431640625,-140.1090087890625,-55.58900451660156,128.9560089111328
1787814521796301000,9.356301025390625,-140.22100830078125,-55.70000076293945,128.6490020751953
1787814521813058000,9.37305810546875,-139.36700439453125,-55.483001708984375,128.9560089111328
1787814521828488000,9.388488037109376,-139.38101196289062,-54.303001403808594,129.06800842285156
1787814521844548600,9.404548583984376,-140.9650115966797,-55.592002868652344,128.6510009765625
1787814521861400600,9.421400634765625,-140.59600830078125,-54.22100067138672,127.03300476074219
1787814521876800300,9.43680029296875,-142.60501098632812,-54.2130012512207,127.44300842285156
1787814521893124900,9.453124755859376,-143.56300354003906,-55.185001373291016,126.72300720214844
1787814521908982300,9.468982177734375,-145.2760009765625,-54.00200271606445,126.83700561523438
1787814521925036000,9.4850361328125,-143.07101440429688,-53.37200164794922,126.12700653076172
1787814521941420000,9.501419921875,-144.24301147460938,-53.04900360107422,126.1310043334961
1787814521957168400,9.51716845703125,-146.70401000976562,-54.46200180053711,124.39000701904297
1787814521973478400,9.533478515625,-146.60000610351562,-53.70600128173828,124.80400848388672
1787814521989338000,9.549338134765625,-148.7530059814453,-53.505001068115234,123.58600616455078
1787814522005433300,9.565433349609375,-148.2340087890625,-53.621002197265625,122.97300720214844
1787814522021821400,9.581821533203126,-148.99700927734375,-52.22700119018555,122.98700714111328
1787814522037633500,9.597633544921875,-149.44200134277344,-52.23800277709961,122.07000732421875
1787814522053997300,9.613997314453124,-149.87001037597656,-52.996002197265625,121.4530029296875
1787814522070214100,9.630214111328126,-150.51100158691406,-52.349002838134766,121.66300201416016
1787814522085818600,9.645818603515625,-153.10800170898438,-52.15800094604492,119.6310043334961
1787814522102230800,9.662230712890626,-152.89500427246094,-52.69900131225586,119.32000732421875
1787814522118464800,9.67846484375,-151.42401123046875,-52.06200408935547,119.01800537109375
1787814522134334500,9.69433447265625,-151.66500854492188,-51.647003173828125,118.0040054321289
1787814522150228000,9.71022802734375,-154.3350067138672,-51.868003845214844,117.19000244140625
1787814522166218800,9.72621875,-155.5290069580078,-51.125003814697266,116.4850082397461
1787814522182668300,9.742668212890624,-154.9080047607422,-51.78400421142578,115.35800170898438
1787814522198429400,9.758429443359375,-154.8560028076172,-50.9530029296875,113.43000793457031
1787814522214787000,9.774787109375,-156.1280059814453,-50.625003814697266,113.74000549316406
1787814522238947800,9.79894775390625,-154.77500915527344,-50.64400100708008,112.51600646972656
1787814522255409400,9.815409423828125,-158.427001953125,-50.77100372314453,110.5840072631836
1787814522271500000,9.8315,-156.08200073242188,-51.742000579833984,110.36800384521484
1787814522287094000,9.847093994140625,-156.26100158691406,-51.246002197265625,107.41900634765625
1787814522303550700,9.86355078125,-156.7830047607422,-51.2400016784668,107.8270034790039
1787814522319298600,9.879298583984376,-157.62200927734375,-51.66400146484375,108.02800750732422
1787814522335721200,9.89572119140625,-159.59300231933594,-51.2660026550293,105.58900451660156
1787814522351504400,9.91150439453125,-158.7620086669922,-50.62900161743164,105.18600463867188
1787814522367537200,9.927537109375,-159.2080078125,-49.237003326416016,105.09700775146484
1787814522383960600,9.943960693359376,-160.0640106201172,-50.75200271606445,103.86300659179688
1787814522399739400,9.959739501953125,-158.3140106201172,-50.35600280761719,101.62300109863281
1787814522416152800,9.97615283203125,-159.26400756835938,-50.78400421142578,101.62000274658203
1787814522431926800,9.9919267578125,-158.22500610351562,-50.583003997802734,100.7040023803711
1787814522447935700,10.007935791015624,-158.1610107421875,-50.06800079345703,99.18000793457031
1787814522464346600,10.0243466796875,-158.47500610351562,-51.362003326416016,98.5580062866211
1787814522480106200,10.040106201171875,-159.22401428222656,-50.932003021240234,98.56300354003906
1787814522496539600,10.05653955078125,-157.34901428222656,-51.281002044677734,96.72400665283203
1787814522512277500,10.072277587890625,-158.260009765625,-51.685001373291016,98.4530029296875
1787814522528803300,10.08880322265625,-158.32901000976562,-50.97100067138672,95.81100463867188
1787814522544755000,10.1047548828125,-158.43800354003906,-50.10700225830078,96.22600555419922
1787814522560520200,10.120520263671875,-159.76100158691406,-49.37800216674805,94.50300598144531
1787814522576889900,10.136889892578125,-157.12001037597656,-48.742000579833984,94.3010025024414
1787814522592698000,10.152697998046875,-159.25401306152344,-48.637001037597656,93.89700317382812
1787814522608804400,10.168804443359376,-160.02500915527344,-48.65300369262695,92.6760025024414
1787814522625161000,10.185160888671875,-156.9250030517578,-50.15800094604492,92.65900421142578
1787814522640989000,10.200989013671874,-158.6790008544922,-49.75700378417969,90.42300415039062
1787814522657364500,10.217364501953124,-156.96400451660156,-50.6140022277832,90.61700439453125
1787814522673054500,10.233054443359375,-158.0080108642578,-50.27700424194336,91.64000701904297
1787814522689114400,10.2491142578125,-158.8470001220703,-49.83700180053711,92.35800170898438
1787814522705525000,10.26552490234375,-158.25100708007812,-49.86300277709961,90.52400207519531
1787814522721313800,10.281313720703125,-158.66000366210938,-49.204002380371094,91.6510009765625
1787814522737713400,10.29771337890625,-154.48300170898438,-48.06500244140625,89.21100616455078
1787814522753486800,10.31348681640625,-156.99301147460938,-49.65900421142578,89.91300201416016
1787814522769546200,10.329546142578126,-157.33700561523438,-49.458003997802734,88.89600372314453
1787814522786429700,10.3464296875,-159.3380126953125,-49.66100311279297,89.50800323486328
1787814522801675000,10.361675048828126,-159.94801330566406,-49.96800231933594,90.5250015258789
1787814522818084400,10.37808447265625,-158.5050048828125,-48.807003021240234,89.31100463867188
1787814522834351900,10.394351806640625,-157.40701293945312,-49.97600173950195,90.21600341796875
1787814522849978600,10.409978515625,-157.22900390625,-49.457000732421875,88.99800109863281
1787814522866431700,10.426431640625,-158.38900756835938,-50.531002044677734,88.68400573730469
1787814522882192600,10.442192626953124,-156.7830047607422,-50.849002838134766,89.08700561523438
1787814522898553900,10.458553955078125,-159.1230010986328,-49.875003814697266,89.5060043334961
1787814522914396400,10.474396484375,-157.1060028076172,-49.3390007019043,89.81400299072266
1787814522930541600,10.49054150390625,-158.67201232910156,-50.2920036315918,90.41900634765625
1787814522946892500,10.506892578125,-156.98300170898438,-49.86900329589844,90.21600341796875
1787814522962615000,10.522614990234375,-156.80801391601562,-49.35100173950195,88.89600372314453
1787814522978988000,10.538988037109375,-156.44300842285156,-49.432003021240234,90.9330062866211
1787814522994807000,10.55480712890625,-156.4320068359375,-49.858001708984375,91.13300323486328
1787814523010943500,10.570943603515625,-158.44601440429688,-49.42000198364258,91.54700469970703
1787814523027347500,10.587347412109375,-159.9300079345703,-49.63200378417969,91.54700469970703
1787814523043085300,10.603085205078125,-158.44400024414062,-50.28300094604492,91.1310043334961
1787814523059437800,10.619437744140624,-156.97100830078125,-50.0780029296875,90.62200164794922
1787814523075261400,10.635261474609376,-157.57701110839844,-51.031002044677734,91.42900085449219
1787814523091805400,10.651805419921875,-156.8590087890625,-50.18300247192383,90.82500457763672
1787814523107759000,10.667759033203126,-157.92601013183594,-50.18400192260742,90.62200164794922
1787814523123531000,10.683531005859376,-158.43101501464844,-49.51900100708008,92.1570053100586
1787814523139914500,10.69991455078125,-157.54000854492188,-51.54900360107422,92.74900817871094
1787814523155735300,10.7157353515625,-159.47000122070312,-50.044002532958984,92.86700439453125
1787814523171796500,10.73179638671875,-157.35000610351562,-50.590003967285156,92.35000610351562
1787814523188215300,10.74821533203125,-159.0640106201172,-50.704002380371094,91.63800811767578
1787814523204055000,10.764054931640626,-158.00401306152344,-50.38300323486328,91.74100494384766
1787814523220285200,10.78028515625,-157.54600524902344,-52.63300323486328,91.82300567626953
1787814523236113000,10.79611279296875,-159.47000122070312,-51.01700210571289,92.24700164794922
1787814523252310500,10.812310546875,-155.81800842285156,-53.59100341796875,92.5250015258789
1787814523268561000,10.828560791015626,-157.9390106201172,-52.28900146484375,93.45600128173828
1787814523284343800,10.84434375,-159.44700622558594,-53.16400146484375,91.92200469970703
1787814523300701400,10.860701416015624,-158.09201049804688,-52.85700225830078,91.0060043334961
1787814523316518000,10.876517822265624,-157.78001403808594,-51.56500244140625,91.52700805664062
1787814523332576300,10.892576171875,-158.19500732421875,-52.74700164794922,91.21100616455078
1787814523349398300,10.909398193359374,-157.25900268554688,-52.11300277709961,90.70600128173828
1787814523364669700,10.924669677734375,-157.2270050048828,-52.958003997802734,91.61600494384766
1787814523381031700,10.94103173828125,-157.49000549316406,-51.79900360107422,90.09800720214844
1787814523397324500,10.957324462890625,-156.927001953125,-52.64500427246094,91.00700378417969
1787814523412964600,10.972964599609375,-157.16700744628906,-51.14800262451172,90.71500396728516
1787814523429403100,10.989403076171875,-156.0600128173828,-52.74400329589844,91.71800231933594
1787814523445105400,11.00510546875,-157.33900451660156,-54.0410041809082,90.68900299072266
1787814523461478100,11.02147802734375,-157.4580078125,-51.99500274658203,91.42100524902344
1787814523477304000,11.037303955078125,-157.14500427246094,-52.540000915527344,90.80400085449219
1787814523493363000,11.053363037109374,-156.54400634765625,-50.617000579833984,90.41300201416016
1787814523509779200,11.069779296875,-155.0380096435547,-51.14900207519531,90.91600799560547
1787814523525548500,11.085548583984375,-155.885009765625,-51.362003326416016,90.91500091552734
1787814523541945300,11.1019453125,-155.8990020751953,-51.69400405883789,90.09700775146484
1787814523557783800,11.11778369140625,-157.1370086669922,-51.77900314331055,91.62600708007812
1787814523573853000,11.13385302734375,-157.82000732421875,-51.2650032043457,89.9000015258789
1787814523590294800,11.150294677734376,-156.10301208496094,-52.121002197265625,90.19500732421875
1787814523606062800,11.166062744140625,-156.7550048828125,-51.048004150390625,90.20600128173828
1787814523622452000,11.182451904296874,-157.39401245117188,-51.04900360107422,90.1050033569336
1787814523638230000,11.19822998046875,-156.3260040283203,-51.695003509521484,89.99600219726562
1787814523654751700,11.214751708984375,-156.15501403808594,-50.9640007019043,88.57600402832031
1787814523670761700,11.23076171875,-157.22500610351562,-50.75100326538086,88.37500762939453
1787814523686502400,11.24650244140625,-157.5500030517578,-51.40300369262695,87.6570053100586
1787814523702922800,11.2629228515625,-155.29901123046875,-51.61000061035156,88.46700286865234
1787814523718726700,11.2787265625,-154.99000549316406,-51.724002838134766,87.95600128173828
1787814523734851000,11.29485107421875,-155.9560089111328,-51.18800354003906,87.86100769042969
1787814523751300900,11.31130078125,-155.5120086669922,-51.93400192260742,88.26100158691406
1787814523767064300,11.327064208984375,-154.19300842285156,-51.217002868652344,85.92300415039062
1787814523783450000,11.3434501953125,-153.4010009765625,-50.64800262451172,88.47300720214844
1787814523799254000,11.35925390625,-155.01800537109375,-51.20100402832031,87.04400634765625
1787814523815411500,11.375411376953124,-155.4390106201172,-51.30600357055664,87.14600372314453
1787814523831689200,11.391689208984374,-155.3560028076172,-50.45600128173828,86.64400482177734
1787814523847462700,11.407462646484374,-155.24301147460938,-50.7760009765625,86.74300384521484
1787814523863832300,11.423832275390625,-154.63800048828125,-49.932003021240234,85.8330078125
1787814523879650800,11.43965087890625,-155.24700927734375,-50.67000198364258,86.64200592041016
1787814523895750000,11.45575,-154.30599975585938,-50.788002014160156,85.9260025024414
1787814523912566000,11.47256591796875,-155.9910125732422,-50.77800369262695,86.54000091552734
1787814523927826700,11.48782666015625,-154.7370147705078,-50.46800231933594,85.8280029296875
1787814523944308200,11.50430810546875,-154.3730010986328,-51.9530029296875,86.93500518798828
1787814523960501500,11.52050146484375,-155.8140106201172,-51.66400146484375,84.39300537109375
1787814523984082200,11.544082275390625,-154.81800842285156,-52.93800354003906,85.39900207519531
1787814523999856600,11.559856689453126,-154.30599975585938,-52.410003662109375,84.89400482177734
1787814524015943400,11.575943359375,-154.3400115966797,-52.43000411987305,83.36500549316406
1787814524032377900,11.5923779296875,-154.7410125732422,-51.33500289916992,85.10700225830078
1787814524048147000,11.60814697265625,-151.7790069580078,-52.85900115966797,83.66400146484375
1787814524064906000,11.624906005859375,-152.20700073242188,-52.75200271606445,83.56400299072266
1787814524080340000,11.640340087890625,-153.60301208496094,-52.327003479003906,83.16200256347656
1787814524096356600,11.656356689453125,-152.2410125732422,-51.15200424194336,83.06800079345703
1787814524112735200,11.6727353515625,-152.66700744628906,-50.39500427246094,83.48300170898438
1787814524128583400,11.68858349609375,-151.989013671875,-51.884002685546875,84.38600158691406
1787814524144880400,11.70488037109375,-153.9300079345703,-50.711002349853516,83.78700256347656
1787814524160735000,11.72073486328125,-153.37200927734375,-51.66800308227539,84.39000701904297
1787814524176809200,11.736809326171874,-151.58700561523438,-52.656002044677734,82.85100555419922
1787814524193232400,11.753232421875,-152.0240020751953,-50.50100326538086,83.68500518798828
1787814524209000000,11.769,-152.63600158691406,-51.99700164794922,83.87600708007812
1787814524225318400,11.785318359375,-152.24700927734375,-51.371002197265625,82.65900421142578
1787814524241214200,11.801214111328125,-153.42800903320312,-50.08100128173828,82.87600708007812
1787814524257275100,11.817275146484375,-152.02301025390625,-52.22900390625,82.6510009765625
1787814524273660700,11.83366064453125,-152.0240020751953,-51.47300338745117,83.06500244140625
1787814524289457400,11.84945751953125,-151.69900512695312,-51.14600372314453,83.5770034790039
1787814524305766100,11.86576611328125,-152.0240020751953,-51.47300338745117,83.06500244140625
1787814524322089200,11.882089111328124,-151.62400817871094,-49.65200424194336,83.08100128173828
1787814524337644500,11.89764453125,-152.89401245117188,-50.29600143432617,82.87300109863281
1787814524354065700,11.914065673828125,-151.81600952148438,-51.15200424194336,83.06800079345703
1787814524370399200,11.930399169921875,-152.45001220703125,-51.906002044677734,82.7560043334961
1787814524386180000,11.94618017578125,-154.1590118408203,-50.50400161743164,83.1780014038086
1787814524402057000,11.962056884765625,-152.42601013183594,-52.432003021240234,83.46500396728516
1787814524418061800,11.978061767578126,-150.96800231933594,-51.695003509521484,82.6550064086914
1787814524434482400,11.994482421875,-153.9180145263672,-53.08100128173828,82.85000610351562
1787814524450284300,12.0102841796875,-151.1630096435547,-52.00800323486328,83.26300048828125
1787814524466757400,12.02675732421875,-152.1840057373047,-51.65700149536133,85.30500030517578
1787814524482403600,12.042403564453124,-152.1400146484375,-51.58700180053711,82.55500030517578
1787814524498481400,12.0584814453125,-153.4110107421875,-50.827003479003906,83.17500305175781
1787814524514859500,12.074859619140625,-151.1580047607422,-51.68100357055664,83.67400360107422
1787814524530711300,12.090711181640625,-153.90501403808594,-52.965003967285156,83.46200561523438
1787814524547004200,12.107004150390624,-153.02101135253906,-52.72900390625,85.19500732421875
1787814524562843400,12.122843505859375,-151.87400817871094,-52.63600158691406,84.2770004272461
1787814524578924500,12.138924560546876,-152.5860137939453,-53.5890007019043,85.08500671386719
1787814524595296800,12.155296875,-153.5430145263672,-53.80400085449219,84.8800048828125
1787814524611128300,12.17112841796875,-152.10400390625,-52.2140007019043,83.77200317382812
1787814524627896000,12.18789599609375,-153.8920135498047,-51.660003662109375,84.9000015258789
1787814524643298000,12.203298095703126,-155.2650146484375,-51.97800064086914,85.00000762939453
1787814524659380500,12.21938037109375,-152.48800659179688,-51.540000915527344,86.01900482177734
1787814524675803400,12.235803466796876,-153.54701232910156,-51.10400390625,86.4320068359375
1787814524691654400,12.251654296875,-155.19000244140625,-50.268001556396484,84.71000671386719
1787814524708095500,12.268095458984375,-154.07200622558594,-51.6410026550293,86.32600402832031
1787814524723861000,12.283861083984375,-154.2010040283203,-51.00600051879883,85.72100067138672
1787814524739823900,12.299823974609374,-153.44000244140625,-51.42900085449219,86.22500610351562
1787814524756262000,12.316261962890625,-152.57400512695312,-50.98800277709961,87.24700164794922
1787814524772071000,12.33207080078125,-153.67300415039062,-50.46800231933594,85.92900085449219
1787814524788328000,12.348327880859374,-153.82501220703125,-51.40300369262695,88.06000518798828
1787814524804168700,12.364168701171875,-154.92800903320312,-50.88600158691406,86.53800201416016
1787814524820218600,12.380218505859375,-153.4250030517578,-50.87900161743164,87.2490005493164
1787814524836645400,12.396645263671875,-153.64601135253906,-50.7760009765625,86.94400787353516
1787814524852478700,12.412478759765625,-153.0170135498047,-51.64600372314453,86.01900482177734
1787814524868810500,12.428810546875,-154.0380096435547,-50.97200393676758,88.26700592041016
1787814524885124000,12.4451240234375,-154.156005859375,-50.1140022277832,88.2750015258789
1787814524900693500,12.460693603515624,-153.9650115966797,-49.58700180053711,87.66800689697266
1787814524917154600,12.477154541015626,-154.17201232910156,-51.42100143432617,86.73600769042969
1787814524933371400,12.493371337890625,-152.91700744628906,-49.272003173828125,87.26200103759766
1787814524949259800,12.509259765625,-153.54400634765625,-50.454002380371094,86.94700622558594
1787814524965094700,12.5250947265625,-155.2580108642578,-49.380001068115234,86.9590072631836
1787814524981117000,12.541116943359375,-153.60301208496094,-49.56100082397461,89.60400390625
1787814524997561600,12.5575615234375,-153.09300231933594,-50.871002197265625,87.86000061035156
1787814525013400800,12.57340087890625,-155.15000915527344,-49.163002014160156,87.16400146484375
1787814525029757400,12.58975732421875,-154.510009765625,-48.406002044677734,87.781005859375
1787814525045496800,12.605496826171875,-154.3090057373047,-48.0880012512207,87.4780044555664
1787814525061609200,12.621609130859374,-154.1800079345703,-49.048004150390625,87.87700653076172
1787814525077989000,12.637989013671875,-154.08200073242188,-50.13300323486328,86.84900665283203
1787814525093795000,12.653795166015625,-155.34500122070312,-49.47600173950195,87.77300262451172
1787814525110153500,12.670153564453125,-153.73500061035156,-49.900001525878906,88.2770004272461
1787814525126020600,12.6860205078125,-154.06700134277344,-50.01700210571289,87.56300354003906
1787814525142078200,12.702078125,-153.0540008544922,-51.388004302978516,89.281005859375
1787814525158455300,12.718455322265624,-153.23500061035156,-48.62300109863281,87.6760025024414
1787814525174214700,12.734214599609375,-153.77301025390625,-48.302001953125,87.5780029296875
1787814525190954800,12.750954833984375,-152.70700073242188,-50.24700164794922,86.54000091552734
1787814525206428700,12.7664287109375,-153.4630126953125,-48.30800247192383,87.17000579833984
1787814525222436900,12.782436767578124,-154.92300415039062,-49.91100311279297,87.36100769042969
1787814525238841600,12.798841552734375,-153.4090118408203,-49.897003173828125,88.58200073242188
1787814525254676200,12.81467626953125,-150.68301391601562,-50.35400390625,86.74100494384766
1787814525270952400,12.830952392578125,-151.54600524902344,-50.03700256347656,86.33700561523438
1787814525286795300,12.846795166015625,-154.50201416015625,-48.617000579833984,87.98300170898438
1787814525302795500,12.86279541015625,-154.0760040283203,-50.56200408935547,86.84500122070312
1787814525319243300,12.8792431640625,-152.802001953125,-50.673004150390625,86.74100494384766
1787814525335021000,12.89502099609375,-151.64700317382812,-49.926002502441406,86.64400482177734
1787814525351494100,12.911494140625,-153.9810028076172,-49.59600067138672,86.95500183105469
1787814525367167500,12.92716748046875,-151.7860107421875,-49.72900390625,85.32100677490234
1787814525383217400,12.943217529296875,-154.12200927734375,-50.15800094604492,85.01500701904297
1787814525399643000,12.959642822265625,-151.90200805664062,-49.84300231933594,84.81100463867188
1787814525415457300,12.975457275390625,-152.44200134277344,-48.983001708984375,84.92100524902344
1787814525431908400,12.991908447265626,-150.31700134277344,-48.76900100708008,85.1240005493164
1787814525448067800,13.00806787109375,-151.21701049804688,-49.23100280761719,82.57500457763672
1787814525463772200,13.023772216796875,-151.94700622558594,-49.22200393676758,83.18700408935547
1787814525480222700,13.04022265625,-152.04200744628906,-49.323001861572266,83.59400177001953
1787814525496297000,13.056296875,-151.60000610351562,-50.070003509521484,83.89200592041016
1787814525512200000,13.072199951171875,-152.7779998779297,-49.20900344848633,84.00300598144531
1787814525528060200,13.08806005859375,-150.54501342773438,-50.61600112915039,83.2750015258789
1787814525544065300,13.104065185546874,-150.32101440429688,-49.31200408935547,84.61000061035156
1787814525560587300,13.120587158203126,-150.44801330566406,-51.05400085449219,82.5580062866211
1787814525576262000,13.136261962890625,-151.156005859375,-51.1400032043457,84.08600616455078
1787814525592603100,13.15260302734375,-151.52101135253906,-50.73500061035156,82.2560043334961
1787814525608394800,13.168394775390626,-150.5590057373047,-50.40800094604492,82.76700592041016
1787814525624452400,13.184452392578125,-151.18701171875,-48.88900375366211,84.10600280761719
1787814525640858000,13.200858154296874,-149.71701049804688,-50.522003173828125,82.35800170898438
1787814525656666000,13.216666015625,-149.3100128173828,-50.749000549316406,81.43800354003906
1787814525673011200,13.23301123046875,-150.4510040283203,-50.5150032043457,82.76600646972656
1787814525688853500,13.248853515625,-152.79200744628906,-49.217002868652344,83.39200592041016
1787814525704880400,13.26488037109375,-149.4610137939453,-49.7390022277832,84.80900573730469
1787814525721291000,13.281291015625,-150.01100158691406,-50.182003021240234,83.68500518798828
1787814525737053200,13.29705322265625,-151.82701110839844,-50.83500289916992,82.76500701904297
1787814525753806800,13.313806884765626,-150.7650146484375,-51.052001953125,82.66000366210938
1787814525769219800,13.3292197265625,-149.93600463867188,-50.202003479003906,82.25900268554688
1787814525785260300,13.34526025390625,-148.77700805664062,-49.88500213623047,82.0560073852539
1787814525801673000,13.3616728515625,-153.0970001220703,-51.47900390625,82.5570068359375
1787814525817461500,13.37746142578125,-148.41700744628906,-51.37300109863281,82.96000671386719
1787814525833765000,13.39376513671875,-149.9810028076172,-50.70500183105469,84.69900512695312
1787814525849586400,13.40958642578125,-149.72500610351562,-49.77100372314453,82.46600341796875
1787814525865618400,13.425618408203125,-148.9650115966797,-51.1660041809082,82.35100555419922
1787814525882071300,13.4420712890625,-151.1110076904297,-49.340003967285156,82.47200012207031
1787814525897852400,13.457852294921874,-148.7320098876953,-49.85700225830078,84.09400177001953
1787814525914189300,13.474189208984376,-151.60301208496094,-50.39600372314453,83.5840072631836
1787814525930029000,13.490029052734375,-152.00100708007812,-50.81100082397461,84.49700164794922
1787814525946083600,13.50608349609375,-150.9580078125,-50.608001708984375,83.78500366210938
1787814525962591200,13.52259130859375,-151.94000244140625,-49.86600112915039,83.0790023803711
1787814525978259700,13.538259765625,-148.61801147460938,-50.06900405883789,84.29600524902344
1787814525994622000,13.5546220703125,-151.81300354003906,-49.74500274658203,84.09900665283203
1787814526011056600,13.571056640625,-150.9340057373047,-49.40500259399414,85.6290054321289
1787814526026550800,13.58655078125,-151.04600524902344,-48.6510009765625,85.83900451660156
1787814526042977300,13.602977294921875,-150.6110076904297,-50.051002502441406,85.41900634765625
1787814526059180000,13.619179931640625,-152.6540069580078,-48.01000213623047,85.54100036621094
1787814526075086300,13.63508642578125,-151.4320068359375,-49.92500305175781,86.74500274658203
1787814526090894800,13.650894775390626,-153.0850067138672,-47.90500259399414,85.33900451660156
1787814526106953500,13.666953369140625,-151.3310089111328,-49.27900314331055,86.95500183105469
1787814526123342800,13.6833427734375,-152.4080047607422,-49.178001403808594,86.34600067138672
1787814526139198200,13.6991982421875,-151.91600036621094,-47.798004150390625,85.44100189208984
1787814526155521000,13.71552099609375,-152.42401123046875,-47.45900344848633,86.66700744628906
1787814526171314700,13.731314697265624,-153.1790008544922,-48.1140022277832,85.74500274658203
1787814526187348500,13.747348388671876,-153.135009765625,-48.51900100708008,87.47300720214844
1787814526203760600,13.7637607421875,-153.02700805664062,-48.62600326538086,87.47200775146484
1787814526219539200,13.779539306640626,-152.2050018310547,-47.67100143432617,86.86800384521484
1787814526235882800,13.7958828125,-153.97401428222656,-48.94400405883789,87.67400360107422
1787814526251725800,13.811725830078124,-152.07301330566406,-49.49400329589844,86.85200500488281
1787814526267770000,13.82777001953125,-151.64700317382812,-47.76400375366211,87.98700714111328
1787814526284184300,13.844184326171876,-154.7360076904297,-48.0890007019043,87.37700653076172
1787814526300011300,13.86001123046875,-151.302001953125,-49.37000274658203,88.1760025024414
1787814526316731100,13.876731201171875,-153.74000549316406,-48.3900032043457,89.00300598144531
1787814526332152000,13.892152099609374,-155.57901000976562,-48.19200134277344,87.58100128173828
1787814526348209000,13.908208984375,-152.98300170898438,-48.708003997802734,89.4070053100586
1787814526364648000,13.92464794921875,-154.6840057373047,-47.08500289916992,90.34000396728516
1787814526380420400,13.94042041015625,-154.04800415039062,-47.952003479003906,89.72000122070312
1787814526396837000,13.956837158203125,-154.5900115966797,-47.849002838134766,89.31400299072266
1787814526412550000,13.9725498046875,-154.91000366210938,-47.74100112915039,89.31600189208984
1787814526428630300,13.98863037109375,-154.07301330566406,-46.130001068115234,89.73600769042969
1787814526445132800,14.0051328125,-152.552001953125,-46.54300308227539,91.05500793457031
1787814526460813000,14.02081298828125,-154.27500915527344,-46.87900161743164,89.7300033569336
1787814526477325800,14.037325927734376,-154.16500854492188,-45.3640022277832,90.86400604248047
1787814526492986000,14.052986083984376,-153.09300231933594,-46.11600112915039,90.85600280761719
1787814526509084000,14.069083984375,-154.70401000976562,-44.612003326416016,90.97300720214844
1787814526525455000,14.085455078125,-154.95201110839844,-46.62200164794922,92.89100646972656
1787814526541279700,14.10127978515625,-154.6540069580078,-46.419002532958984,92.0780029296875
1787814526557632000,14.117632080078126,-155.69200134277344,-47.483001708984375,92.47700500488281
1787814526573937200,14.133937255859376,-154.2930145263672,-47.36600112915039,93.39300537109375
1787814526589569800,14.14956982421875,-155.3570098876953,-47.04100036621094,93.49900817871094
1787814526606088700,14.166088623046875,-154.4610137939453,-47.44700241088867,95.3280029296875
1787814526622192600,14.182192626953125,-154.7740020751953,-47.01100158691406,95.84200286865234
1787814526638235000,14.19823486328125,-156.8830108642578,-46.8910026550293,96.5580062866211
1787814526653974000,14.21397412109375,-156.67201232910156,-47.32400131225586,96.24900817871094
1787814526670015500,14.230015380859374,-152.21800231933594,-46.25400161743164,96.66000366210938
1787814526686441200,14.246441162109376,-154.24900817871094,-48.4640007019043,99.39300537109375
1787814526702216400,14.262216552734374,-155.1160125732422,-47.06800079345703,99.50900268554688
1787814526718538200,14.278538330078124,-155.79701232910156,-48.75800323486328,101.22600555419922
1787814526734332000,14.294331787109375,-154.31300354003906,-47.78900146484375,101.74200439453125
1787814526750382000,14.310382080078124,-156.3090057373047,-47.9890022277832,102.5580062866211
1787814526766797600,14.326797607421875,-156.7220001220703,-48.198001861572266,102.96400451660156
1787814526782575400,14.342575439453125,-152.5360107421875,-47.31300354003906,105.51300811767578
1787814526798884000,14.358884033203125,-154.8620147705078,-47.84300231933594,105.61400604248047
1787814526814749700,14.374749755859375,-154.3100128173828,-48.91200256347656,105.90900421142578
1787814526830824000,14.390823974609376,-151.49400329589844,-49.099002838134766,108.24700164794922
1787814526847249400,14.40724951171875,-151.9910125732422,-49.72600173950195,109.36200714111328
1787814526863032300,14.4230322265625,-155.15000915527344,-49.70500183105469,110.58900451660156
1787814526879809500,14.4398095703125,-152.66200256347656,-50.00600051879883,112.41700744628906
1787814526895241200,14.4552412109375,-150.8350067138672,-50.10300064086914,113.33000183105469
1787814526911281400,14.471281494140625,-150.91600036621094,-51.60100173950195,113.52100372314453
1787814526927727600,14.4877275390625,-149.5780029296875,-52.105003356933594,116.06100463867188
1787814526943501800,14.503501708984375,-148.29501342773438,-51.12800216674805,117.08700561523438
1787814526959902200,14.519902099609375,-151.26400756835938,-52.09400177001953,116.67500305175781
1787814526975698200,14.5356982421875,-147.17401123046875,-52.28300094604492,119.0110092163086
1787814526991824600,14.55182470703125,-146.27700805664062,-52.58000183105469,120.94300842285156
1787814527008131300,14.56813134765625,-144.25601196289062,-52.797000885009766,120.93800354003906
1787814527023955500,14.58395556640625,-145.37200927734375,-53.9530029296875,122.55900573730469
1787814527040314000,14.600314208984376,-142.8260040283203,-52.98500061035156,123.07400512695312
1787814527056126000,14.6161259765625,-140.6540069580078,-54.14800262451172,124.48700714111328
1787814527072227600,14.6322275390625,-136.74900817871094,-53.737003326416016,123.67100524902344
1787814527088687600,14.6486875,-138.36700439453125,-55.30600357055664,126.3080062866211
1787814527104498000,14.664497802734376,-135.10400390625,-55.221004486083984,125.0820083618164
1787814527120777000,14.68077685546875,-134.57400512695312,-53.70900344848633,126.0110092163086
1787814527137076000,14.697075927734375,-131.96200561523438,-57.13300323486328,126.69100952148438
1787814527152651300,14.7126513671875,-133.99400329589844,-56.05800247192383,126.7030029296875
1787814527169066500,14.72906640625,-130.27301025390625,-56.06100082397461,126.90200805664062
1787814527185298200,14.745298095703125,-127.7040023803711,-56.268001556396484,127.71200561523438
1787814527201280800,14.76128076171875,-125.87300872802734,-56.14800262451172,128.93299865722656
1787814527216957400,14.77695751953125,-126.20000457763672,-57.557003021240234,127.69800567626953
1787814527233146600,14.793146728515625,-123.67800903320312,-56.92900085449219,126.8860092163086
1787814527249447000,14.809447021484376,-121.64400482177734,-57.46200180053711,127.28600311279297
1787814527265352000,14.82535205078125,-120.39500427246094,-57.47900390625,126.16400909423828
1787814527281538600,14.84153857421875,-117.40200805664062,-58.553001403808594,126.35400390625
1787814527297289700,14.857289794921876,-118.91300201416016,-58.13300323486328,125.54500579833984
1787814527313349400,14.873349365234375,-115.40300750732422,-59.756004333496094,124.81300354003906
1787814527329783600,14.889783447265625,-114.56000518798828,-58.788002014160156,125.12600708007812
1787814527345572900,14.90557275390625,-114.15200805664062,-59.880001068115234,123.69000244140625
1787814527361919700,14.921919677734374,-110.24700164794922,-60.11700439453125,122.46000671386719
1787814527377733400,14.9377333984375,-111.1090087890625,-60.0150032043457,121.9530029296875
1787814527393790000,14.9537900390625,-109.39900207519531,-61.20000457763672,121.73700714111328
1787814527410189800,14.97018994140625,-108.71600341796875,-61.12900161743164,119.08800506591797
1787814527426147000,14.98614697265625,-108.79600524902344,-62.518001556396484,119.3810043334961
1787814527442805000,15.002804931640625,-106.49300384521484,-61.461002349853516,118.57300567626953
1787814527458187000,15.01818701171875,-108.74200439453125,-62.33400344848633,117.14200592041016
1787814527474246100,15.03424609375,-106.20100402832031,-62.342002868652344,116.8330078125
1787814527490655000,15.050655029296875,-105.03300476074219,-62.77700424194336,116.52200317382812
1787814527506438100,15.066438232421875,-106.40200805664062,-62.44400405883789,117.24000549316406
1787814527522830300,15.082830322265625,-106.3290023803711,-63.220001220703125,115.29700469970703
1787814527538627600,15.098627685546875,-103.26500701904297,-62.910003662109375,114.78700256347656
1787814527554689000,15.11468896484375,-104.8600082397461,-62.90900421142578,114.68700408935547
1787814527571110400,15.1311103515625,-104.8060073852539,-62.2920036315918,112.75700378417969
1787814527586925800,15.14692578125,-103.83600616455078,-62.177001953125,113.47000885009766
1787814527603274200,15.163274169921875,-103.19500732421875,-63.79600143432617,112.64000701904297
1787814527619301400,15.17930126953125,-104.16500854492188,-62.39900207519531,112.85700225830078
1787814527635156700,15.19515673828125,-103.72100830078125,-62.820003509521484,113.46400451660156
1787814527651726800,15.211726806640625,-103.86200714111328,-62.08500289916992,112.35000610351562
1787814527667360800,15.22736083984375,-101.41300201416016,-63.59700393676758,111.72200775146484
1787814527683659800,15.24365966796875,-103.87400817871094,-63.173004150390625,111.11800384521484
1787814527700043800,15.260043701171876,-101.8790054321289,-62.86600112915039,110.30300903320312
1787814527715574000,15.275573974609374,-102.47500610351562,-63.596004486083984,111.72400665283203
1787814527732162300,15.292162353515625,-104.7540054321289,-61.785003662109375,110.62200164794922
1787814527748278300,15.3082783203125,-104.42000579833984,-63.397003173828125,110.302001953125
1787814527764146700,15.324146728515625,-103.79800415039062,-61.678001403808594,110.72400665283203
1787814527780019700,15.340019775390624,-102.56900787353516,-64.1290054321289,111.92300415039062
1787814527796035600,15.35603564453125,-102.84800720214844,-63.0880012512207,109.58900451660156
1787814527812500200,15.372500244140625,-103.22700500488281,-63.92400360107422,111.1100082397461
1787814527828299300,15.38829931640625,-104.5250015258789,-64.15299987792969,109.88800811767578
1787814527844767700,15.404767822265624,-102.20600128173828,-62.43800354003906,110.20600891113281
1787814527860426800,15.4204267578125,-104.24600219726562,-62.98800277709961,108.8790054321289
1787814527876492500,15.436492431640625,-105.26000213623047,-63.60600280761719,110.60700225830078
1787814527892891100,15.45289111328125,-105.47200775146484,-63.49700164794922,110.71000671386719
1787814527908689700,15.468689697265624,-102.26400756835938,-63.59700393676758,111.62100219726562
1787814527925043500,15.48504345703125,-103.7820053100586,-64.4780044555664,109.68000793457031
1787814527940895700,15.500895751953125,-104.84200286865234,-63.61100387573242,110.30000305175781
1787814527956982500,15.516982421875,-105.97300720214844,-64.99200439453125,111.1050033569336
1787814527973412600,15.53341259765625,-105.4850082397461,-63.721004486083984,109.99500274658203
1787814527989168600,15.549168701171874,-102.927001953125,-64.58399963378906,109.88200378417969
1787814528005926100,15.565926025390626,-104.06000518798828,-65.10200500488281,111.10100555419922
1787814528021369900,15.581369873046874,-103.22200775146484,-64.13700103759766,111.21000671386719
1787814528037488600,15.597488525390625,-103.94800567626953,-64.34200286865234,111.82100677490234
1787814528053866500,15.613866455078124,-104.0830078125,-65.11500549316406,110.0820083618164
1787814528069658600,15.62965869140625,-102.99600219726562,-63.48100280761719,112.2350082397461
1787814528085966600,15.645966552734375,-103.00200653076172,-65.32200622558594,110.79200744628906
1787814528101814500,15.661814453125,-102.54700469970703,-65.41200256347656,112.11500549316406
1787814528117866800,15.67786669921875,-103.41500854492188,-64.34200286865234,111.92200469970703
1787814528134299600,15.694299560546876,-104.47200775146484,-65.20100402832031,111.6100082397461
1787814528150080000,15.710080078125,-104.25700378417969,-64.44300079345703,112.2280044555664
1787814528166382800,15.7263828125,-104.90800476074219,-63.586002349853516,112.13400268554688
1787814528182203000,15.742202880859375,-105.52200317382812,-63.78700256347656,113.05000305175781
1787814528198252800,15.758252685546875,-104.63500213623047,-64.52200317382812,114.26500701904297
1787814528214678800,15.7746787109375,-103.9520034790039,-65.10100555419922,111.2030029296875
1787814528230481700,15.790481689453125,-104.32500457763672,-64.52799987792969,113.85700225830078
1787814528246790700,15.806790771484375,-105.3030014038086,-64.21600341796875,113.04600524902344
1787814528263105800,15.823105712890625,-104.031005859375,-64.22000122070312,112.94300842285156
1787814528278722800,15.838722900390625,-106.34600830078125,-64.41900634765625,113.75900268554688
1787814528295121400,15.855121337890624,-105.47600555419922,-64.6240005493164,114.57100677490234
1787814528311007200,15.87100732421875,-107.23600769042969,-63.794002532958984,112.33900451660156
1787814528327263500,15.887263427734375,-105.39300537109375,-62.801002502441406,114.68900299072266
1787814528343077400,15.903077392578124,-105.8010025024414,-64.30400085449219,114.47200775146484
1787814528359204000,15.9192041015625,-104.41000366210938,-64.08300018310547,115.0830078125
1787814528375616800,15.93561669921875,-107.0570068359375,-64.93900299072266,114.87500762939453
1787814528391522600,15.9515224609375,-105.71900177001953,-63.56200408935547,113.86700439453125
1787814528407817700,15.967817626953124,-106.13800811767578,-63.77400207519531,113.96800231933594
1787814528423641000,15.98364111328125,-107.50100708007812,-63.86900329589844,114.6820068359375
1787814528439754000,15.99975390625,-108.0040054321289,-63.95900344848633,115.90400695800781
1787814528456160800,16.016160888671877,-107.67900848388672,-63.7400016784668,116.31300354003906
1787814528472120600,16.03212060546875,-105.33500671386719,-63.84700393676758,116.61500549316406
1787814528488341500,16.048341552734374,-106.61600494384766,-63.20000457763672,116.72400665283203
1787814528504206300,16.064206298828125,-107.34100341796875,-65.13400268554688,116.30000305175781
1787814528520268500,16.0802685546875,-107.58600616455078,-63.96400451660156,115.59800720214844
1787814528536663600,16.09666357421875,-105.67900848388672,-63.32100296020508,115.80500793457031
1787814528552451300,16.112451416015624,-105.89500427246094,-63.215003967285156,115.7040023803711
1787814528569151500,16.1291513671875,-105.46100616455078,-65.04700469970703,114.97400665283203
1787814528584614400,16.144614501953125,-105.8060073852539,-63.118003845214844,114.99200439453125
1787814528600667400,16.16066748046875,-107.0840072631836,-62.686004638671875,115.09900665283203
1787814528617042000,16.1770419921875,-106.87300872802734,-63.552001953125,114.4800033569336
1787814528632845000,16.192844970703124,-106.34800720214844,-63.772003173828125,114.07000732421875
1787814528649158400,16.209158447265626,-106.51300811767578,-64.9320068359375,115.48600769042969
1787814528664946400,16.224946533203124,-107.281005859375,-63.75700378417969,115.09000396728516
1787814528681052700,16.241052734375,-105.29400634765625,-61.941001892089844,114.90000915527344
1787814528697478400,16.257478515625,-104.75900268554688,-63.345001220703125,114.17400360107422
1787814528713252000,16.273252197265624,-103.91800689697266,-62.595001220703125,114.281005859375
1787814528729587200,16.289587158203126,-104.67900848388672,-63.46900177001953,112.95000457763672
1787814528745422000,16.305422119140626,-106.12700653076172,-63.76700210571289,114.47700500488281
1787814528761548500,16.321548583984374,-105.07100677490234,-64.52899932861328,113.7560043334961
1787814528777874000,16.3378740234375,-104.53700256347656,-63.23100280761719,114.68400573730469
1787814528793715200,16.353715087890624,-104.65800476074219,-63.34800338745117,113.97000885009766
1787814528810053400,16.370053466796875,-105.08600616455078,-64.7540054321289,112.93900299072266
1787814528826363000,16.38636279296875,-104.9800033569336,-64.21400451660156,113.24900817871094
1787814528842001000,16.4020009765625,-106.36300659179688,-64.53800201416016,112.94300842285156
1787814528858361300,16.418361328125,-102.99400329589844,-63.5880012512207,112.2340087890625
1787814528874640100,16.43464013671875,-103.39300537109375,-64.97600555419922,112.52800750732422
1787814528890507500,16.450507568359374,-103.4310073852539,-64.35100555419922,111.2090072631836
1787814528906368500,16.466368408203124,-103.51700592041016,-63.69000244140625,112.53900909423828
1787814528922428000,16.482427978515624,-104.69000244140625,-62.50300216674805,113.06000518798828
1787814528946887700,16.5068876953125,-103.94800567626953,-63.69400405883789,112.2340087890625
1787814528962968000,16.522968017578126,-103.41800689697266,-64.34300231933594,111.82000732421875
1787814528979879000,16.53987890625,-103.7280044555664,-63.79700469970703,112.53800201416016
1787814528995150000,16.555150146484376,-103.86200714111328,-64.24600219726562,111.00700378417969
1787814529011554800,16.571554931640627,-102.59400177001953,-64.46800231933594,110.59600830078125
1787814529027387100,16.58738720703125,-101.52800750732422,-65.44000244140625,110.17800903320312
1787814529043443700,16.603443603515625,-101.27200317382812,-65.6300048828125,112.01000213623047
1787814529059873000,16.619873046875,-104.50700378417969,-65.0060043334961,110.18600463867188
1787814529075525400,16.635525390625,-102.13200378417969,-66.17500305175781,111.19100189208984
1787814529091911400,16.651911376953127,-103.68700408935547,-63.18800354003906,109.99700164794922
1787814529107721200,16.66772119140625,-104.4800033569336,-64.99000549316406,111.40800476074219
1787814529123809000,16.68380908203125,-103.01800537109375,-65.656005859375,109.87300872802734
1787814529140233500,16.7002333984375,-103.2090072631836,-64.88600158691406,111.3060073852539
1787814529155947300,16.715947265625,-104.48300170898438,-65.53300476074219,110.89400482177734
1787814529172319700,16.73231982421875,-102.80000305175781,-65.22100067138672,110.38500213623047
1787814529188205800,16.748205810546875,-104.9310073852539,-66.19400024414062,109.46300506591797
1787814529204230400,16.76423046875,-103.6500015258789,-65.21900177001953,110.38700866699219
1787814529220773400,16.7807734375,-104.48700714111328,-65.10200500488281,111.00000762939453
1787814529236872200,16.7968720703125,-104.16400146484375,-66.07300567626953,110.5830078125
1787814529252857600,16.812857666015624,-104.04900360107422,-66.06800079345703,110.99100494384766
1787814529268614100,16.8286142578125,-105.7280044555664,-66.16100311279297,111.8070068359375
1787814529285178000,16.84517822265625,-102.4800033569336,-65.6520004272461,110.177001953125
1787814529301134600,16.861134521484374,-103.82000732421875,-63.74500274658203,108.46400451660156
1787814529316864800,16.87686474609375,-103.00000762939453,-65.32100677490234,110.89400482177734
1787814529333258500,16.893258544921874,-104.66700744628906,-66.59600067138672,111.49600219726562
1787814529349079300,16.909079345703127,-104.89500427246094,-66.17200469970703,111.09300231933594
1787814529365167000,16.9251669921875,-103.2800064086914,-66.59400177001953,111.80000305175781
1787814529381643300,16.941643310546876,-100.87400817871094,-64.99800109863281,111.20000457763672
1787814529397348400,16.957348388671875,-104.67500305175781,-65.08700561523438,112.12100219726562
1787814529413755000,16.9737548828125,-105.3320083618164,-66.07100677490234,110.58500671386719
1787814529429599700,16.989599853515625,-103.47900390625,-66.91000366210938,112.20500183105469
1787814529445648400,17.0056484375,-106.49000549316406,-65.3070068359375,111.51000213623047
1787814529462080000,17.022080078125,-106.15900421142578,-66.59600067138672,111.29400634765625
1787814529477868300,17.037868408203124,-105.93800354003906,-66.70000457763672,111.59900665283203
1787814529494255900,17.054255859375,-105.91400146484375,-66.46900177001953,112.82300567626953
1787814529510078200,17.070078125,-105.28600311279297,-66.26000213623047,112.51900482177734
1787814529526105600,17.086105712890625,-105.7540054321289,-66.28500366210938,110.5840072631836
1787814529542963700,17.102963623046875,-105.81600189208984,-65.50200653076172,113.03500366210938
1787814529558191400,17.11819140625,-104.86100769042969,-66.47600555419922,112.41400909423828
1787814529574573000,17.134572998046874,-103.06000518798828,-66.1570053100586,112.41500854492188
1787814529590396700,17.150396728515624,-105.5820083618164,-65.59700012207031,113.95100402832031
1787814529606461400,17.16646142578125,-104.85100555419922,-65.71300506591797,113.33800506591797
1787814529622830300,17.182830322265627,-105.10400390625,-65.08900451660156,111.91800689697266
1787814529638634800,17.198634765625,-105.07500457763672,-65.8280029296875,112.72600555419922
1787814529655017200,17.215017333984374,-104.60000610351562,-66.33900451660156,114.656005859375
1787814529670850000,17.23085009765625,-105.49700164794922,-64.42100524902344,113.75800323486328
1787814529686885000,17.246885009765624,-106.09800720214844,-65.69499969482422,114.56200408935547
1787814529703430700,17.2634306640625,-105.24100494384766,-64.61100006103516,115.58900451660156
1787814529719029200,17.279029296875,-106.08100128173828,-64.60400390625,115.99800872802734
1787814529735425000,17.295425048828125,-107.49600219726562,-64.08200073242188,114.7820053100586
1787814529751271000,17.31127099609375,-104.16700744628906,-64.49700164794922,116.20000457763672
1787814529767310800,17.327310791015623,-108.33100891113281,-65.8010025024414,114.3600082397461
1787814529783753500,17.34375341796875,-103.99100494384766,-64.84400177001953,114.36300659179688
1787814529800028700,17.360028564453124,-106.10800170898438,-64.51200103759766,114.87800598144531
1787814529815910400,17.375910400390627,-105.76800537109375,-65.04000091552734,115.4840087890625
1787814529831705000,17.391705078125,-107.14300537109375,-64.927001953125,115.79200744628906
1787814529848243700,17.40824365234375,-105.00200653076172,-65.02799987792969,116.50200653076172
1787814529864142000,17.42414208984375,-108.20600891113281,-63.845001220703125,116.41500854492188
1787814529879913200,17.439913330078124,-106.4570083618164,-65.33000183105469,117.72400665283203
1787814529896320500,17.456320556640627,-108.06100463867188,-65.33500671386719,117.21600341796875
1787814529912113200,17.472113037109374,-107.6810073852539,-63.63300323486328,116.31400299072266
1787814529928207600,17.48820751953125,-106.4000015258789,-64.60400390625,115.99800872802734
1787814529944694300,17.5046943359375,-107.73900604248047,-63.60400390625,118.4530029296875
1787814529960441600,17.520441650390627,-107.34000396728516,-63.40400314331055,117.43600463867188
1787814529976838400,17.53683837890625,-107.531005859375,-65.12000274658203,117.31900787353516
1787814529992647200,17.552647216796874,-106.2560043334961,-63.71600341796875,118.24700927734375
1787814530008726800,17.568726806640626,-107.54900360107422,-64.15800476074219,117.12400817871094
1787814530025143600,17.5851435546875,-105.61200714111328,-65.33399963378906,117.51900482177734
1787814530040854500,17.6008544921875,-107.21000671386719,-65.11900329589844,117.42100524902344
1787814530057244200,17.617244140625,-108.1820068359375,-64.58700561523438,117.01900482177734
1787814530073073700,17.63307373046875,-106.06800842285156,-65.89300537109375,115.78300476074219
1787814530089187000,17.64918701171875,-106.09000396728516,-65.25800323486328,115.177001953125
1787814530106012700,17.6660126953125,-107.23800659179688,-64.59500122070312,116.50900268554688
1787814530121240000,17.681239990234374,-105.83700561523438,-65.125,117.11300659179688
1787814530137635800,17.6976357421875,-107.52300262451172,-65.2229995727539,117.62400817871094
1787814530153510100,17.71351025390625,-106.4570083618164,-65.0060043334961,117.93000793457031
1787814530169590800,17.7295908203125,-109.0300064086914,-64.90900421142578,116.91600799560547
1787814530185953000,17.745953125,-106.01700592041016,-64.99700164794922,118.64300537109375
1787814530201719000,17.761718994140626,-108.06700134277344,-64.58200073242188,117.427001953125
1787814530218094600,17.778094482421874,-104.94700622558594,-65.53500366210938,118.63700866699219
1787814530233869300,17.793869384765625,-107.51800537109375,-64.57200622558594,118.24100494384766
1787814530249941000,17.80994091796875,-106.65800476074219,-65.21500396728516,118.33600616455078
1787814530266362600,17.826362548828126,-107.92100524902344,-64.34200286865234,119.36400604248047
1787814530282120700,17.84212060546875,-107.06300354003906,-63.79700469970703,120.08100891113281
1787814530298522000,17.858522216796874,-109.39600372314453,-64.33200073242188,119.87500762939453
1787814530322010600,17.8820107421875,-109.60100555419922,-63.57100296020508,120.69700622558594
1787814530338324000,17.898323974609376,-109.27800750732422,-63.02900314331055,121.21100616455078
1787814530354129400,17.91412939453125,-110.54600524902344,-63.67100143432617,121.1050033569336
1787814530370218000,17.930218017578124,-109.38200378417969,-62.59400177001953,121.62200927734375
1787814530386685200,17.946685302734377,-108.47600555419922,-63.21000289916992,123.7550048828125
1787814530402399700,17.962399658203125,-111.75800323486328,-63.41500473022461,124.06300354003906
1787814530418767400,17.978767333984376,-111.66100311279297,-64.06900024414062,123.24200439453125
1787814530434599400,17.994599365234375,-110.41500854492188,-61.17100143432617,123.77500915527344
1787814530450653200,18.010653076171874,-111.6570053100586,-61.689002990722656,124.89300537109375
1787814530467052800,18.027052734375,-112.18600463867188,-61.03900146484375,125.40900421142578
1787814530482836500,18.04283642578125,-113.89800262451172,-61.6930046081543,124.3860092163086
1787814530499148300,18.059148193359373,-115.4840087890625,-61.038002014160156,125.10700225830078
1787814530515461600,18.075461669921875,-114.27100372314453,-62.958003997802734,125.90400695800781
1787814530531047200,18.091047119140626,-115.78800201416016,-60.596004486083984,126.02800750732422
1787814530547462400,18.10746240234375,-117.77900695800781,-62.198001861572266,126.22100830078125
1787814530563239700,18.12323974609375,-115.98600769042969,-60.803001403808594,126.53600311279297
1787814530579557600,18.1395576171875,-118.0050048828125,-61.233001708984375,126.22900390625
1787814530595358700,18.155358642578125,-120.3290023803711,-61.1140022277832,126.84500885009766
1787814530611426800,18.1714267578125,-119.89100646972656,-61.215003967285156,127.35200500488281
1787814530627784400,18.187784423828123,-119.17400360107422,-60.47500228881836,126.64500427246094
1787814530643610000,18.203610107421873,-120.00200653076172,-61.86600112915039,126.73600769042969
1787814530659861000,18.219861083984377,-123.04500579833984,-62.7030029296875,127.8530044555664
1787814530675742500,18.235742431640624,-123.91000366210938,-61.52300262451172,127.86400604248047
1787814530691780400,18.2517802734375,-122.01900482177734,-61.538002014160156,126.94500732421875
1787814530708178000,18.268177978515624,-123.36100769042969,-62.70100402832031,127.95500946044922
1787814530724025300,18.284025390625,-126.04200744628906,-61.4170036315918,127.56200408935547
1787814530740295000,18.300294921875,-124.57300567626953,-59.80900192260742,127.77800750732422
1787814530756139500,18.316139404296877,-127.86900329589844,-59.04900360107422,128.09500122070312
1787814530772648700,18.332648681640624,-130.18701171875,-60.00700378417969,128.29299926757812
1787814530788592000,18.348592041015625,-129.6540069580078,-60.00700378417969,128.39401245117188
1787814530804375000,18.364375,-130.50401306152344,-60.1140022277832,128.29200744628906
1787814530821156000,18.381156005859374,-131.13999938964844,-59.89600372314453,128.49900817871094
1787814530836554000,18.396553955078126,-129.57200622558594,-59.2650032043457,127.78900909423828
1787814530852623400,18.412623291015624,-131.89801025390625,-60.44400405883789,127.47600555419922
1787814530869037600,18.42903759765625,-131.99400329589844,-60.65400314331055,127.7800064086914
1787814530884824600,18.444824462890626,-133.25601196289062,-59.888004302978516,128.8070068359375
1787814530901197000,18.461197021484374,-134.6610107421875,-58.928001403808594,128.30799865722656
1787814530917058300,18.477058349609376,-137.3570098876953,-59.27300262451172,126.27100372314453
1787814530933101800,18.493101806640624,-136.0780029296875,-58.62400436401367,126.88700866699219
1787814530949516300,18.509516357421877,-135.55300903320312,-59.169002532958984,126.27000427246094
1787814530965292000,18.5252919921875,-138.61700439453125,-58.506004333496094,127.40000915527344
1787814530981642500,18.541642578125,-136.81800842285156,-58.513004302978516,127.09200286865234
1787814530997400300,18.557400390625,-139.2830047607422,-57.55000305175781,126.69600677490234
1787814531013447700,18.57344775390625,-138.0340118408203,-56.7030029296875,126.09100341796875
1787814531029882600,18.589882568359375,-139.2830047607422,-57.33400344848633,126.80000305175781
1787814531045655300,18.6056552734375,-138.5500030517578,-57.77400207519531,126.0820083618164
1787814531061980000,18.62197998046875,-138.63900756835938,-56.89800262451172,127.41400909423828
1787814531078255400,18.63825537109375,-139.63900756835938,-56.816001892089844,125.48100280761719
1787814531093858000,18.653858154296874,-141.19000244140625,-58.301002502441406,126.38700866699219
1787814531110313000,18.67031298828125,-140.1060028076172,-58.61300277709961,127.19700622558594
1787814531126092800,18.6860927734375,-142.03001403808594,-58.51000213623047,126.69100952148438
1787814531142417000,18.7024169921875,-139.4910125732422,-57.547000885009766,126.90000915527344
1787814531158248200,18.718248291015627,-140.74600219726562,-58.93800354003906,126.89000701904297
1787814531174337800,18.734337890625,-141.01100158691406,-56.9160041809082,125.78700256347656
1787814531190664400,18.75066455078125,-140.5709991455078,-58.31300354003906,125.57100677490234
1787814531206461400,18.76646142578125,-140.49700927734375,-56.820003509521484,125.07400512695312
1787814531222797000,18.782797119140625,-140.2360076904297,-58.52000427246094,126.18000793457031
1787814531238671600,18.798671630859374,-140.0500030517578,-56.48200225830078,126.29900360107422
1787814531254636500,18.814636474609376,-140.36700439453125,-56.913002014160156,126.09200286865234
1787814531271024000,18.831024169921875,-141.19100952148438,-56.788002014160156,127.31700897216797
1787814531286816000,18.84681591796875,-141.7270050048828,-58.08700180053711,126.28700256347656
1787814531303180000,18.863179931640627,-138.47900390625,-57.03900146484375,124.96800231933594
1787814531318988500,18.878988525390625,-140.68600463867188,-57.88600158691406,125.47300720214844
1787814531335493000,18.8954931640625,-140.1280059814453,-58.51900100708008,126.281005859375
1787814531351428900,18.911428955078126,-141.1820068359375,-57.756004333496094,127.10400390625
1787814531367237400,18.9272373046875,-140.32301330566406,-56.99500274658203,128.02700805664062
1787814531383970800,18.943970703125,-141.6110076904297,-57.97300338745117,126.79700469970703
1787814531399382300,18.95938232421875,-142.0380096435547,-58.40700149536133,126.38700866699219
1787814531415431000,18.975430908203126,-142.59600830078125,-58.423004150390625,125.16500854492188
1787814531431853600,18.991853515625,-143.33200073242188,-57.660003662109375,125.98700714111328
1787814531447629000,19.007629150390624,-142.70700073242188,-56.80400085449219,125.99400329589844
1787814531463939600,19.023939697265625,-143.125,-57.772003173828125,125.6810073852539
1787814531479765000,19.039764892578123,-143.67201232910156,-57.24100112915039,125.27900695800781
1787814531495841500,19.055841552734375,-143.6510009765625,-57.768001556396484,125.885009765625
1787814531512300500,19.072300537109374,-141.62600708007812,-57.01000213623047,126.7040023803711
1787814531528084000,19.088083984375,-142.2620086669922,-56.57600402832031,127.01400756835938
1787814531544392000,19.104391845703127,-143.97300720214844,-56.689002990722656,126.40400695800781
1787814531560202200,19.1202021484375,-143.14100646972656,-55.62000274658203,126.31100463867188
1787814531576215600,19.136215576171875,-143.57200622558594,-54.97500228881836,126.41900634765625
1787814531592642800,19.152642822265626,-143.364013671875,-56.1670036315918,125.49100494384766
1787814531608465200,19.168465087890624,-143.60301208496094,-55.53400421142578,124.6820068359375
1787814531624758300,19.18475830078125,-143.9860076904297,-56.80500411987305,125.79200744628906
1787814531641030400,19.201030517578126,-144.19200134277344,-56.58400344848633,126.2020034790039
1787814531656625000,19.216625,-144.0080108642578,-56.81800079345703,124.77300262451172
1787814531673008600,19.233008544921876,-143.79901123046875,-55.631004333496094,125.39500427246094
1787814531688824600,19.248824462890624,-144.41000366210938,-55.18300247192383,126.82600402832031
1787814531705138000,19.265137939453126,-144.8070068359375,-55.381004333496094,127.94500732421875
1787814531720967000,19.280966796875,-144.23699951171875,-53.802001953125,125.92100524902344
1787814531737051000,19.29705078125,-144.84100341796875,-56.05000305175781,126.0040054321289
1787814531753381600,19.313381591796876,-143.34300231933594,-57.23400115966797,125.78700256347656
1787814531769203700,19.32920361328125,-143.58399963378906,-55.95500183105469,125.29000854492188
1787814531785525200,19.345525146484373,-143.3040008544922,-55.91400146484375,128.34600830078125
1787814531801370400,19.361370361328124,-142.88400268554688,-57.86300277709961,126.90200805664062
1787814531817375700,19.377375732421875,-144.08700561523438,-57.01700210571289,125.89200592041016
1787814531833800400,19.393800537109374,-143.36700439453125,-56.27700424194336,125.28700256347656
1787814531849563600,19.409563720703126,-142.5900115966797,-57.87800216674805,125.781005859375
1787814531865885000,19.425885009765626,-144.49900817871094,-57.87400436401367,125.885009765625
1787814531881731000,19.44173095703125,-144.19200134277344,-57.233001708984375,125.78900909423828
1787814531898230000,19.45822998046875,-142.92100524902344,-57.993003845214844,125.16900634765625
1787814531914203600,19.47420361328125,-143.6800079345703,-57.02900314331055,125.0770034790039
1787814531929978400,19.489978271484375,-142.6090087890625,-57.349002838134766,125.27600860595703
1787814531946696700,19.50669677734375,-145.14100646972656,-58.52400207519531,125.26900482177734
1787814531962098000,19.522097900390627,-144.61801147460938,-57.665000915527344,125.4800033569336
1787814531978154500,19.538154541015626,-143.56900024414062,-57.566001892089844,124.97000885009766
1787814531994559000,19.55455908203125,-143.9810028076172,-58.099002838134766,125.16900634765625
1787814532010410000,19.570409912109376,-142.60501098632812,-57.34700393676758,125.4800033569336
1787814532026799000,19.586799072265624,-144.36700439453125,-58.2910041809082,126.79800415039062
1787814532042508800,19.6025087890625,-143.99600219726562,-57.35100173950195,124.97200775146484
1787814532058574600,19.61857470703125,-144.06800842285156,-57.871002197265625,126.19000244140625
1787814532074977800,19.634977783203126,-144.20700073242188,-58.647003173828125,124.24800872802734
1787814532090791400,19.65079150390625,-144.9300079345703,-58.63300323486328,125.16600799560547
1787814532107113500,19.667113525390626,-143.14300537109375,-57.78300094604492,124.86600494384766
1787814532122961200,19.682961181640625,-144.93800354003906,-57.6660041809082,125.37800598144531
1787814532139022800,19.69902294921875,-143.95700073242188,-57.868003845214844,126.39400482177734
1787814532155877600,19.715877685546875,-145.2570037841797,-58.314002990722656,124.96500396728516
1787814532171230200,19.731230224609376,-143.44900512695312,-58.20700454711914,125.16800689697266
1787814532187562800,19.747562744140627,-143.5260009765625,-58.189002990722656,126.49200439453125
1787814532203846400,19.763846435546874,-142.91000366210938,-57.44700241088867,125.98900604248047
1787814532219480000,19.77947998046875,-145.04000854492188,-57.987003326416016,125.37600708007812
1787814532235894800,19.795894775390625,-144.4040069580078,-57.233001708984375,125.78900909423828
1787814532251748600,19.81174853515625,-143.43701171875,-57.552001953125,126.09000396728516
1787814532268095700,19.828095703125,-143.78201293945312,-58.323001861572266,124.4540023803711
1787814532292340200,19.85234033203125,-144.28900146484375,-57.76700210571289,125.8860092163086
1787814532309109800,19.86910986328125,-144.86801147460938,-57.3640022277832,123.95500946044922
1787814532324496400,19.884496337890624,-145.44100952148438,-58.72900390625,125.98100280761719
1787814532340641800,19.900641845703124,-145.89601135253906,-57.881004333496094,125.17400360107422
1787814532357360600,19.917360595703126,-144.23800659179688,-56.18000411987305,124.37200927734375
1787814532372640800,19.932640869140624,-144.95401000976562,-57.35100173950195,124.87200927734375
1787814532389022200,19.949022216796877,-145.3310089111328,-57.862003326416016,126.70100402832031
1787814532404805400,19.964805419921873,-146.21800231933594,-57.45100402832031,125.2800064086914
1787814532420847400,19.980847412109377,-147.31100463867188,-58.00800323486328,123.54500579833984
1787814532437246500,19.99724658203125,-144.96900939941406,-56.928001403808594,124.46800231933594
1787814532453030000,20.01302978515625,-147.74600219726562,-56.93300247192383,123.75800323486328
1787814532469385500,20.029385498046874,-148.04000854492188,-56.053001403808594,125.39600372314453
1787814532485200600,20.04520068359375,-148.13800048828125,-57.77800369262695,124.66800689697266
1787814532501254400,20.06125439453125,-147.85301208496094,-56.50200271606445,123.96600341796875
1787814532517716200,20.07771630859375,-148.76800537109375,-57.98800277709961,124.87100219726562
1787814532533448000,20.093447998046877,-146.69000244140625,-57.15500259399414,123.34800720214844
1787814532549853700,20.109853759765624,-145.27200317382812,-56.91800308227539,125.1820068359375
1787814532565589500,20.125589599609373,-146.46200561523438,-56.93000411987305,124.16400909423828
1787814532581650700,20.141650634765625,-145.3000030517578,-56.827003479003906,123.96000671386719
1787814532598065000,20.15806494140625,-150.39700317382812,-57.035003662109375,123.86300659179688
1787814532614269000,20.17426904296875,-148.6890106201172,-56.816001892089844,124.37200927734375
1787814532630185700,20.190185791015626,-147.1110076904297,-56.61100387573242,123.86200714111328
1787814532645975300,20.205975341796876,-146.47500610351562,-57.802001953125,123.03600311279297
1787814532662037200,20.222037353515624,-147.2790069580078,-59.28600311279297,124.14400482177734
1787814532678447900,20.23844775390625,-146.99700927734375,-57.47200393676758,123.65100860595703
1787814532694207700,20.254207763671875,-148.44100952148438,-58.7400016784668,124.76200866699219
1787814532710512400,20.270512451171875,-148.1610107421875,-58.44000244140625,123.23600769042969
1787814532726301700,20.2863017578125,-149.31800842285156,-57.8910026550293,124.0580062866211
1787814532742372600,20.30237255859375,-148.59201049804688,-58.01000213623047,123.24100494384766
1787814532758825500,20.318825439453125,-148.13800048828125,-57.993003845214844,124.56400299072266
1787814532774593300,20.33459326171875,-148.83399963378906,-57.81200408935547,122.02000427246094
1787814532791124000,20.3511240234375,-150.42800903320312,-55.217002868652344,123.57300567626953
1787814532806812200,20.366812255859376,-147.9040069580078,-55.6670036315918,122.24200439453125
1787814532822781400,20.382781494140627,-148.31600952148438,-55.87600326538086,122.64800262451172
1787814532839156700,20.39915673828125,-148.84400939941406,-56.30500411987305,122.54300689697266
1787814532854944800,20.41494482421875,-151.40501403808594,-55.012001037597656,122.7610092163086
1787814532871706400,20.431706298828125,-149.4029998779297,-55.56500244140625,121.7350082397461
1787814532887213800,20.4472138671875,-150.6230010986328,-57.47600173950195,122.94200897216797
1787814532903120000,20.463119873046875,-150.5380096435547,-55.435001373291016,123.26600646972656
1787814532919987200,20.4799873046875,-150.7410125732422,-56.509002685546875,123.05300903320312
1787814532935238000,20.49523779296875,-148.86900329589844,-55.131004333496094,122.14600372314453
1787814532951614500,20.511614501953126,-151.94601440429688,-55.125003814697266,122.25200653076172
1787814532967398400,20.5273984375,-151.12400817871094,-54.27900314331055,121.54500579833984
1787814532983459600,20.54345947265625,-150.86900329589844,-54.90200424194336,123.06700897216797
1787814532999903000,20.559903076171874,-151.18701171875,-54.79300308227539,123.17000579833984
1787814533015639000,20.57563916015625,-149.90701293945312,-55.656002044677734,122.85600280761719
1787814533032060000,20.592059814453126,-149.29800415039062,-54.48500442504883,122.35600280761719
