time,seconds_elapsed,z,y,x
1788650058749985000,0.138985107421875,0.059752464294433594,0.030878543853759766,-0.002088785171508789
1788650058766082800,0.155082763671875,0.22592544555664062,-0.1317143440246582,0.07251501083374023
1788650058782090800,0.1710908203125,0.3467826843261719,-0.04737043380737305,-0.11123019456863403
1788650058798149000,0.187149169921875,0.24191570281982422,-0.0523681640625,-0.04192131757736206
1788650058814182400,0.203182373046875,0.0076847076416015625,-0.014281749725341797,-0.008587837219238281
1788650058830238000,0.219238037109375,-0.1275320053100586,0.025414466857910156,0.03512227535247803
1788650058846274300,0.2352744140625,-0.12804317474365234,0.03209400177001953,0.010128408670425415
1788650058862316500,0.251316650390625,0.05272865295410156,-0.014438152313232422,0.06198003888130188
1788650058878380500,0.267380615234375,0.19896316528320312,-0.009765148162841797,0.13752716779708862
1788650058894428200,0.28342822265625,0.22096633911132812,0.03778219223022461,0.12499696016311646
1788650058910498600,0.29949853515625,0.2133464813232422,0.0015101432800292969,0.10038571059703827
1788650058926519600,0.31551953125,0.12485027313232422,-0.019894123077392578,0.013212576508522034
1788650058942538800,0.331538818359375,0.1742267608642578,-0.07041263580322266,-0.052129343152046204
1788650058958647000,0.34764697265625,0.25252723693847656,0.002288341522216797,0.05620372295379639
1788650058974660900,0.363660888671875,0.05442619323730469,0.05662822723388672,0.15684837102890015
1788650058990751700,0.379751708984375,-0.13611125946044922,0.05823993682861328,0.15424521267414093
1788650059006770700,0.395770751953125,-0.22370624542236328,0.008112907409667969,0.07992343604564667
1788650059022804200,0.41180419921875,-0.12518787384033203,-0.03213167190551758,0.07083280384540558
1788650059038919000,0.4279189453125,-0.07613086700439453,-0.05404233932495117,0.09881802648305893
1788650059054931500,0.443931396484375,-0.11528205871582031,-0.018757343292236328,0.15741035342216492
1788650059071025400,0.460025390625,0.005158424377441406,-0.03432464599609375,0.10502123087644577
1788650059087044600,0.476044677734375,0.07447147369384766,-0.07677412033081055,-0.060435838997364044
1788650059103063600,0.4920634765625,-0.021043777465820312,-0.03139781951904297,-0.06002616137266159
1788650059119130000,0.508130126953125,0.033904075622558594,0.014767646789550781,0.05705247446894646
1788650059135155200,0.5241552734375,0.26325035095214844,-0.0029687881469726562,0.0009303763508796692
1788650059151260400,0.540260498046875,0.1368694305419922,-0.025308609008789062,-0.017138436436653137
1788650059167277000,0.556277099609375,-0.022238731384277344,0.012935161590576172,-0.0102238729596138
1788650059183312000,0.572311767578125,0.04745769500732422,-0.04236412048339844,0.01329619437456131
1788650059199378700,0.588378662109375,0.04696941375732422,-0.09126806259155273,-0.014066189527511597
1788650059215416000,0.604416015625,-0.012487411499023438,-0.022361278533935547,-0.024909183382987976
1788650059231481000,0.620481201171875,-0.12770366668701172,-0.002628326416015625,0.08057045936584473
1788650059247499000,0.6364990234375,-0.09449100494384766,-0.004343986511230469,0.107744961977005
1788650059263518200,0.652518310546875,0.2098712921142578,0.03381013870239258,0.03871986269950867
1788650059279586800,0.6685869140625,0.39843273162841797,0.03307533264160156,-0.07494936138391495
1788650059295635000,0.684635009765625,0.2607393264770508,0.04281187057495117,-0.10497216880321503
1788650059311713800,0.7007138671875,0.0028934478759765625,0.08186101913452148,0.01109747588634491
1788650059327733500,0.7167333984375,0.08683013916015625,0.11503839492797852,0.06202113628387451
1788650059343773700,0.732773681640625,0.010311126708984375,0.0789031982421875,0.022959396243095398
1788650059359841500,0.748841552734375,0.13271331787109375,0.049540042877197266,0.0019347667694091797
1788650059375896000,0.76489599609375,0.17831802368164062,0.030040264129638672,-0.012242339551448822
1788650059391949800,0.78094970703125,-0.07457160949707031,0.023222923278808594,0.011825062334537506
1788650059407972900,0.796972900390625,-0.22056865692138672,0.025578975677490234,0.02717866376042366
1788650059423993900,0.812993896484375,-0.10075187683105469,0.08342838287353516,0.016536235809326172
1788650059440064800,0.829064697265625,0.14990234375,0.10013389587402344,-0.0075765326619148254
1788650059456126500,0.84512646484375,0.17156982421875,0.1293354034423828,-0.055680759251117706
1788650059472215800,0.8612158203125,0.11363983154296875,0.09232187271118164,-0.0730857253074646
1788650059488233700,0.877233642578125,0.08519268035888672,0.11344528198242188,-0.08635826408863068
1788650059504267300,0.893267333984375,0.049922943115234375,0.1074066162109375,-0.12273740768432617
1788650059520336600,0.909336669921875,0.05275249481201172,0.1352834701538086,-0.0890112817287445
1788650059536360000,0.92535986328125,0.022493362426757812,0.1406111717224121,-0.04050733149051666
1788650059552457500,0.94145751953125,-0.06450080871582031,0.09401607513427734,-0.03725045919418335
1788650059568483800,0.95748388671875,-0.045655250549316406,0.07507658004760742,-0.14439915120601654
1788650059584504000,0.973504150390625,0.06398296356201172,0.058933258056640625,-0.1537000834941864
1788650059600575500,0.989575439453125,0.17049694061279297,0.06357288360595703,-0.08726915717124939
1788650059616605700,1.005605712890625,0.18057727813720703,0.09366416931152344,-0.044976621866226196
1788650059632712700,1.021712646484375,0.20183658599853516,0.08723592758178711,-0.0985521525144577
1788650059648746500,1.03774658203125,0.03848743438720703,0.03831815719604492,-0.07406948506832123
1788650059664789500,1.05378955078125,-0.041370391845703125,0.026054859161376953,-0.06920619308948517
1788650059680862500,1.069862548828125,0.03577232360839844,0.013522624969482422,-0.02583111822605133
1788650059696905500,1.085905517578125,0.14536476135253906,-0.006519794464111328,0.020582735538482666
1788650059712971000,1.101970947265625,0.1767282485961914,-0.038008689880371094,0.06677337735891342
1788650059729016300,1.118016357421875,0.006243705749511719,-0.0659332275390625,0.11442366242408752
1788650059745047300,1.13404736328125,-0.17023277282714844,-0.0245361328125,0.10650935769081116
1788650059761117700,1.15011767578125,-0.35649871826171875,0.03903055191040039,0.13427335023880005
1788650059777164000,1.1661640625,-0.23044967651367188,0.06729269027709961,0.09165987372398376
1788650059793240600,1.182240478515625,-0.0038061141967773438,0.04077768325805664,-0.004950389266014099
1788650059809289200,1.198289306640625,0.133331298828125,0.0018820762634277344,-0.04980047047138214
1788650059825338600,1.214338623046875,0.0797281265258789,-0.019723892211914062,-0.09892234206199646
1788650059841403600,1.230403564453125,0.04372215270996094,-0.045574188232421875,-0.07503409683704376
1788650059857462000,1.2464619140625,0.11970329284667969,0.0543212890625,-0.06143295764923096
1788650059873546500,1.26254638671875,0.17132282257080078,0.0738072395324707,-0.022233784198760986
1788650059889564400,1.278564453125,0.14673805236816406,0.09242105484008789,-0.07113437354564667
1788650059905582600,1.29458251953125,0.17743301391601562,0.07463693618774414,-0.09466417133808136
1788650059921696800,1.31069677734375,0.11536216735839844,0.029184341430664062,-0.12542802095413208
1788650059937708500,1.32670849609375,0.23283004760742188,0.034081459045410156,-0.11049731820821762
1788650059953807000,1.34280712890625,0.3643951416015625,0.027577877044677734,-0.05351048707962036
1788650059969827000,1.3588271484375,0.31519508361816406,0.03280162811279297,-0.05876217782497406
1788650059985864200,1.3748642578125,0.15505313873291016,0.02252817153930664,-0.06703399866819382
1788650060001934800,1.390934814453125,-0.008990287780761719,0.04380369186401367,-0.025312721729278564
1788650060017964300,1.40696435546875,-0.07984542846679688,0.06308937072753906,-0.022327996790409088
1788650060034074400,1.423074462890625,0.04198741912841797,0.032440185546875,-0.050976887345314026
1788650060050092500,1.439092529296875,0.16341686248779297,0.038622379302978516,-0.05274788290262222
1788650060066107000,1.45510693359375,0.14182186126708984,0.024297237396240234,-0.01224876195192337
1788650060082172200,1.471172119140625,0.12790679931640625,-0.019826889038085938,-0.0470535010099411
1788650060098201300,1.487201416015625,0.12871646881103516,-0.07675457000732422,-0.06688855588436127
1788650060114307300,1.503307373046875,0.05528831481933594,-0.023514270782470703,-0.03200320154428482
1788650060130321700,1.51932177734375,0.08903789520263672,-0.009706497192382812,0.04954465851187706
1788650060146351400,1.535351318359375,0.1696147918701172,0.0016732215881347656,0.10591325163841248
1788650060162419200,1.551419189453125,0.28075218200683594,-0.02161407470703125,0.1430441290140152
1788650060178461200,1.567461181640625,0.326904296875,-0.034554481506347656,0.14461034536361694
1788650060194520300,1.583520263671875,0.2963676452636719,-0.05692434310913086,0.17855416238307953
1788650060210534000,1.599533935546875,0.28731346130371094,-0.06954622268676758,0.1391831338405609
1788650060226546400,1.61554638671875,0.20691680908203125,-0.052100181579589844,0.10552005469799042
1788650060242609000,1.63160888671875,0.08734893798828125,-0.038012027740478516,0.11466167867183685
1788650060258653400,1.6476533203125,-0.025529861450195312,-0.00659942626953125,0.08302048593759537
1788650060274723600,1.6637236328125,-0.1380329132080078,-0.004791259765625,0.08264639228582382
1788650060290739000,1.679739013671875,-0.15729331970214844,0.021224021911621094,0.039945680648088455
1788650060306768000,1.695767822265625,-0.19553661346435547,0.025329113006591797,-0.021742388606071472
1788650060322828000,1.711828125,-0.2433147430419922,0.007785797119140625,-0.0914766937494278
1788650060338881500,1.727881591796875,-0.17326641082763672,-0.012812137603759766,-0.1201014518737793
1788650060354967000,1.743967041015625,-0.03835487365722656,0.009677410125732422,-0.032753393054008484
1788650060370985000,1.75998486328125,0.054879188537597656,-0.025524616241455078,-0.012705128639936447
1788650060386999600,1.77599951171875,0.016880035400390625,-0.035349369049072266,-0.00621255487203598
1788650060403065600,1.792065673828125,-0.04687976837158203,-0.015306472778320312,0.0007762834429740906
1788650060419077600,1.80807763671875,-0.08659076690673828,0.014069557189941406,0.0013963133096694946
1788650060435170600,1.824170654296875,-0.11458492279052734,0.029651641845703125,-0.04894636571407318
1788650060451186200,1.840186279296875,-0.09549331665039062,0.05901193618774414,-0.03741685673594475
1788650060467222000,1.856221923828125,-0.045917510986328125,0.08265256881713867,-0.053808167576789856
1788650060483288800,1.872288818359375,-0.018100738525390625,0.13551855087280273,-0.025895526632666588
1788650060499315000,1.88831494140625,0.012267112731933594,0.1377577781677246,-0.05029664933681488
1788650060515414300,1.904414306640625,-0.056682586669921875,0.18751096725463867,-0.1528548151254654
1788650060531428900,1.920428955078125,-0.1745586395263672,0.22226572036743164,-0.12097206711769104
1788650060547441000,1.93644091796875,-0.16982173919677734,0.21518731117248535,-0.13350893557071686
1788650060563510000,1.952510009765625,-0.08885383605957031,0.1946086883544922,-0.059397142380476
1788650060579542300,1.968542236328125,0.012732505798339844,0.1785132884979248,-0.001627674326300621
1788650060595652000,1.984652099609375,0.05117511749267578,0.15964317321777344,0.0471150241792202
1788650060611679700,2.0006796875,0.03161144256591797,0.1659548282623291,0.07141932845115662
1788650060627714600,2.016714599609375,0.09982490539550781,0.13819503784179688,0.030065905302762985
1788650060643781600,2.03278173828125,0.141571044921875,0.170607328414917,-0.01541070081293583
1788650060659817200,2.048817138671875,0.09772682189941406,0.18731975555419922,-0.03643025457859039
1788650060675887400,2.064887451171875,0.08541393280029297,0.18157529830932617,-0.033845242112874985
1788650060691931000,2.080930908203125,0.1254711151123047,0.13582110404968262,-0.049501702189445496
1788650060707962400,2.09696240234375,0.20350360870361328,0.1315319538116455,0.02086823433637619
1788650060724031000,2.113031005859375,0.1219797134399414,0.1252908706665039,0.07670607417821884
1788650060740102700,2.1291025390625,0.027309417724609375,0.11628174781799316,0.05243121087551117
1788650060756172000,2.145172119140625,-0.004464149475097656,0.08903932571411133,0.05546363815665245
1788650060772221700,2.1612216796875,0.0000438690185546875,0.07772207260131836,0.021343378350138664
1788650060788276000,2.17727587890625,0.014636039733886719,0.10595345497131348,-0.0455678254365921
1788650060804343300,2.19334326171875,0.005917549133300781,0.16864848136901855,-0.00914517417550087
1788650060820356000,2.209356201171875,-0.12147140502929688,0.18105101585388184,0.06695471704006195
1788650060836446500,2.225446533203125,-0.25506591796875,0.21036481857299805,0.12135989218950272
1788650060852462600,2.241462646484375,-0.23342609405517578,0.2501709461212158,0.07063121348619461
1788650060868474600,2.257474609375,-0.1383066177368164,0.3395810127258301,0.11363149434328079
1788650060884539400,2.273539306640625,0.012394905090332031,0.37516307830810547,0.13313984870910645
1788650060900555800,2.2895556640625,0.15581989288330078,0.3846125602722168,0.01936882548034191
1788650060916657700,2.30565771484375,0.15088367462158203,0.3962833881378174,-0.0291398037225008
1788650060932677000,2.321677001953125,0.13453197479248047,0.4857213497161865,0.012147460132837296
1788650060948708600,2.33770849609375,-0.012639045715332031,0.5468931198120117,0.11041612178087234
1788650060964772000,2.353772216796875,0.1372833251953125,0.5214390754699707,0.28434035181999207
1788650060980792600,2.36979248046875,0.2105121612548828,0.5321648120880127,0.21482603251934052
1788650060996892400,2.385892333984375,0.032562255859375,0.5922460556030273,0.18877507746219635
1788650061012910000,2.40191015625,-0.3119792938232422,0.7096028327941895,0.24119338393211365
1788650061028931600,2.417931640625,-0.48818016052246094,0.7795758247375488,0.3557268977165222
1788650061045001500,2.43400146484375,-0.4378032684326172,0.734123706817627,0.330308735370636
1788650061061036500,2.45003662109375,-0.17113018035888672,0.6398978233337402,0.22368258237838745
1788650061077102600,2.4661025390625,-0.1409015655517578,0.5665922164916992,0.13396140933036804
1788650061093122000,2.4821220703125,-0.22617721557617188,0.5615005493164062,0.0784984827041626
1788650061109156000,2.498156005859375,-0.3118934631347656,0.5738353729248047,0.06664842367172241
1788650061125225200,2.51422509765625,-0.15899181365966797,0.587646484375,-0.00902092456817627
1788650061141259300,2.53025927734375,-0.09151935577392578,0.5807151794433594,-0.07984656095504761
1788650061157322800,2.54632275390625,-0.27933597564697266,0.5814347267150879,-0.13101881742477417
1788650061173340000,2.56233984375,-0.49866485595703125,0.6116600036621094,-0.11358661949634552
1788650061189357300,2.578357421875,-0.568202018737793,0.5605759620666504,-0.08327572047710419
1788650061205424000,2.594424072265625,-0.45720577239990234,0.5152187347412109,-0.12079164385795593
1788650061221469200,2.61046923828125,-0.19725799560546875,0.3949904441833496,-0.1276368945837021
1788650061237542100,2.626542236328125,-0.07430839538574219,0.34790563583374023,-0.047876931726932526
1788650061253562400,2.642562255859375,-0.08734989166259766,0.33368873596191406,0.02387094497680664
1788650061269594600,2.6585947265625,-0.22605514526367188,0.2503700256347656,0.002911671996116638
1788650061285664500,2.67466455078125,-0.3547534942626953,0.25048112869262695,0.010854631662368774
1788650061301721900,2.690721923828125,-0.40288448333740234,0.2574458122253418,0.08601458370685577
1788650061317821200,2.7068212890625,-0.4663209915161133,0.2784714698791504,0.23008453845977783
1788650061333843700,2.72284375,-0.38454341888427734,0.3419380187988281,0.24927113950252533
1788650061349864000,2.738864013671875,-0.3085746765136719,0.29248523712158203,0.23805347084999084
1788650061365931800,2.754931884765625,-0.3096952438354492,0.30148744583129883,0.14713488519191742
1788650061381950000,2.770949951171875,-0.2536792755126953,0.29915761947631836,0.03312245011329651
1788650061398035200,2.78703515625,-0.23498821258544922,0.3233962059020996,0.056012287735939026
1788650061414055400,2.803055419921875,0.08703422546386719,0.28862524032592773,0.06714184582233429
1788650061430091300,2.81909130859375,0.5555925369262695,0.1653733253479004,-0.031851112842559814
1788650061446157600,2.835157470703125,1.1676502227783203,0.0722193717956543,-0.09061269462108612
1788650061462181600,2.851181640625,1.6332893371582031,-0.046335697174072266,-0.12462594360113144
1788650061478285000,2.86728515625,1.6329021453857422,-0.10108232498168945,-0.13473646342754364
1788650061494307800,2.883307861328125,1.2593774795532227,0.14607477188110352,-0.06629296392202377
1788650061510323200,2.8993232421875,0.8246726989746094,0.1784062385559082,0.13885614275932312
1788650061526388500,2.915388427734375,0.5024356842041016,-0.07450628280639648,0.04406483471393585
1788650061542420700,2.931420654296875,0.7271738052368164,-0.30956411361694336,-0.23462365567684174
1788650061558529000,2.947529052734375,1.5184574127197266,-0.5593562126159668,-0.17815271019935608
1788650061574563000,2.96356298828125,2.5322751998901367,-0.8380453586578369,-0.09018588811159134
1788650061590595000,2.979594970703125,3.2945518493652344,-1.1878433227539062,-0.2102537304162979
1788650061606641000,2.995640869140625,3.3429880142211914,-1.3987805843353271,-0.5336097478866577
1788650061622664400,3.01166455078125,2.4797563552856445,-1.4603607654571533,-0.8699753284454346
1788650061638733300,3.0277333984375,1.3277673721313477,-1.401810884475708,-0.8654237985610962
1788650061654782000,3.043781982421875,0.12306690216064453,-1.3310108184814453,-0.7761197090148926
1788650061670810400,3.059810302734375,-0.7658219337463379,-1.287621021270752,-0.6340516209602356
1788650061686865200,3.075865234375,-0.9089999198913574,-1.1835110187530518,-0.5767674446105957
1788650061702896000,3.091896240234375,-0.7314982414245605,-1.1980750560760498,-0.32219263911247253
1788650061718930200,3.10793017578125,-0.33953380584716797,-1.2770752906799316,-0.3424117863178253
1788650061734972200,3.12397216796875,0.0722799301147461,-1.428598403930664,-0.4282558560371399
1788650061751024400,3.1400244140625,0.46744728088378906,-1.4954907894134521,-0.64423006772995
1788650061767129300,3.15612939453125,0.6091327667236328,-1.4343070983886719,-0.5673190951347351
1788650061783142400,3.172142333984375,0.29041290283203125,-1.3905744552612305,-0.43664687871932983
1788650061799234300,3.188234375,-0.16299057006835938,-1.2110610008239746,-0.43626534938812256
1788650061815256300,3.20425634765625,-0.4514322280883789,-1.117109775543213,-0.36103397607803345
1788650061831272400,3.2202724609375,-0.6110668182373047,-1.0181910991668701,-0.3152865171432495
1788650061847387600,3.2363876953125,-0.5957717895507812,-0.8709204196929932,-0.3471910357475281
1788650061863401700,3.252401611328125,-0.6844124794006348,-0.7020468711853027,-0.42768731713294983
1788650061887499800,3.276499755859375,-0.8334059715270996,-0.5250515937805176,-0.3723914623260498
1788650061903515400,3.292515380859375,-0.8473610877990723,-0.538607120513916,-0.24576698243618011
1788650061919582700,3.308582763671875,-0.5752182006835938,-0.5114598274230957,-0.23632000386714935
1788650061935637800,3.3246376953125,-0.29945945739746094,-0.5345597267150879,-0.2243645042181015
1788650061951717000,3.340717041015625,-0.2162027359008789,-0.46447277069091797,-0.09090378135442734
1788650061967765000,3.356764892578125,-0.36746883392333984,-0.38712644577026367,-0.05523195117712021
1788650061983779300,3.372779296875,-0.5397405624389648,-0.29389238357543945,0.0522112138569355
1788650061999826200,3.388826171875,-0.655369758605957,-0.31389427185058594,0.04092986881732941
1788650062015885000,3.404885009765625,-0.4280128479003906,-0.32097434997558594,-0.025082167237997055
1788650062031921700,3.420921630859375,0.15753459930419922,-0.235382080078125,-0.18986688554286957
1788650062047970800,3.436970703125,0.506220817565918,-0.10940694808959961,-0.40482965111732483
1788650062063981800,3.45298193359375,0.49254798889160156,0.025488853454589844,-0.45378148555755615
1788650062080014600,3.4690146484375,0.38326168060302734,0.12667417526245117,-0.4156063199043274
1788650062096078800,3.485078857421875,0.551274299621582,0.23850202560424805,-0.4029327929019928
1788650062112114700,3.50111474609375,0.8754339218139648,0.24628591537475586,-0.30929824709892273
1788650062128158500,3.517158447265625,1.224930763244629,0.06429529190063477,-0.14160919189453125
1788650062144169500,3.53316943359375,1.4384546279907227,-0.02282238006591797,-0.18774989247322083
1788650062160210400,3.54921044921875,1.3691396713256836,0.47049522399902344,-0.5043783783912659
1788650062176284000,3.565283935546875,1.037644386291504,0.7701725959777832,-0.04997304454445839
1788650062192336600,3.581336669921875,0.7313785552978516,0.3782644271850586,0.7136367559432983
1788650062208385300,3.59738525390625,1.1948280334472656,-0.1039586067199707,0.9016996026039124
1788650062224396800,3.613396728515625,2.428476333618164,-0.8023910522460938,0.7205483317375183
1788650062240436700,3.629436767578125,3.924759864807129,-1.4056224822998047,0.7776626348495483
1788650062256492800,3.645492919921875,4.592002868652344,-1.5767476558685303,0.6286342740058899
1788650062272559400,3.661559326171875,3.858121871948242,-1.466557264328003,0.568089485168457
1788650062288586200,3.677586181640625,2.180173873901367,-1.2715659141540527,0.6438290476799011
1788650062304600800,3.693600830078125,0.3809967041015625,-0.9069018363952637,0.7411256432533264
1788650062320624600,3.709624755859375,-0.5876331329345703,-0.7984919548034668,0.742794394493103
1788650062336700200,3.7257001953125,-0.790196418762207,-0.7016232013702393,1.315392255783081
1788650062352783000,3.741783203125,-0.5336837768554688,-0.8530657291412354,1.651383638381958
1788650062368816000,3.757816162109375,-0.3102884292602539,-1.1149063110351562,1.3151568174362183
1788650062384819500,3.7738193359375,-0.18749332427978516,-1.3896541595458984,0.9521539211273193
1788650062400877800,3.7898779296875,-0.18709850311279297,-1.5867843627929688,0.6602728366851807
1788650062416934100,3.80593408203125,-0.34001731872558594,-1.601212978363037,0.2819116711616516
1788650062433006300,3.82200634765625,-0.4565725326538086,-1.55513334274292,0.01428966224193573
1788650062449054700,3.8380546875,-0.5802803039550781,-1.4274678230285645,-0.13462364673614502
1788650062465066500,3.85406640625,-0.6891956329345703,-1.2256453037261963,-0.3020651638507843
1788650062481113900,3.87011376953125,-0.6802577972412109,-1.043008804321289,-0.30483442544937134
1788650062497172000,3.886171875,-0.6960964202880859,-0.8913869857788086,-0.2038412243127823
1788650062513250800,3.902250732421875,-0.7345657348632812,-0.7134091854095459,-0.08664638549089432
1788650062529311700,3.918311767578125,-0.6982526779174805,-0.5847463607788086,-0.06045403331518173
1788650062545322500,3.934322509765625,-0.7651796340942383,-0.4941830635070801,0.19350776076316833
1788650062561380400,3.95038037109375,-0.7843780517578125,-0.42013120651245117,0.3081245422363281
1788650062577442800,3.96644287109375,-0.8304452896118164,-0.3329281806945801,0.41750046610832214
1788650062593483800,3.98248388671875,-0.8490495681762695,-0.2525668144226074,0.44374942779541016
1788650062609547000,3.998547119140625,-0.7745761871337891,-0.16661739349365234,0.3740195035934448
1788650062625572900,4.01457275390625,-0.5494794845581055,-0.032163143157958984,0.2919476330280304
1788650062641616400,4.030616455078125,-0.40146541595458984,-0.01881265640258789,0.2721085548400879
1788650062657691100,4.046691162109375,-0.18417930603027344,-0.06992149353027344,0.31479254364967346
1788650062673737700,4.06273779296875,0.047461509704589844,-0.06136274337768555,0.23596972227096558
1788650062689817000,4.078817138671875,0.10395336151123047,0.10090351104736328,0.16235336661338806
1788650062705832000,4.09483203125,-0.1566600799560547,0.29376840591430664,0.16778990626335144
1788650062721935400,4.110935302734375,-0.3723430633544922,0.5402674674987793,0.14150139689445496
1788650062737971500,4.126971435546875,-0.43052196502685547,0.737947940826416,0.1540924310684204
1788650062754036700,4.14303662109375,-0.19731521606445312,0.8004646301269531,0.02693174034357071
1788650062770084400,4.15908447265625,0.2883110046386719,0.7225146293640137,-0.07305434346199036
1788650062786100000,4.175099853515625,0.9549713134765625,0.5388307571411133,-0.057727426290512085
1788650062802145800,4.191145751953125,1.5377159118652344,0.2927713394165039,-0.018360890448093414
1788650062818192100,4.207192138671875,1.9996614456176758,-0.013532638549804688,-0.05904364585876465
1788650062834270000,4.22327001953125,2.061507225036621,-0.1898813247680664,-0.14929062128067017
1788650062850319600,4.239319580078125,1.4791898727416992,0.24023199081420898,-0.33187681436538696
1788650062866332200,4.255332275390625,0.6557197570800781,0.2963228225708008,0.01353500783443451
1788650062882392600,4.271392578125,0.10783576965332031,0.057874202728271484,-0.41290000081062317
1788650062898437600,4.287437744140625,0.3542757034301758,-0.0965261459350586,-0.963513970375061
1788650062914519000,4.30351904296875,1.3695507049560547,-0.40855836868286133,-0.983092725276947
1788650062930568200,4.319568115234375,2.3596906661987305,-0.8172280788421631,-0.7179866433143616
1788650062946583000,4.3355830078125,2.7390737533569336,-1.1416988372802734,-0.5331932306289673
1788650062962604800,4.351604736328125,2.449068069458008,-1.156545639038086,-0.5141505002975464
1788650062978668000,4.36766796875,1.8524885177612305,-1.137007236480713,-0.31958726048469543
1788650062994702300,4.383702392578125,1.4789466857910156,-1.191890001296997,-0.16364574432373047
1788650063010746600,4.39974658203125,1.2800188064575195,-1.2557384967803955,-0.14337879419326782
1788650063026779400,4.415779296875,0.9033775329589844,-1.2921626567840576,-0.134389728307724
1788650063042807000,4.43180712890625,0.3970632553100586,-1.3214051723480225,-0.12801961600780487
1788650063058889200,4.44788916015625,-0.10183906555175781,-1.381988286972046,-0.15929390490055084
1788650063074931200,4.46393115234375,-0.5123271942138672,-1.397002935409546,-0.0913461297750473
1788650063090978800,4.479978759765625,-0.6897821426391602,-1.382387399673462,-0.040618136525154114
1788650063106990000,4.495989990234375,-0.5394582748413086,-1.3314073085784912,-0.11476463079452515
1788650063123032600,4.512032470703125,-0.41634178161621094,-1.2972443103790283,-0.2613554894924164
1788650063147127800,4.5361279296875,-0.48163890838623047,-1.090965986251831,-0.23037928342819214
1788650063163227100,4.55222705078125,-0.7182960510253906,-0.9638814926147461,-0.16639390587806702
1788650063179247900,4.568247802734375,-0.9667649269104004,-0.8256230354309082,-0.1278810054063797
1788650063195281400,4.584281494140625,-1.027346134185791,-0.5846669673919678,-0.10371716320514679
1788650063211351600,4.6003515625,-0.9460606575012207,-0.43839406967163086,0.060124799609184265
1788650063227364400,4.6163642578125,-0.808746337890625,-0.33700132369995117,0.16414335370063782
1788650063243454000,4.632453857421875,-0.7482261657714844,-0.30209779739379883,-0.05361831188201904
1788650063259477800,4.648477783203125,-0.6336755752563477,-0.32248830795288086,-0.2539263069629669
1788650063275495700,4.66449560546875,-0.5337381362915039,-0.4023609161376953,-0.2835625112056732
1788650063291566300,4.68056640625,-0.6580238342285156,-0.29250335693359375,-0.26503676176071167
1788650063307582000,4.69658203125,-0.7339954376220703,-0.15226507186889648,-0.1393100470304489
1788650063323675100,4.712675048828125,-0.7241935729980469,-0.07072257995605469,0.07406586408615112
1788650063339696400,4.7286962890625,-0.5281209945678711,0.0024771690368652344,-0.04536690190434456
1788650063355735600,4.744735595703125,-0.3812084197998047,0.037528038024902344,-0.2373633235692978
1788650063371807700,4.760807861328125,-0.35743141174316406,0.11254310607910156,-0.5063537955284119
1788650063387837000,4.7768369140625,-0.48840808868408203,0.3671383857727051,-0.6215835809707642
1788650063403916000,4.792916015625,-0.668675422668457,0.626401424407959,-0.5695902109146118
1788650063419948500,4.808948486328125,-0.5892925262451172,0.895331859588623,-0.5038101077079773
1788650063435970000,4.824969970703125,-0.052666664123535156,0.8699116706848145,-0.36897730827331543
1788650063452039000,4.841038818359375,0.7375783920288086,0.7300333976745605,-0.4094064235687256
1788650063468075800,4.85707568359375,1.5582656860351562,0.40316057205200195,-0.3598628044128418
1788650063484134100,4.873134033203125,2.4474430084228516,0.1395578384399414,-0.32424914836883545
1788650063500169500,4.88916943359375,3.1869211196899414,-0.16591501235961914,-0.42223799228668213
1788650063516215000,4.905215087890625,3.0144386291503906,0.03743267059326172,-0.6693932414054871
1788650063532259600,4.921259521484375,2.146143913269043,0.6442475318908691,-0.4169255793094635
1788650063548283600,4.93728369140625,1.1776351928710938,-0.009727001190185547,0.8157028555870056
1788650063564351500,4.9533515625,0.8887109756469727,-0.4458005428314209,0.8359190225601196
1788650063580394800,4.969394775390625,1.5451784133911133,-0.8409788608551025,0.5822792053222656
1788650063596431000,4.98543115234375,2.19777774810791,-1.2764892578125,0.5943089723587036
1788650063612491300,5.0014912109375,2.370987892150879,-1.2870972156524658,0.3128622770309448
1788650063628536600,5.01753662109375,1.805861473083496,-0.9180128574371338,-0.06270228326320648
1788650063644624000,5.033623779296875,0.9997348785400391,-0.7359466552734375,-0.2620144486427307
1788650063660642800,5.049642822265625,0.10024070739746094,-0.8630702495574951,-0.29476895928382874
1788650063676676400,5.06567626953125,-0.3237590789794922,-0.9348471164703369,0.23241791129112244
1788650063692782300,5.0817822265625,-0.17096328735351562,-0.8989818096160889,0.827140212059021
1788650063708808000,5.097807861328125,0.4414100646972656,-1.0185906887054443,0.9381487369537354
1788650063724905000,5.113905029296875,1.002995491027832,-1.3531525135040283,0.6690855622291565
1788650063740927500,5.129927490234375,1.3048906326293945,-1.5460634231567383,0.26839494705200195
1788650063756949000,5.145948974609375,1.1346807479858398,-1.528336524963379,-0.04835563153028488
1788650063773011000,5.162010986328125,0.5902862548828125,-1.2615773677825928,-0.14631953835487366
1788650063789022000,5.17802197265625,-0.16655349731445312,-1.0761504173278809,-0.05047445371747017
1788650063805120000,5.1941201171875,-0.919306755065918,-1.0073223114013672,-0.04247508943080902
1788650063821140200,5.21014013671875,-1.4496030807495117,-0.8572385311126709,-0.19061365723609924
1788650063837176000,5.226176025390625,-1.7063450813293457,-0.7268927097320557,-0.2777693271636963
1788650063853244400,5.242244384765625,-1.862989902496338,-0.5970191955566406,-0.2882626950740814
1788650063869271800,5.258271728515625,-1.8799443244934082,-0.3672192096710205,-0.15394960343837738
1788650063885384000,5.274384033203125,-1.801225185394287,-0.20372962951660156,0.09528401494026184
1788650063901405200,5.2904052734375,-1.4842123985290527,-0.04951333999633789,0.11776120960712433
1788650063917424000,5.306424072265625,-1.0199036598205566,0.03338813781738281,0.07162652909755707
1788650063933493200,5.3224931640625,-0.6314067840576172,0.11999058723449707,0.052512139081954956
1788650063949528000,5.338528076171875,-0.4066457748413086,0.150864839553833,0.0689893364906311
1788650063965589200,5.35458935546875,-0.3047924041748047,0.13942408561706543,0.052049219608306885
1788650063981608000,5.37060791015625,-0.1282806396484375,0.11919021606445312,0.09127235412597656
1788650063997645600,5.3866455078125,-0.01853466033935547,0.06450986862182617,0.12047111988067627
1788650064013716000,5.402716064453125,0.02447795867919922,0.013675928115844727,0.1205882728099823
1788650064029763800,5.418763916015625,0.07205581665039062,0.12086677551269531,0.026667535305023193
1788650064045848000,5.43484814453125,0.11011219024658203,0.3539149761199951,-0.05484175682067871
1788650064061868300,5.450868408203125,0.21898746490478516,0.5011482238769531,-0.12257522344589233
1788650064077887500,5.466887451171875,0.3489265441894531,0.5041623115539551,-0.1880570650100708
1788650064093958000,5.4829580078125,0.32180309295654297,0.4826335906982422,-0.22978746891021729
1788650064110005800,5.499005859375,0.3828248977661133,0.3320455551147461,-0.24151504039764404
1788650064126082800,5.515082763671875,0.9941368103027344,0.018326759338378906,-0.05779656767845154
1788650064142099000,5.531098876953125,1.821650505065918,-0.30725812911987305,0.09589576721191406
1788650064158130400,5.54713037109375,2.423015594482422,-0.4194324016571045,0.02009791135787964
1788650064174171000,5.5631708984375,2.1420040130615234,-0.0004138946533203125,-0.14562073349952698
1788650064198253000,5.587253173828125,0.9178733825683594,0.12041711807250977,-0.013118535280227661
1788650064214302200,5.60330224609375,0.7554731369018555,0.040503501892089844,-0.49402058124542236
1788650064230316000,5.61931591796875,1.4390544891357422,-0.1239781379699707,-0.9227145314216614
1788650064246360600,5.635360595703125,2.5134992599487305,-0.5385420322418213,-0.635833740234375
1788650064262424600,5.651424560546875,2.9296226501464844,-0.9301815032958984,-0.4842212200164795
1788650064278504400,5.66750439453125,2.4838314056396484,-0.9113025665283203,-0.6130519509315491
1788650064294534100,5.6835341796875,1.4534873962402344,-0.971489429473877,-0.47494518756866455
1788650064310551600,5.699551513671875,0.6043062210083008,-1.1500990390777588,-0.4311569333076477
1788650064326578200,5.715578125,0.26224803924560547,-1.2222001552581787,-0.5510722398757935
1788650064342624500,5.73162451171875,0.11413097381591797,-1.2317249774932861,-0.6044827699661255
1788650064358698000,5.747697998046875,-0.0890817642211914,-1.2138826847076416,-0.3845883011817932
1788650064374753500,5.76375341796875,-0.29181861877441406,-1.2260587215423584,-0.13115786015987396
1788650064390771200,5.779771240234375,-0.2706937789916992,-1.3517003059387207,-0.09711925685405731
1788650064406820400,5.7958203125,-0.09822940826416016,-1.4440195560455322,-0.13780906796455383
1788650064422868000,5.811867919921875,-0.08110523223876953,-1.473773717880249,-0.14532805979251862
1788650064438905300,5.8279052734375,-0.19625568389892578,-1.4802563190460205,-0.08106020092964172
1788650064454962700,5.843962646484375,-0.6222133636474609,-1.3246757984161377,-0.02869659662246704
1788650064470980000,5.85997998046875,-1.1707582473754883,-1.0543107986450195,-0.07706299424171448
1788650064487004200,5.876004150390625,-1.7619080543518066,-0.8321340084075928,-0.07007578015327454
1788650064503050000,5.892050048828125,-1.9715361595153809,-0.6358208656311035,-0.20999008417129517
1788650064519099000,5.908098876953125,-1.8152194023132324,-0.45043230056762695,-0.30432409048080444
1788650064535177700,5.924177734375,-1.4155001640319824,-0.3371553421020508,-0.3099786043167114
1788650064551206700,5.94020654296875,-1.0400261878967285,-0.2179245948791504,-0.1714625507593155
1788650064567256300,5.95625634765625,-0.5943088531494141,-0.16686773300170898,-0.0652289092540741
1788650064583330300,5.972330322265625,-0.030187606811523438,-0.08376002311706543,-0.18267041444778442
1788650064599389000,5.988388916015625,0.42261505126953125,-0.03873753547668457,-0.2596661150455475
1788650064615435800,6.004435791015625,0.49752044677734375,0.04749798774719238,-0.3481919765472412
1788650064631446800,6.02044677734375,0.2703132629394531,0.09667229652404785,-0.3474840521812439
1788650064647510500,6.036510498046875,-0.018278121948242188,0.10598349571228027,-0.27605772018432617
1788650064663552000,6.052552001953125,-0.17778968811035156,0.1267552375793457,-0.2975424826145172
1788650064679635000,6.068635009765625,-0.25927257537841797,0.3049001693725586,-0.3799048662185669
1788650064695683800,6.084683837890625,-0.5696277618408203,0.5426135063171387,-0.3868516683578491
1788650064711695400,6.1006953125,-0.6940755844116211,0.8179070949554443,-0.3877377510070801
1788650064727741400,6.116741455078125,-0.5129165649414062,1.0796921253204346,-0.34641143679618835
1788650064743808500,6.13280859375,0.008167266845703125,1.2380123138427734,-0.30505889654159546
1788650064759889000,6.148888916015625,0.5755329132080078,1.2193450927734375,-0.0828264057636261
1788650064775938000,6.16493798828125,1.433365821838379,0.9623584747314453,-0.1574055403470993
1788650064791951000,6.180951171875,2.274646759033203,0.4774608612060547,-0.32219600677490234
1788650064807988500,6.196988525390625,2.8088207244873047,0.14189553260803223,-0.4214063286781311
1788650064824018400,6.213018310546875,2.7269678115844727,0.557589054107666,-0.6366046667098999
1788650064840061700,6.229061767578125,2.1832313537597656,0.8634893894195557,-0.07791873812675476
1788650064856080600,6.24508056640625,1.4605016708374023,0.5446479320526123,0.8210473656654358
1788650064872084700,6.261084716796875,1.2496814727783203,0.39744043350219727,0.8782537579536438
1788650064888118000,6.277117919921875,1.444549560546875,0.03396129608154297,0.8378085494041443
1788650064904177700,6.293177734375,1.9657506942749023,-0.5927140712738037,0.6778135299682617
1788650064920204000,6.3092041015625,2.3015785217285156,-0.8394086360931396,-0.04469006508588791
1788650064936234200,6.325234130859375,2.054605484008789,-0.9505519866943359,-0.5678343176841736
1788650064952242400,6.341242431640625,1.2547883987426758,-1.0947792530059814,-0.5014163255691528
1788650064968294000,6.3572939453125,0.5418586730957031,-1.1956899166107178,-0.26012203097343445
1788650064984354600,6.3733544921875,0.07678604125976562,-1.1918284893035889,0.08165032416582108
1788650065000400400,6.389400390625,-0.10025501251220703,-1.084406852722168,0.6549850702285767
1788650065016438800,6.405438720703125,-0.1665496826171875,-1.1451377868652344,0.9755160808563232
1788650065032449300,6.42144921875,-0.515233039855957,-1.299401044845581,0.9885997772216797
1788650065048483800,6.43748388671875,-0.8782682418823242,-1.5219426155090332,0.9450724720954895
1788650065064546300,6.45354638671875,-0.9591245651245117,-1.5328211784362793,0.8392853140830994
1788650065080598800,6.469598876953125,-0.5873327255249023,-1.438640832901001,0.6939229965209961
1788650065096637700,6.4856376953125,-0.3072357177734375,-1.355543851852417,0.5651811361312866
1788650065112648200,6.501648193359375,-0.6672582626342773,-1.2393028736114502,0.4323917627334595
1788650065128667600,6.517667724609375,-1.5093235969543457,-1.0022525787353516,0.3448231816291809
1788650065144728800,6.533728759765625,-2.137810230255127,-0.7451069355010986,0.21672655642032623
1788650065160786700,6.54978662109375,-2.3386473655700684,-0.5301928520202637,0.0999516025185585
1788650065176810000,6.56581005859375,-2.1794328689575195,-0.3506767749786377,-0.04746945947408676
1788650065192823600,6.581823486328125,-1.75779390335083,-0.18831229209899902,-0.221114844083786
1788650065208864500,6.597864501953125,-1.1106433868408203,-0.0485682487487793,-0.26231878995895386
1788650065224906000,6.613906005859375,-0.5891780853271484,0.04195570945739746,-0.19390222430229187
1788650065240973800,6.629973876953125,-0.2504453659057617,0.15776991844177246,-0.14826352894306183
1788650065257022500,6.6460224609375,0.04521942138671875,0.20803594589233398,-0.05941459536552429
1788650065273029600,6.662029541015625,0.35405635833740234,0.2735922336578369,0.008064180612564087
1788650065289085400,6.67808544921875,0.5612936019897461,0.3157191276550293,0.15041425824165344
1788650065305137400,6.694137451171875,0.49525928497314453,0.3132772445678711,0.23520006239414215
1788650065321176000,6.710176025390625,0.39301204681396484,0.40749168395996094,0.24575361609458923
1788650065337218800,6.72621875,0.36736106872558594,0.5178780555725098,0.3482319116592407
1788650065353221000,6.74222119140625,0.333984375,0.6641964912414551,0.46676015853881836
1788650065369259000,6.758259033203125,0.14870548248291016,0.8338322639465332,0.4492453336715698
1788650065385312300,6.774312255859375,-0.0017480850219726562,0.8816373348236084,0.3245638906955719
1788650065401350000,6.790349853515625,0.0967245101928711,0.7512602806091309,0.21599750220775604
1788650065417415700,6.806415771484375,0.7391014099121094,0.4374561309814453,0.18708279728889465
1788650065433436700,6.822436767578125,1.4884033203125,0.026302814483642578,0.39627426862716675
1788650065449495800,6.838495849609375,2.1847896575927734,0.09308481216430664,0.22341018915176392
1788650065465539800,6.854539794921875,2.194936752319336,0.45752525329589844,0.0609041228890419
1788650065481584600,6.870584716796875,1.255143165588379,0.2407975196838379,0.036688610911369324
1788650065497659000,6.886658935546875,0.6274328231811523,0.04844045639038086,-0.7327541708946228
1788650065513689000,6.902689208984375,1.1223745346069336,-0.10431241989135742,-1.249396562576294
1788650065529729300,6.918729248046875,2.6910181045532227,-0.4828493595123291,-0.9300311803817749
1788650065545760300,6.93476025390625,3.627077102661133,-0.686856746673584,-0.6327868700027466
1788650065561815600,6.950815673828125,3.5349855422973633,-0.640589714050293,-0.6070812940597534
1788650065577833700,6.966833740234375,2.287472724914551,-0.7041950225830078,-0.3991606533527374
1788650065593841200,6.982841064453125,0.9078693389892578,-0.7690324783325195,-0.4239118695259094
1788650065609876500,6.99887646484375,0.04873466491699219,-0.8804609775543213,-0.45410627126693726
1788650065625904600,7.014904541015625,-0.16951847076416016,-1.065227746963501,-0.3752196729183197
1788650065641969200,7.03096923828125,-0.08852195739746094,-1.205514907836914,-0.4288979172706604
1788650065657999600,7.04699951171875,-0.01222991943359375,-1.2952613830566406,-0.48681169748306274
1788650065674004700,7.063004638671875,-0.14913463592529297,-1.2627534866333008,-0.422197163105011
1788650065690033700,7.07903369140625,-0.28261280059814453,-1.1533966064453125,-0.1551455557346344
1788650065706081300,7.095081298828125,-0.5935640335083008,-1.0650227069854736,0.07597768306732178
1788650065722151700,7.111151611328125,-0.7762832641601562,-1.024834394454956,0.15488865971565247
1788650065738187500,7.1271875,-0.8952789306640625,-1.0604190826416016,0.2179364264011383
1788650065754188300,7.143188232421875,-0.9170708656311035,-1.1184720993041992,0.13846856355667114
1788650065770238700,7.15923876953125,-1.0469484329223633,-1.0951752662658691,0.19717581570148468
1788650065786279400,7.175279541015625,-1.2193164825439453,-0.9635283946990967,0.46512576937675476
1788650065802354200,7.191354248046875,-1.4116487503051758,-0.7180218696594238,0.5923103094100952
1788650065818393600,7.2073935546875,-1.5825605392456055,-0.5009558200836182,0.5317060947418213
1788650065834395600,7.223395751953125,-1.5918703079223633,-0.43927550315856934,0.3053964078426361
1788650065850433800,7.239433837890625,-1.5502071380615234,-0.4313957691192627,0.042486634105443954
1788650065866484000,7.25548388671875,-1.3073740005493164,-0.3801586627960205,0.061687957495450974
1788650065882514700,7.2715146484375,-1.0333447456359863,-0.3094813823699951,0.21554909646511078
1788650065898556200,7.28755615234375,-0.6885471343994141,-0.2028641700744629,0.2259262651205063
1788650065914564900,7.30356494140625,-0.29915809631347656,-0.14682960510253906,0.04591112583875656
1788650065930618600,7.31961865234375,-0.07378768920898438,-0.13162660598754883,-0.1258014589548111
1788650065946678500,7.335678466796875,-0.19926834106445312,0.03626441955566406,-0.27245327830314636
1788650065962715400,7.35171533203125,-0.29247188568115234,0.24898862838745117,-0.37151432037353516
1788650065978753800,7.36775390625,-0.14880943298339844,0.4784865379333496,-0.43579936027526855
1788650065994760000,7.383760009765625,0.2186288833618164,0.7938475608825684,-0.4742266535758972
1788650066010793000,7.39979296875,0.6568641662597656,0.9548859596252441,-0.42414557933807373
1788650066026861600,7.415861572265625,1.0138025283813477,0.9172930717468262,-0.2666131258010864
1788650066042907600,7.43190771484375,1.4063587188720703,0.7324786186218262,-0.1700054258108139
1788650066066959400,7.45595947265625,2.1084213256835938,0.1175680160522461,0.012829743325710297
1788650066082961000,7.4719609375,2.307620048522949,0.16894292831420898,-0.3117411732673645
1788650066098998300,7.487998291015625,2.033567428588867,0.8429784774780273,-0.38057833909988403
1788650066115029800,7.50402978515625,1.5550146102905273,0.4200711250305176,0.8538393974304199
1788650066131126300,7.520126220703125,1.5058612823486328,0.16002273559570312,1.2511627674102783
1788650066147133400,7.536133544921875,2.316102981567383,-0.19260478019714355,1.0948734283447266
1788650066163138300,7.55213818359375,3.0825634002685547,-0.7100739479064941,0.9978207945823669
1788650066179172000,7.568172119140625,3.1194658279418945,-1.0887537002563477,0.8184361457824707
1788650066195217400,7.584217529296875,2.645761489868164,-1.2369320392608643,0.4549562633037567
1788650066211304200,7.60030419921875,1.7887248992919922,-1.2012934684753418,0.2045052945613861
1788650066227317200,7.616317138671875,0.9062891006469727,-1.1424672603607178,0.20621120929718018
1788650066243344000,7.63234375,0.06131172180175781,-1.0970697402954102,0.4315488636493683
1788650066259391500,7.6483916015625,-0.771611213684082,-1.0498952865600586,0.7557218670845032
1788650066275395800,7.664395751953125,-1.1433162689208984,-0.9774363040924072,0.9694117903709412
1788650066291479000,7.68047900390625,-1.1061387062072754,-0.9681496620178223,1.0978100299835205
1788650066307495000,7.696494873046875,-0.8720798492431641,-1.0533080101013184,1.0373483896255493
1788650066323505000,7.7125048828125,-0.6510353088378906,-1.184969425201416,0.9200186133384705
1788650066339564000,7.72856396484375,-0.5008430480957031,-1.3037405014038086,0.6522898077964783
1788650066355595000,7.744594970703125,-0.45549774169921875,-1.2757315635681152,0.316567599773407
1788650066371646000,7.76064599609375,-0.45319271087646484,-1.1935291290283203,0.04334449768066406
1788650066387673000,7.776673095703125,-0.5213279724121094,-1.0495941638946533,-0.11553806066513062
1788650066403699500,7.792699462890625,-0.649531364440918,-0.897702693939209,-0.23560191690921783
1788650066419710700,7.808710693359375,-0.7379055023193359,-0.7364134788513184,-0.3710368275642395
1788650066435751000,7.8247509765625,-0.7613468170166016,-0.6114034652709961,-0.45569002628326416
1788650066451842000,7.840842041015625,-0.8111333847045898,-0.46268391609191895,-0.2875283658504486
1788650066467878100,7.856878173828125,-0.8800382614135742,-0.19698190689086914,-0.0955507755279541
1788650066483904000,7.872904052734375,-0.8964033126831055,0.02350020408630371,0.051446035504341125
1788650066500004600,7.889004638671875,-0.8390560150146484,0.19510793685913086,0.24354609847068787
1788650066516000800,7.905000732421875,-0.5654802322387695,0.32529187202453613,0.24120618402957916
1788650066532081400,7.921081298828125,-0.35864734649658203,0.3805818557739258,0.2510523796081543
1788650066548091400,7.93709130859375,-0.1396322250366211,0.35775041580200195,0.25228679180145264
1788650066564113000,7.95311279296875,-0.12256431579589844,0.3350565433502197,0.298476904630661
1788650066580210400,7.96921044921875,-0.11837577819824219,0.29114794731140137,0.3822833299636841
1788650066596211200,7.985211181640625,-0.010680198669433594,0.3073747158050537,0.36650699377059937
1788650066612298800,8.001298828125,-0.016622543334960938,0.37259888648986816,0.3385252058506012
1788650066628301300,8.01730126953125,-0.01364898681640625,0.42642736434936523,0.25936421751976013
1788650066644305200,8.03330517578125,0.04788970947265625,0.5067672729492188,0.09881021827459335
1788650066660356900,8.04935693359375,0.2382059097290039,0.5605483055114746,-0.10589760541915894
1788650066676375000,8.065375,0.6740388870239258,0.39048147201538086,-0.18235622346401215
1788650066692473300,8.081473388671874,1.1900873184204102,0.07941293716430664,0.12569433450698853
1788650066708479000,8.09747900390625,1.5677614212036133,-0.14197921752929688,0.3819766640663147
1788650066724526800,8.11352685546875,1.7224855422973633,-0.16616106033325195,0.16441212594509125
1788650066740576300,8.129576171875,1.3874082565307617,0.0789332389831543,-0.4865545928478241
1788650066756589000,8.145589111328125,0.9495010375976562,-0.06837177276611328,-0.5879735350608826
1788650066772681000,8.161680908203126,1.050257682800293,-0.2225356101989746,-0.7819581031799316
1788650066788677400,8.177677490234375,1.7921628952026367,-0.35324764251708984,-0.9826681613922119
1788650066804677600,8.193677734375,2.648651123046875,-0.5940508842468262,-1.0063782930374146
1788650066820708600,8.20970849609375,3.171891212463379,-0.8515875339508057,-0.8038177490234375
1788650066836710000,8.2257099609375,2.946488380432129,-1.0462932586669922,-0.4214620590209961
1788650066852735000,8.24173486328125,1.8620386123657227,-0.8945057392120361,-0.1681707501411438
1788650066868737500,8.257737548828125,0.7674169540405273,-0.7242779731750488,0.11396968364715576
1788650066884758500,8.273758544921876,0.006504058837890625,-0.7135524749755859,0.22139662504196167
1788650066900798700,8.289798828125,-0.39901256561279297,-0.6826791763305664,0.25873011350631714
1788650066916811500,8.3058115234375,-0.6919870376586914,-0.6879081726074219,0.3987191617488861
1788650066932832800,8.321832763671875,-0.8927764892578125,-0.7035946846008301,0.431610107421875
1788650066948840200,8.337840087890624,-0.9990692138671875,-0.7343378067016602,0.0511399507522583
1788650066964846600,8.3538466796875,-0.9844536781311035,-0.8373532295227051,-0.46275538206100464
1788650066980908300,8.369908203125,-0.5917243957519531,-0.8268828392028809,-0.6851290464401245
1788650066996956000,8.385955810546875,0.02885150909423828,-0.7725729942321777,-0.5081132650375366
1788650067013028400,8.4020283203125,0.7614040374755859,-0.8399784564971924,-0.07656769454479218
1788650067029038600,8.41803857421875,1.1323089599609375,-0.8678910732269287,0.17111554741859436
1788650067045065200,8.434065185546874,1.0286140441894531,-0.897390604019165,0.2086595594882965
1788650067061121000,8.45012109375,0.4653053283691406,-0.9115846157073975,0.3028188645839691
1788650067077165000,8.4661650390625,-0.28827857971191406,-0.8439328670501709,0.457384318113327
1788650067093206300,8.482206298828125,-1.102762222290039,-0.7444860935211182,0.454590380191803
1788650067109214700,8.498214599609375,-1.651689052581787,-0.6859564781188965,0.2669406533241272
1788650067125226500,8.5142265625,-1.8090953826904297,-0.6316299438476562,-0.04879457503557205
1788650067141286400,8.530286376953125,-1.622194766998291,-0.6349406242370605,-0.30295273661613464
1788650067157300200,8.54630029296875,-1.2884483337402344,-0.595771312713623,-0.31407442688941956
1788650067173392600,8.562392578125,-0.9513044357299805,-0.4984867572784424,-0.3458179235458374
1788650067189405700,8.57840576171875,-0.7726058959960938,-0.45299553871154785,-0.4013650119304657
1788650067205434000,8.59443408203125,-0.6627769470214844,-0.4734065532684326,-0.46768510341644287
1788650067221493200,8.6104931640625,-0.5022573471069336,-0.329571008682251,-0.4873223900794983
1788650067237518800,8.626518798828124,-0.3842124938964844,-0.1057133674621582,-0.4269285202026367
1788650067253633000,8.642633056640625,-0.3601655960083008,-0.04852628707885742,-0.25657033920288086
1788650067277656000,8.666656005859375,-0.3219013214111328,0.11135196685791016,-0.31245937943458557
1788650067293697500,8.682697509765624,-0.14212608337402344,0.22785663604736328,-0.44251224398612976
1788650067309758000,8.698758056640624,0.07857322692871094,0.3462543487548828,-0.5188959836959839
1788650067325801000,8.714801025390624,0.22463226318359375,0.28798675537109375,-0.8128684163093567
1788650067341867000,8.730866943359375,0.4629850387573242,0.1088099479675293,-1.274256944656372
1788650067357887500,8.746887451171874,0.7276935577392578,-0.0833740234375,-1.4367749691009521
1788650067373949400,8.762949462890624,1.2068300247192383,0.22610235214233398,-1.2827976942062378
1788650067390019600,8.77901953125,1.7410755157470703,0.9482793807983398,-0.526459276676178
1788650067406068500,8.795068359375,2.2467288970947266,1.0077357292175293,0.8893613815307617
1788650067422143000,8.81114306640625,2.641634941101074,0.7361893653869629,1.3042970895767212
1788650067438151400,8.8271513671875,3.3226308822631836,0.10494518280029297,0.7889947891235352
1788650067454211600,8.843211669921875,4.088027000427246,-0.5991065502166748,0.24908730387687683
1788650067470241300,8.8592412109375,4.538095474243164,-1.075721025466919,-0.05409438908100128
1788650067486297900,8.8752978515625,4.210576057434082,-1.2307689189910889,-0.41173815727233887
1788650067502318600,8.891318603515625,3.23075008392334,-1.1860904693603516,-0.11943879723548889
1788650067518329300,8.907329345703126,2.014009475708008,-1.0200622081756592,0.33014753460884094
1788650067534411000,8.923410888671874,0.5142898559570312,-0.8771166801452637,0.36386436223983765
1788650067550439200,8.939439208984375,-1.0028553009033203,-0.9470760822296143,0.1033233031630516
1788650067566503700,8.955503662109376,-1.6987576484680176,-0.966658353805542,-0.05455891042947769
1788650067590542800,8.97954296875,-1.670546054840088,-0.6319057941436768,0.8249204754829407
1788650067606554600,8.9955546875,-1.121469497680664,-0.7379312515258789,1.3512336015701294
1788650067622614300,9.0116142578125,-0.7079076766967773,-1.150623083114624,1.1240122318267822
1788650067638637300,9.02763720703125,-0.4097776412963867,-1.54451584815979,0.8681650161743164
1788650067654742800,9.04374267578125,-0.24197864532470703,-1.6942455768585205,0.768041729927063
1788650067670756600,9.059756591796875,0.1463918685913086,-1.6390726566314697,0.7024500370025635
1788650067686782700,9.07578271484375,0.05618095397949219,-1.8316402435302734,0.10029773414134979
1788650067702834400,9.09183447265625,-0.22988605499267578,-1.6955006122589111,-0.03739570081233978
1788650067718855200,9.107855224609375,-0.622746467590332,-1.284592628479004,0.3133874535560608
1788650067734870800,9.123870849609375,-1.1412091255187988,-0.8527336120605469,0.5079175233840942
1788650067750880800,9.139880859375,-1.5011730194091797,-0.5629274845123291,0.5430879592895508
1788650067766889500,9.155889404296875,-1.5409660339355469,-0.40523767471313477,0.4686279892921448
1788650067782938600,9.171938720703125,-1.399489402770996,-0.33858299255371094,0.23641522228717804
1788650067798973200,9.18797314453125,-0.9335618019104004,-0.2709507942199707,-0.03104885295033455
1788650067815049500,9.204049560546874,-0.46544742584228516,-0.22589397430419922,0.030951164662837982
1788650067831060200,9.220060302734375,-0.12119197845458984,-0.13097763061523438,0.2213754653930664
1788650067847088400,9.23608837890625,0.2110729217529297,-0.14302921295166016,0.2682729959487915
1788650067863150800,9.25215087890625,0.3908519744873047,-0.1685957908630371,0.24858525395393372
1788650067879191600,9.268191650390625,0.4867830276489258,-0.18934202194213867,0.16970008611679077
1788650067895261700,9.28426171875,0.4354381561279297,-0.04970407485961914,0.18632279336452484
1788650067911277000,9.300277099609374,0.25325584411621094,-0.04861783981323242,0.1361180543899536
1788650067927287600,9.31628759765625,-0.05635833740234375,0.05109548568725586,0.03652772307395935
1788650067943348200,9.33234814453125,-0.029778480529785156,0.10959434509277344,-0.049592524766922
1788650067959398000,9.34839794921875,0.16967201232910156,0.14449310302734375,-0.0520746111869812
1788650067975483600,9.364483642578126,0.32963085174560547,0.21156978607177734,0.026673465967178345
1788650067991497200,9.380497314453125,0.539759635925293,0.14660310745239258,0.17252551019191742
1788650068007526100,9.396526123046876,0.7837028503417969,-0.07916736602783203,0.23652927577495575
1788650068023588000,9.412588134765626,1.048696517944336,-0.3706047534942627,0.20150640606880188
1788650068039599600,9.428599609375,1.139378547668457,-0.43785738945007324,0.12922075390815735
1788650068055691000,9.44469091796875,0.8409624099731445,-0.05259132385253906,0.006092458963394165
1788650068071709200,9.460709228515626,0.6104488372802734,0.05110359191894531,0.06491956114768982
1788650068087723300,9.47672314453125,0.5450534820556641,0.18863964080810547,-0.3225339353084564
1788650068103785700,9.49278564453125,0.7753152847290039,0.42319154739379883,-0.7145599126815796
1788650068119812600,9.5088125,1.2090997695922852,0.4415016174316406,-0.5311838388442993
1788650068135916000,9.524916015625,2.00100040435791,0.2134108543395996,-0.4830067753791809
1788650068151926000,9.540926025390625,2.65093994140625,0.007824420928955078,-0.4346456527709961
1788650068167950000,9.5569501953125,2.805037498474121,-0.27755212783813477,-0.30086973309516907
1788650068183983600,9.572983642578125,2.5262136459350586,-0.5892703533172607,-0.42337164282798767
1788650068199985000,9.58898486328125,1.9618644714355469,-0.9364454746246338,-0.549219012260437
1788650068216044800,9.605044921875,1.2434930801391602,-1.15679931640625,-0.5360389947891235
1788650068232062700,9.621062744140625,0.5596323013305664,-1.239168643951416,-0.46415841579437256
1788650068248076500,9.63707666015625,-0.18303966522216797,-1.346665382385254,-0.5418618321418762
1788650068264124000,9.6531240234375,-0.9371066093444824,-1.404137134552002,-0.4457724094390869
1788650068280144600,9.66914453125,-1.3893885612487793,-1.3802976608276367,-0.3057097792625427
1788650068296168700,9.685168701171875,-1.6406679153442383,-1.4103689193725586,-0.41224342584609985
1788650068312199200,9.70119921875,-1.451307773590088,-1.4093122482299805,-0.37449657917022705
1788650068328240600,9.71724072265625,-0.9987688064575195,-1.387481927871704,-0.24977874755859375
1788650068344307000,9.733306884765625,-0.31960391998291016,-1.3375890254974365,0.008459389209747314
1788650068360348000,9.749347900390624,0.4182109832763672,-1.3629534244537354,0.24839863181114197
1788650068376424700,9.7654248046875,1.1180305480957031,-1.416849136352539,0.27305033802986145
1788650068392438500,9.7814384765625,1.648752212524414,-1.4879298210144043,0.20398953557014465
1788650068408454000,9.797453857421875,2.0204992294311523,-1.5777695178985596,0.10850486159324646
1788650068424550100,9.813550048828125,2.0976085662841797,-1.6271321773529053,0.19234710931777954
1788650068440561000,9.829560791015625,1.4679479598999023,-1.5385572910308838,0.35654279589653015
1788650068456646400,9.845646484375,0.2766685485839844,-1.3548521995544434,0.35663893818855286
1788650068472664300,9.861664306640625,-0.6663570404052734,-1.1493947505950928,0.27436739206314087
1788650068488697900,9.87769775390625,-1.184849739074707,-0.9687931537628174,0.18160772323608398
1788650068504750300,9.893750244140625,-1.1920819282531738,-0.8357982635498047,0.10195121169090271
1788650068520763400,9.909763427734376,-0.7859392166137695,-0.7439937591552734,-0.07223129272460938
1788650068536820200,9.9258203125,-0.05638694763183594,-0.6880950927734375,-0.13961774110794067
1788650068552837400,9.94183740234375,0.49364185333251953,-0.7746853828430176,-0.021464675664901733
1788650068568854000,9.95785400390625,0.757695198059082,-0.7467613220214844,-0.014681726694107056
1788650068584917800,9.973917724609375,0.7493057250976562,-0.6919875144958496,0.02168971300125122
1788650068600938200,9.989938232421874,0.7157516479492188,-0.6583185195922852,0.05898365378379822
1788650068617039000,10.0060390625,0.8675127029418945,-0.4852774143218994,-0.10643056035041809
1788650068633056500,10.022056396484375,1.0375957489013672,-0.26848745346069336,-0.2837273180484772
1788650068649090600,10.038090576171875,1.1820344924926758,-0.20465946197509766,-0.2952721416950226
1788650068665158100,10.054158203125,1.2709178924560547,-0.1420307159423828,-0.18021821975708008
1788650068681195000,10.070195068359375,1.0140008926391602,-0.11345815658569336,-0.04960930347442627
1788650068697255000,10.0862548828125,0.48549365997314453,-0.16059637069702148,0.05146656930446625
1788650068713271800,10.102271728515625,-0.27845096588134766,-0.17665910720825195,0.12983392179012299
1788650068729288000,10.118287841796874,-0.6957273483276367,-0.07493925094604492,0.08635339140892029
1788650068745355500,10.13435546875,-0.7792062759399414,0.014002323150634766,-0.021967202425003052
1788650068761426200,10.15042626953125,-0.49801063537597656,0.06099891662597656,-0.23872093856334686
1788650068777499600,10.166499755859375,-0.1720447540283203,0.052462100982666016,-0.25771695375442505
1788650068793517300,10.182517333984375,0.057084083557128906,0.11344242095947266,-0.1543562263250351
1788650068809553000,10.198552978515625,0.10315513610839844,0.23660612106323242,-0.13867877423763275
1788650068825619500,10.214619384765625,0.09766578674316406,0.2762722969055176,-0.324776291847229
1788650068841663200,10.230663330078125,-0.06380367279052734,0.30243730545043945,-0.5759708881378174
1788650068857739500,10.246739501953124,-0.13366985321044922,0.40686845779418945,-0.7995859384536743
1788650068873760000,10.262760009765625,-0.11081504821777344,0.3935055732727051,-0.7463321685791016
1788650068889779500,10.278779541015625,0.07287025451660156,0.2097611427307129,-0.7360044717788696
1788650068905848000,10.29484814453125,0.3978738784790039,-0.011814117431640625,-0.7516627311706543
1788650068921901800,10.31090185546875,0.7085447311401367,-0.17542791366577148,-0.8248603343963623
1788650068937991200,10.3269912109375,0.7808599472045898,-0.2642974853515625,-0.7251015901565552
1788650068954013400,10.343013427734375,0.46668434143066406,-0.2628512382507324,-0.6472086906433105
1788650068970050600,10.359050537109376,-0.09656906127929688,-0.1758437156677246,-0.5099148750305176
1788650068986119000,10.375118896484375,-0.5431528091430664,0.0012502670288085938,-0.3727574944496155
1788650069002138000,10.39113818359375,-0.7855920791625977,0.18228673934936523,-0.11299782991409302
1788650069018237700,10.40723779296875,-0.8551034927368164,0.3550090789794922,0.1356569230556488
1788650069034261800,10.42326171875,-0.8148336410522461,0.4864978790283203,0.44171950221061707
1788650069050284300,10.4392841796875,-0.6496124267578125,0.5476665496826172,0.6280289888381958
1788650069066357000,10.45535693359375,-0.4029521942138672,0.5035614967346191,0.6176275610923767
1788650069082381000,10.471381103515625,-0.03666973114013672,0.4293994903564453,0.4906959533691406
1788650069098502700,10.487502685546875,0.32495975494384766,0.30320167541503906,0.3839878439903259
1788650069114528500,10.503528564453125,0.7217464447021484,0.13837289810180664,0.24605792760849
1788650069130562600,10.5195625,0.9252710342407227,0.06566381454467773,0.2339780628681183
1788650069146631200,10.535631103515625,0.9451961517333984,0.07494926452636719,0.3375622034072876
1788650069162667500,10.55166748046875,0.7105922698974609,0.12813758850097656,0.5673794150352478
1788650069178779000,10.56777880859375,0.3203620910644531,0.12836074829101562,0.7766696214675903
1788650069194823700,10.58382373046875,-0.2480640411376953,0.14649105072021484,0.8450617790222168
1788650069210846000,10.599845947265624,-0.5364513397216797,0.19089603424072266,0.7454830408096313
1788650069226915000,10.6159150390625,-0.5306577682495117,0.1943202018737793,0.7408758401870728
1788650069242963700,10.631963623046875,-0.3936576843261719,0.1774458885192871,0.7251514196395874
1788650069259032300,10.6480322265625,-0.10424232482910156,0.10984420776367188,0.6262305974960327
1788650069275074600,10.664074462890625,0.2177896499633789,0.0729990005493164,0.45565348863601685
1788650069291123700,10.680123779296874,0.5028829574584961,0.01440572738647461,0.2839357256889343
1788650069307193300,10.696193359375,0.7092628479003906,-0.03263378143310547,0.37933456897735596
1788650069323246800,10.712246826171874,0.6705827713012695,0.0034584999084472656,0.4854699373245239
1788650069339336200,10.728336181640625,0.4003152847290039,0.009608268737792969,0.5830764174461365
1788650069355356000,10.74435595703125,0.11534881591796875,0.018893718719482422,0.7334610223770142
1788650069371374000,10.7603740234375,-0.06269168853759766,-0.015607357025146484,0.876368522644043
1788650069387484000,10.77648388671875,-0.17670154571533203,-0.1468033790588379,0.9802882671356201
1788650069403493400,10.792493408203125,-0.14185142517089844,-0.22103214263916016,0.9945883750915527
1788650069419581000,10.808580810546875,-0.05038261413574219,-0.25661468505859375,0.983268678188324
1788650069435600100,10.82460009765625,0.11575984954833984,-0.2904195785522461,0.9126818776130676
1788650069451636500,10.840636474609376,0.15087318420410156,-0.3690614700317383,0.8712605237960815
1788650069467752000,10.856751953125,0.14615917205810547,-0.3631300926208496,0.8310860395431519
1788650069483768800,10.872768798828124,0.036464691162109375,-0.3266739845275879,0.8038063049316406
1788650069499870000,10.888869873046875,0.0031118392944335938,-0.313385009765625,0.7876198291778564
1788650069515891200,10.90489111328125,-0.0069675445556640625,-0.32724857330322266,0.7494679689407349
1788650069531913500,10.92091357421875,0.06944847106933594,-0.3492145538330078,0.6346791386604309
1788650069547986000,10.93698583984375,0.17719459533691406,-0.3520045280456543,0.5531033873558044
1788650069564012300,10.95301220703125,0.24529457092285156,-0.4198427200317383,0.5203049182891846
1788650069580123100,10.969123046875,0.36319828033447266,-0.45583558082580566,0.45232266187667847
1788650069596145400,10.9851455078125,0.5115747451782227,-0.45029187202453613,0.6499322056770325
1788650069612184800,11.001184814453126,0.6261358261108398,-0.3501923084259033,0.831425130367279
1788650069628255200,11.017255126953126,0.6842813491821289,-0.264620304107666,0.9152209162712097
1788650069644292000,11.0332919921875,0.5611772537231445,-0.31734156608581543,0.8846755623817444
1788650069660369000,11.049368896484374,0.454071044921875,-0.3947269916534424,0.7518509030342102
1788650069676386800,11.06538671875,0.3653545379638672,-0.3428037166595459,0.821217954158783
1788650069692405200,11.0814052734375,0.42826080322265625,-0.37587904930114746,0.8743140697479248
1788650069708475000,11.097474853515624,0.4512004852294922,-0.45580458641052246,0.6982976198196411
1788650069724520700,11.113520751953125,0.6071805953979492,-0.5081901550292969,0.15028488636016846
1788650069740595200,11.12959521484375,0.9056358337402344,-0.479525089263916,-0.31077325344085693
1788650069756621000,11.14562109375,1.2635297775268555,-0.4314844608306885,-0.6691296100616455
1788650069772661000,11.161660888671875,1.391047477722168,-0.35700249671936035,-0.8648990392684937
1788650069788733000,11.17773291015625,1.2228260040283203,-0.24507594108581543,-0.9450457096099854
1788650069804789500,11.19378955078125,0.7822380065917969,-0.2198176383972168,-0.9049090147018433
1788650069820876300,11.209876220703125,0.38944339752197266,-0.18484973907470703,-0.9776930809020996
1788650069836898000,11.22589794921875,-0.04496479034423828,-0.23391437530517578,-1.0258125066757202
1788650069852921600,11.241921630859375,-0.35914134979248047,-0.2794938087463379,-1.0231627225875854
1788650069868994300,11.257994384765626,-0.48172473907470703,-0.36685609817504883,-0.9012966752052307
1788650069885012000,11.274011962890626,-0.3867645263671875,-0.4263157844543457,-0.7191481590270996
1788650069901107000,11.29010693359375,-0.10523509979248047,-0.4286680221557617,-0.4945972263813019
1788650069917127200,11.306127197265624,0.20439434051513672,-0.4913022518157959,-0.31361591815948486
1788650069933162500,11.32216259765625,0.42253971099853516,-0.5260951519012451,-0.2733526825904846
1788650069949228300,11.338228271484375,0.4239034652709961,-0.540259599685669,-0.1867969036102295
1788650069965252400,11.35425244140625,0.3134908676147461,-0.5134789943695068,-0.10356324911117554
1788650069981353500,11.370353515625,0.199615478515625,-0.4610731601715088,-0.05484801530838013
1788650069997379800,11.3863798828125,0.1186208724975586,-0.3851895332336426,-0.06052565574645996
1788650070013403400,11.4024033203125,-0.031040191650390625,-0.27343082427978516,-0.13857722282409668
1788650070029472500,11.418472412109375,-0.23706436157226562,-0.1740250587463379,-0.15198242664337158
1788650070045499000,11.434498779296876,-0.4375638961791992,-0.005035877227783203,-0.3117459714412689
1788650070061610800,11.45061083984375,-0.43204402923583984,-0.16894817352294922,-0.37988370656967163
1788650070077639400,11.466639404296876,-0.07339000701904297,-0.4279766082763672,-0.5080730319023132
1788650070093644300,11.482644287109375,0.47112083435058594,-0.5214130878448486,-0.5699930191040039
1788650070109708500,11.49870849609375,1.0813255310058594,-0.6023356914520264,-0.6966671943664551
1788650070125740800,11.51474072265625,1.3829517364501953,-0.663764476776123,-0.8222743272781372
1788650070141814300,11.530814208984374,1.1210241317749023,-0.6103403568267822,-1.0962049961090088
1788650070157854000,11.54685400390625,0.4857025146484375,-0.4565451145172119,-1.4518611431121826
1788650070173879300,11.56287939453125,-0.20609760284423828,-0.24777603149414062,-1.74019193649292
1788650070189949400,11.578949462890625,-0.5407810211181641,-0.06340503692626953,-1.8120951652526855
1788650070205991000,11.594990966796875,-0.46140480041503906,0.1773056983947754,-1.9050579071044922
1788650070222024000,11.61102392578125,-0.19717693328857422,0.27826976776123047,-1.7713123559951782
1788650070238075600,11.62707568359375,0.10748004913330078,0.23937416076660156,-1.5507638454437256
1788650070254127600,11.643127685546874,0.3426971435546875,0.10577630996704102,-1.3687160015106201
1788650070270196200,11.6591962890625,0.5625381469726562,-0.03931617736816406,-1.2393921613693237
1788650070286210000,11.6752099609375,0.912628173828125,-0.06350851058959961,-1.0491347312927246
1788650070302299400,11.69129931640625,1.1562309265136719,-0.08960199356079102,-0.9130300283432007
1788650070318324700,11.70732470703125,1.2227506637573242,-0.03851461410522461,-0.8327814936637878
1788650070334345700,11.723345703125,1.1533937454223633,-0.07257699966430664,-0.7607167959213257
1788650070350462200,11.739462158203125,0.8669414520263672,-0.16628646850585938,-0.8746776580810547
1788650070366479400,11.755479248046875,0.24341583251953125,-0.23377180099487305,-1.121185541152954
1788650070382580000,11.771580078125,-0.2591371536254883,-0.22632265090942383,-1.3991535902023315
1788650070398602200,11.787602294921875,-0.4954376220703125,-0.1888718605041504,-1.587493658065796
1788650070414641000,11.803640869140626,-0.45845699310302734,-0.10316085815429688,-1.693984866142273
1788650070430714000,11.819714111328125,-0.32093238830566406,-0.04469108581542969,-1.7982300519943237
1788650070446746000,11.83574609375,-0.20549964904785156,0.018436431884765625,-1.8723560571670532
1788650070462853600,11.851853515625,-0.14012813568115234,0.10811138153076172,-1.8583378791809082
1788650070478873900,11.867873779296875,-0.12387466430664062,0.10225820541381836,-1.698663353919983
1788650070494894600,11.88389453125,0.07898426055908203,0.09420347213745117,-1.4100695848464966
1788650070510964500,11.899964599609374,0.2569551467895508,0.0279693603515625,-1.0340933799743652
1788650070527001900,11.916001953125,0.47695064544677734,-0.04590606689453125,-0.7902695536613464
1788650070543069000,11.93206884765625,0.705078125,-0.07637262344360352,-0.7317821383476257
1788650070559093000,11.948093017578126,0.7912235260009766,-0.0946507453918457,-0.5641448497772217
1788650070575133000,11.9641328125,0.5925130844116211,-0.060585975646972656,-0.3956035375595093
1788650070591205400,11.980205322265626,0.1732330322265625,-0.05932474136352539,-0.3490822911262512
1788650070607244300,11.996244384765625,-0.20781326293945312,-0.011875152587890625,-0.5290645360946655
1788650070623318000,12.012318115234375,-0.3144989013671875,0.014309406280517578,-0.5470869541168213
1788650070639338500,12.02833837890625,-0.2600126266479492,0.06806707382202148,-0.428154855966568
1788650070655359700,12.04435986328125,-0.0799703598022461,0.0718379020690918,-0.33627092838287354
1788650070671428600,12.0604287109375,0.04854297637939453,0.003750324249267578,-0.39361250400543213
1788650070687475000,12.076474853515625,0.10286998748779297,-0.02584552764892578,-0.5340610146522522
1788650070703555800,12.092555908203124,0.036739349365234375,0.025536060333251953,-0.5945227146148682
1788650070719577900,12.108577880859375,-0.0843648910522461,0.05081605911254883,-0.5330788493156433
1788650070735610000,12.124610107421875,-0.24810504913330078,0.118896484375,-0.674257755279541
1788650070751677700,12.140677734375,-0.28014278411865234,0.20935583114624023,-0.7514944672584534
1788650070767732200,12.156732177734375,-0.359344482421875,0.38069963455200195,-0.7658742070198059
1788650070783819800,12.17281982421875,-0.5466976165771484,0.5672378540039062,-0.6346403956413269
1788650070799839500,12.188839599609375,-0.6821088790893555,0.6601524353027344,-0.34551817178726196
1788650070815856000,12.204856201171875,-0.4669370651245117,0.5872421264648438,0.1005774736404419
1788650070831919400,12.22091943359375,0.0955810546875,0.39423036575317383,0.3247334659099579
1788650070847934000,12.236933837890625,0.6820592880249023,0.0865778923034668,0.4541166424751282
1788650070864015400,12.253015380859376,1.011897087097168,-0.07750415802001953,0.5174008011817932
1788650070880037600,12.26903759765625,0.7425432205200195,-0.02905559539794922,0.6077082753181458
1788650070896073500,12.285073486328125,0.03494071960449219,0.1560821533203125,0.6605303287506104
1788650070912140800,12.301140869140625,-0.5129642486572266,0.36772680282592773,0.8170701265335083
1788650070928162600,12.31716259765625,-0.5714540481567383,0.5897574424743652,0.9809622168540955
1788650070944263700,12.333263671875,-0.3449897766113281,0.5942144393920898,0.9611402750015259
1788650070960286500,12.349286376953126,0.11687183380126953,0.5313515663146973,0.6512284278869629
1788650070976305700,12.3653056640625,0.04106426239013672,0.3952665328979492,0.45455360412597656
1788650070992372500,12.38137255859375,-0.056903839111328125,0.343111515045166,0.38234061002731323
1788650071008406000,12.397406005859375,-0.25304698944091797,0.27783727645874023,0.47434037923812866
1788650071024510700,12.4135107421875,-0.32893848419189453,0.26181554794311523,0.6482124328613281
1788650071040545000,12.429544921875,-0.31455230712890625,0.3015275001525879,0.8228592276573181
1788650071056583700,12.445583740234374,-0.08208560943603516,0.34560060501098633,0.8309471011161804
1788650071072648000,12.46164794921875,0.04599189758300781,0.3614811897277832,0.6560336351394653
1788650071088685300,12.477685302734375,0.041594505310058594,0.35314321517944336,0.6869928240776062
1788650071104757000,12.493757080078124,-0.16489315032958984,0.45546483993530273,0.7140992879867554
1788650071120803600,12.509803466796875,-0.3278474807739258,0.5937418937683105,0.7212868928909302
1788650071136834000,12.525833984375,-0.3120994567871094,0.5456409454345703,0.8029508590698242
1788650071152901600,12.541901611328125,-0.22423934936523438,0.4648432731628418,0.7584807276725769
1788650071168951000,12.557950927734375,0.02853679656982422,0.3710169792175293,0.5443782210350037
1788650071185027600,12.574027587890624,0.3239316940307617,0.18240880966186523,0.3613124191761017
1788650071201079800,12.590079833984374,0.4896574020385742,0.06363773345947266,0.2554224729537964
1788650071217136600,12.60613671875,0.48906612396240234,-0.01682901382446289,0.29096725583076477
1788650071233253000,12.622253173828126,0.3414192199707031,-0.010968208312988281,0.29350584745407104
1788650071249264000,12.63826416015625,0.18344497680664062,-0.01272726058959961,0.22738632559776306
1788650071265355500,12.65435546875,0.07821846008300781,-0.03365612030029297,0.10594941675662994
1788650071281375200,12.670375244140626,0.06772899627685547,-0.04300832748413086,0.03422682732343674
1788650071297394700,12.686394775390625,0.03190898895263672,-0.06409883499145508,0.0662820041179657
1788650071313463300,12.70246337890625,0.03304767608642578,-0.06833314895629883,0.05961143970489502
1788650071329479400,12.7184794921875,0.06185340881347656,-0.10412979125976562,0.029703214764595032
1788650071345580800,12.734580810546875,0.028016090393066406,-0.1727285385131836,0.0016563981771469116
1788650071361598000,12.750597900390625,-0.061946868896484375,-0.1263866424560547,-0.08601006865501404
1788650071377635000,12.766635009765626,-0.28571414947509766,-0.058419227600097656,-0.18608210980892181
1788650071393704200,12.7827041015625,-0.39548683166503906,-0.038593292236328125,-0.20418022572994232
1788650071409725200,12.79872509765625,-0.37726497650146484,-0.026182174682617188,-0.21842558681964874
1788650071425803000,12.814802978515624,-0.2159576416015625,-0.04929161071777344,-0.2794448733329773
1788650071441825800,12.83082568359375,-0.03180503845214844,-0.08538627624511719,-0.23991861939430237
1788650071457849300,12.846849365234375,0.09949493408203125,-0.14322376251220703,-0.07693330943584442
1788650071473918000,12.86291796875,0.1316967010498047,-0.11796092987060547,-0.03160683810710907
1788650071489950200,12.8789501953125,0.1273660659790039,-0.09157848358154297,-0.037624359130859375
1788650071506011100,12.89501123046875,0.06746768951416016,-0.0379338264465332,-0.02769465744495392
1788650071522030300,12.9110302734375,-0.06688880920410156,0.030533313751220703,0.0029172152280807495
1788650071538066700,12.927066650390625,-0.1591167449951172,0.11037158966064453,-0.029704958200454712
1788650071554133800,12.9431337890625,-0.059311866760253906,0.16982412338256836,-0.08876301348209381
1788650071570177300,12.95917724609375,-0.0053081512451171875,0.12241220474243164,-0.1530047357082367
1788650071586248200,12.975248291015625,-0.09282684326171875,0.16727113723754883,-0.3420100510120392
1788650071602264000,12.99126416015625,-0.21096134185791016,0.1880335807800293,-0.4322028160095215
1788650071618279700,13.00727978515625,-0.21732807159423828,0.16529417037963867,-0.5076427459716797
1788650071634346800,13.0233466796875,0.030033111572265625,0.14500188827514648,-0.5565760731697083
1788650071650400000,13.03939990234375,0.23106956481933594,0.09477567672729492,-0.47147518396377563
1788650071666480600,13.055480712890626,0.3286924362182617,0.08329582214355469,-0.3457663059234619
1788650071682500900,13.0715009765625,0.2905263900756836,0.11439752578735352,-0.1732119619846344
1788650071698539800,13.087539794921875,0.1565570831298828,0.12191438674926758,0.020517900586128235
1788650071714609000,13.10360888671875,-0.08429622650146484,0.13561248779296875,0.30863630771636963
1788650071730667300,13.119667236328125,-0.3334970474243164,0.17367076873779297,0.4835200309753418
1788650071746756600,13.135756591796875,-0.31880855560302734,0.16046667098999023,0.5125137567520142
1788650071762776000,13.151776123046876,-0.15340614318847656,0.13547372817993164,0.4366852045059204
1788650071778794500,13.16779443359375,0.0025501251220703125,0.1149439811706543,0.31232553720474243
1788650071794866200,13.1838662109375,0.15114116668701172,0.10191822052001953,0.28611308336257935
1788650071810888000,13.199887939453125,0.15126705169677734,0.14665794372558594,0.27467474341392517
1788650071826983400,13.2159833984375,0.12260913848876953,0.17482662200927734,0.22727526724338531
1788650071843008000,13.232008056640625,0.09322452545166016,0.14938735961914062,0.13398483395576477
1788650071859048700,13.248048583984374,0.2172985076904297,0.12819814682006836,0.05319996923208237
1788650071875121400,13.264121337890625,0.42284202575683594,0.1020059585571289,0.02312617003917694
1788650071891151400,13.2801513671875,0.582768440246582,0.08328628540039062,0.06640446186065674
1788650071907251200,13.296251220703125,0.45654773712158203,0.14140892028808594,0.15900617837905884
1788650071923274200,13.312274169921874,0.2892026901245117,0.16458415985107422,0.17467033863067627
1788650071939292700,13.328292724609375,0.14372920989990234,0.1967606544494629,0.24351152777671814
1788650071955360800,13.34436083984375,0.07536888122558594,0.1920790672302246,0.24901875853538513
1788650071971393500,13.3603935546875,0.10440444946289062,0.11953496932983398,0.23596082627773285
1788650071987457500,13.37645751953125,0.2670021057128906,0.0791921615600586,0.18922902643680573
1788650072003492600,13.39249267578125,0.3134031295776367,0.08691740036010742,0.16635039448738098
1788650072019525400,13.408525390625,0.3001670837402344,0.09660196304321289,0.2129838466644287
1788650072035587300,13.42458740234375,0.1936664581298828,0.18747711181640625,0.2373196929693222
1788650072051624700,13.440624755859375,0.10107231140136719,0.3056216239929199,0.24834668636322021
1788650072067684600,13.4566845703125,0.033425331115722656,0.2805452346801758,0.23129837214946747
1788650072083732700,13.472732666015625,0.0972452163696289,0.24397897720336914,0.11967793852090836
1788650072099766500,13.4887666015625,0.18094539642333984,0.22992849349975586,0.009925328195095062
1788650072115833900,13.504833740234375,0.16972923278808594,0.29563283920288086,-0.1138562560081482
1788650072131888600,13.520888671875,0.17931270599365234,0.35817766189575195,-0.166523277759552
1788650072147965000,13.53696484375,0.04723834991455078,0.4647336006164551,-0.18817734718322754
1788650072164012500,13.553012451171876,-0.15756511688232422,0.5683517456054688,-0.1468060314655304
1788650072180050200,13.56905029296875,-0.42890453338623047,0.6209311485290527,-0.08861000835895538
1788650072196164400,13.585164306640625,-0.6912622451782227,0.6703023910522461,-0.037277884781360626
1788650072212180200,13.60118017578125,-0.7675285339355469,0.6791701316833496,0.012733954936265945
1788650072228267300,13.617267333984374,-0.5852556228637695,0.6382694244384766,0.11526333540678024
1788650072244285700,13.63328564453125,-0.3943452835083008,0.5616850852966309,0.13011296093463898
1788650072260303400,13.649303466796875,-0.31989002227783203,0.548403263092041,-0.021469926461577415
1788650072276419300,13.66541943359375,-0.408599853515625,0.4789137840270996,-0.08140739053487778
1788650072292436500,13.6814365234375,-0.5582733154296875,0.44568634033203125,-0.1653553992509842
1788650072308529700,13.69752978515625,-0.7005534172058105,0.4579281806945801,-0.2223316729068756
1788650072324551000,13.713551025390625,-0.8000583648681641,0.47103357315063477,-0.13366979360580444
1788650072340587800,13.729587890625,-1.0415005683898926,0.47597646713256836,-0.14190438389778137
1788650072356657000,13.745656982421876,-1.0510954856872559,0.4357924461364746,-0.025306440889835358
1788650072372682000,13.761681884765625,-0.7446470260620117,0.31806516647338867,0.06825198978185654
1788650072388750300,13.777750244140625,-0.47545337677001953,0.2818031311035156,0.04181830585002899
1788650072404764200,13.79376416015625,-0.3110227584838867,0.20149755477905273,0.15945479273796082
1788650072420780800,13.80978076171875,-0.22259998321533203,0.16811847686767578,0.2633759081363678
1788650072436847600,13.82584765625,-0.17967605590820312,0.19472122192382812,0.36816343665122986
1788650072452881400,13.84188134765625,-0.1556234359741211,0.2999386787414551,0.38693171739578247
1788650072468947700,13.85794775390625,-0.029732704162597656,0.38149118423461914,0.40898191928863525
1788650072484968700,13.87396875,0.06597709655761719,0.3538804054260254,0.41748467087745667
1788650072501004800,13.8900048828125,0.19095516204833984,0.3951129913330078,0.34464141726493835
1788650072517079300,13.906079345703125,0.12201309204101562,0.4270944595336914,0.3081299960613251
1788650072533123600,13.92212353515625,-0.008419036865234375,0.45787715911865234,0.23700697720050812
1788650072549193700,13.93819384765625,0.08371829986572266,0.4925870895385742,0.05115823447704315
1788650072565211000,13.9542109375,0.2691974639892578,0.443997859954834,-0.1828802525997162
1788650072581228000,13.97022802734375,0.4649038314819336,0.4077882766723633,-0.26503947377204895
1788650072597295000,13.986295166015625,0.6289186477661133,0.28891992568969727,-0.12061959505081177
1788650072613343000,14.002343017578125,0.7844963073730469,0.2712287902832031,-0.28125470876693726
1788650072629432600,14.0184326171875,0.6906118392944336,0.5448393821716309,-0.5587368607521057
1788650072645452000,14.0344521484375,0.6770591735839844,0.6630373001098633,-0.4065820276737213
1788650072661488400,14.05048828125,0.6302986145019531,0.5821280479431152,-0.30733752250671387
1788650072677559300,14.066559326171875,0.9166803359985352,0.5621399879455566,-0.31817662715911865
1788650072693615000,14.082614990234376,1.427957534790039,0.2608060836791992,-0.20426176488399506
1788650072709707300,14.098707275390625,2.060553550720215,-0.1362299919128418,-0.1816951185464859
1788650072725730300,14.114730224609374,2.625030517578125,-0.5964741706848145,-0.474570095539093
1788650072741749800,14.130749755859375,2.923373222351074,-0.8876514434814453,-0.6781351566314697
1788650072757796000,14.146796142578125,2.801772117614746,-1.1242444515228271,-0.7019031047821045
1788650072773869600,14.16286962890625,2.1406335830688477,-1.245274305343628,-0.7050513625144958
1788650072789971000,14.178970947265626,1.2610340118408203,-1.2507946491241455,-0.6984615325927734
1788650072805993200,14.1949931640625,0.6749172210693359,-1.3093206882476807,-0.668877363204956
1788650072822028000,14.211028076171875,0.21126556396484375,-1.3463118076324463,-0.6913262009620667
1788650072838098200,14.22709814453125,-0.02811145782470703,-1.2325568199157715,-0.701914370059967
1788650072854126000,14.2431259765625,-0.1559743881225586,-1.1088685989379883,-0.5543777942657471
1788650072870233600,14.259233642578126,-0.2873811721801758,-1.011732578277588,-0.37856385111808777
1788650072886261000,14.275260986328124,-0.27226734161376953,-1.024322509765625,-0.4163026213645935
1788650072902277000,14.291277099609376,-0.058933258056640625,-1.12371826171875,-0.36680737137794495
1788650072918345000,14.307344970703125,0.0018167495727539062,-1.1490683555603027,-0.22840894758701324
1788650072934384000,14.323384033203125,-0.1251516342163086,-1.0721416473388672,-0.025267712771892548
1788650072950450000,14.339449951171876,-0.490415096282959,-0.945711612701416,0.09019055962562561
1788650072966488600,14.355488525390625,-0.9181599617004395,-0.8802361488342285,0.10722820460796356
1788650072982524400,14.3715244140625,-1.2089176177978516,-0.844703197479248,0.09602934867143631
1788650072998592000,14.387592041015624,-1.3028779029846191,-0.7813606262207031,0.11623787879943848
1788650073014632700,14.4036328125,-1.28377103805542,-0.6964302062988281,0.22008273005485535
1788650073030700000,14.419699951171875,-1.2108502388000488,-0.6267547607421875,0.2921273708343506
1788650073046744000,14.435744140625,-1.0757341384887695,-0.5144505500793457,0.2599409818649292
1788650073062773500,14.4517734375,-0.8797359466552734,-0.4499378204345703,0.17063450813293457
1788650073078836200,14.467836181640624,-0.7602248191833496,-0.35913753509521484,0.09602013975381851
1788650073094892000,14.48389208984375,-0.6167783737182617,-0.24904727935791016,0.05940321087837219
1788650073110965200,14.49996533203125,-0.45473289489746094,-0.21454477310180664,0.06615955382585526
1788650073126982400,14.515982421875,-0.0939178466796875,-0.1393270492553711,0.008701637387275696
1788650073143018000,14.53201806640625,0.22213268280029297,-0.11318111419677734,0.036065585911273956
1788650073159129000,14.548129150390626,0.5631141662597656,-0.0858011245727539,0.036626726388931274
1788650073175140900,14.564140869140624,0.6196298599243164,0.07591438293457031,-0.12523338198661804
1788650073191230000,14.58022998046875,0.5637645721435547,0.18581342697143555,-0.39695289731025696
1788650073207244500,14.59624462890625,0.6500625610351562,0.28500843048095703,-0.4939502477645874
1788650073223257300,14.61225732421875,0.862187385559082,0.49928760528564453,-0.5997098684310913
1788650073239321600,14.628321533203126,1.0946922302246094,0.5628552436828613,-0.37225276231765747
1788650073255337000,14.6443369140625,1.1647148132324219,0.5950708389282227,-0.2462061643600464
1788650073271434200,14.660434326171876,1.074782371520996,0.47348690032958984,-0.09097073972225189
1788650073287452700,14.67645263671875,1.1436538696289062,0.3664975166320801,-0.15076440572738647
1788650073303489500,14.692489501953125,1.2789335250854492,0.3697528839111328,-0.3185485005378723
1788650073319554800,14.708554931640625,1.4343385696411133,0.7286787033081055,-0.5204674005508423
1788650073335584800,14.724584716796874,1.4948835372924805,0.7474126815795898,-0.3555352985858917
1788650073351691000,14.74069091796875,1.5009355545043945,0.4984474182128906,-0.295021653175354
1788650073367709000,14.756708984375,1.6790924072265625,0.19150114059448242,-0.24935105443000793
1788650073383728400,14.772728271484375,2.098430633544922,-0.3114185333251953,-0.2135029137134552
1788650073399797500,14.788797607421875,2.6536197662353516,-0.8511185646057129,-0.3174816370010376
1788650073415809800,14.804809814453124,2.7086143493652344,-1.1932330131530762,-0.2824767827987671
1788650073431861000,14.820861083984376,1.8693914413452148,-1.063044786453247,0.09019041806459427
1788650073447880400,14.83688037109375,0.4179344177246094,-0.9427406787872314,0.45716407895088196
1788650073463912700,14.85291259765625,-0.9266705513000488,-0.9827547073364258,0.8380076885223389
1788650073479957800,14.868957763671874,-1.5891838073730469,-0.9623064994812012,1.0983933210372925
1788650073495990300,14.884990234375,-1.6076817512512207,-0.8157815933227539,1.4414321184158325
1788650073512041200,14.901041259765625,-1.4615674018859863,-0.6819262504577637,1.7759432792663574
1788650073528056000,14.91705615234375,-1.2080597877502441,-0.7523579597473145,1.8532726764678955
1788650073544072200,14.933072265625,-0.7773756980895996,-0.9419107437133789,1.4861184358596802
1788650073560139000,14.949138916015626,-0.1704864501953125,-1.1522095203399658,1.0624958276748657
1788650073576175900,14.96517578125,0.551854133605957,-1.316816806793213,0.8032019138336182
1788650073592239600,14.981239501953125,1.1945018768310547,-1.3570876121520996,0.628228485584259
1788650073608254000,14.99725390625,1.4391803741455078,-1.3465008735656738,0.5600082278251648
1788650073624287700,15.013287841796876,1.1224365234375,-1.1397700309753418,0.2586522400379181
1788650073640355000,15.02935498046875,0.40114784240722656,-0.9859364032745361,0.13817718625068665
1788650073656406300,15.04540625,-0.29445552825927734,-0.8221526145935059,0.027824409306049347
1788650073672489200,15.0614892578125,-0.9447536468505859,-0.683260440826416,-0.020557492971420288
1788650073688505000,15.077505126953126,-1.2664709091186523,-0.5018186569213867,-0.02002352476119995
1788650073704521700,15.093521728515626,-1.4072070121765137,-0.33988285064697266,0.03260156512260437
1788650073720577000,15.109576904296874,-1.3457841873168945,-0.20908069610595703,0.07766410708427429
1788650073736598500,15.1255986328125,-1.232914924621582,-0.08085441589355469,0.13512933254241943
1788650073752702000,15.141701904296875,-0.944972038269043,0.022136211395263672,0.16255289316177368
1788650073768717300,15.15771728515625,-0.507258415222168,0.04477548599243164,0.21094590425491333
1788650073784748800,15.173748779296876,-0.07733345031738281,0.02455425262451172,0.3136845529079437
1788650073800814000,15.18981396484375,0.07085800170898438,0.005098819732666016,0.4207163453102112
1788650073816834300,15.205834228515625,0.08413314819335938,0.06453084945678711,0.4735901653766632
1788650073832933600,15.22193359375,0.1795511245727539,0.14951562881469727,0.4568650722503662
1788650073848949800,15.23794970703125,0.22594356536865234,0.2016897201538086,0.2795965373516083
1788650073864964400,15.25396435546875,0.2952842712402344,0.3211860656738281,0.11253009736537933
1788650073881028600,15.270028564453124,0.4862041473388672,0.42557668685913086,0.08339229226112366
1788650073897048300,15.28604833984375,0.7200803756713867,0.3532142639160156,0.07349194586277008
1788650073913114000,15.302114013671876,1.0988855361938477,0.05795764923095703,0.13091157376766205
1788650073929149000,15.31814892578125,1.6169118881225586,-0.1671614646911621,0.16822540760040283
1788650073945178600,15.3341787109375,1.8652029037475586,0.0013065338134765625,-0.1159079372882843
1788650073961246700,15.350246826171874,1.5955591201782227,0.25307512283325195,-0.029622554779052734
1788650073977292800,15.366292724609375,1.067403793334961,0.20717430114746094,-0.11023002862930298
1788650073993365000,15.382364990234375,1.0584115982055664,0.31705474853515625,-0.7875948548316956
1788650074009408000,15.398407958984375,1.7966594696044922,0.22199296951293945,-1.10952627658844
1788650074025431000,15.41443115234375,2.7358903884887695,-0.0952911376953125,-1.0084757804870605
1788650074041470000,15.430469970703125,3.6008872985839844,-0.5227541923522949,-0.8862124681472778
1788650074057494500,15.44649462890625,3.6497020721435547,-0.8892712593078613,-0.8741369247436523
1788650074073552100,15.46255224609375,2.512449264526367,-1.0219159126281738,-1.0293537378311157
1788650074089567500,15.4785673828125,1.0989084243774414,-0.9994068145751953,-1.1577792167663574
1788650074105570000,15.494570068359375,0.18108081817626953,-1.0830254554748535,-0.952770471572876
1788650074121654000,15.510654052734376,-0.06438732147216797,-1.165022850036621,-1.0444929599761963
1788650074137661000,15.526660888671875,0.0016689300537109375,-1.2959120273590088,-1.1047744750976562
1788650074153751600,15.54275146484375,-0.0000457763671875,-1.4084765911102295,-1.101165533065796
1788650074169780700,15.55878076171875,-0.1452770233154297,-1.5040626525878906,-0.9919489622116089
1788650074185794800,15.574794921875,-0.43303728103637695,-1.5020217895507812,-0.7910462617874146
1788650074201860400,15.5908603515625,-0.724998950958252,-1.4007489681243896,-0.4327326714992523
1788650074217883000,15.6068828125,-0.883021354675293,-1.379281759262085,-0.14755818247795105
1788650074233980700,15.622980712890625,-0.8767237663269043,-1.4120047092437744,0.12596723437309265
1788650074249997800,15.638997802734375,-0.8989300727844238,-1.330784559249878,0.2949073612689972
1788650074266026000,15.65502587890625,-1.0738563537597656,-1.2167770862579346,0.45508086681365967
1788650074282091300,15.67109130859375,-1.3068947792053223,-1.0695099830627441,0.4991970658302307
1788650074298115000,15.687114990234376,-1.4986624717712402,-0.8919572830200195,0.5159672498703003
1788650074314218500,15.703218505859375,-1.5062928199768066,-0.7028141021728516,0.39338165521621704
1788650074330233600,15.719233642578125,-1.0643153190612793,-0.5669164657592773,0.13115356862545013
1788650074346247200,15.7352470703125,-0.3743782043457031,-0.4779243469238281,-0.20411330461502075
1788650074362312400,15.7513125,0.46493053436279297,-0.43647241592407227,-0.40216144919395447
1788650074378347500,15.767347412109375,0.9875068664550781,-0.33351612091064453,-0.3629017472267151
1788650074394410500,15.783410400390625,0.9289684295654297,-0.26648569107055664,-0.12655454874038696
1788650074410421500,15.79942138671875,0.4847698211669922,-0.10327386856079102,0.09535802900791168
1788650074426448000,15.81544775390625,-0.15728473663330078,0.01003408432006836,0.18741613626480103
1788650074442511000,15.831510986328125,-0.588655948638916,0.024205684661865234,0.1961832344532013
1788650074458551000,15.847551025390626,-0.440155029296875,-0.022315025329589844,0.05498787388205528
1788650074474621400,15.863621337890624,-0.12143802642822266,-0.017215251922607422,-0.11052855104207993
1788650074490637000,15.879636962890626,0.008753776550292969,0.22408485412597656,-0.32877984642982483
1788650074506653200,15.895653076171875,-0.04699134826660156,0.4172945022583008,-0.39755159616470337
1788650074522722600,15.91172265625,0.0926065444946289,0.5734643936157227,-0.4377214014530182
1788650074538777600,15.927777587890626,0.37064456939697266,0.6520023345947266,-0.4406174123287201
1788650074554863900,15.94386376953125,0.5096530914306641,0.6536164283752441,-0.45648840069770813
1788650074570884900,15.959884765625,0.7683191299438477,0.47539567947387695,-0.44667160511016846
1788650074586921000,15.9759208984375,1.179342269897461,0.44789695739746094,-0.7295564413070679
1788650074602994000,15.991993896484376,1.4139785766601562,0.8851809501647949,-1.2862110137939453
1788650074619012600,16.0080126953125,1.213181495666504,0.9273028373718262,-0.7016953229904175
1788650074635110100,16.024110107421876,1.0724363327026367,0.5901141166687012,-0.34938526153564453
1788650074651130000,16.040130126953127,1.6220808029174805,0.31925344467163086,-0.3456783890724182
1788650074667147000,16.05614697265625,2.5180139541625977,-0.11293268203735352,-0.2997584640979767
1788650074683191600,16.072191650390625,3.0459680557250977,-0.4273538589477539,-0.39426687359809875
1788650074699242200,16.0882421875,2.736591339111328,-0.5997729301452637,-0.4784087836742401
1788650074715336200,16.104336181640626,1.8918647766113281,-0.6292548179626465,-0.3757692873477936
1788650074731361800,16.12036181640625,0.9122486114501953,-0.7151198387145996,-0.07786139845848083
1788650074747396600,16.136396728515624,0.10870742797851562,-0.7695250511169434,0.1031762957572937
1788650074763451100,16.152451171875,-0.6073594093322754,-0.7856411933898926,0.33528804779052734
1788650074779461000,16.168461181640627,-1.1902337074279785,-0.7140860557556152,0.5722000598907471
1788650074795549200,16.184549072265625,-1.35408353805542,-0.7380719184875488,0.853711724281311
1788650074811576300,16.200576416015625,-1.0112133026123047,-0.900062084197998,1.2088453769683838
1788650074827595000,16.216594970703124,-0.5192584991455078,-0.9594025611877441,1.6362379789352417
1788650074843661300,16.232661376953125,0.08303260803222656,-0.9794325828552246,2.0801379680633545
1788650074859692000,16.248692138671874,0.6509828567504883,-1.2546825408935547,2.2422943115234375
1788650074875798300,16.26479833984375,0.7128829956054688,-1.4139745235443115,1.9923648834228516
1788650074891828500,16.280828369140625,0.4356565475463867,-1.4530155658721924,1.5918803215026855
1788650074907873000,16.296873046875,0.45971012115478516,-1.3602545261383057,1.0635783672332764
1788650074923943200,16.312943115234376,0.6961669921875,-1.3344943523406982,0.5485227704048157
1788650074939986400,16.328986328125,0.702692985534668,-1.2404165267944336,0.24842751026153564
1788650074956053800,16.3450537109375,0.3924293518066406,-1.0044751167297363,-0.07681480050086975
1788650074972096800,16.3610966796875,-0.3150358200073242,-0.8052761554718018,-0.22056058049201965
1788650074988130600,16.377130615234375,-0.9783782958984375,-0.6158218383789062,-0.4612760543823242
1788650075004198100,16.3931982421875,-1.3145270347595215,-0.45767736434936523,-0.7035514712333679
1788650075020210000,16.4092099609375,-1.2898898124694824,-0.349179744720459,-0.7637494802474976
1788650075036260900,16.4252607421875,-1.2265095710754395,-0.28887128829956055,-0.6147828102111816
1788650075052284700,16.44128466796875,-0.989588737487793,-0.2088942527770996,-0.530714750289917
1788650075068323800,16.45732373046875,-0.7374153137207031,-0.17552661895751953,-0.29764875769615173
1788650075084397000,16.47339697265625,-0.43529605865478516,-0.1134490966796875,-0.11996930837631226
1788650075100413200,16.4894130859375,-0.21881103515625,-0.10055875778198242,-0.010983020067214966
1788650075116511700,16.50551171875,-0.09490299224853516,-0.0215911865234375,0.1337369978427887
1788650075132536800,16.521536865234374,-0.09341144561767578,0.03181791305541992,0.23239581286907196
1788650075148559600,16.5375595703125,-0.23201847076416016,0.13566303253173828,0.22418271005153656
1788650075164630500,16.553630615234376,-0.4577350616455078,0.2656369209289551,0.13994622230529785
1788650075180655900,16.56965576171875,-0.5271873474121094,0.40678977966308594,0.1368820071220398
1788650075196759300,16.58575927734375,-0.3608083724975586,0.5961399078369141,0.22029095888137817
1788650075212779800,16.60177978515625,-0.0848531723022461,0.7218804359436035,0.333173543214798
1788650075228812300,16.617812255859373,0.15041065216064453,0.7299866676330566,0.3728253245353699
1788650075244877000,16.633876953125,0.4530372619628906,0.4425239562988281,0.3626781404018402
1788650075260905700,16.64990576171875,0.9168109893798828,0.028154373168945312,0.38289427757263184
1788650075276970800,16.665970703125,1.5292930603027344,-0.19396257400512695,0.25210970640182495
1788650075292993300,16.6819931640625,2.0734806060791016,-0.1260995864868164,0.02477744221687317
1788650075309011700,16.69801171875,2.0778322219848633,0.18324613571166992,-0.19931817054748535
1788650075325080300,16.714080322265627,1.5780811309814453,0.28206300735473633,-0.06986147165298462
1788650075341121800,16.730121826171874,1.0914907455444336,0.6139335632324219,-0.4058440625667572
1788650075357186300,16.746186279296875,1.082223892211914,0.7049570083618164,-0.7325872778892517
1788650075373209300,16.762209228515626,1.4235601425170898,0.4871511459350586,-1.000699520111084
1788650075389252000,16.778252197265626,2.1202993392944336,0.07803153991699219,-1.4197759628295898
1788650075405299500,16.794299560546875,2.673900604248047,-0.22670364379882812,-1.5377578735351562
1788650075421330700,16.81033056640625,3.0036516189575195,-0.646491289138794,-1.5181310176849365
1788650075437408500,16.826408447265624,2.6394052505493164,-1.0457940101623535,-1.6642506122589111
1788650075453429200,16.84242919921875,1.8258028030395508,-1.2511355876922607,-1.6993014812469482
1788650075469452300,16.858452392578126,0.7479448318481445,-1.3427293300628662,-1.5077762603759766
1788650075485501700,16.874501708984376,-0.2985572814941406,-1.3919804096221924,-1.3191322088241577
1788650075501549300,16.89054931640625,-1.1216788291931152,-1.3939049243927002,-1.1711703538894653
1788650075517620700,16.906620849609375,-1.5350689888000488,-1.3216681480407715,-0.7973226308822632
1788650075533643300,16.922643310546874,-1.5301828384399414,-1.167600393295288,-0.36341390013694763
1788650075549682400,16.938682373046873,-1.339268684387207,-1.087641954421997,0.21234877407550812
1788650075565750800,16.954750732421875,-0.9364562034606934,-1.1626393795013428,0.3740767538547516
1788650075581806000,16.97080615234375,-0.2389812469482422,-1.3883585929870605,0.3151029050350189
1788650075597904000,16.98690380859375,0.6352043151855469,-1.5902988910675049,0.16451148688793182
1788650075613925000,17.002925048828125,1.2652883529663086,-1.6225440502166748,0.10866464674472809
1788650075629938700,17.018938720703126,1.7032852172851562,-1.566972017288208,0.05035918951034546
1788650075645987000,17.034987060546875,1.5335617065429688,-1.5039594173431396,0.128602996468544
1788650075662004700,17.051004638671873,0.8214540481567383,-1.396125078201294,0.1870034635066986
1788650075678058500,17.06705859375,-0.09645652770996094,-1.2396788597106934,0.18454131484031677
1788650075694074000,17.08307421875,-0.7147693634033203,-1.06868314743042,0.2000415176153183
1788650075710105900,17.09910595703125,-1.0471973419189453,-0.894517183303833,0.2099541276693344
1788650075726164700,17.115164794921874,-1.0904922485351562,-0.7533001899719238,0.16439896821975708
1788650075742191000,17.131191162109374,-0.9354534149169922,-0.6571073532104492,0.0018348246812820435
1788650075758292000,17.1472919921875,-0.7395648956298828,-0.5253701210021973,-0.10332943499088287
1788650075774319400,17.1633193359375,-0.5782012939453125,-0.3895549774169922,-0.08241085708141327
1788650075790336300,17.179336181640625,-0.3754606246948242,-0.22414064407348633,-0.06779183447360992
1788650075806403000,17.195403076171875,-0.062081336975097656,-0.11008787155151367,-0.09372399747371674
1788650075822443800,17.21144384765625,0.3034820556640625,-0.0668034553527832,-0.1437785029411316
1788650075838515000,17.227514892578125,0.6220149993896484,-0.039404869079589844,-0.15815262496471405
1788650075854554000,17.24355419921875,0.7708492279052734,-0.0025911331176757812,-0.2450958788394928
1788650075870593300,17.25959326171875,0.7568979263305664,0.14488744735717773,-0.4179272949695587
1788650075886661400,17.275661376953124,0.6621370315551758,0.3227839469909668,-0.5191381573677063
1788650075902708500,17.29170849609375,0.5524253845214844,0.36083555221557617,-0.5238409042358398
1788650075918797000,17.307797119140623,0.4071931838989258,0.35755252838134766,-0.565895676612854
1788650075934843600,17.32384375,0.2514514923095703,0.3107318878173828,-0.5482065677642822
1788650075950881500,17.339881591796875,0.155792236328125,0.2707643508911133,-0.5178348422050476
1788650075966986500,17.355986572265625,0.11963272094726562,0.1934490203857422,-0.44468218088150024
1788650075982997200,17.371997314453125,0.27403831481933594,0.21640825271606445,-0.438163161277771
1788650075999087000,17.388087158203124,0.3798093795776367,0.3127307891845703,-0.36130231618881226
1788650076015103700,17.404103759765626,0.20473957061767578,0.26490163803100586,-0.29526305198669434
1788650076031138000,17.420137939453124,0.016683578491210938,0.2819557189941406,-0.494800865650177
1788650076047201500,17.436201416015624,-0.11585044860839844,0.6625394821166992,-0.6207638382911682
1788650076063211800,17.452211669921876,-0.1434955596923828,0.713472843170166,-0.13196416199207306
1788650076079314700,17.468314697265626,-0.2523689270019531,0.7123346328735352,0.2026785910129547
1788650076095330000,17.484330078125,-0.03736114501953125,0.5692758560180664,0.3678258955478668
1788650076111344400,17.500344482421873,0.4127006530761719,0.10776472091674805,0.7181858420372009
1788650076127409200,17.5164091796875,1.104691505432129,-0.35942840576171875,0.8414143323898315
1788650076143423500,17.532423583984375,1.6659927368164062,-0.6414942741394043,0.6140851378440857
1788650076159522000,17.54852197265625,1.7285661697387695,-0.8605992794036865,0.1462755799293518
1788650076175543800,17.564543701171875,1.4679193496704102,-0.9695019721984863,-0.13159649074077606
1788650076191579100,17.5805791015625,0.8992166519165039,-1.0189595222473145,-0.17254091799259186
1788650076207648800,17.596648681640627,0.06982898712158203,-0.9347422122955322,0.09384980797767639
1788650076223678200,17.61267822265625,-0.7091288566589355,-0.8912084102630615,0.2077757567167282
1788650076239728600,17.628728759765625,-1.3624801635742188,-0.7796206474304199,0.3528442978858948
1788650076255748600,17.64474853515625,-1.6265358924865723,-0.5838408470153809,0.6355243921279907
1788650076271770600,17.6607705078125,-1.4800395965576172,-0.46231985092163086,0.8810312747955322
1788650076287829000,17.6768291015625,-0.6754255294799805,-0.5280704498291016,0.9186943769454956
1788650076303874000,17.6928740234375,0.4547586441040039,-0.8776998519897461,0.8973925113677979
1788650076319928300,17.70892822265625,1.6084098815917969,-1.1596083641052246,1.113219976425171
1788650076335949000,17.724948974609376,3.0305776596069336,-1.4366085529327393,1.1805235147476196
1788650076351981800,17.74098193359375,3.543050765991211,-1.646298885345459,1.0436584949493408
1788650076368028000,17.75702783203125,2.796112060546875,-1.6587090492248535,0.385716050863266
1788650076384052700,17.773052734375,1.6711559295654297,-1.560286521911621,-0.08229966461658478
1788650076400109000,17.789109130859377,0.8120355606079102,-1.339996576309204,-0.2794315814971924
1788650076416128500,17.80512841796875,0.125732421875,-1.0608563423156738,-0.3651044964790344
1788650076432147000,17.82114697265625,-0.42978572845458984,-0.9525372982025146,-0.43273821473121643
1788650076448199400,17.837199462890624,-0.7669219970703125,-0.7878453731536865,-0.5836169123649597
1788650076464246800,17.853246826171876,-0.8745608329772949,-0.5858955383300781,-0.6060885787010193
1788650076480325600,17.86932568359375,-0.7410082817077637,-0.40491342544555664,-0.5639399886131287
1788650076496339700,17.885339599609374,-0.3552989959716797,-0.3060450553894043,-0.5155461430549622
1788650076512371000,17.901370849609375,-0.039035797119140625,-0.18974685668945312,-0.39123234152793884
1788650076528437800,17.917437744140624,0.02989959716796875,0.03625011444091797,-0.21943829953670502
1788650076544459500,17.93345947265625,-0.09894084930419922,0.18163347244262695,-0.009994739666581154
1788650076560551700,17.9495517578125,-0.15132617950439453,0.15749120712280273,0.0965598002076149
1788650076576569000,17.965569091796876,0.1709127426147461,0.10273218154907227,0.02061053365468979
1788650076592585700,17.981585693359374,0.7434654235839844,-0.03535938262939453,-0.03907310217618942
1788650076608654300,17.997654296875,1.3855981826782227,-0.15621614456176758,-0.00550253689289093
1788650076624681700,18.013681640625,1.637155532836914,-0.19225168228149414,0.019909843802452087
1788650076640784400,18.029784423828126,1.5216989517211914,-0.23233604431152344,0.024702921509742737
1788650076656813300,18.045813232421875,0.9393453598022461,-0.2066512107849121,0.03790667653083801
1788650076672848400,18.061848388671876,0.30847644805908203,-0.1662464141845703,0.1545361876487732
1788650076688922000,18.077922119140624,-0.10766983032226562,-0.10741901397705078,0.31114745140075684
1788650076704952300,18.093952392578124,-0.2756338119506836,-0.1110386848449707,0.39536213874816895
1788650076721075500,18.110075439453126,-0.18182849884033203,-0.16844701766967773,0.4003574848175049
1788650076737110800,18.12611083984375,0.13232994079589844,-0.1717357635498047,0.2426784485578537
1788650076753126700,18.142126708984375,0.22434425354003906,-0.23445701599121094,0.3179118037223816
1788650076769192400,18.1581923828125,0.060161590576171875,-0.22408771514892578,0.4306478202342987
1788650076785251600,18.17425146484375,-0.13813018798828125,-0.17425823211669922,0.4525172710418701
1788650076801315600,18.190315673828124,0.01705169677734375,-0.0766901969909668,0.5239517092704773
1788650076817355800,18.206355712890623,0.2372274398803711,0.09485864639282227,0.4896322190761566
1788650076833396200,18.222396240234374,0.33229637145996094,0.1522197723388672,0.48858213424682617
1788650076849467600,18.238467529296877,-0.03796195983886719,0.17087268829345703,0.4272695779800415
1788650076865520400,18.254520263671875,-0.44802284240722656,0.18096303939819336,0.3538217544555664
1788650076881592000,18.270592041015625,-0.4122495651245117,0.03724527359008789,0.4643881916999817
1788650076897636400,18.28663623046875,0.2293567657470703,-0.11607122421264648,0.36529284715652466
1788650076913654300,18.302654296875,0.9770965576171875,-0.25414323806762695,0.17166458070278168
1788650076929759500,18.318759521484374,1.2573089599609375,-0.35008907318115234,0.014052636921405792
1788650076945769700,18.334769775390626,1.0276861190795898,-0.31458616256713867,-0.1533672958612442
1788650076961862700,18.350862548828125,0.3765420913696289,-0.17339611053466797,-0.20121362805366516
1788650076977884200,18.36688427734375,-0.3384675979614258,-0.04790544509887695,-0.0902642011642456
1788650076993918200,18.382918212890626,-0.83135986328125,0.07176065444946289,-0.05669204518198967
1788650077010037800,18.399037841796876,-0.9486136436462402,0.14411640167236328,-0.014939064159989357
1788650077026053600,18.4150537109375,-0.7867321968078613,0.1440424919128418,0.08804170787334442
1788650077042152200,18.431152099609374,-0.45076560974121094,0.11638212203979492,0.22994112968444824
1788650077058172200,18.447172119140625,-0.04971504211425781,0.17624282836914062,0.33610549569129944
1788650077074192100,18.463192138671875,0.20106983184814453,0.18932342529296875,0.38293373584747314
1788650077090264300,18.479264404296874,0.2044506072998047,0.15610361099243164,0.2659849226474762
1788650077106294500,18.49529443359375,0.13713645935058594,0.14675426483154297,0.10371215641498566
1788650077122401000,18.511401123046873,0.12358283996582031,0.15439462661743164,-0.01861906796693802
1788650077138419700,18.527419677734375,0.18715381622314453,0.1683659553527832,-0.13168372213840485
1788650077154455800,18.543455810546874,0.22406768798828125,0.19261932373046875,-0.14526405930519104
1788650077170523600,18.559523681640623,0.21654224395751953,0.1502084732055664,-0.18020138144493103
1788650077186567000,18.57556689453125,0.13219547271728516,0.17056989669799805,-0.21034401655197144
1788650077202678300,18.59167822265625,-0.038573265075683594,0.21782732009887695,-0.14654986560344696
1788650077218700300,18.6077001953125,-0.27423858642578125,0.1963043212890625,-0.09157367795705795
1788650077234718700,18.62371875,-0.39336299896240234,0.2411179542541504,-0.13640081882476807
1788650077250785500,18.63978564453125,-0.39041709899902344,0.2237567901611328,-0.20704291760921478
1788650077266824200,18.65582421875,-0.21417713165283203,0.21402978897094727,-0.22300797700881958
1788650077282901800,18.67190185546875,0.06044197082519531,0.21085643768310547,-0.21754327416419983
1788650077298922000,18.687921875,0.23523521423339844,0.19413423538208008,-0.23872268199920654
1788650077314955800,18.703955810546876,0.3370246887207031,0.17970991134643555,-0.2660723030567169
1788650077331020000,18.72002001953125,0.2961854934692383,0.16339540481567383,-0.2999113202095032
1788650077347067400,18.7360673828125,0.15698909759521484,0.18361711502075195,-0.31935399770736694
1788650077363144400,18.75214453125,0.03115367889404297,0.17008686065673828,-0.23491905629634857
1788650077379166700,18.768166748046873,-0.060821533203125,0.18940162658691406,-0.171216681599617
1788650077395188200,18.784188232421876,-0.11678123474121094,0.17731857299804688,-0.10822248458862305
1788650077411260000,18.800260009765626,-0.16083621978759766,0.14851713180541992,-0.045869916677474976
1788650077427321600,18.816321533203126,-0.24111175537109375,0.12984895706176758,0.055773474276065826
1788650077443414300,18.832414306640626,-0.1698474884033203,0.11688709259033203,0.01595553755760193
1788650077459438800,18.84843896484375,-0.04582786560058594,0.11325788497924805,-0.04195976257324219
1788650077475479300,18.864479248046877,0.01703643798828125,0.11221837997436523,0.0031372755765914917
1788650077491550000,18.880550048828123,-0.03233528137207031,0.13944244384765625,0.02108663320541382
1788650077507574000,18.896573974609375,-0.06456851959228516,0.14451265335083008,-0.06417597830295563
1788650077523668000,18.91266796875,-0.061247825622558594,0.15991640090942383,-0.13444484770298004
1788650077539691800,18.92869189453125,0.046080589294433594,0.16124629974365234,-0.12899552285671234
1788650077555711700,18.944711669921876,0.15732955932617188,0.1880474090576172,-0.1392814666032791
1788650077571782100,18.9607822265625,0.2878742218017578,0.20229578018188477,-0.0648920089006424
1788650077587806000,18.976805908203126,0.2832975387573242,0.25188446044921875,-0.04295182228088379
1788650077603906800,18.99290673828125,0.1137399673461914,0.30112457275390625,-0.08512145280838013
1788650077619925200,19.00892529296875,0.0061664581298828125,0.31058454513549805,-0.07733149826526642
1788650077635957800,19.024957763671875,0.03262042999267578,0.3109707832336426,-0.09088453650474548
1788650077652023600,19.0410234375,0.25777435302734375,0.31395912170410156,-0.23030731081962585
1788650077668059600,19.0570595703125,0.5601272583007812,0.29416465759277344,-0.4362674355506897
1788650077684172300,19.07317236328125,0.6623392105102539,0.2772355079650879,-0.5911105871200562
1788650077700199000,19.089198974609374,0.6092281341552734,0.25740766525268555,-0.6666030883789062
1788650077716215600,19.105215576171876,0.49666404724121094,0.20561981201171875,-0.6479802131652832
1788650077732283000,19.121282958984374,0.29524898529052734,0.19027471542358398,-0.5869054794311523
1788650077748329000,19.137328857421874,0.06259632110595703,0.1731266975402832,-0.5363779067993164
1788650077764406500,19.153406494140626,-0.13672447204589844,0.20027685165405273,-0.5983700752258301
1788650077780448800,19.16944873046875,-0.3534088134765625,0.17937040328979492,-0.6541106700897217
1788650077796493800,19.185493896484374,-0.4334068298339844,0.11587715148925781,-0.625015377998352
1788650077812564700,19.201564697265624,-0.3375091552734375,0.058034420013427734,-0.6136209964752197
1788650077828622300,19.217622314453124,-0.1095876693725586,-0.0025033950805664062,-0.6899486780166626
1788650077844709400,19.23370947265625,0.0646514892578125,-0.023906707763671875,-0.8706817626953125
1788650077860737300,19.2497373046875,0.1474905014038086,-0.08976459503173828,-1.0060698986053467
1788650077876763400,19.265763427734374,0.19103050231933594,-0.18529224395751953,-1.0448404550552368
1788650077892880100,19.281880126953126,0.20990943908691406,-0.2485642433166504,-1.0233696699142456
1788650077908893000,19.297892822265624,0.1993551254272461,-0.3366813659667969,-1.02400541305542
1788650077924980700,19.313980712890626,0.17110157012939453,-0.4299459457397461,-1.0888770818710327
1788650077940995800,19.329995849609375,-0.008112907409667969,-0.541628360748291,-1.0343917608261108
1788650077957029000,19.346029052734377,0.19351863861083984,-0.5627560615539551,-0.9754965901374817
1788650077973091600,19.362091552734373,0.18846893310546875,-0.6683464050292969,-0.6991429924964905
1788650077989104600,19.378104736328126,0.10695648193359375,-0.6665964126586914,-1.0519030094146729
1788650078005202700,19.39420263671875,-0.0903787612915039,-0.6657257080078125,-1.1508128643035889
1788650078021218300,19.41021826171875,-0.30843639373779297,-0.6485271453857422,-1.2115044593811035
1788650078037233000,19.42623291015625,-0.3911886215209961,-0.5253386497497559,-1.2191404104232788
1788650078053296000,19.442296142578126,-0.4074211120605469,-0.5493631362915039,-1.0004456043243408
1788650078069318100,19.458318115234373,-0.20474720001220703,-0.5526027679443359,-1.0308988094329834
1788650078085431300,19.474431396484373,0.24506855010986328,-0.6551265716552734,-1.112352728843689
1788650078101452000,19.4904521484375,0.832036018371582,-0.8113043308258057,-1.1008082628250122
1788650078117460200,19.506460205078124,1.3007469177246094,-0.9317324161529541,-1.0099844932556152
1788650078133531400,19.522531494140626,1.4560203552246094,-1.0194926261901855,-0.8880980014801025
1788650078149570000,19.538570068359373,1.3670034408569336,-0.8520452976226807,-0.6456553936004639
1788650078165631000,19.554630859375,1.1319208145141602,-0.6695461273193359,-0.4000563621520996
1788650078189643500,19.5786435546875,0.8295497894287109,-0.4576382637023926,-0.21727895736694336
1788650078205689600,19.594689697265625,0.7254648208618164,-0.37975406646728516,-0.048169732093811035
1788650078221762000,19.610761962890624,0.6074552536010742,-0.3363466262817383,0.061937689781188965
1788650078237806600,19.626806640625,0.48041534423828125,-0.3638901710510254,0.0676811933517456
1788650078253855500,19.64285546875,0.4193382263183594,-0.32044315338134766,0.11726111173629761
1788650078269868300,19.658868408203126,0.3209495544433594,-0.27211427688598633,0.19672590494155884
1788650078285927000,19.674927001953126,0.3953256607055664,-0.3002128601074219,0.083773672580719
1788650078301998800,19.690998779296876,0.6124134063720703,-0.39299774169921875,-0.0722995400428772
1788650078318044200,19.707044189453125,0.7572154998779297,-0.4720473289489746,-0.19796758890151978
1788650078334089500,19.72308935546875,0.8497400283813477,-0.5679421424865723,-0.308510959148407
1788650078350103000,19.73910302734375,0.8530035018920898,-0.649683952331543,-0.32475948333740234
1788650078366148600,19.755148681640627,0.7117509841918945,-0.7407872676849365,-0.411513090133667
1788650078382230000,19.77122998046875,0.46749210357666016,-0.847266435623169,-0.4632311463356018
1788650078398290400,19.78729052734375,0.28673553466796875,-0.8543894290924072,-0.4986051917076111
1788650078414338000,19.803338134765625,0.15487957000732422,-0.798316240310669,-0.35849106311798096
1788650078430353200,19.819353271484374,0.08331012725830078,-0.5283026695251465,-0.21961551904678345
1788650078446413800,19.835413818359374,-0.08187580108642578,-0.30051517486572266,0.12685436010360718
1788650078462453800,19.851453857421873,-0.24406051635742188,-0.32989978790283203,0.5320419073104858
1788650078478514700,19.8675146484375,-0.1537647247314453,-0.37560033798217773,0.7933213114738464
1788650078494564600,19.883564697265626,0.3742542266845703,-0.5973544120788574,0.9400273561477661
1788650078510580000,19.899580078125,1.0728702545166016,-0.9019720554351807,0.9110673666000366
1788650078526631200,19.915631103515626,1.7127313613891602,-1.1533703804016113,0.9861078262329102
1788650078542670300,19.93167041015625,1.8547334671020508,-1.291748285293579,1.188528299331665
1788650078558742500,19.947742431640624,1.2735176086425781,-1.2429344654083252,1.2399311065673828
