time,seconds_elapsed,z,y,x
1788650058754206200,0.143206298828125,-11.848000526428223,-46.553001403808594,-40.814002990722656
1788650058770353400,0.159353515625,-5.118000030517578,-20.30000114440918,-8.29900074005127
1788650058786389000,0.175388916015625,-5.113000392913818,-20.297000885009766,-8.096000671386719
1788650058802415000,0.1914150390625,-4.914000034332275,-20.19700050354004,-8.604000091552734
1788650058818548700,0.207548828125,-5.635000228881836,-20.939001083374023,-8.101000785827637
1788650058834582800,0.223582763671875,-5.129000186920166,-19.658000946044922,-8.396000862121582
1788650058850544000,0.239544189453125,-7.234000205993652,-20.18400001525879,-7.88800048828125
1788650058866612500,0.255612548828125,-5.652000427246094,-20.08500099182129,-8.29699993133545
1788650058882646000,0.27164599609375,-7.2330002784729,-20.615001678466797,-8.096000671386719
1788650058898801200,0.28780126953125,-5.336000442504883,-20.519001007080078,-8.709000587463379
1788650058914844700,0.3038447265625,-6.074000358581543,-20.29800033569336,-8.29800033569336
1788650058930790100,0.3197900390625,-5.38700008392334,-20.054000854492188,-5.954000473022461
1788650058946836000,0.3358359375,-5.340000152587891,-19.76500129699707,-8.396000862121582
1788650058962914800,0.351914794921875,-4.134000301361084,-20.392000198364258,-7.079000473022461
1788650058979035000,0.368034912109375,-5.186000347137451,-19.952001571655273,-6.3610005378723145
1788650058995097000,0.38409716796875,-5.212000370025635,-21.373001098632812,-8.41100025177002
1788650059011040300,0.400040283203125,-5.340000152587891,-21.062000274658203,-9.223000526428223
1788650059027101000,0.416100830078125,-6.148000240325928,-19.955001831054688,-6.6650004386901855
1788650059043185400,0.432185302734375,-4.371000289916992,-19.867000579833984,-7.889000415802002
1788650059059305000,0.448304931640625,-5.103000164031982,-19.535001754760742,-7.172000408172607
1788650059075371800,0.464371826171875,-6.508000373840332,-20.08700180053711,-8.601000785827637
1788650059091315500,0.4803154296875,-4.27400016784668,-20.5210018157959,-8.710000038146973
1788650059107361000,0.496361083984375,-5.720000267028809,-20.06100082397461,-6.565000534057617
1788650059123394800,0.512394775390625,-6.7910003662109375,-21.038000106811523,-7.591000556945801
1788650059139528700,0.52852880859375,-4.638000011444092,-21.023000717163086,-6.26900053024292
1788650059155604500,0.5446044921875,-4.067000389099121,-19.336000442504883,-8.190000534057617
1788650059171548000,0.5605478515625,-6.714000225067139,-20.516000747680664,-8.605000495910645
1788650059187610400,0.5766103515625,-6.697000503540039,-21.15300178527832,-8.20300006866455
1788650059203643000,0.592642822265625,-3.953000068664551,-21.060001373291016,-8.919000625610352
1788650059219790800,0.608790771484375,-4.708000183105469,-20.202001571655273,-8.910000801086426
1788650059235827000,0.624826904296875,-6.39300012588501,-18.894001007080078,-7.470000267028809
1788650059251768800,0.640768798828125,-5.1020002365112305,-20.290000915527344,-7.586000442504883
1788650059267816000,0.65681591796875,-5.52400016784668,-19.315000534057617,-6.86400032043457
1788650059283851000,0.67285107421875,-4.029000282287598,-21.25800132751465,-7.698000431060791
1788650059300010000,0.689010009765625,-5.436000347137451,-20.51500129699707,-8.403000831604004
1788650059316059000,0.705058837890625,-5.212000370025635,-19.860000610351562,-7.4800004959106445
1788650059332006000,0.721005859375,-6.485000133514404,-20.07400131225586,-7.583000183105469
1788650059348071400,0.737071533203125,-5.629000186920166,-20.611000061035156,-7.588000297546387
1788650059364108000,0.75310791015625,-6.479000091552734,-21.367000579833984,-8.10300064086914
1788650059380270000,0.76927001953125,-5.842000484466553,-20.395000457763672,-7.484000205993652
1788650059396296700,0.785296630859375,-6.058000087738037,-21.586000442504883,-8.41100025177002
1788650059412244200,0.801244140625,-5.650000095367432,-20.516000747680664,-8.504000663757324
1788650059428293000,0.817293212890625,-6.839000225067139,-19.987001419067383,-9.109000205993652
1788650059444331300,0.833331298828125,-5.329000473022461,-20.191001892089844,-8.196000099182129
1788650059460501000,0.8495009765625,-5.213000297546387,-20.941001892089844,-8.20300006866455
1788650059476561200,0.86556103515625,-5.647000312805176,-20.946001052856445,-8.610000610351562
1788650059492504000,0.881504150390625,-6.060000419616699,-20.290000915527344,-7.687000274658203
1788650059508566300,0.897566162109375,-5.1080002784729,-19.862001419067383,-7.582000255584717
1788650059524603100,0.91360302734375,-5.326000213623047,-19.757001876831055,-7.785000324249268
1788650059540734500,0.929734375,-7.128000259399414,-19.644001007080078,-7.578000545501709
1788650059556804000,0.94580419921875,-5.543000221252441,-19.435001373291016,-7.782000541687012
1788650059572755000,0.9617548828125,-6.7210001945495605,-19.871000289916992,-8.497000694274902
1788650059588802600,0.977802490234375,-5.110000133514404,-20.40300178527832,-7.99500036239624
1788650059604841200,0.99384130859375,-4.38200044631958,-19.117000579833984,-7.88200044631958
1788650059620980000,1.00997998046875,-5.112000465393066,-20.080001831054688,-7.890000343322754
1788650059637058000,1.02605810546875,-6.461000442504883,-22.00400161743164,-7.702000141143799
1788650059653019600,1.04201953125,-4.652000427246094,-21.464000701904297,-7.190000534057617
1788650059669089000,1.058089111328125,-6.829000473022461,-20.413000106811523,-8.909000396728516
1788650059685128700,1.074128662109375,-6.493000507354736,-20.511001586914062,-8.197999954223633
1788650059701280800,1.09028076171875,-6.369000434875488,-21.47300148010254,-8.003000259399414
1788650059717318100,1.106318115234375,-6.193000316619873,-20.522001266479492,-9.01300048828125
1788650059733288000,1.122287841796875,-5.123000144958496,-20.411001205444336,-8.605999946594238
1788650059749346300,1.13834619140625,-4.974000453948975,-20.06100082397461,-6.464000225067139
1788650059765384000,1.154384033203125,-5.823000431060791,-21.57200050354004,-7.39300012588501
1788650059781538600,1.17053857421875,-7.104000568389893,-20.602001190185547,-7.077000141143799
1788650059797587700,1.186587646484375,-7.232000350952148,-20.183000564575195,-7.7860002517700195
1788650059813560300,1.202560302734375,-5.366000175476074,-20.213001251220703,-9.826000213623047
1788650059829635600,1.218635498046875,-7.248000144958496,-20.625001907348633,-8.809000015258789
1788650059845670000,1.234669921875,-4.696000099182129,-19.43800163269043,-7.885000228881836
1788650059861835800,1.250835693359375,-4.14300012588501,-20.1820011138916,-7.383000373840332
1788650059877892400,1.266892333984375,-6.1710004806518555,-20.4010009765625,-7.993000507354736
1788650059893836000,1.2828359375,-4.4770002365112305,-20.082000732421875,-7.993000507354736
1788650059909880000,1.298880126953125,-6.773000240325928,-21.027000427246094,-6.776000499725342
1788650059925962800,1.314962646484375,-5.735000133514404,-20.071001052856445,-7.278000354766846
1788650059942083300,1.331083251953125,-6.008000373840332,-19.350000381469727,-9.51200008392334
1788650059958154200,1.347154296875,-5.121000289916992,-19.546001434326172,-7.987000465393066
1788650059974099700,1.363099609375,-6.179000377655029,-19.865001678466797,-7.98900032043457
1788650059990162200,1.379162109375,-6.9170002937316895,-19.753000259399414,-7.681000232696533
1788650060006201600,1.39520166015625,-6.076000213623047,-19.760000228881836,-8.09000015258789
1788650060022339300,1.41133935546875,-7.552000522613525,-20.39900016784668,-7.992000579833984
1788650060038420000,1.427419921875,-7.590000152587891,-18.477001190185547,-8.484000205993652
1788650060054363100,1.443363037109375,-6.51900053024292,-20.09400177001953,-9.111000061035156
1788650060070404600,1.459404541015625,-6.213000297546387,-19.886001586914062,-9.517000198364258
1788650060086436600,1.4754365234375,-7.03000020980835,-20.405000686645508,-8.40000057220459
1788650060102574800,1.491574951171875,-7.4860005378723145,-19.12700080871582,-8.999000549316406
1788650060118651100,1.507651123046875,-4.272000312805176,-18.898000717163086,-7.575000286102295
1788650060134592300,1.52359228515625,-6.444000244140625,-19.35700035095215,-10.021000862121582
1788650060150649000,1.539649169921875,-6.832000255584717,-19.55000114440918,-8.494000434875488
1788650060166685200,1.555685302734375,-6.069000244140625,-20.6200008392334,-8.301000595092773
1788650060182833000,1.5718330078125,-7.36400032043457,-18.793001174926758,-8.079000473022461
1788650060198864100,1.587864013671875,-4.39300012588501,-20.636001586914062,-9.322000503540039
1788650060214802400,1.603802490234375,-8.085000038146973,-20.724000930786133,-8.29900074005127
1788650060230841900,1.619841796875,-3.8420002460479736,-19.43600082397461,-7.682000160217285
1788650060246873000,1.635873046875,-5.775000095367432,-18.690000534057617,-8.182000160217285
1788650060263025200,1.652025146484375,-6.515000343322754,-19.767000198364258,-8.700000762939453
1788650060279067000,1.66806689453125,-6.2270002365112305,-18.70600128173828,-9.404000282287598
1788650060295008500,1.684008544921875,-6.836000442504883,-20.09200096130371,-9.008000373840332
1788650060311064000,1.70006396484375,-6.842000484466553,-20.421001434326172,-9.521000862121582
1788650060327092500,1.716092529296875,-5.87000036239624,-20.628000259399414,-8.913000106811523
1788650060343255300,1.73225537109375,-6.391000270843506,-20.189001083374023,-8.195000648498535
1788650060359312000,1.748311767578125,-5.380000114440918,-18.493000030517578,-9.404000282287598
1788650060375254500,1.764254638671875,-6.841000556945801,-19.01500129699707,-8.5910005569458
1788650060391297000,1.780297119140625,-7.152000427246094,-20.415000915527344,-9.113000869750977
1788650060407330000,1.796330078125,-6.609000205993652,-19.112001419067383,-7.778000354766846
1788650060423450400,1.812450439453125,-5.7860002517700195,-19.237001419067383,-9.00200080871582
1788650060439515000,1.828514892578125,-6.450000286102295,-18.928001403808594,-10.017000198364258
1788650060455458000,1.8444580078125,-7.0460004806518555,-19.875,-8.803000450134277
1788650060471519700,1.860519775390625,-5.441000461578369,-19.11400032043457,-7.779000282287598
1788650060487555800,1.876555908203125,-6.449000358581543,-19.792001724243164,-10.534000396728516
1788650060503689700,1.892689697265625,-7.578000545501709,-19.983001708984375,-8.905000686645508
1788650060519758800,1.9087587890625,-8.67300033569336,-18.59600067138672,-9.50200080871582
1788650060535697700,1.92469775390625,-7.253000259399414,-19.76300048828125,-8.496000289916992
1788650060551739000,1.94073876953125,-6.613000392913818,-19.546001434326172,-8.189000129699707
1788650060567776800,1.95677685546875,-6.429000377655029,-19.131000518798828,-9.204000473022461
1788650060583916000,1.972916015625,-10.023000717163086,-19.6560001373291,-8.797000885009766
1788650060599996000,1.988995849609375,-6.395000457763672,-18.46200180053711,-7.26300048828125
1788650060615951000,2.004951171875,-7.998000144958496,-19.979000091552734,-8.700000762939453
1788650060632011000,2.021010986328125,-7.070000171661377,-18.48400115966797,-8.994000434875488
1788650060648046800,2.037046875,-5.365000247955322,-19.131999969482422,-9.104000091552734
1788650060664191200,2.053191162109375,-7.473000526428223,-19.44300079345703,-8.594000816345215
1788650060680232700,2.069232666015625,-8.322999954223633,-18.68600082397461,-8.179000854492188
1788650060696202000,2.085201904296875,-6.865000247955322,-18.597000122070312,-9.403000831604004
1788650060712259600,2.101259521484375,-5.997000217437744,-18.479000091552734,-8.486000061035156
1788650060728319500,2.117319580078125,-6.03000020980835,-17.743000030517578,-9.498000144958496
1788650060744476700,2.1334765625,-7.493000507354736,-19.455001831054688,-9.511000633239746
1788650060760518100,2.14951806640625,-5.201000213623047,-18.405000686645508,-10.829000473022461
1788650060776493300,2.165493408203125,-8.3410005569458,-18.69700050354004,-8.994000434875488
1788650060792574200,2.18157421875,-8.105999946594238,-19.87200164794922,-8.699000358581543
1788650060808609000,2.197609130859375,-7.064000129699707,-19.237001419067383,-9.204000473022461
1788650060824731100,2.213731201171875,-5.585000038146973,-19.02800178527832,-9.407999992370605
1788650060840792000,2.2297919921875,-7.187000274658203,-17.410001754760742,-8.781000137329102
1788650060856730400,2.24573046875,-6.429000377655029,-19.131000518798828,-9.204000473022461
1788650060872773600,2.261773681640625,-8.657999992370605,-18.479000091552734,-8.788000106811523
1788650060888805000,2.27780517578125,-6.63700008392334,-19.128000259399414,-9
1788650060904930000,2.293929931640625,-5.802000045776367,-18.70600128173828,-9.405000686645508
1788650060921002500,2.31000244140625,-6.679000377655029,-18.397001266479492,-10.420000076293945
1788650060936947700,2.32594775390625,-7.582000255584717,-19.01300048828125,-8.48900032043457
1788650060953004800,2.3420048828125,-8.447000503540039,-19.885000228881836,-9.718000411987305
1788650060969037600,2.35803759765625,-7.903000354766846,-19.338001251220703,-8.797000885009766
1788650060985165300,2.374165283203125,-6.901000499725342,-17.97100067138672,-10.619000434875488
1788650061001238300,2.39023828125,-8.464000701904297,-19.463001251220703,-10.223000526428223
1788650061017181700,2.406181640625,-8.557000160217285,-18.48200035095215,-8.992000579833984
1788650061033228800,2.422228759765625,-9.422000885009766,-18.490001678466797,-9.704000473022461
1788650061049268000,2.43826806640625,-6.862000465393066,-17.839000701904297,-8.785000801086426
1788650061065410800,2.454410888671875,-6.440000534057617,-17.841001510620117,-8.88700008392334
1788650061081449000,2.470448974609375,-10.18600082397461,-17.637001037597656,-10.10300064086914
1788650061097393000,2.486392822265625,-5.719000339508057,-18.18000030517578,-10.11400032043457
1788650061113454800,2.502454833984375,-7.4150004386901855,-17.743000030517578,-9.700000762939453
1788650061129491200,2.5184912109375,-8.588000297546387,-17.85300064086914,-10.005000114440918
1788650061145632800,2.5346328125,-7.946000576019287,-17.742000579833984,-9.699000358581543
1788650061161668000,2.550668212890625,-6.998000144958496,-18.505001068115234,-10.522000312805176
1788650061177609700,2.566609619140625,-8.17199993133545,-17.21000099182129,-10
1788650061193654000,2.582654052734375,-8.16100025177002,-17.20400047302246,-9.491000175476074
1788650061209689000,2.598689208984375,-8.768000602722168,-19.886001586914062,-9.819000244140625
1788650061225842200,2.61484228515625,-8.143000602722168,-18.381000518798828,-9.39900016784668
1788650061241887700,2.6308876953125,-9.641000747680664,-19.791000366210938,-10.836000442504883
1788650061257833000,2.6468330078125,-8.373000144958496,-18.067001342773438,-10.007000923156738
1788650061273894100,2.66289404296875,-8.608000755310059,-17.4320011138916,-10.613000869750977
1788650061289930800,2.6789306640625,-8.247000694274902,-18.70400047302246,-9.504000663757324
1788650061306095900,2.695095947265625,-8.16100025177002,-18.716001510620117,-10.421000480651855
1788650061322167800,2.711167724609375,-7.077000141143799,-20.326000213623047,-10.43600082397461
1788650061338115300,2.727115234375,-8.123000144958496,-18.477001190185547,-8.585000038146973
1788650061354162700,2.74316259765625,-8.351000785827637,-18.81100082397461,-9.505000114440918
1788650061370196700,2.75919677734375,-10.076000213623047,-18.60700035095215,-10.519000053405762
1788650061386322400,2.775322509765625,-8.164999961853027,-18.395000457763672,-10.418000221252441
1788650061402381000,2.791381103515625,-8.636000633239746,-20.08700180053711,-8.802000045776367
1788650061418327300,2.807327392578125,-9.104000091552734,-19.464000701904297,-10.324000358581543
1788650061434389500,2.823389404296875,-8.046000480651855,-19.144001007080078,-10.32300090789795
1788650061450421800,2.839421875,-9.910000801086426,-19.761001586914062,-8.594000816345215
1788650061466555100,2.85555517578125,-8.981000900268555,-18.69700050354004,-9.095000267028809
1788650061482630700,2.871630615234375,-9.644000053405762,-19.144001007080078,-10.52500057220459
1788650061498577200,2.8875771484375,-9.731000900268555,-18.700000762939453,-9.40000057220459
1788650061514620400,2.903620361328125,-8.890000343322754,-18.38300132751465,-9.60200023651123
1788650061530653200,2.919653076171875,-8.440000534057617,-19.772001266479492,-9.309000015258789
1788650061546793700,2.935793701171875,-10.355000495910645,-20.312000274658203,-9.821000099182129
1788650061562873900,2.951873779296875,-10.930000305175781,-18.285001754760742,-10.515000343322754
1788650061578834000,2.967833984375,-10.54800033569336,-21.165000915527344,-9.523000717163086
1788650061594869800,2.983869873046875,-8.980000495910645,-18.913000106811523,-9.199000358581543
1788650061610907400,2.999907470703125,-7.903000354766846,-20.5260009765625,-9.520000457763672
1788650061627038500,3.01603857421875,-8.768000602722168,-19.237001419067383,-9.406000137329102
1788650061643079200,3.0320791015625,-8.118000030517578,-18.150001525878906,-8.175000190734863
1788650061659052500,3.048052490234375,-8.736000061035156,-20.191001892089844,-8.598999977111816
1788650061675094300,3.06409423828125,-10.009000778198242,-21.269001007080078,-9.219000816345215
1788650061691131000,3.080130859375,-8.712000846862793,-20.60900115966797,-7.788000583648682
1788650061707269400,3.096269287109375,-8.758000373840332,-20.09600067138672,-9.515000343322754
1788650061723274500,3.1122744140625,-10.015000343322754,-21.056001663208008,-9.319000244140625
1788650061739242800,3.12824267578125,-8.302000045776367,-20.726001739501953,-8.503000259399414
1788650061755321300,3.1443212890625,-11.26200008392334,-22.33500099182129,-8.921000480651855
1788650061771393800,3.160393798828125,-10.563000679016113,-21.93000030517578,-10.65000057220459
1788650061787518200,3.176518310546875,-9.995000839233398,-22.341001510620117,-9.22800064086914
1788650061803580200,3.192580078125,-10.004000663757324,-22.9950008392334,-10.04900074005127
1788650061819526400,3.2085263671875,-8.844000816345215,-22.029001235961914,-9.838000297546387
1788650061835570000,3.22456982421875,-11.48900032043457,-22.560001373291016,-9.737000465393066
1788650061851653000,3.240653076171875,-10.515000343322754,-21.793001174926758,-8.407999992370605
1788650061867775500,3.256775390625,-8.890000343322754,-22.101001739501953,-7.190000534057617
1788650061883841800,3.272841796875,-9.358000755310059,-22.450000762939453,-9.332000732421875
1788650061899785700,3.28878564453125,-8.735000610351562,-22.56800079345703,-10.047000885009766
1788650061915853600,3.304853515625,-9.467000007629395,-22.7760009765625,-9.640000343322754
1788650061931892000,3.32089208984375,-9.392000198364258,-20.634000778198242,-9.723000526428223
1788650061948030000,3.337030029296875,-9.265000343322754,-22.674001693725586,-10.047000885009766
1788650061964106500,3.3531064453125,-8.414999961853027,-22.24300193786621,-9.738000869750977
1788650061980051000,3.369051025390625,-10.522000312805176,-22.23000144958496,-9.023000717163086
1788650061996097500,3.38509765625,-10.111000061035156,-22.23900032043457,-9.634000778198242
1788650062012131800,3.4011318359375,-8.723000526428223,-22.34400177001953,-9.332000732421875
1788650062028276700,3.41727685546875,-9.249000549316406,-23.31300163269043,-9.747000694274902
1788650062044312300,3.433312255859375,-9.156000137329102,-22.565000534057617,-9.842000007629395
1788650062060254200,3.449254150390625,-10.645000457763672,-23.321001052856445,-10.458000183105469
1788650062076287200,3.465287353515625,-9.797000885009766,-21.918001174926758,-9.632000923156738
1788650062092320500,3.481320556640625,-10.527000427246094,-22.881000518798828,-9.640000343322754
1788650062108468700,3.49746875,-11.385000228881836,-22.237001419067383,-9.633000373840332
1788650062124501000,3.5135009765625,-10.007000923156738,-23.213001251220703,-10.356000900268555
1788650062140441300,3.52944140625,-9.46500015258789,-23.532001495361328,-10.054000854492188
1788650062156482800,3.54548291015625,-11.072000503540039,-22.67300033569336,-10.146000862121582
1788650062172516000,3.56151611328125,-9.454000473022461,-23.525001525878906,-9.545000076293945
1788650062188674300,3.57767431640625,-10.13800048828125,-21.931001663208008,-10.65000057220459
1788650062204726800,3.593726806640625,-10.846000671386719,-22.665000915527344,-9.535000801086426
1788650062220669000,3.6096689453125,-9.806000709533691,-22.463001251220703,-10.350000381469727
1788650062236708400,3.625708251953125,-12.783000946044922,-21.48900032043457,-9.930000305175781
1788650062252741600,3.64174169921875,-12.27500057220459,-20.963001251220703,-10.63900089263916
1788650062268885500,3.657885498046875,-10.558000564575195,-21.4950008392334,-10.13700008392334
1788650062284927500,3.673927490234375,-10.870000839233398,-22.139001846313477,-10.244000434875488
1788650062300872000,3.689871826171875,-11.11500072479248,-22.375001907348633,-11.875000953674316
1788650062316895500,3.7058955078125,-9.633000373840332,-20.434001922607422,-10.842000961303711
1788650062332933000,3.72193310546875,-10.914000511169434,-21.733001708984375,-11.972000122070312
1788650062349091000,3.738091064453125,-11.016000747680664,-21.190000534057617,-11.458000183105469
1788650062365158400,3.754158447265625,-13.503000259399414,-20.24100112915039,-12.872000694274902
1788650062381091600,3.770091552734375,-11.542000770568848,-22.051000595092773,-11.770000457763672
1788650062397150000,3.78614990234375,-13.032000541687012,-22.159000396728516,-11.973000526428223
1788650062413184800,3.802184814453125,-11.66200065612793,-21.411001205444336,-11.968000411987305
1788650062429323800,3.81832373046875,-11.427000999450684,-21.397001266479492,-10.950000762939453
1788650062445391000,3.83439111328125,-13.135000228881836,-21.184001922607422,-11.25100040435791
1788650062461338000,3.850338134765625,-13.487000465393066,-19.58300018310547,-11.746000289916992
1788650062477385000,3.866385009765625,-12.165000915527344,-21.069000244140625,-10.538000106811523
1788650062493419500,3.88241943359375,-11.538000106811523,-20.860000610351562,-10.843000411987305
1788650062509560800,3.898560791015625,-11.072000503540039,-20.25200080871582,-13.385000228881836
1788650062525639700,3.9146396484375,-10.291000366210938,-20.554000854492188,-11.860000610351562
1788650062541594400,3.930594482421875,-10.607000350952148,-19.904001235961914,-11.345000267028809
1788650062557652200,3.94665234375,-11.584000587463379,-19.159000396728516,-11.846000671386719
1788650062573685000,3.96268505859375,-12.416000366210938,-19.795000076293945,-11.444000244140625
1788650062589834500,3.97883447265625,-11.202000617980957,-17.88800048828125,-12.956000328063965
1788650062605869600,3.99486962890625,-9.35300064086914,-19.269001007080078,-11.850000381469727
1788650062621833000,4.0108330078125,-10.393000602722168,-20.011001586914062,-11.346000671386719
1788650062637888000,4.026887939453125,-10.826000213623047,-20.556001663208008,-12.063000679016113
1788650062653923000,4.042923095703125,-11.446000099182129,-20.00400161743164,-10.937000274658203
1788650062670080800,4.059080810546875,-10.53600025177002,-19.16900062561035,-12.459000587463379
1788650062686127900,4.0751279296875,-12.904000282287598,-18.968000411987305,-13.779000282287598
1788650062702103800,4.091103759765625,-10.976000785827637,-19.393001556396484,-13.27500057220459
1788650062718165800,4.107165771484375,-10.302000045776367,-19.264001846313477,-11.543000221252441
1788650062734242800,4.123242919921875,-12.007000923156738,-18.292001724243164,-11.22700023651123
1788650062750363400,4.13936328125,-12.683000564575195,-17.775001525878906,-12.648000717163086
1788650062766425300,4.15542529296875,-8.375,-19.256999969482422,-10.833000183105469
1788650062782370800,4.171370849609375,-10.111000061035156,-19.385000228881836,-12.563000679016113
1788650062798416600,4.187416748046875,-9.608000755310059,-18.32200050354004,-13.166000366210938
1788650062814453500,4.20345361328125,-8.745000839233398,-19.288000106811523,-13.175000190734863
1788650062830585900,4.2195859375,-9.476000785827637,-18.847000122070312,-12.356000900268555
1788650062846659800,4.235659912109375,-7.559000492095947,-19.928001403808594,-12.77500057220459
1788650062862603500,4.251603515625,-8.219000816345215,-18.10300064086914,-12.656000137329102
1788650062878664200,4.267664306640625,-6.514000415802002,-19.72300148010254,-13.386000633239746
1788650062894696000,4.283696044921875,-9.042000770568848,-20.0310001373291,-12.672000885009766
1788650062910828800,4.299828857421875,-8.414000511169434,-20.038000106811523,-13.081000328063965
1788650062926909700,4.31590966796875,-8.053000450134277,-22.282001495361328,-12.592000961303711
1788650062942854000,4.33185400390625,-7.137000560760498,-19.714000701904297,-12.77400016784668
1788650062958877000,4.347876953125,-7.988000392913818,-19.17300033569336,-12.462000846862793
1788650062974911200,4.3639111328125,-5.653000354766846,-20.582000732421875,-13.395000457763672
1788650062991058200,4.38005810546875,-8.445000648498535,-19.948001861572266,-14.404000282287598
1788650063007087600,4.396087646484375,-7.563000202178955,-21.44300079345703,-13.909000396728516
1788650063023050200,4.41205029296875,-7.133000373840332,-20.684001922607422,-13.190000534057617
1788650063039078100,4.428078125,-8.73900032043457,-20.905000686645508,-13.903000831604004
1788650063055114500,4.444114501953125,-7.999000549316406,-20.152000427246094,-13.5910005569458
1788650063071281000,4.460281005859375,-8.420000076293945,-20.9060001373291,-13.903000831604004
1788650063087320800,4.47632080078125,-6.082000255584717,-20.584001541137695,-13.598000526428223
1788650063103262000,4.492261962890625,-6.5410003662109375,-21.03700065612793,-15.4350004196167
1788650063119303700,4.5083037109375,-7.4760003089904785,-19.726001739501953,-13.690000534057617
1788650063135339000,4.524339111328125,-3.877000093460083,-19.41400146484375,-13.998001098632812
1788650063151502800,4.5405029296875,-5.895000457763672,-21.356000900268555,-15.235000610351562
1788650063167573800,4.55657373046875,-5.281000137329102,-20.398000717163086,-15.634000778198242
1788650063183518200,4.572518310546875,-5.707000255584717,-19.966001510620117,-15.426000595092773
1788650063199580200,4.588580078125,-5.140000343322754,-20.378000259399414,-14.106000900268555
1788650063215617500,4.604617431640625,-5.278000354766846,-19.424001693725586,-14.91300106048584
1788650063231739000,4.62073876953125,-7.196000576019287,-19.42500114440918,-15.2160005569458
1788650063247800000,4.636800048828125,-6.129000186920166,-20.50400161743164,-15.634000778198242
1788650063263747800,4.652747802734375,-4.8470001220703125,-19.854000091552734,-14.917000770568848
1788650063279794200,4.668794189453125,-4.613000392913818,-20.597000122070312,-14.415000915527344
1788650063295831800,4.684831787109375,-5.7870001792907715,-20.707000732421875,-14.720000267028809
1788650063311955500,4.70095556640625,-6.312000274658203,-20.91900062561035,-14.619000434875488
1788650063328020200,4.717020263671875,-3.9930002689361572,-20.06800079345703,-14.818000793457031
1788650063343967200,4.73296728515625,-5.589000225067139,-19.96000099182129,-14.917000770568848
1788650063360034800,4.749034912109375,-3.3480000495910645,-21.253000259399414,-15.237000465393066
1788650063376074800,4.76507470703125,-4.850000381469727,-19.964000701904297,-15.122000694274902
1788650063392212200,4.781212158203125,-6.755000114440918,-21.253000259399414,-15.640000343322754
1788650063408263700,4.797263671875,-4.2270002365112305,-20.297000885009766,-15.941000938415527
1788650063424220700,4.813220703125,-3.7770001888275146,-19.95800018310547,-14.61400032043457
1788650063440268300,4.829268310546875,-3.5910000801086426,-20.51500129699707,-16.147001266479492
1788650063456306000,4.845305908203125,-4.318000316619873,-20.3960018157959,-15.330000877380371
1788650063472449300,4.86144921875,-3.755000114440918,-21.566001892089844,-14.628000259399414
1788650063488481500,4.8774814453125,-3.378000259399414,-19.75800132751465,-15.631000518798828
1788650063504441900,4.89344189453125,-4.293000221252441,-21.354000091552734,-14.829000473022461
1788650063520490500,4.909490478515625,-4.891000270843506,-19.01500129699707,-16.336000442504883
1788650063536525300,4.925525390625,-5.494000434875488,-20.83100128173828,-15.944001197814941
1788650063552656100,4.94165625,-5.628000259399414,-19.659000396728516,-16.442001342773438
1788650063568698400,4.957698486328125,-4.327000141143799,-20.4010009765625,-15.738000869750977
1788650063584665300,4.973665283203125,-4.867000102996826,-19.757001876831055,-15.731000900268555
1788650063600718800,4.98971875,-4.901000022888184,-18.481000900268555,-16.433000564575195
1788650063616758000,5.005758056640625,-4.517000198364258,-19.73900032043457,-14.305000305175781
1788650063632910800,5.021910888671875,-3.6180002689361572,-18.910001754760742,-16.336999893188477
1788650063648969700,5.0379697265625,-4.949000358581543,-19.202001571655273,-14.30000114440918
1788650063664913200,5.0539130859375,-4.954000473022461,-19.63800048828125,-14.813000679016113
1788650063680961800,5.0699619140625,-3.7800002098083496,-20.06800079345703,-14.819000244140625
1788650063697049000,5.086049072265625,-4.314000129699707,-19.529001235961914,-14.609001159667969
1788650063713180400,5.102180419921875,-6.03000020980835,-19.104000091552734,-15.113000869750977
1788650063729251000,5.1182509765625,-4.551000118255615,-17.27400016784668,-14.284000396728516
1788650063745200000,5.1342001953125,-5.073000431060791,-18.889001846313477,-14.908000946044922
1788650063761241600,5.15024169921875,-5.303000450134277,-17.927000045776367,-15.10300064086914
1788650063777275600,5.166275634765625,-4.968000411987305,-18.67300033569336,-14.805000305175781
1788650063793397200,5.182397216796875,-5.0420002937316895,-19.951000213623047,-14.205000877380371
1788650063809464600,5.198464599609375,-5.160000324249268,-17.472000122070312,-13.164000511169434
1788650063825412000,5.214412109375,-3.891000270843506,-18.23400115966797,-13.885000228881836
1788650063841473500,5.2304736328125,-4.53000020980835,-18.450000762939453,-14.090001106262207
1788650063857511000,5.246510986328125,-4.825000286102295,-18.327001571655273,-12.968000411987305
1788650063873646600,5.262646484375,-4.1060004234313965,-18.88300132751465,-14.40000057220459
1788650063889729800,5.278729736328125,-4.332000255584717,-17.59400177001953,-14.1850004196167
1788650063905676300,5.29467626953125,-3.390000104904175,-17.604000091552734,-14.797000885009766
1788650063921722000,5.31072216796875,-3.6750001907348633,-17.367000579833984,-13.165000915527344
1788650063937760300,5.32676025390625,-2.7970001697540283,-19.08100128173828,-12.97700023651123
1788650063953901300,5.3429013671875,-4,-17.262001037597656,-13.367000579833984
1788650063969935000,5.35893505859375,-2.7060000896453857,-18.33300018310547,-13.175000190734863
1788650063985879800,5.3748798828125,-3.94100022315979,-17.551000595092773,-10.925000190734863
1788650064001944000,5.390944091796875,-3.2060000896453857,-19.07000160217285,-12.26400089263916
1788650064017984000,5.40698388671875,-2.7690000534057617,-18.3070011138916,-11.23900032043457
1788650064034137600,5.4231376953125,-3.948000192642212,-17.339000701904297,-11.12700080871582
1788650064050195500,5.439195556640625,-4.48900032043457,-18.641000747680664,-12.360000610351562
1788650064066138600,5.455138671875,-3.8430001735687256,-16.1510009765625,-10.404000282287598
1788650064082185200,5.471185302734375,-3.4210002422332764,-17.450000762939453,-11.332000732421875
1788650064098223600,5.4872236328125,-2.570000171661377,-18.5310001373291,-11.954000473022461
1788650064114378800,5.503378662109375,-3.494000196456909,-18.511001586914062,-10.527000427246094
1788650064130427600,5.519427734375,-4.444000244140625,-18.93800163269043,-10.529000282287598
1788650064146369000,5.535369140625,-4.6620001792907715,-18.185001373291016,-10.319000244140625
1788650064162403600,5.551403564453125,-3.135000228881836,-18.595001220703125,-8.796000480651855
1788650064178435800,5.567435791015625,-3.247000217437744,-19.35500144958496,-9.516000747680664
1788650064194582000,5.58358203125,-1.977000117301941,-19.89900016784668,-10.032000541687012
1788650064210643700,5.599643798828125,-2.7880001068115234,-20.84800148010254,-8.918000221252441
1788650064226588200,5.615588134765625,-3.630000114440918,-21.058000564575195,-8.71500015258789
1788650064242632700,5.6316328125,-1.6540000438690186,-20.222000122070312,-10.035000801086426
1788650064258668300,5.647668212890625,-4.056000232696533,-21.27400016784668,-8.921000480651855
1788650064274818300,5.663818359375,-2.9800002574920654,-20.83500099182129,-8.00100040435791
1788650064290875100,5.679875244140625,-2.3330001831054688,-21.911001205444336,-8.21500015258789
1788650064306822100,5.695822265625,-2.949000120162964,-22.113000869750977,-7.401000499725342
1788650064322849300,5.711849365234375,-2.5450000762939453,-21.910001754760742,-8.21500015258789
1788650064338886000,5.727885986328125,-3.384000062942505,-22.659000396728516,-8.221000671386719
1788650064355018200,5.744018310546875,-2.080000162124634,-23.50800132751465,-7.4150004386901855
1788650064371087600,5.760087646484375,-2.7700002193450928,-22.349000930786133,-9.034000396728516
1788650064387042300,5.776042236328125,-2.075000047683716,-23.3960018157959,-7.1080002784729
1788650064403092000,5.792092041015625,-3.824000120162964,-21.58700180053711,-8.211000442504883
1788650064419126800,5.808126708984375,-2.315000057220459,-22.87200164794922,-8.020000457763672
1788650064435261200,5.82426123046875,-1.814000129699707,-22.351001739501953,-9.035000801086426
1788650064451290400,5.840290283203125,-2.068000078201294,-22.41900062561035,-6.183000087738037
1788650064467248400,5.856248291015625,-5.259000301361084,-22.850000381469727,-6.692000389099121
1788650064483275300,5.872275146484375,-2.7190001010894775,-22.211000442504883,-6.689000129699707
1788650064499313700,5.888313720703125,-3.4260001182556152,-22.836000442504883,-5.4720001220703125
1788650064515446300,5.9044462890625,-2.9250001907348633,-22.20600128173828,-6.384000301361084
1788650064531491300,5.9204912109375,-3.4650001525878906,-22.860000610351562,-7.204000473022461
1788650064547463700,5.936463623046875,-4.209000110626221,-22.751001358032227,-7.202000141143799
1788650064563527000,5.95252685546875,-2.064000129699707,-22.201000213623047,-5.875000476837158
1788650064579563000,5.96856298828125,-1.8690000772476196,-21.455001831054688,-6.175000190734863
1788650064595721000,5.984720947265625,-2.2990000247955322,-21.24100112915039,-6.27400016784668
1788650064611777500,6.000777587890625,-2.5280001163482666,-21.144001007080078,-6.9860005378723145
1788650064627719200,6.01671923828125,-2.5940001010894775,-21.767000198364258,-5.565000057220459
1788650064643781600,6.03278173828125,-1.4510000944137573,-21.56800079345703,-6.583000183105469
1788650064659817500,6.0488173828125,-1.6820000410079956,-20.71500015258789,-6.881000518798828
1788650064675942100,6.064942138671875,-0.550000011920929,-22.83500099182129,-5.068000316619873
1788650064692025000,6.081025146484375,-2.494000196456909,-21.44700050354004,-5.664000034332275
1788650064707966200,6.09696630859375,-3.7730002403259277,-21.772001266479492,-6.073000431060791
1788650064724011500,6.113011474609375,-2.821000099182129,-21.668001174926758,-6.175000190734863
1788650064740070700,6.129070556640625,0.06100000441074371,-22.203001022338867,-5.776000499725342
1788650064756201700,6.14520166015625,-1.1150000095367432,-23.179000854492188,-6.802000522613525
1788650064772280300,6.1612802734375,-3.30400013923645,-22.718000411987305,-4.656000137329102
1788650064788223200,6.17722314453125,-2.305999994277954,-22.218000411987305,-7.199000358581543
1788650064804260000,6.193260009765625,-3.3460001945495605,-21.987001419067383,-6.075000286102295
1788650064820290800,6.209290771484375,-3.3930001258850098,-21.043001174926758,-7.595000267028809
1788650064836407300,6.2254072265625,-3.25600004196167,-21.457000732421875,-6.478000164031982
1788650064852423400,6.24142333984375,-3.1470000743865967,-22.32000160217285,-6.89400053024292
1788650064868359000,6.25735888671875,-4.651000022888184,-21.68000030517578,-7.293000221252441
1788650064884392400,6.273392333984375,-4.199000358581543,-21.880001068115234,-6.175000190734863
1788650064900418000,6.28941796875,-5.749000072479248,-20.07900047302246,-7.889000415802002
1788650064916561400,6.3055615234375,-3.4000000953674316,-20.183000564575195,-7.384000301361084
1788650064932577800,6.321577880859375,-4.035000324249268,-19.856000900268555,-7.074000358581543
1788650064948514600,6.3375146484375,-4.445000171661377,-20.38800048828125,-6.773000240325928
1788650064964566000,6.35356591796875,-4.4830002784729,-19.32900047302246,-7.782000541687012
1788650064980597000,6.369596923828125,-3.6000001430511475,-19.959001541137695,-6.668000221252441
1788650064996741600,6.38574169921875,-4.855000019073486,-20.810001373291016,-6.369000434875488
1788650065012780800,6.40178076171875,-4.688000202178955,-19.865001678466797,-7.7870001792907715
1788650065028721700,6.4177216796875,-2.932000160217285,-21.34600067138672,-6.172000408172607
1788650065044756200,6.433756103515625,-4.778000354766846,-20.50400161743164,-7.487000465393066
1788650065060785700,6.44978564453125,-4.7820000648498535,-19.101001739501953,-6.761000156402588
1788650065076934000,6.465933837890625,-6.379000186920166,-20.398000717163086,-7.789000511169434
1788650065092980700,6.481980712890625,-4.683000087738037,-20.402000427246094,-7.893000602722168
1788650065108920800,6.4979208984375,-4.345000267028809,-20.283000946044922,-6.9760003089904785
1788650065124939800,6.513939697265625,-3.5940001010894775,-20.496000289916992,-6.775000095367432
1788650065140972500,6.52997265625,-4.23900032043457,-18.446001052856445,-5.839000225067139
1788650065157118500,6.546118408203125,-4.869000434875488,-20.170000076293945,-6.567000389099121
1788650065173151500,6.5621513671875,-4.438000202178955,-18.654001235961914,-5.332000255584717
1788650065189095000,6.578094970703125,-4.259000301361084,-17.702001571655273,-6.240000247955322
1788650065205137200,6.59413720703125,-4.678000450134277,-18.238000869750977,-6.3460001945495605
1788650065221168000,6.610168212890625,-2.7720000743865967,-18.244001388549805,-6.552000522613525
1788650065237294000,6.626294189453125,-3.205000162124634,-17.2760009765625,-6.340000152587891
1788650065253361400,6.642361328125,-4.560000419616699,-18.44700050354004,-5.941000461578369
1788650065269302500,6.658302490234375,-2.251000165939331,-18.143001556396484,-6.960000514984131
1788650065285358300,6.6743583984375,-2.6690001487731934,-17.490001678466797,-6.240000247955322
1788650065301391600,6.6903916015625,-2.890000104904175,-17.711000442504883,-6.75100040435791
1788650065317522700,6.706522705078125,-4.248000144958496,-18.668001174926758,-6.3510003089904785
1788650065333556000,6.722555908203125,-5.430000305175781,-17.810001373291016,-6.443000316619873
1788650065349494500,6.73849462890625,-3.5300002098083496,-16.847000122070312,-6.335000514984131
1788650065365531600,6.75453173828125,-3.4030001163482666,-18.45600128173828,-6.452000141143799
1788650065381559000,6.77055908203125,-1.6840001344680786,-19.41900062561035,-6.1570000648498535
1788650065397699000,6.786698974609375,-4.674000263214111,-19.533000946044922,-6.969000339508057
1788650065413734700,6.802734619140625,-1.814000129699707,-18.02800178527832,-6.348000526428223
1788650065429697300,6.818697265625,-2.434000015258789,-20.286001205444336,-6.978000164031982
1788650065445768200,6.834768310546875,-3.6020002365112305,-18.663000106811523,-5.944000244140625
1788650065461800700,6.85080078125,-3.427000045776367,-17.60500144958496,-6.953000545501709
1788650065477926000,6.86692578125,-2.7730002403259277,-19.325000762939453,-7.27500057220459
1788650065493970000,6.882969970703125,-1.9830000400543213,-20.05500030517578,-5.653000354766846
1788650065509942300,6.8989423828125,-3.701000213623047,-20.280000686645508,-6.6710004806518555
1788650065526001700,6.915001708984375,-4.25100040435791,-21.58700180053711,-8.312000274658203
1788650065542033200,6.931033203125,-2.317000150680542,-21.25200080871582,-7.089000225067139
1788650065558149600,6.947149658203125,-3.696000099182129,-21.35700035095215,-7.088000297546387
1788650065574177800,6.963177734375,-2.823000192642212,-21.56100082397461,-6.174000263214111
1788650065590112800,6.97911279296875,-3.5530002117156982,-21.551000595092773,-5.562000274658203
1788650065606149600,6.995149658203125,-5.25100040435791,-21.440000534057617,-5.457000255584717
1788650065622177000,7.011177001953125,-4.019999980926514,-20.928001403808594,-7.084000110626221
1788650065638292000,7.0272919921875,-4.005000114440918,-22.000001907348633,-7.093000411987305
1788650065654342700,7.0433427734375,-1.7680001258850098,-21.567001342773438,-6.4810004234313965
1788650065670279400,7.059279541015625,-3.44700026512146,-22.63300132751465,-6.285000324249268
1788650065686307600,7.0753076171875,-3.7760002613067627,-22.20600128173828,-6.484000205993652
1788650065702335200,7.091335205078125,-1.6640000343322754,-23.189001083374023,-7.616000175476074
1788650065718468000,7.107468017578125,-3.140000104904175,-21.992000579833984,-6.381000518798828
1788650065734532900,7.123532958984375,-2.3570001125335693,-23.05000114440918,-5.271000385284424
1788650065750462500,7.13946240234375,-0.36500000953674316,-22.52800178527832,-6.084000110626221
1788650065766513400,7.155513427734375,-1.6420000791549683,-21.987001419067383,-5.874000072479248
1788650065782537500,7.171537353515625,-1.5490000247955322,-23.50800132751465,-7.4150004386901855
1788650065798665000,7.1876650390625,-3.118000030517578,-22.411001205444336,-5.672000408172607
1788650065814736600,7.203736572265625,-1.9280000925064087,-24.345001220703125,-5.894000053405762
1788650065830668800,7.219668701171875,-2.0300002098083496,-24.666000366210938,-5.897000312805176
1788650065846706700,7.235706787109375,0.29100000858306885,-23.27400016784668,-5.684000492095947
1788650065862737000,7.25173681640625,-2.2380001544952393,-25.09600067138672,-6.002000331878662
1788650065878869800,7.267869873046875,-1.8030000925064087,-26.387001037597656,-6.320000171661377
1788650065894898700,7.283898681640625,-3.0340001583099365,-22.96500015258789,-7.00100040435791
1788650065910837500,7.29983740234375,-2.0300002098083496,-23.69300079345703,-5.277000427246094
1788650065926890800,7.315890869140625,-0.3700000047683716,-23.288002014160156,-6.804000377655029
1788650065942915300,7.331915283203125,-4.498000144958496,-24.57000160217285,-7.014000415802002
1788650065959060200,7.348060302734375,-0.6050000190734863,-22.652000427246094,-7.409000396728516
1788650065975097000,7.36409716796875,-3.122000217437744,-23.27800178527832,-6.39300012588501
1788650065991033000,7.380033203125,-2.4660000801086426,-22.83500099182129,-5.269000053405762
1788650066007067100,7.396067138671875,-1.3330000638961792,-23.615001678466797,-7.315000534057617
1788650066023092000,7.412092041015625,-0.8860000371932983,-23.71000099182129,-6.39900016784668
1788650066039243800,7.428243896484375,-4.40500020980835,-23.281002044677734,-6.799000263214111
1788650066055291400,7.44429150390625,-2.9070000648498535,-22.628000259399414,-5.878000259399414
1788650066071229200,7.460229248046875,-2.9250001907348633,-22.639001846313477,-6.693000316619873
1788650066087233300,7.4762333984375,-4.420000076293945,-22.858001708984375,-7.202000141143799
1788650066103260400,7.492260498046875,-1.9920001029968262,-22.006000518798828,-7.300000190734863
1788650066119398700,7.508398681640625,-4.397000312805176,-22.73600196838379,-6.081000328063965
1788650066135469300,7.52446923828125,-3.0320000648498535,-23.288002014160156,-7.1060004234313965
1788650066151399700,7.540399658203125,-5.497000217437744,-23.082000732421875,-8.018000602722168
1788650066167411000,7.556410888671875,-3.128000259399414,-22.201000213623047,-5.9760003089904785
1788650066183437000,7.57243701171875,-5.271000385284424,-22.96500015258789,-7.304000377655029
1788650066199590000,7.58858984375,-2.2380001544952393,-20.729000091552734,-8.00100040435791
1788650066215647200,7.604647216796875,-2.7820000648498535,-19.979000091552734,-8.096000671386719
1788650066231586300,7.62058642578125,-4.029000282287598,-21.582000732421875,-7.90500020980835
1788650066247627000,7.636626953125,-3.248000144958496,-21.020000457763672,-5.863000392913818
1788650066263654700,7.652654541015625,-6.151000499725342,-21.362001419067383,-7.696000576019287
1788650066279766500,7.6687666015625,-4.4760003089904785,-21.2710018157959,-8.7160005569458
1788650066295820000,7.684820068359375,-4.256999969482422,-21.159000396728516,-8.308000564575195
1788650066311763200,7.70076318359375,-6.603000164031982,-22.350000381469727,-9.538000106811523
1788650066327800600,7.716800537109375,-5.496000289916992,-22.216001510620117,-7.39900016784668
1788650066343827500,7.732827392578125,-4.874000072479248,-22.442001342773438,-8.217000007629395
1788650066359964000,7.7489638671875,-4.019000053405762,-23.30500030517578,-8.531000137329102
1788650066375989200,7.7649892578125,-4.039999961853027,-22.453001022338867,-8.931000709533691
1788650066391940900,7.78094091796875,-5.396000385284424,-20.92300033569336,-6.878000259399414
1788650066407951400,7.796951416015625,-3.3680002689361572,-22.64900016784668,-7.50700044631958
1788650066423973400,7.812973388671875,-2.875000238418579,-21.917001724243164,-8.723999977111816
1788650066440122400,7.829122314453125,-2.9710001945495605,-21.47800064086914,-8.006999969482422
1788650066456182500,7.8451826171875,-2.5430002212524414,-21.58500099182129,-7.907000541687012
1788650066472146400,7.861146484375,-5.194000244140625,-20.82200050354004,-7.285000324249268
1788650066488199200,7.87719921875,-4.139000415802002,-21.476001739501953,-8.005000114440918
1788650066504264000,7.893263916015625,-4.060000419616699,-20.84400177001953,-8.815000534057617
1788650066520371200,7.90937109375,-2.3310000896453857,-21.369001388549805,-7.803000450134277
1788650066536426000,7.925426025390625,-3.2830002307891846,-21.79800033569336,-7.907000541687012
1788650066552359400,7.941359375,-4.0420002937316895,-20.83300018310547,-8
1788650066568406800,7.95740673828125,-1.9140000343322754,-20.942001342773438,-7.902000427246094
1788650066584472000,7.97347216796875,-2.6540000438690186,-20.72300148010254,-7.593000411987305
1788650066600580000,7.989580078125,-3.196000099182129,-21.269001007080078,-8.41200065612793
1788650066616639500,8.005639404296875,-4.1670002937316895,-20.628000259399414,-8.711000442504883
1788650066632569600,8.021569580078125,-3.748000144958496,-20.200000762939453,-8.708000183105469
1788650066648599600,8.037599609375,-1.784000039100647,-22.873001098632812,-8.020999908447266
1788650066664619500,8.05361962890625,-3.1590001583099365,-21.24700164794922,-6.782000541687012
1788650066680745200,8.0697451171875,-2.5500001907348633,-21.913000106811523,-8.419000625610352
1788650066696815600,8.085815673828124,-4.448000431060791,-22.983001708984375,-8.528000831604004
1788650066712743700,8.10174365234375,-1.9030001163482666,-22.233001708984375,-8.219000816345215
1788650066728818400,8.117818359375,-3.7270002365112305,-21.917001724243164,-8.825000762939453
1788650066752845800,8.141845703125,-2.328000068664551,-22.881000518798828,-8.631000518798828
1788650066768939000,8.15793896484375,-1.4850000143051147,-23.750001907348633,-9.455000877380371
1788650066784937500,8.1739375,-2.6600000858306885,-21.915000915527344,-8.622000694274902
1788650066801036500,8.19003662109375,-3.189000129699707,-22.886001586914062,-9.140000343322754
1788650066817015800,8.206015869140625,-1.4830000400543213,-22.452001571655273,-8.527000427246094
1788650066832966700,8.221966552734376,-4.0329999923706055,-21.801000595092773,-8.212000846862793
1788650066848992800,8.23799267578125,-3.1760001182556152,-23.5260009765625,-8.942000389099121
1788650066864994800,8.253994873046874,-3.080000162124634,-23.749000549316406,-9.555000305175781
1788650066881100800,8.270100830078125,-3.379000186920166,-24.81800079345703,-9.360000610351562
1788650066897106400,8.2861064453125,-3.6080002784729004,-24.28700065612793,-9.76300048828125
1788650066913069300,8.3020693359375,-2.433000087738037,-24.285001754760742,-9.459000587463379
1788650066929089000,8.318089111328124,-3.889000177383423,-24.696001052856445,-8.34000015258789
1788650066945098000,8.334097900390624,-1.4500000476837158,-25.4580020904541,-8.961000442504883
1788650066961204200,8.350204345703125,-3.2360000610351562,-25.660001754760742,-8.247000694274902
1788650066977214000,8.3662138671875,-0.5770000219345093,-25.87700080871582,-8.151000022888184
1788650066993211600,8.382211669921874,-3.3480000495910645,-27.06800079345703,-9.380000114440918
1788650067009284900,8.398284912109375,-2.3010001182556152,-25.998001098632812,-9.372000694274902
1788650067025295000,8.414295166015625,-1.1299999952316284,-25.566001892089844,-8.962000846862793
1788650067041404700,8.43040478515625,-1.6360000371932983,-26.19900131225586,-8.254000663757324
1788650067057427200,8.44642724609375,-2.7100000381469727,-25.66400146484375,-8.452000617980957
1788650067073420500,8.462420654296874,-1.3510000705718994,-25.571001052856445,-9.369000434875488
1788650067089461000,8.4784609375,-1.5090000629425049,-26.726001739501953,-7.648000240325928
1788650067105471700,8.4944716796875,-1.721000075340271,-27.266000747680664,-7.958000183105469
1788650067121583600,8.51058349609375,-1.9440001249313354,-26.948001861572266,-8.260000228881836
1788650067137592800,8.5265927734375,-2.253000020980835,-27.48200225830078,-8.163000106811523
1788650067153556000,8.542555908203125,0.2840000092983246,-26.952001571655273,-8.26300048828125
1788650067169648600,8.558648681640625,-2.4830000400543213,-26.41200065612793,-8.255000114440918
1788650067185662700,8.574662841796876,-0.03200000151991844,-27.38300132751465,-8.470000267028809
1788650067201772500,8.5907724609375,-2.1570000648498535,-27.59600067138672,-8.67300033569336
1788650067217800000,8.606800048828125,0.19600000977516174,-26.4010009765625,-7.13800048828125
1788650067233773300,8.622773193359375,-1.936000108718872,-27.591001510620117,-8.266000747680664
1788650067249887500,8.638887451171875,-2.067000150680542,-27.066001892089844,-9.076000213623047
1788650067265913300,8.654913330078125,-0.9930000305175781,-27.277000427246094,-8.672000885009766
1788650067282028800,8.67102880859375,-2.069000005722046,-26.74300193786621,-8.971000671386719
1788650067298040800,8.687040771484375,-2.372000217437744,-27.597002029418945,-8.77500057220459
1788650067314027500,8.703027587890626,-2.489000082015991,-27.604001998901367,-9.284000396728516
1788650067330097000,8.719096923828126,-1.4270000457763672,-26.63300132751465,-8.666000366210938
1788650067346135300,8.73513525390625,-2.702000141143799,-27.064001083374023,-8.973000526428223
1788650067362259200,8.75125927734375,-4.445000171661377,-26.871002197265625,-10.803000450134277
1788650067378293800,8.767293701171875,-4.550000190734863,-27.08700180053711,-10.907000541687012
1788650067394290200,8.783290283203126,-3.1480002403259277,-26.535001754760742,-9.579000473022461
1788650067410365000,8.799364990234375,-3.69100022315979,-26.110000610351562,-9.881000518798828
1788650067426409700,8.81540966796875,-3.8010001182556152,-26.65300178527832,-10.394000053405762
1788650067442523600,8.831523681640626,-4.8420000076293945,-27.71900177001953,-10.097000122070312
1788650067458556000,8.847555908203125,-2.5840001106262207,-27.597002029418945,-8.77400016784668
1788650067474509800,8.863509765625,-2.4240000247955322,-24.279001235961914,-9.051000595092773
1788650067490571800,8.87957177734375,-3.1650002002716064,-26.11400032043457,-10.085000038146973
1788650067514602200,8.903602294921875,-3.7720000743865967,-25.66200065612793,-8.450000762939453
1788650067530636500,8.919636474609375,-3.374000072479248,-24.70600128173828,-9.054000854492188
1788650067546712000,8.935712158203126,-0.7280000448226929,-24.283000946044922,-9.155000686645508
1788650067562824700,8.95182470703125,-1.7450001239776611,-25.660001754760742,-8.045000076293945
1788650067578876000,8.9678759765625,-1.2450000047683716,-22.761001586914062,-7.613000392913818
1788650067594812200,8.983812255859375,-3.140000104904175,-25.450000762939453,-8.551000595092773
1788650067610850000,8.99985009765625,-2.3330001831054688,-25.369001388549805,-10.385000228881836
1788650067626878200,9.015878173828124,-3.4720001220703125,-26.32200050354004,-9.679000854492188
1788650067643008500,9.032008544921876,-2.7360000610351562,-25.78700065612793,-9.675000190734863
1788650067659086300,9.04808642578125,-1.9790000915527344,-25.240001678466797,-8.754000663757324
1788650067675025200,9.064025146484376,-3.2700002193450928,-25.8960018157959,-9.879000663757324
1788650067691072800,9.08007275390625,-2.327000141143799,-25.582000732421875,-10.285000801086426
1788650067707099000,9.096098876953125,-1.00600004196167,-25.339000701904297,-8.044000625610352
1788650067723227000,9.112226806640624,-1.4410001039505005,-26.101001739501953,-8.9660005569458
1788650067739214800,9.12821484375,-2.7120001316070557,-26.314001083374023,-8.967000007629395
1788650067755149000,9.144149169921874,-3.4650001525878906,-25.12900161743164,-8.65000057220459
1788650067771175400,9.160175537109374,-2.5230000019073486,-24.815000534057617,-9.056000709533691
1788650067787202800,9.176202880859375,-2.5,-24.36800193786621,-7.7270002365112305
1788650067803345000,9.192344970703125,-2.9180002212524414,-24.36400032043457,-7.4210004806518555
1788650067819390500,9.208390380859376,-0.19100001454353333,-24.49700164794922,-9.056000709533691
1788650067835329500,9.22432958984375,-1.633000135421753,-24.792001724243164,-7.223000526428223
1788650067851385600,9.240385498046875,0.26100000739097595,-25.237001419067383,-8.248000144958496
1788650067867414800,9.256414794921875,-1.2510000467300415,-22.33300018310547,-7.609000205993652
1788650067883564800,9.272564697265626,-0.8290000557899475,-23.632001876831055,-8.538000106811523
1788650067899606000,9.28860595703125,-0.16100001335144043,-24.262001037597656,-7.526000499725342
1788650067915545900,9.3045458984375,-1.4560000896453857,-23.517000198364258,-8.027000427246094
1788650067931583500,9.32058349609375,-2.1010000705718994,-23.628000259399414,-8.434000015258789
1788650067947612000,9.33661181640625,0.34200000762939453,-23.415000915527344,-8.232000350952148
1788650067963771000,9.35277099609375,-3.5520002841949463,-24.577001571655273,-7.422000408172607
1788650067979827200,9.3688271484375,-1.433000087738037,-24.5830020904541,-7.629000186920166
1788650067995766500,9.3847666015625,-1.8620001077651978,-24.261001586914062,-7.625000476837158
1788650068011823000,9.400822998046875,-0.052000001072883606,-24.261001586914062,-7.424000263214111
1788650068027852000,9.41685205078125,0.6050000190734863,-25.11400032043457,-7.025000095367432
1788650068043972000,9.43297216796875,-2.7190001010894775,-23.832000732421875,-7.722000598907471
1788650068060036600,9.44903662109375,1.3480000495910645,-26.088001251220703,-7.646000385284424
1788650068075977700,9.464977783203125,-0.2600000202655792,-24.582000732421875,-7.427000522613525
1788650068092020500,9.4810205078125,1.121000051498413,-24.043001174926758,-7.016000270843506
1788650068108051200,9.49705126953125,-0.04700000211596489,-24.474000930786133,-7.324000358581543
1788650068124186400,9.513186279296875,-1.8250000476837158,-25.75200080871582,-6.926000118255615
1788650068140261400,9.529261474609376,-0.11300000548362732,-25.746000289916992,-6.316000461578369
1788650068156193800,9.54519384765625,-0.7640000581741333,-25.538002014160156,-6.823000431060791
1788650068172223700,9.5612236328125,-0.2410000115633011,-25.327001571655273,-7.026000499725342
1788650068188246500,9.57724658203125,0.40300002694129944,-26.18800163269043,-7.238000392913818
1788650068204356000,9.593356201171876,-0.1340000033378601,-24.57000160217285,-6.510000228881836
1788650068220387800,9.609387939453125,0.5020000338554382,-25.54400062561035,-7.130000114440918
1788650068236332800,9.625332763671874,1.5600000619888306,-25.440000534057617,-7.2330002784729
1788650068252358100,9.641358154296874,-0.5509999990463257,-24.781002044677734,-6.307000160217285
1788650068268387600,9.6573876953125,1.377000093460083,-26.07000160217285,-6.321000099182129
1788650068284517000,9.67351708984375,1.5790001153945923,-25.104001998901367,-6.211000442504883
1788650068300512800,9.6895126953125,0.51500004529953,-25.968000411987305,-6.829000473022461
1788650068316468200,9.70546826171875,0.9620000720024109,-26.280000686645508,-6.017000198364258
1788650068332538400,9.721538330078126,1.6080000400543213,-26.059001922607422,-5.50700044631958
1788650068348570400,9.7375703125,0.5370000004768372,-26.06300163269043,-5.913000106811523
1788650068364721400,9.753721435546876,0.09600000083446503,-27.045001983642578,-7.24500036239624
1788650068380768300,9.769768310546874,0.22700001299381256,-27.354001998901367,-6.331000328063965
1788650068396709400,9.78570947265625,2.575000047683716,-27.891000747680664,-6.135000228881836
1788650068412744000,9.801743896484375,1.592000126838684,-26.718000411987305,-6.633000373840332
1788650068428814600,9.817814697265625,2.2930002212524414,-25.663002014160156,-7.847000598907471
1788650068444935000,9.833934814453125,0.31800001859664917,-27.040000915527344,-6.838000297546387
1788650068460992000,9.849991943359376,1.5730000734329224,-27.161001205444336,-7.75700044631958
1788650068476935000,9.865934814453125,0.937000036239624,-26.619001388549805,-7.344000339508057
1788650068492982500,9.881982421875,0.11600000411272049,-27.033000946044922,-6.328000068664551
1788650068509015300,9.898015380859375,0.8380000591278076,-27.58700180053711,-7.658000469207764
1788650068525137700,9.9141376953125,-0.5130000114440918,-26.37900161743164,-5.6080002784729
1788650068541165300,9.930165283203126,1.7990001440048218,-25.532001495361328,-6.113000392913818
1788650068557107500,9.946107421875,1.50600004196167,-27.029001235961914,-5.922000408172607
1788650068573152300,9.96215234375,0.6270000338554382,-25.749000549316406,-6.419000148773193
1788650068589181000,9.978180908203125,0.7130000591278076,-25.437000274658203,-7.130000114440918
1788650068605311000,9.99431103515625,1.0110000371932983,-25.23400115966797,-7.943000316619873
1788650068621384400,10.010384521484376,-1.9140000343322754,-27.038002014160156,-6.937000274658203
1788650068637326600,10.02632666015625,0.07500000298023224,-25.00400161743164,-6.9210004806518555
1788650068653388500,10.042388427734375,-0.534000039100647,-26.82400131225586,-6.835000514984131
1788650068669423400,10.05842333984375,-0.76500004529953,-25.970001220703125,-7.133000373840332
1788650068685567500,10.0745673828125,-1.6150001287460327,-25.10500144958496,-6.615000247955322
1788650068701601000,10.09060107421875,-0.1850000023841858,-24.16900062561035,-8.544000625610352
1788650068717540900,10.106540771484376,-0.8020000457763672,-25.452001571655273,-8.452000617980957
1788650068733587200,10.122587158203125,-1.1910001039505005,-25.214000701904297,-6.718000411987305
1788650068749644300,10.138644287109376,-0.5520000457763672,-25.214000701904297,-6.617000102996826
1788650068765799000,10.154798828125,-3.200000047683716,-25.63800048828125,-6.617000102996826
1788650068781845500,10.170845458984376,-2.808000087738037,-24.25400161743164,-7.217000484466553
1788650068797788400,10.186788330078125,-2.390000104904175,-24.799001693725586,-7.833000183105469
1788650068813850600,10.2028505859375,-0.815000057220459,-23.51500129699707,-7.824000358581543
1788650068829885000,10.218885009765625,-2.2960000038146973,-24.590002059936523,-8.23900032043457
1788650068846036500,10.235036376953126,-2.243000030517578,-23.542001724243164,-9.962000846862793
1788650068862084900,10.2510849609375,-3.3560001850128174,-23.398000717163086,-7.4120001792907715
1788650068878031400,10.26703125,-0.3970000147819519,-24.168001174926758,-8.543000221252441
1788650068894077000,10.283076904296875,-1.4490001201629639,-24.37700080871582,-8.23799991607666
1788650068910115000,10.299114990234376,-2.7790000438690186,-21.815000534057617,-9.131000518798828
1788650068926276000,10.315276123046875,-3.2720000743865967,-23.41200065612793,-8.431000709533691
1788650068942339000,10.331339111328125,-3.1610002517700195,-23.410001754760742,-8.22700023651123
1788650068958285000,10.34728515625,-3.741000175476074,-22.358001708984375,-9.745000839233398
1788650068974348000,10.36334814453125,-2.3510000705718994,-21.597000122070312,-8.824000358581543
1788650068990383600,10.379383544921875,-2.748000144958496,-21.904001235961914,-7.807000160217285
1788650069006514000,10.395513916015625,-3.4010002613067627,-22.237001419067383,-8.726000785827637
1788650069022583800,10.411583740234375,-3.4160001277923584,-22.46200180053711,-9.543000221252441
1788650069038534000,10.427533935546874,-4.458000183105469,-23.097002029418945,-9.038000106811523
1788650069054584600,10.44358447265625,-1.9260001182556152,-21.922000885009766,-9.031000137329102
1788650069070624300,10.459624267578125,-2.7790000438690186,-22.35500144958496,-9.440999984741211
1788650069086756400,10.47575634765625,-2.328000068664551,-23.205001831054688,-8.838000297546387
1788650069102849000,10.49184912109375,-2.6620001792907715,-22.13300132751465,-8.82800006866455
1788650069118799400,10.50779931640625,-2.745000123977661,-22.44300079345703,-8.016000747680664
1788650069134860500,10.523860595703125,-0.5130000114440918,-22.661001205444336,-8.020000457763672
1788650069150896600,10.539896728515625,-4.49500036239624,-20.418001174926758,-9.01400089263916
1788650069167041800,10.556041748046875,-3.19100022315979,-22.779001235961914,-9.13900089263916
1788650069183125000,10.572125,-3.1780002117156982,-21.9060001373291,-8.010000228881836
1788650069199095300,10.58809521484375,-4.65500020980835,-22.871000289916992,-8.221000671386719
1788650069215145200,10.604145263671874,-1.6840001344680786,-22.229001998901367,-7.913000583648682
1788650069231181800,10.620181884765625,-3.7890002727508545,-22.970001220703125,-7.510000228881836
1788650069247337200,10.636337158203125,-3.127000093460083,-21.184001922607422,-10.041000366210938
1788650069263378200,10.652378173828126,-2.758000135421753,-23.315000534057617,-9.144000053405762
1788650069279345700,10.668345703125,-4.453000068664551,-22.121000289916992,-8.214000701904297
1788650069295422500,10.68442236328125,-2.7710001468658447,-21.270000457763672,-8.413000106811523
1788650069311458800,10.700458740234374,-2.1460001468658447,-20.413000106811523,-8.406000137329102
1788650069327621000,10.71662109375,-4.5320000648498535,-19.900001525878906,-10.334000587463379
1788650069343682800,10.732682861328126,-2.1700000762939453,-20.104000091552734,-9.320000648498535
1788650069359626000,10.7486259765625,-5.039000034332275,-20.641000747680664,-9.729000091552734
1788650069375673600,10.764673583984376,-4.50100040435791,-19.98900032043457,-9.010000228881836
1788650069391748000,10.780748046875,-5.549000263214111,-19.871000289916992,-8.295000076293945
1788650069407867000,10.796866943359374,-5.7310004234313965,-18.6200008392334,-10.932000160217285
1788650069423926000,10.812926025390626,-6.14900016784668,-18.615001678466797,-10.62600040435791
1788650069439871200,10.828871337890625,-6.285000324249268,-18.093000411987305,-11.640000343322754
1788650069455934700,10.844934814453126,-4.868000030517578,-18.937000274658203,-10.529000282287598
1788650069472018700,10.861018798828125,-5.440000057220459,-18.097000122070312,-11.845000267028809
1788650069488144600,10.87714453125,-6.283000469207764,-18.740001678466797,-11.951000213623047
1788650069504216800,10.893216796875,-4.496000289916992,-17.131999969482422,-11.736001014709473
1788650069520163300,10.909163330078124,-4.919000148773193,-17.56300163269043,-11.943000793457031
1788650069536212700,10.925212646484376,-5.8470001220703125,-15.556000709533691,-14.165000915527344
1788650069552252400,10.94125244140625,-7.849000453948975,-15.976000785827637,-13.759000778198242
1788650069568387600,10.9573876953125,-9.255000114440918,-15.44800090789795,-14.567000389099121
1788650069584470000,10.973469970703125,-6.811000347137451,-14.91100025177002,-14.158000946044922
1788650069600418000,10.98941796875,-7.235000133514404,-13.829000473022461,-13.4350004196167
1788650069616483000,11.005483154296876,-8.669000625610352,-14.075000762939453,-15.982000350952148
1788650069632520400,11.0215205078125,-7.7270002365112305,-13.221000671386719,-16.077001571655273
1788650069648666000,11.037666015625,-8.495000839233398,-13.235000610351562,-17.19700050354004
1788650069664713700,11.053713623046875,-10.667000770568848,-12.072000503540039,-18.610000610351562
1788650069680657700,11.06965771484375,-9.910000801086426,-11.74000072479248,-17.793001174926758
1788650069696703500,11.085703369140624,-10.154000282287598,-12.083000183105469,-19.426000595092773
1788650069712741400,11.101741455078125,-10.070000648498535,-9.503000259399414,-18.792001724243164
1788650069728894700,11.117894775390624,-9.770000457763672,-10.920000076293945,-20.53700065612793
1788650069744942800,11.13394287109375,-10.35200023651123,-9.545000076293945,-21.950000762939453
1788650069760893400,11.1498935546875,-9.296000480651855,-9.010000228881836,-21.845001220703125
1788650069776960800,11.165960693359375,-9.189000129699707,-8.253000259399414,-21.32900047302246
1788650069792999200,11.181999267578124,-11.380000114440918,-7.966000556945801,-24.176000595092773
1788650069809164500,11.19816455078125,-9.446000099182129,-7.955000400543213,-23.159000396728516
1788650069825223400,11.214223388671876,-9.983000755310059,-8.499000549316406,-23.775001525878906
1788650069841170000,11.230169921875,-11.397000312805176,-9.057000160217285,-25.61100196838379
1788650069857221600,11.2462216796875,-10.515000343322754,-8.931000709533691,-24.0830020904541
1788650069873262000,11.262261962890625,-10.344000816345215,-8.0910005569458,-25.400001525878906
1788650069889387000,11.278386962890625,-11.456000328063965,-6.931000232696533,-26.917001724243164
1788650069905453000,11.294453125,-12.47700023651123,-9.71500015258789,-26.838001251220703
1788650069921398300,11.310398193359376,-8.92300033569336,-6.2960004806518555,-27.220001220703125
1788650069937458700,11.326458740234376,-11.884000778198242,-8.01300048828125,-27.74100112915039
1788650069953496000,11.34249609375,-10.9350004196167,-7.695000171661377,-27.841001510620117
1788650069969627000,11.358626953125,-12.335000991821289,-7.9210004806518555,-28.860000610351562
1788650069985699600,11.374699462890625,-11.38900089263916,-7.172000408172607,-28.854001998901367
1788650070001652500,11.390652587890624,-11.20300006866455,-6.431000232696533,-29.56100082397461
1788650070017702700,11.40670263671875,-10.152000427246094,-6.9800004959106445,-30.382001876831055
1788650070033739000,11.422739013671874,-12.200000762939453,-6.887000560760498,-31.703001022338867
1788650070049873200,11.438873046875,-11.988000869750977,-7.5360002517700195,-32.117000579833984
1788650070065955800,11.454955810546876,-12.641000747680664,-6.248000144958496,-32.00300216674805
1788650070081910000,11.470909912109375,-12.129000663757324,-6.044000148773193,-32.71500015258789
1788650070097939700,11.486939697265624,-9.144000053405762,-6.582000255584717,-32.51900100708008
1788650070113972500,11.502972412109376,-11.528000831604004,-5.094000339508057,-33.72600173950195
1788650070130114000,11.519114013671874,-12.1510009765625,-6.922000408172607,-34.25
1788650070146159900,11.535159912109375,-12.68600082397461,-6.599000453948975,-34.24700164794922
1788650070162124800,11.551124755859375,-12.392000198364258,-6.506000518798828,-35.2650032043457
1788650070178178300,11.56717822265625,-12.188000679016113,-6.404000282287598,-35.570003509521484
1788650070194216400,11.583216552734376,-13.794000625610352,-5.761000156402588,-35.7660026550293
1788650070210364000,11.599364013671876,-10.100000381469727,-6.753000259399414,-37.409000396728516
1788650070226369300,11.615369384765625,-12.870000839233398,-6.754000186920166,-37.81300354003906
1788650070242348000,11.63134814453125,-13.838000297546387,-7.625000476837158,-38.94000244140625
1788650070258426000,11.647426025390626,-11.160000801086426,-6.859000205993652,-37.409000396728516
1788650070274461000,11.6634609375,-12.908000946044922,-6.453000068664551,-39.3390007019043
1788650070290585000,11.679585205078125,-13.210000991821289,-7.847000598907471,-39.452003479003906
1788650070306647000,11.69564697265625,-11.97900104522705,-6.687000274658203,-40.66600036621094
1788650070322597400,11.711597412109375,-12.74000072479248,-6.588000297546387,-41.37700271606445
1788650070338644200,11.727644287109374,-12.21500015258789,-7.457000255584717,-42.20100021362305
1788650070354730200,11.743730224609376,-13.504000663757324,-6.708000183105469,-42.39600372314453
1788650070370855000,11.75985498046875,-13.403000831604004,-6.1710004806518555,-42.290000915527344
1788650070386926000,11.775926025390625,-11.747000694274902,-7.497000217437744,-45.05400085449219
1788650070402874400,11.791874267578125,-11.192000389099121,-6.942000389099121,-43.62300109863281
1788650070427018000,11.81601806640625,-13.410000801086426,-7.7960004806518555,-43.62800216674805
1788650070442999000,11.8319990234375,-12.756000518798828,-7.679000377655029,-42.81300354003906
1788650070459106800,11.84810693359375,-11.438000679016113,-6.963000297546387,-45.1510009765625
1788650070475128800,11.86412890625,-11.672000885009766,-8.056000709533691,-46.79100036621094
1788650070491249200,11.880249267578124,-11.628000259399414,-8.461000442504883,-45.0620002746582
1788650070507268400,11.896268310546875,-11.02400016784668,-7.186000347137451,-45.7650032043457
1788650070523254500,11.912254638671875,-10.566000938415527,-8.247000694274902,-44.96000289916992
1788650070539321600,11.928321533203125,-12.307000160217285,-7.189000129699707,-46.17100143432617
1788650070555346400,11.944346435546874,-11.992000579833984,-8.272000312805176,-46.996002197265625
1788650070571470800,11.960470947265625,-12.217000961303711,-7.523000240325928,-47.09100341796875
1788650070587509800,11.976509765625,-9.468000411987305,-6.994000434875488,-47.29300308227539
1788650070603497700,11.992497802734375,-10.95300006866455,-7.315000534057617,-47.39600372314453
1788650070619570000,12.00856982421875,-11.371000289916992,-8.932000160217285,-48.12300109863281
1788650070635593000,12.024593017578125,-13.29900074005127,-7.750000476837158,-48.11000061035156
1788650070651714600,12.040714599609375,-11.140000343322754,-8.597000122070312,-47.10200119018555
1788650070667732500,12.056732421875,-9.809000015258789,-8.845000267028809,-49.448001861572266
1788650070683728400,12.072728271484374,-10.95300006866455,-8.93600082397461,-48.42900085449219
1788650070699809000,12.08880908203125,-10.135000228881836,-8.633000373840332,-49.650001525878906
1788650070715832800,12.104832763671874,-11.829000473022461,-8.194000244140625,-49.134002685546875
1788650070731949600,12.120949462890625,-11.509000778198242,-9.059000015258789,-49.65200424194336
1788650070747982300,12.136982421875,-11.710000991821289,-8.619000434875488,-48.833003997802734
1788650070763986200,12.152986083984375,-11.303000450134277,-7.982000350952148,-49.23500061035156
1788650070780074000,12.169073974609375,-10.873000144958496,-9.817000389099121,-50.169002532958984
1788650070796094000,12.185093994140624,-11.530000686645508,-8.747000694274902,-50.362003326416016
1788650070812212000,12.2012119140625,-11.642000198364258,-8.318000793457031,-50.358001708984375
1788650070828224500,12.217224609375,-11.080000877380371,-9.921000480651855,-49.96600341796875
1788650070844187400,12.2331875,-10.681000709533691,-9.181000709533691,-50.673004150390625
1788650070860268300,12.249268310546874,-12.17300033569336,-8.317000389099121,-50.358001708984375
1788650070876290800,12.265290771484375,-10.890000343322754,-8.747000694274902,-50.26100158691406
1788650070892411600,12.28141162109375,-10.784000396728516,-8.747000694274902,-50.26100158691406
1788650070908445400,12.297445556640625,-11.754000663757324,-10.159000396728516,-51.80000305175781
1788650070924416300,12.313416259765624,-11.635000228881836,-9.503000259399414,-50.7760009765625
1788650070940516900,12.329516845703125,-11.714000701904297,-10.783000946044922,-50.380001068115234
1788650070956541200,12.345541259765625,-10.921000480651855,-9.197000503540039,-51.89500427246094
1788650070972660500,12.361660400390624,-10.780000686645508,-8.85300064086914,-50.160003662109375
1788650070988677000,12.377677001953124,-12.59000015258789,-9.825000762939453,-50.98200225830078
1788650071004659500,12.393659423828124,-12.574000358581543,-9.059000015258789,-49.75200271606445
1788650071020765400,12.409765380859374,-12.575000762939453,-9.276000022888184,-49.958003997802734
1788650071036800000,12.425800048828124,-9.717000007629395,-9.610000610351562,-50.57600402832031
1788650071052923100,12.441923095703125,-12.766000747680664,-9.155000686645508,-48.93800354003906
1788650071068952600,12.45795263671875,-11.329000473022461,-8.863000869750977,-50.97500228881836
1788650071084939300,12.473939208984374,-12.371000289916992,-8.848999977111816,-50.05600357055664
1788650071101010200,12.49001025390625,-11.016000747680664,-7.678000450134277,-50.45500183105469
1788650071117058300,12.506058349609376,-11.089000701904297,-9.38700008392334,-50.06300354003906
1788650071133189000,12.522189208984376,-11.753000259399414,-8.645000457763672,-50.768001556396484
1788650071149206300,12.538206298828126,-11.497000694274902,-9.484000205993652,-49.35000228881836
1788650071165205200,12.554205322265625,-11.737000465393066,-9.284000396728516,-50.46800231933594
1788650071181282300,12.5702822265625,-11.955000877380371,-9.071000099182129,-50.56800079345703
1788650071197334500,12.58633447265625,-11.74000072479248,-9.070000648498535,-50.467002868652344
1788650071213475000,12.60247509765625,-11.329000473022461,-8.430000305175781,-50.665000915527344
1788650071229557500,12.6185576171875,-11.929000854492188,-9.271000862121582,-49.551002502441406
1788650071245517800,12.634517822265625,-11.277000427246094,-9.047000885009766,-48.73500061035156
1788650071261609200,12.650609130859374,-11.736001014709473,-10.688000679016113,-51.29600143432617
1788650071277630000,12.6666298828125,-12.372000694274902,-8.309000015258789,-49.746002197265625
1788650071293750000,12.68275,-10.248000144958496,-9.285000801086426,-50.36900329589844
1788650071309767400,12.698767333984375,-12.809000968933105,-8.855999946594238,-50.6670036315918
1788650071325733000,12.714733154296875,-12.771000862121582,-9.806000709533691,-49.55500411987305
1788650071341834800,12.730834716796876,-10.986000061035156,-9.17300033569336,-50.06100082397461
1788650071357853400,12.746853515625,-10.135000228881836,-8.957000732421875,-49.85600280761719
1788650071373971200,12.76297119140625,-11.933000564575195,-9.814000129699707,-50.06500244140625
1788650071390007600,12.779007568359376,-11.292000770568848,-10.245000839233398,-50.172000885009766
1788650071405978600,12.794978515625,-13.414000511169434,-10.24000072479248,-50.06700134277344
1788650071422055400,12.811055419921875,-12.147000312805176,-9.707000732421875,-50.064002990722656
1788650071438079200,12.827079345703124,-11.006000518798828,-8.861000061035156,-50.77100372314453
1788650071454204400,12.843204345703125,-11.0910005569458,-9.604000091552734,-50.268001556396484
1788650071470222000,12.85922216796875,-13.22700023651123,-9.5,-50.77400207519531
1788650071486204400,12.875204345703125,-11.749000549316406,-9.075000762939453,-50.874000549316406
1788650071502264600,12.8912646484375,-11.31100082397461,-8.85200023651123,-50.160003662109375
1788650071518285000,12.90728515625,-12.175000190734863,-9.292000770568848,-51.079002380371094
1788650071534405400,12.9234052734375,-9.417000770568848,-8.756999969482422,-50.874000549316406
1788650071550438400,12.9394384765625,-13.895000457763672,-7.464000225067139,-50.85700225830078
1788650071566431700,12.955431640625,-10.155000686645508,-9.833000183105469,-51.290000915527344
1788650071582502100,12.971502197265625,-11.439000129699707,-9.081000328063965,-51.28200149536133
1788650071598520300,12.987520263671875,-12.783000946044922,-9.273000717163086,-49.75400161743164
1788650071614635300,13.00363525390625,-11.100000381469727,-9.285000801086426,-50.46900177001953
1788650071630651400,13.0196513671875,-10.136000633239746,-9.714000701904297,-50.37200164794922
1788650071646652700,13.035652587890626,-11.308000564575195,-8.958000183105469,-50.05900192260742
1788650071662733800,13.05173388671875,-11.760000228881836,-8.109000205993652,-50.76400375366211
1788650071678755800,13.067755859375,-11.427000999450684,-8.857000350952148,-50.56700134277344
1788650071694877700,13.083877685546875,-12.137001037597656,-10.565000534057617,-50.17400360107422
1788650071710913500,13.09991357421875,-11.765000343322754,-9.409000396728516,-51.794002532958984
1788650071726920700,13.115920654296875,-10.701000213623047,-9.194000244140625,-51.590003967285156
1788650071743010000,13.132010009765626,-10.677000045776367,-8.854000091552734,-50.262001037597656
1788650071759030800,13.14803076171875,-11.327000617980957,-10.050000190734863,-51.59600067138672
1788650071775149600,13.164149658203126,-8.776000022888184,-9.404000282287598,-51.08500289916992
1788650071791170300,13.18017041015625,-10.641000747680664,-7.060000419616699,-52.28400421142578
1788650071807140400,13.196140380859376,-10.04800033569336,-9.401000022888184,-50.98100280761719
1788650071823236400,13.212236328125,-7.947000503540039,-10.066000938415527,-52.4160041809082
1788650071839261000,13.228260986328126,-10.178000450134277,-8.334000587463379,-51.37900161743164
1788650071855386000,13.24438623046875,-9.848000526428223,-9.301000595092773,-51.4900016784668
1788650071871425000,13.260425048828125,-10.624000549316406,-9.75100040435791,-53.224002838134766
1788650071887404300,13.276404296875,-9.845000267028809,-9.190999984741211,-51.285003662109375
1788650071903504400,13.29250439453125,-9.868000030517578,-8.016000747680664,-51.58000183105469
1788650071919529200,13.308529296875,-12.326000213623047,-8.562000274658203,-52.60100173950195
1788650071935647200,13.324647216796874,-10.921000480651855,-9.197000503540039,-51.89500427246094
1788650071951665200,13.3406650390625,-10.519000053405762,-8.023000717163086,-52.191001892089844
1788650071967647200,13.356647216796874,-11.670001029968262,-8.119000434875488,-51.47700119018555
1788650071983710000,13.3727099609375,-10.496000289916992,-9.522000312805176,-52.10200119018555
1788650071999748000,13.388748046875,-9.657999992370605,-8.99000072479248,-52.302001953125
1788650072015864300,13.4048642578125,-11.2760009765625,-7.38200044631958,-52.388004302978516
1788650072031892700,13.420892822265625,-9.146000862121582,-8.462000846862793,-52.807003021240234
1788650072047879000,13.43687890625,-10.628000259399414,-8.67300033569336,-52.70600128173828
1788650072063938000,13.45293798828125,-9.679000854492188,-8.78700065612793,-53.1150016784668
1788650072079987000,13.468987060546874,-11.378000259399414,-9,-53.217002868652344
1788650072096121900,13.485121826171875,-9.679000854492188,-8.138999938964844,-52.702003479003906
1788650072112138200,13.50113818359375,-11.1510009765625,-8.559000015258789,-52.29600143432617
1788650072128142300,13.517142333984374,-9.765000343322754,-9.42300033569336,-52.61100387573242
1788650072144218000,13.533218017578125,-8.50100040435791,-9.539000511169434,-53.12300109863281
1788650072160266800,13.549266845703125,-9.443000793457031,-7.368000507354736,-51.16800308227539
1788650072176389000,13.56538916015625,-9.987000465393066,-8.88800048828125,-52.708003997802734
1788650072192468700,13.58146875,-11.38700008392334,-9.654000282287598,-54.038002014160156
1788650072208433000,13.597432861328125,-8.597000122070312,-9.96500015258789,-52.923004150390625
1788650072224520400,13.6135205078125,-10.125000953674316,-8.583000183105469,-53.928001403808594
1788650072240539600,13.62953955078125,-9.588000297546387,-8.580000877380371,-53.62300109863281
1788650072256658400,13.645658447265625,-9.475000381469727,-8.684000015258789,-53.42000198364258
1788650072272723700,13.6617236328125,-9.45300006866455,-9.968000411987305,-53.22800064086914
1788650072288690000,13.67768994140625,-11.16200065612793,-9.863000869750977,-53.63200378417969
1788650072304782600,13.693782470703125,-7.862000465393066,-9.539000511169434,-53.022003173828125
1788650072320805400,13.709805419921874,-10.527000427246094,-8.244000434875488,-52.702003479003906
1788650072336927000,13.725927001953124,-10.553000450134277,-9.3410005569458,-54.54500198364258
1788650072352961300,13.741961181640624,-8.62700080871582,-9.443000793457031,-53.93700408935547
1788650072368935000,13.757934814453124,-8.835000038146973,-9.223999977111816,-53.630001068115234
1788650072385003800,13.774003662109376,-9.586000442504883,-9.011000633239746,-53.83000183105469
1788650072401018600,13.7900185546875,-10.223000526428223,-7.713000297546387,-53.00300216674805
1788650072417137000,13.806136962890625,-8.706000328063965,-9.10200023651123,-52.50800323486328
1788650072433152300,13.82215234375,-8.847000122070312,-9.231000900268555,-54.13900375366211
1788650072449134300,13.83813427734375,-9.231000900268555,-10.178000450134277,-52.92400360107422
1788650072465199600,13.85419970703125,-8.808000564575195,-10.072000503540039,-52.92400360107422
1788650072481222700,13.87022265625,-9.693000793457031,-9.444000244140625,-54.1400032043457
1788650072497343200,13.88634326171875,-9.76300048828125,-10.719000816345215,-53.336002349853516
1788650072513381400,13.90238134765625,-9.760000228881836,-10.825000762939453,-53.23500442504883
1788650072529376000,13.9183759765625,-9.782000541687012,-11.163000106811523,-54.46000289916992
1788650072545446400,13.9344462890625,-8.838000297546387,-9.225000381469727,-53.73100280761719
1788650072561467100,13.950467041015624,-8.184000015258789,-10.081000328063965,-53.53600311279297
1788650072577583400,13.966583251953125,-9.67400074005127,-10.189000129699707,-53.7390022277832
1788650072593599700,13.982599853515625,-8.204999923706055,-10.202000617980957,-54.55600357055664
1788650072609596200,13.99859619140625,-10.951000213623047,-10.296000480651855,-53.94200134277344
1788650072625686000,14.01468603515625,-9.545000076293945,-10.824000358581543,-53.13300323486328
1788650072641706200,14.030706298828125,-7.988000392913818,-10.0910005569458,-54.24900436401367
1788650072657826800,14.046826904296875,-8.961000442504883,-10.425000190734863,-55.27000427246094
1788650072673863000,14.06286279296875,-8.480000495910645,-10.71500015258789,-52.93000411987305
1788650072689868300,14.078868408203125,-8.937000274658203,-10.518000602722168,-54.25200271606445
1788650072705959400,14.09495947265625,-8.089000701904297,-10.304000854492188,-54.14900207519531
1788650072721984300,14.110984375,-8.629000663757324,-8.147000312805176,-53.2130012512207
1788650072738104600,14.1271044921875,-8.225000381469727,-9.241000175476074,-54.853004455566406
1788650072754100000,14.143099853515626,-9.472000122070312,-10.41100025177002,-54.35200119018555
1788650072770121700,14.159121826171875,-10.119000434875488,-8.903000831604004,-53.829002380371094
1788650072786223600,14.1752236328125,-9.344000816345215,-9.534000396728516,-52.81700134277344
1788650072802248000,14.191248046875,-9.360000610351562,-9.543000221252441,-53.53000259399414
1788650072818367200,14.2073671875,-8.620000839233398,-8.4660005569458,-53.012001037597656
1788650072834402300,14.22340234375,-7.317000389099121,-9.856000900268555,-52.618003845214844
1788650072850379000,14.23937890625,-8.844000816345215,-8.797000885009766,-53.728004455566406
1788650072866486300,14.255486328125,-9.539000511169434,-11.25200080871582,-53.137001037597656
1788650072882516200,14.27151611328125,-9.830000877380371,-10.587000846862793,-51.50100326538086
1788650072898632700,14.2876328125,-9.43600082397461,-9.850000381469727,-52.41200256347656
1788650072914650000,14.303650146484374,-10.789000511169434,-9.398000717163086,-50.87800216674805
1788650072930637300,14.31963720703125,-9.017000198364258,-8.449000358581543,-51.78900146484375
1788650072946703400,14.335703369140624,-11.77500057220459,-8.983000755310059,-51.99400329589844
1788650072962743300,14.351743408203125,-9.425000190734863,-10.383000373840332,-52.2130012512207
1788650072978863400,14.36786328125,-11.096000671386719,-10.688000679016113,-51.195003509521484
1788650072994896600,14.383896728515625,-10.782000541687012,-10.043000221252441,-50.98600387573242
1788650073010886100,14.39988623046875,-11.338000297546387,-8.4350004196167,-51.073001861572266
1788650073026952700,14.41595263671875,-10.452000617980957,-11.54900074005127,-51.40700149536133
1788650073042998500,14.43199853515625,-8.695000648498535,-10.068000793457031,-52.618003845214844
1788650073059129300,14.44812939453125,-10.704000473022461,-8.871000289916992,-51.48500061035156
1788650073075141000,14.46414111328125,-10.692000389099121,-8.86400032043457,-50.97500228881836
1788650073091146200,14.480146240234374,-11.25200080871582,-9.421000480651855,-52.61000061035156
1788650073107219000,14.496218994140625,-8.901000022888184,-8.875,-51.5890007019043
1788650073123237600,14.512237548828125,-10.985000610351562,-9.38800048828125,-50.165000915527344
1788650073139356200,14.528356201171874,-8.999000549316406,-8.97800064086914,-51.28400421142578
1788650073155433700,14.544433837890624,-8.792000770568848,-9.19800090789795,-51.69400405883789
1788650073171394300,14.560394287109375,-8.784000396728516,-10.27400016784668,-52.009002685546875
1788650073187483600,14.576483642578125,-8.782000541687012,-9.624000549316406,-51.49400329589844
1788650073203500500,14.59250048828125,-8.362000465393066,-10.600000381469727,-52.31800079345703
1788650073219613400,14.608613525390625,-10.17400074005127,-9.413000106811523,-51.89800262451172
1788650073235626000,14.6246259765625,-9.32300090789795,-9.413000106811523,-51.797000885009766
1788650073251591700,14.640591796875,-10.691000938415527,-9.944000244140625,-51.59600067138672
1788650073275779600,14.664779541015625,-9.84000015258789,-10.052000045776367,-51.59800338745117
1788650073291723500,14.6807236328125,-10.067000389099121,-9.629000663757324,-52.00200271606445
1788650073307786000,14.696785888671876,-10.486000061035156,-10.921000480651855,-52.522003173828125
1788650073323819000,14.712819091796876,-9.660000801086426,-8.883000373840332,-52.301002502441406
1788650073339958500,14.72895849609375,-8.142000198364258,-8.975000381469727,-50.980003356933594
1788650073356036600,14.74503662109375,-10.074000358581543,-9.957000732421875,-52.51400375366211
1788650073371980800,14.760980712890625,-8.473999977111816,-11.035000801086426,-52.83100128173828
1788650073388027600,14.777027587890625,-9.107000350952148,-9.952000617980957,-52.006004333496094
1788650073404063200,14.793063232421876,-8.058000564575195,-9.529000282287598,-52.30900192260742
1788650073420184300,14.809184326171875,-9.746000289916992,-10.816000938415527,-52.62400436401367
1788650073436206800,14.825206787109375,-8.515000343322754,-9.547000885009766,-53.73500442504883
1788650073452150300,14.841150390625,-9.784000396728516,-9.434000015258789,-53.426002502441406
1788650073468188400,14.8571884765625,-9.016000747680664,-10.393000602722168,-52.927001953125
1788650073484222700,14.87322265625,-7.759000301361084,-9.64900016784668,-53.22700119018555
1788650073500364000,14.889364013671875,-8.913000106811523,-10.612000465393066,-53.23400115966797
1788650073516385500,14.905385498046876,-8.170000076293945,-10.613000869750977,-53.23500442504883
1788650073532326700,14.92132666015625,-9.445000648498535,-11.368000984191895,-53.750003814697266
1788650073548369000,14.937368896484376,-7.764000415802002,-11.597000122070312,-54.67100143432617
1788650073564404200,14.953404296875,-7.86400032043457,-11.701000213623047,-54.46800231933594
1788650073580549600,14.969549560546875,-8.825000762939453,-11.487000465393066,-54.566001892089844
1788650073596583200,14.985583251953125,-8.62600040435791,-12.144001007080078,-55.59100341796875
1788650073612526000,15.001526123046874,-8.919000625610352,-11.156000137329102,-53.85000228881836
1788650073628585200,15.017585205078126,-8.825000762939453,-10.623000144958496,-54.04900360107422
1788650073644621000,15.03362109375,-7.970000267028809,-11.37700080871582,-54.26100158691406
1788650073660779500,15.049779541015624,-9.49000072479248,-11.719000816345215,-55.99400329589844
1788650073676833800,15.065833740234375,-7.779000282287598,-11.822000503540039,-55.487003326416016
1788650073692775000,15.08177490234375,-8.624000549316406,-11.278000831604004,-54.97200393676758
1788650073708807700,15.0978076171875,-10.952000617980957,-11.702000617980957,-54.871002197265625
1788650073724842800,15.1138427734375,-10.068000793457031,-12.871000289916992,-54.06800079345703
1788650073740971000,15.129970947265624,-8.221000671386719,-12.373000144958496,-56.612003326416016
1788650073757046500,15.146046630859376,-8.636000633239746,-12.907000541687012,-56.5150032043457
1788650073772986600,15.161986572265626,-9.350000381469727,-12.88800048828125,-55.189002990722656
1788650073789045500,15.17804541015625,-6.683000087738037,-12.7760009765625,-54.58000183105469
1788650073805079300,15.194079345703125,-10.317000389099121,-11.380000114440918,-54.76700210571289
1788650073821207800,15.210207763671875,-10.94800090789795,-12.672000885009766,-55.28700256347656
1788650073837277200,15.226277099609375,-5.961000442504883,-11.710000991821289,-54.87800216674805
1788650073853220400,15.242220458984375,-8.914999961853027,-12.450000762939453,-54.47300338745117
1788650073869261600,15.258261474609375,-7.737000465393066,-12.554000854492188,-54.06800079345703
1788650073885292800,15.274292724609374,-8.619000434875488,-12.78800106048584,-55.69900131225586
1788650073901421300,15.29042138671875,-7.443000316619873,-13.218000411987305,-55.60200119018555
1788650073917459500,15.30645947265625,-8.467000007629395,-14.165000915527344,-54.4890022277832
1788650073933417500,15.32241748046875,-8.190000534057617,-12.78600025177002,-55.49500274658203
1788650073949476900,15.338476806640625,-8.072999954223633,-13.212000846862793,-55.29600143432617
1788650073965513000,15.354512939453125,-8.814000129699707,-13.210000991821289,-55.19300079345703
1788650073981665800,15.370665771484376,-7.534000396728516,-12.344000816345215,-54.37200164794922
1788650073997709300,15.386709228515626,-8.38800048828125,-13.318000793457031,-55.19400405883789
1788650074013677300,15.40267724609375,-7.318000316619873,-12.77400016784668,-54.478004455566406
1788650074029705500,15.41870556640625,-9.243000030517578,-12.23900032043457,-54.7760009765625
1788650074045734400,15.434734375,-7.184000492095947,-13.622000694274902,-53.772003173828125
1788650074061867000,15.450866943359374,-8.710000038146973,-12.887001037597656,-55.0880012512207
1788650074077896700,15.466896728515625,-7.722000598907471,-13.085000991821289,-53.76700210571289
1788650074093837300,15.48283740234375,-7.7310004234313965,-12.658000946044922,-53.8650016784668
1788650074109844500,15.498844482421875,-7.069000244140625,-14.589000701904297,-53.98500442504883
1788650074125918200,15.514918212890626,-8.785000801086426,-12.868000984191895,-53.66200256347656
1788650074142035000,15.531034912109375,-8.218000411987305,-13.495000839233398,-52.44600296020508
1788650074158097700,15.54709765625,-8.542000770568848,-12.958000183105469,-52.3390007019043
1788650074174050300,15.56305029296875,-8.15000057220459,-14.167000770568848,-54.59100341796875
1788650074190092000,15.579092041015626,-8.128000259399414,-13.61400032043457,-53.262001037597656
1788650074206126300,15.595126220703126,-7.389000415802002,-12.53600025177002,-52.74400329589844
1788650074222254300,15.61125439453125,-8.12600040435791,-13.937000274658203,-53.36600112915039
1788650074238326800,15.627326904296876,-8.243000030517578,-12.646000862121582,-53.04900360107422
1788650074254267000,15.643266845703126,-7.926000595092773,-14.052000999450684,-53.97900390625
1788650074270323000,15.659322998046875,-10.02400016784668,-13.277000427246094,-52.340003967285156
1788650074286357000,15.67535693359375,-7.7260003089904785,-12.97900104522705,-53.868003845214844
1788650074302487800,15.69148779296875,-7.696000576019287,-12.205000877380371,-52.02700424194336
1788650074318563800,15.707563720703124,-8.14900016784668,-12.113000869750977,-53.24800109863281
1788650074334503400,15.72350341796875,-6.449000358581543,-12.872000694274902,-53.665000915527344
1788650074350544000,15.7395439453125,-7.505000591278076,-12.974000930786133,-53.461002349853516
1788650074366578400,15.755578369140625,-7.714000225067139,-11.567000389099121,-52.42900085449219
1788650074382719700,15.7717197265625,-8.16200065612793,-12.66100025177002,-54.17000198364258
1788650074398753300,15.787753173828126,-6.474000453948975,-12.671000480651855,-54.682003021240234
1788650074414689500,15.803689453125,-8.362000465393066,-12.437000274658203,-53.45500183105469
1788650074430744000,15.819744140625,-8.279000282287598,-11.695000648498535,-54.060001373291016
1788650074446775300,15.835775390625,-5.604000091552734,-11.903000831604004,-53.250003814697266
1788650074462924000,15.851924072265625,-7.728000164031982,-12.008000373840332,-53.35000228881836
1788650074478966300,15.86796630859375,-8.587000846862793,-11.688000679016113,-53.55000305175781
1788650074494907600,15.88390771484375,-6.236000061035156,-11.791000366210938,-52.94200134277344
1788650074510950100,15.8999501953125,-6.444000244140625,-13.085000991821289,-53.56500244140625
1788650074526988300,15.91598828125,-6.436000347137451,-12.32300090789795,-52.743003845214844
1788650074543152400,15.93215234375,-7.523000240325928,-12.66100025177002,-54.06900405883789
1788650074559209000,15.948208984375,-7.538000583648682,-11.914000511169434,-54.2660026550293
1788650074575156200,15.96415625,-8.461000442504883,-13.946001052856445,-54.079002380371094
1788650074591220500,15.980220458984375,-6.694000244140625,-12.783000946044922,-55.090003967285156
1788650074607259100,15.996259033203126,-5.828000068664551,-13.206000328063965,-54.58500289916992
1788650074623387100,16.01238720703125,-7.9210004806518555,-13.077000617980957,-53.15500259399414
1788650074639455200,16.028455322265625,-5.173000335693359,-13.845000267028809,-54.18400192260742
1788650074655400200,16.044400146484374,-6.691000461578369,-13.322000503540039,-55.298004150390625
1788650074671423500,16.060423583984374,-5.63200044631958,-12.35200023651123,-54.78200149536133
1788650074687456300,16.076456298828123,-6.055000305175781,-12.783000946044922,-54.9890022277832
1788650074703617300,16.0926171875,-6.778000354766846,-12.769001007080078,-54.07100296020508
1788650074719682800,16.108682861328123,-7.966000556945801,-12.456000328063965,-54.78000259399414
1788650074735633400,16.12463330078125,-6.572000503540039,-12.99000072479248,-54.48100280761719
1788650074751681500,16.140681640625,-5.191000461578369,-13.316000938415527,-54.689002990722656
1788650074767717000,16.156717041015625,-6.130000114440918,-14.06100082397461,-54.38900375366211
1788650074783832600,16.17283251953125,-8.558000564575195,-14.26400089263916,-53.87800216674805
1788650074799894300,16.188894287109374,-7.0960001945495605,-13.957000732421875,-54.794002532958984
1788650074815847700,16.20484765625,-5.931000232696533,-13.745000839233398,-54.794002532958984
1788650074831891500,16.220891357421873,-5.7220001220703125,-13.964000701904297,-55.10100173950195
1788650074847927800,16.236927734375,-6.368000507354736,-12.347000122070312,-54.47500228881836
1788650074864065800,16.253065673828125,-5.447000026702881,-13.99000072479248,-57.038002014160156
1788650074880144100,16.26914404296875,-4.386000156402588,-14.749000549316406,-57.55500411987305
1788650074896098600,16.2850986328125,-7.473000526428223,-14.317000389099121,-57.64900207519531
1788650074912171300,16.301171142578124,-4.565999984741211,-13.972001075744629,-55.612003326416016
1788650074928209000,16.317208984375,-3.305000066757202,-14.307001113891602,-56.432003021240234
1788650074944359700,16.333359619140627,-4.13100004196167,-15.372000694274902,-56.03300094604492
1788650074960399600,16.349399658203126,-7.1080002784729,-13.748001098632812,-55.20000076293945
1788650074976366800,16.365366943359376,-6.064000129699707,-14.625000953674316,-56.53300094604492
1788650074992427800,16.381427734375,-5.50700044631958,-15.691000938415527,-56.03400421142578
1788650075008463000,16.397463134765626,-4.796000003814697,-13.983000755310059,-56.427001953125
1788650075024585700,16.413585693359376,-7.9850006103515625,-14.196001052856445,-56.73100280761719
1788650075040609300,16.429609375,-5.0980000495910645,-14.837000846862793,-56.23100280761719
1788650075056557600,16.4455576171875,-6.067000389099121,-14.520000457763672,-56.634002685546875
1788650075072624000,16.4616240234375,-5.2910003662109375,-15.257000923156738,-55.62300109863281
1788650075088663600,16.47766357421875,-4.392000198364258,-13.672000885009766,-57.138004302978516
1788650075104788200,16.493788330078125,-5.212000370025635,-13.437000274658203,-55.70900344848633
1788650075120859000,16.50985888671875,-5.482000350952148,-15.028000831604004,-54.500003814697266
1788650075136809700,16.525809814453126,-5.942000389099121,-14.40000057220459,-55.71600341796875
1788650075152857900,16.54185791015625,-5.833000183105469,-15.47900104522705,-56.23500442504883
1788650075168896500,16.557896484375,-5.213000297546387,-13.870000839233398,-56.018001556396484
1788650075185031000,16.574031005859375,-7.553000450134277,-14.624000549316406,-56.63300323486328
1788650075201105700,16.590105712890626,-5.027000427246094,-14.10200023651123,-57.345001220703125
1788650075217051000,16.60605078125,-5.684000492095947,-13.681000709533691,-57.95100402832031
1788650075233110300,16.6221103515625,-3.505000114440918,-15.055000305175781,-56.336002349853516
1788650075249141800,16.638141845703124,-5.435000419616699,-14.199000358581543,-56.63200378417969
1788650075265279700,16.65427978515625,-4.789000034332275,-13.546000480651855,-55.81200408935547
1788650075281318100,16.670318115234377,-3.758000135421753,-13.567000389099121,-57.2400016784668
1788650075297263900,16.686263916015626,-4.502000331878662,-14.53800106048584,-57.858001708984375
1788650075313311000,16.70231103515625,-3.5420000553131104,-14.213000297546387,-57.44900131225586
1788650075329346800,16.718346923828125,-4.122000217437744,-14.826001167297363,-55.31500244140625
1788650075345495000,16.7344951171875,-2.4600000381469727,-14.635000228881836,-56.84300231933594
1788650075361533400,16.750533447265624,-3.5530002117156982,-12.92300033569336,-57.13200378417969
1788650075377481500,16.7664814453125,-4.777000427246094,-14.512001037597656,-55.922000885009766
1788650075393528000,16.782528076171875,-5.230000019073486,-12.79900074005127,-56.11000442504883
1788650075409565400,16.7985654296875,-5.436000347137451,-13.119000434875488,-56.01100158691406
1788650075425703700,16.81470361328125,-3.9120001792907715,-13.855000495910645,-54.797000885009766
1788650075441754400,16.83075439453125,-5.6060004234313965,-13.5260009765625,-54.38500213623047
1788650075457700400,16.846700439453127,-4.9730000495910645,-14.069000244140625,-54.900001525878906
1788650075473728800,16.862728759765623,-5.510000228881836,-12.991000175476074,-54.48200225830078
1788650075489768200,16.878768310546874,-4.987000465393066,-13.213000297546387,-54.99400329589844
1788650075505923800,16.894923828125,-6.270000457763672,-12.784000396728516,-55.090003967285156
1788650075521967900,16.9109677734375,-3.69700026512146,-12.557000160217285,-53.86900329589844
1788650075537915400,16.926915283203126,-5.889000415802002,-13.503000259399414,-52.75400161743164
1788650075553980200,16.942980224609375,-4.315999984741211,-13.842000961303711,-53.880001068115234
1788650075570013200,16.95901318359375,-4.336000442504883,-12.233000755310059,-53.76400375366211
1788650075586180000,16.97518017578125,-5.059000015258789,-13.084000587463379,-53.36300277709961
1788650075602250500,16.99125048828125,-5.585000038146973,-14.053000450134277,-53.77800369262695
1788650075618195200,17.0071953125,-4.748000144958496,-12.333000183105469,-53.255001068115234
1788650075634222300,17.023222412109376,-5.363000392913818,-12.642000198364258,-52.44200134277344
1788650075650251500,17.03925146484375,-5.716000080108643,-10.610000610351562,-52.72900390625
1788650075666377200,17.055377197265624,-6.2310004234313965,-11.464000701904297,-52.53200149536133
1788650075682401500,17.071401611328124,-7.5460004806518555,-10.838000297546387,-53.95100402832031
1788650075698344400,17.087344482421877,-4.991000175476074,-11.595000267028809,-54.165000915527344
1788650075714393000,17.10339306640625,-6.687000274658203,-10.509000778198242,-53.3380012512207
1788650075730429400,17.119429443359376,-7.284000396728516,-11.132000923156738,-51.9170036315918
1788650075746565000,17.135565185546874,-3.2320001125335693,-11.993000984191895,-51.72600173950195
1788650075762637800,17.151637939453124,-3.9070003032684326,-11.583000183105469,-53.147003173828125
1788650075778588000,17.167587890625,-5.612000465393066,-11.1510009765625,-53.1410026550293
1788650075794635000,17.183635009765624,-6.439000129699707,-11.136000633239746,-52.121002197265625
1788650075810668500,17.19966845703125,-4.302999973297119,-12.321001052856445,-52.3380012512207
1788650075826818600,17.215818603515626,-6.238000392913818,-11.792000770568848,-53.044002532958984
1788650075842862000,17.231862060546874,-5.391000270843506,-11.795001029968262,-53.147003173828125
1788650075858825700,17.24782568359375,-6.457000255584717,-11.147000312805176,-52.93600082397461
1788650075874892000,17.26389208984375,-4.526000022888184,-11.895000457763672,-52.538002014160156
1788650075890926600,17.279926513671874,-4.959000110626221,-11.467000961303711,-52.63600158691406
1788650075907082200,17.296082275390624,-5.383000373840332,-12.655000686645508,-53.35900115966797
1788650075923142000,17.312141845703124,-2.7340002059936523,-12.446001052856445,-53.46200180053711
1788650075939114200,17.3281142578125,-6.241000175476074,-11.902000427246094,-53.24900436401367
1788650075955179500,17.344179443359376,-4.5360002517700195,-11.145000457763672,-52.531002044677734
1788650075971252000,17.360251953125,-5.185000419616699,-12.123000144958496,-53.660003662109375
1788650075987370000,17.376369873046876,-4.1010003089904785,-11.896000862121582,-52.53900146484375
1788650076003432700,17.3924326171875,-4.5410003662109375,-12.660000801086426,-53.665000915527344
1788650076019373800,17.408373779296873,-4.11400032043457,-12.335000991821289,-53.35700225830078
1788650076035433200,17.42443310546875,-5.182000160217285,-11.36500072479248,-53.0420036315918
1788650076051465700,17.4404658203125,-4.443000316619873,-12.557000160217285,-53.970001220703125
1788650076067584500,17.45658447265625,-4.104000091552734,-12.330000877380371,-52.95000076293945
1788650076083659300,17.4726591796875,-4.527000427246094,-12.652000427246094,-53.05400085449219
1788650076099599400,17.488599365234375,-5.299000263214111,-11.372000694274902,-53.551002502441406
1788650076115641900,17.504641845703127,-2.580000162124634,-10.212000846862793,-54.665000915527344
1788650076131675100,17.520675048828124,-4.1660003662109375,-11.503000259399414,-55.18400192260742
1788650076147799000,17.536799072265627,-2.427000045776367,-12.453001022338867,-53.97200393676758
1788650076163867000,17.552866943359376,-2.9780001640319824,-11.2760009765625,-54.16400146484375
1788650076179815400,17.5688154296875,-1.6920000314712524,-11.487000465393066,-53.76000213623047
1788650076195878000,17.5848779296875,-2.569000005722046,-11.50200080871582,-54.98200225830078
1788650076211915800,17.600915771484374,-4.160000324249268,-12.255000114440918,-55.39400100708008
1788650076228052700,17.617052734375,-3.51200008392334,-11.925000190734863,-54.67900085449219
1788650076244073700,17.63307373046875,-3.5290002822875977,-10.855000495910645,-54.77100372314453
1788650076260019500,17.64901953125,-2.8560001850128174,-12.455000877380371,-54.17500305175781
1788650076276058400,17.665058349609374,-3.9250001907348633,-12.242000579833984,-54.375003814697266
1788650076292096500,17.681096435546873,-2.8420002460479736,-12.123000144958496,-53.35700225830078
1788650076308248600,17.69724853515625,-3.6110000610351562,-12.245000839233398,-54.58000183105469
1788650076324275200,17.713275146484374,-2.6490001678466797,-13.540000915527344,-55.10200119018555
1788650076340219100,17.72921923828125,-0.7760000228881836,-11.081000328063965,-55.28600311279297
1788650076356257300,17.74525732421875,-2.3519999980926514,-12.797000885009766,-55.605003356933594
1788650076372294400,17.76129443359375,-3.0350000858306885,-12.283000946044922,-57.33100128173828
1788650076388426500,17.777426513671877,-1.2860000133514404,-11.82300090789795,-54.78300094604492
1788650076404455700,17.79345556640625,-0.7770000100135803,-12.053000450134277,-55.906002044677734
1788650076420399000,17.809399169921875,-2.134000062942505,-11.605000495910645,-54.57600402832031
1788650076436432400,17.825432373046876,-1.309000015258789,-10.648000717163086,-55.0780029296875
1788650076452464600,17.841464599609374,-1.725000023841858,-11.723000526428223,-55.39200210571289
1788650076468620800,17.857620849609376,-2.1579999923706055,-10.647000312805176,-55.077003479003906
1788650076484671000,17.8736708984375,-1.284000039100647,-12.579000473022461,-55.19700241088867
1788650076500609000,17.889609130859377,-1.1710000038146973,-12.25100040435791,-54.685001373291016
1788650076516669000,17.9056689453125,-0.7400000095367432,-12.896000862121582,-54.79300308227539
1788650076532704300,17.921704345703127,-2.2320001125335693,-12.140000343322754,-54.58000183105469
1788650076548833800,17.937833740234375,-2.2880001068115234,-10.229000091552734,-55.888004302978516
1788650076564897500,17.9538974609375,-0.5370000004768372,-11.713000297546387,-54.47700119018555
1788650076580840200,17.969840087890624,-1.940000057220459,-11.40000057220459,-55.28700256347656
1788650076596883700,17.9858837890625,-2.879000186920166,-11.281000137329102,-54.470001220703125
1788650076612921300,18.00192138671875,-1.7100000381469727,-12.147000312805176,-54.9890022277832
1788650076629055700,18.0180556640625,-1.812000036239624,-11.171000480651855,-54.165000915527344
1788650076645129700,18.034129638671875,-2.368000030517578,-9.997000694274902,-54.56100082397461
1788650076661085000,18.0500849609375,-1.812000036239624,-10.307000160217285,-53.64800262451172
1788650076677146400,18.066146484375,-4.139000415802002,-11.16200065612793,-53.75400161743164
1788650076693187600,18.0821875,-1.9840000867843628,-11.146000862121582,-52.33100128173828
1788650076709326300,18.098326416015624,-3.621000289916992,-11.711000442504883,-54.677001953125
1788650076725421600,18.114421630859376,-2.005000114440918,-10.943000793457031,-53.14400100708008
1788650076741381600,18.130381591796876,-4.1020002365112305,-11.356000900268555,-52.22800064086914
1788650076757423600,18.146423583984376,-4.3470001220703125,-10.619000434875488,-53.2400016784668
1788650076773481000,18.16248095703125,-1.2630000114440918,-10.51200008392334,-52.93700408935547
1788650076789625900,18.1786259765625,-3.574000120162964,-10.494000434875488,-51.814002990722656
1788650076805662500,18.194662353515625,-3.2900002002716064,-9.00200080871582,-52.41200256347656
1788650076821627400,18.21062744140625,-4.543000221252441,-10.176000595092773,-52.217002868652344
1788650076837695200,18.2266953125,-2.2090001106262207,-10.721000671386719,-52.63200378417969
1788650076853733000,18.242733154296875,-4.122000217437744,-10.071000099182129,-52.31900405883789
1788650076869894700,18.258894775390626,-4.557000160217285,-9.969000816345215,-52.72500228881836
1788650076885937200,18.274937255859374,-4.714000225067139,-10.691000938415527,-50.69400405883789
1788650076901907200,18.2909072265625,-4.640000343322754,-9.846000671386719,-51.60300064086914
1788650076917951200,18.306951171875,-2.2730000019073486,-10.91200065612793,-50.90200424194336
1788650076934024200,18.323024169921876,-4.936000347137451,-10.696000099182129,-51.10100173950195
1788650076950143700,18.339143798828125,-3.205000162124634,-12.8410005569458,-51.02000427246094
1788650076966210600,18.35521044921875,-2.501000165939331,-9.94800090789795,-50.99500274658203
1788650076982154800,18.37115478515625,-4.25100040435791,-9.371000289916992,-48.13600158691406
1788650076998217500,18.387217529296876,-5.034000396728516,-9.9350004196167,-50.27900314331055
1788650077014304300,18.40330419921875,-5.109000205993652,-9.37600040435791,-48.5420036315918
1788650077030428700,18.4194287109375,-4.4070000648498535,-11.023000717163086,-51.410003662109375
1788650077046498600,18.43549853515625,-5.14900016784668,-9.616000175476074,-50.480003356933594
1788650077062443500,18.451443603515624,-3.140000104904175,-10.48900032043457,-51.40700149536133
1788650077078491000,18.467490966796873,-5.78000020980835,-10.584000587463379,-50.79300308227539
1788650077094531300,18.48353125,-5.255000114440918,-9.831000328063965,-50.583003997802734
1788650077110668800,18.499668701171874,-6.264000415802002,-10.987000465393066,-48.96200180053711
1788650077126747100,18.5157470703125,-4.761000156402588,-8.12600040435791,-51.18000411987305
1788650077142691300,18.53169140625,-5.459000110626221,-8.961000442504883,-49.65900421142578
1788650077158753800,18.54775390625,-2.824000120162964,-9.62600040435791,-50.992000579833984
1788650077174792000,18.5637919921875,-5.055000305175781,-10.056000709533691,-51.29900360107422
1788650077190942200,18.579942138671875,-6.091000080108643,-9.930000305175781,-50.07400131225586
1788650077207025000,18.59602490234375,-1.9500000476837158,-9.613000869750977,-49.87300109863281
1788650077222972400,18.611972412109374,-4.75700044631958,-7.907000541687012,-50.87300109863281
1788650077239016700,18.6280166015625,-4.491000175476074,-8.523000717163086,-48.84100341796875
1788650077255050800,18.64405078125,-7.184000492095947,-8.218000411987305,-50.36300277709961
1788650077271196200,18.660196044921875,-4.0920000076293945,-8.322999954223633,-49.85900115966797
1788650077287248000,18.676247802734373,-5.574000358581543,-8.318000793457031,-49.65300369262695
1788650077303192600,18.692192626953126,-5.4810004234313965,-8.651000022888184,-50.47100067138672
1788650077319253000,18.7082529296875,-2.055000066757202,-8.747000694274902,-49.25400161743164
1788650077335284700,18.72428466796875,-3.8960001468658447,-8.117000579833984,-50.46800231933594
1788650077351441200,18.740441162109374,-5.453000068664551,-7.553000450134277,-48.5260009765625
1788650077367490600,18.756490478515627,-4.603000164031982,-9.391000747680664,-49.66400146484375
1788650077383437600,18.7724375,-4.190000057220459,-9.183000564575195,-50.070003509521484
1788650077399487200,18.7884873046875,-5.6670002937316895,-9.931000709533691,-50.07400131225586
1788650077415526100,18.804526123046877,-6.1050004959106445,-9.939000129699707,-50.685001373291016
1788650077431696400,18.8206962890625,-5.248000144958496,-9.503000259399414,-50.07100296020508
1788650077447762000,18.836761962890623,-4.589000225067139,-9.599000930786133,-49.156002044677734
1788650077463710700,18.852710693359374,-5.033000469207764,-9.178000450134277,-49.76300048828125
1788650077479777500,18.868777587890627,-4.830000400543213,-8.644000053405762,-49.86000061035156
1788650077495817500,18.8848173828125,-5.897000312805176,-8.969000816345215,-50.26900100708008
1788650077511948800,18.90094873046875,-4.699000358581543,-8.520000457763672,-48.637001037597656
1788650077528014300,18.917014404296875,-2.802000045776367,-8.964000701904297,-49.560001373291016
1788650077543963100,18.932963134765625,-4.895000457763672,-9.050000190734863,-48.23400115966797
1788650077560009500,18.949009521484374,-5.63800048828125,-10.346000671386719,-49.05900192260742
1788650077576047900,18.9650478515625,-5.534000396728516,-8.726000785827637,-48.12900161743164
1788650077592180700,18.9811806640625,-6.526000499725342,-8.531000137329102,-49.65400314331055
1788650077608253200,18.997253173828124,-4.956000328063965,-8.223000526428223,-50.46800231933594
1788650077624194800,19.01319482421875,-2.495000123977661,-7.783000469207764,-49.34600067138672
1788650077640255200,19.029255126953124,-4.713000297546387,-9.285000801086426,-49.76400375366211
1788650077656288500,19.04528857421875,-5.353000164031982,-7.449000358581543,-48.72900390625
1788650077672434200,19.06143408203125,-5.368000030517578,-8.322999954223633,-49.95900344848633
1788650077688517000,19.07751708984375,-4.835000038146973,-7.134000301361084,-49.134002685546875
1788650077704469500,19.093469482421874,-5.142000198364258,-8.315000534057617,-49.34800338745117
1788650077720513300,19.10951318359375,-7.154000282287598,-7.552000522613525,-48.625003814697266
1788650077736550100,19.125550048828124,-5.4760003089904785,-7.3510003089904785,-49.441001892089844
1788650077752703200,19.141703125,-3.4250001907348633,-8.955000877380371,-48.948001861572266
1788650077768753200,19.157753173828127,-4.805000305175781,-7.872000217437744,-48.224002838134766
1788650077784719400,19.17371923828125,-3.5470001697540283,-7.992000579833984,-49.0410041809082
1788650077800793600,19.189793701171876,-3.434000253677368,-7.339000225067139,-48.323001861572266
1788650077816830000,19.205829833984374,-6.402000427246094,-8.196000099182129,-48.63200378417969
1788650077832998000,19.221997802734375,-6.765000343322754,-8.697999954223633,-46.191001892089844
1788650077849056800,19.238056884765626,-4.659000396728516,-8.604000091552734,-46.906002044677734
1788650077865011000,19.254010986328126,-7.403000354766846,-7.833000183105469,-45.67300033569336
1788650077881062700,19.270062744140624,-3.576000213623047,-8.809000015258789,-46.09400177001953
1788650077897146600,19.286146728515625,-4.255000114440918,-6.564000129699707,-46.583003997802734
1788650077913268700,19.302268798828123,-5.1620001792907715,-7.506000518798828,-44.96000289916992
1788650077929325300,19.3183251953125,-6.609000205993652,-7.696000576019287,-43.33000183105469
1788650077945266700,19.3342666015625,-5.809000492095947,-7.943000316619873,-45.676002502441406
1788650077961325600,19.35032568359375,-4.196000099182129,-7.39300012588501,-44.45100021362305
1788650077977355500,19.36635546875,-6.7220001220703125,-7.375000476837158,-43.42900085449219
1788650077993477400,19.382477294921873,-4.772000312805176,-8.004000663757324,-42.11300277709961
1788650078009547000,19.398547119140623,-4.552000045776367,-7.891000270843506,-41.70500183105469
1788650078025488100,19.414488037109376,-3.6700000762939453,-7.332000255584717,-39.867000579833984
1788650078041528800,19.43052880859375,-5.458000183105469,-7.75100040435791,-39.35900115966797
1788650078057560800,19.446560791015624,-5.147000312805176,-6.676000118255615,-39.04500198364258
1788650078073692000,19.46269189453125,-2.4770002365112305,-7.319000244140625,-38.74800109863281
1788650078089777400,19.47877734375,-3.7150001525878906,-6.647000312805176,-36.7030029296875
1788650078105723600,19.4947236328125,-4.424000263214111,-7.273000240325928,-35.58700180053711
1788650078121759500,19.510759521484374,-2.5200002193450928,-7.929000377655029,-36.30900192260742
1788650078137797600,19.526797607421877,-3.440000057220459,-8.878000259399414,-35.297000885009766
1788650078153944300,19.5429443359375,-2.5960001945495605,-7.802000522613525,-34.88100051879883
1788650078169976000,19.55897607421875,-3.940000295639038,-8.967000007629395,-33.97300338745117
1788650078185915100,19.5749150390625,-2.81000018119812,-8.668000221252441,-35.5
1788650078201961200,19.590961181640626,-4.767000198364258,-9.385000228881836,-33.26300048828125
1788650078217998600,19.60699853515625,-3.4880001544952393,-8.41100025177002,-32.441001892089844
1788650078234153000,19.623153076171874,-5.288000106811523,-9.8100004196167,-33.0620002746582
1788650078250197200,19.639197265625,-4.654000282287598,-9.381000518798828,-32.957000732421875
1788650078266140200,19.65514013671875,-1.9830000400543213,-9.5910005569458,-32.35100173950195
1788650078282199600,19.671199462890623,-3.1460001468658447,-9.154000282287598,-31.83700180053711
1788650078298232800,19.68723291015625,-2.8990001678466797,-9.67400074005127,-30.619001388549805
1788650078314386700,19.70338671875,-4.5980000495910645,-9.347000122070312,-30.410001754760742
1788650078330431700,19.719431640625,-1.592000126838684,-11.385000228881836,-30.22800064086914
1788650078346374400,19.73537451171875,-3.18500018119812,-12.031000137329102,-30.64000129699707
1788650078362420500,19.75142041015625,-1.4810000658035278,-9.761000633239746,-28.992000579833984
1788650078378455000,19.767455078125,-3.19700026512146,-9.336000442504883,-29.4950008392334
1788650078394621400,19.783621337890626,-4.104000091552734,-10.710000038146973,-28.1820011138916
1788650078410680000,19.79968017578125,-2.701000213623047,-10.699000358581543,-27.165000915527344
1788650078426624300,19.815624267578126,-4.427000045776367,-10.928000450134277,-28.489002227783203
1788650078442685700,19.831685791015627,-3.2740001678466797,-13.6850004196167,-26.172000885009766
1788650078458720500,19.847720458984377,-4.590000152587891,-12.628000259399414,-27.38300132751465
1788650078474842600,19.863842529296875,-2.0970001220703125,-12.709000587463379,-25.1460018157959
1788650078490906400,19.87990625,-1.974000096321106,-13.23900032043457,-24.74300193786621
1788650078506850600,19.8958505859375,-3.2780001163482666,-12.282000541687012,-25.446001052856445
1788650078522902000,19.911902099609375,-4.080000400543213,-12.576000213623047,-23.51300048828125
1788650078538938000,19.927938232421877,-2.764000177383423,-12.985000610351562,-21.88800048828125
1788650078555062000,19.94406201171875,-4.046000003814697,-13.85300064086914,-22.81100082397461
1788650078571127600,19.96012744140625,-3.812000274658203,-13.94800090789795,-21.895000457763672
1788650078587077400,19.976077392578127,-2.5210001468658447,-14.481000900268555,-21.494001388549805
1788650078603141600,19.9921416015625,-5.005000114440918,-16.707000732421875,-19.983001708984375
1788650078619180300,20.00818017578125,-2.683000087738037,-14.99000072479248,-19.56300163269043
1788650078635314400,20.024314453125,-1.8000000715255737,-16.48400115966797,-18.966001510620117
1788650078651380700,20.040380615234376,-2.9140000343322754,-18.07000160217285,-17.552000045776367
1788650078667335700,20.056335693359376,-4.129000186920166,-17.124000549316406,-19.071001052856445
1788650078683381800,20.0723818359375,-3.13700008392334,-17.104000091552734,-17.442001342773438
1788650078699416600,20.08841650390625,-2.879000186920166,-17.94099998474121,-15.921000480651855
1788650078715569000,20.10456884765625,-1.2540000677108765,-19.762001037597656,-15.634000778198242
1788650078731585000,20.1205849609375,-1.561000108718872,-20.619001388549805,-15.641000747680664
1788650078747552300,20.13655224609375,-1.1340000629425049,-20.618000030517578,-15.540000915527344
1788650078763600100,20.15260009765625,-0.7850000262260437,-20.70800018310547,-14.217000961303711
1788650078779635200,20.16863525390625,-0.4660000205039978,-21.248001098632812,-14.528000831604004
1788650078795767600,20.184767578125,-0.7560000419616699,-22.31100082397461,-13.925000190734863
1788650078811799300,20.20079931640625,-0.1080000028014183,-22.95400047302246,-13.830000877380371
1788650078827745800,20.216745849609374,0.4490000307559967,-24.884000778198242,-13.848000526428223
1788650078843783200,20.232783203125,0.6680000424385071,-25.205001831054688,-13.749000549316406
1788650078859861500,20.248861572265625,-0.05000000074505806,-26.59400177001953,-13.557001113891602
1788650078875982800,20.26498291015625,0.9720000624656677,-28.391000747680664,-11.63800048828125
1788650078892044800,20.281044921875,1.433000087738037,-26.922000885009766,-13.867000579833984
1788650078907992000,20.296991943359377,2.6600000858306885,-28.72500228881836,-12.356000900268555
1788650078924057300,20.313057373046874,2.634000062942505,-29.82200050354004,-14.200000762939453
1788650078940095500,20.329095458984376,4.575000286102295,-29.8070011138916,-12.878000259399414
1788650078956225000,20.34522509765625,3.5270001888275146,-29.47300148010254,-12.059000968933105
