time,seconds_elapsed,z,y,x
1788650058757997800,0.146997802734375,8.942343711853027,4.242525577545166,-0.19871874153614044
1788650058774081300,0.163081298828125,9.08838939666748,4.228160381317139,-0.40701428055763245
1788650058790117400,0.179117431640625,9.126696586608887,4.201824188232422,-0.47884035110473633
1788650058806167600,0.19516748046875,8.975862503051758,4.218583583831787,-0.40462008118629456
1788650058822196200,0.2111962890625,8.78193187713623,4.24970817565918,-0.3758896589279175
1788650058838262800,0.2272626953125,8.635885238647461,4.311957359313965,-0.33758243918418884
1788650058854281700,0.24328173828125,8.769960403442383,4.280832767486572,-0.35434186458587646
1788650058870341000,0.259341064453125,8.96389102935791,4.247313976287842,-0.2346317619085312
1788650058886411300,0.275411376953125,9.081207275390625,4.242525577545166,-0.17956513166427612
1788650058902453500,0.29145361328125,9.069235801696777,4.225766181945801,-0.1173158809542656
1788650058918504000,0.30750390625,8.987833023071289,4.185064792633057,-0.17238251864910126
1788650058934518500,0.3235185546875,9.016563415527344,4.110844135284424,-0.2849099934101105
1788650058950605800,0.339605712890625,9.100360870361328,4.089296340942383,-0.27054479718208313
1788650058966643500,0.3556435546875,9.05487060546875,4.1395745277404785,-0.10773907601833344
1788650058982708000,0.3717080078125,8.868123054504395,4.197035789489746,-0.021547814831137657
1788650058998755800,0.387755859375,8.686163902282715,4.189853191375732,-0.038307227194309235
1788650059014768400,0.403768310546875,8.676587104797363,4.14915132522583,-0.047884032130241394
1788650059030877000,0.419876953125,8.78432559967041,4.144362926483154,-0.031124621629714966
1788650059046914800,0.435914794921875,8.757989883422852,4.134786128997803,0.05027823522686958
1788650059062980900,0.45198095703125,8.779537200927734,4.1611223220825195,0.07182604819536209
1788650059079029800,0.46802978515625,8.944737434387207,4.1156325340271,-0.10055647045373917
1788650059095044000,0.484044189453125,8.937555313110352,4.10366153717041,-0.15801730751991272
1788650059111090000,0.50008984375,8.87051773071289,4.156333923339844,-0.12449848651885986
1788650059127139300,0.516139404296875,9.057265281677246,4.163516521453857,-0.0454898327589035
1788650059143218400,0.532218505859375,9.11233139038086,4.127603530883789,-0.10773907601833344
1788650059159262200,0.54826220703125,8.93037223815918,4.168305397033691,-0.10295066982507706
1788650059175276300,0.5642763671875,8.848969459533691,4.137180328369141,-0.12210428714752197
1788650059191338000,0.580337890625,8.96389102935791,4.048594951629639,-0.08140286058187485
1788650059207400000,0.59639990234375,8.939949035644531,4.060565948486328,-0.12449848651885986
1788650059223437000,0.61243701171875,8.83699893951416,4.125209331512451,-0.07182604819536209
1788650059239485700,0.628485595703125,8.736441612243652,4.137180328369141,-0.009576806798577309
1788650059255499000,0.6444990234375,8.947132110595703,4.1395745277404785,-0.014365210197865963
1788650059271545300,0.66054541015625,9.239224433898926,4.163516521453857,-0.13168109953403473
1788650059287616000,0.676615966796875,9.29189682006836,4.168305397033691,-0.22505496442317963
1788650059303667700,0.692667724609375,8.980650901794434,4.168305397033691,-0.1604115068912506
1788650059319717400,0.70871728515625,8.937555313110352,4.223371982574463,-0.028730420395731926
1788650059335735000,0.724735107421875,8.954314231872559,4.225766181945801,-0.05506663769483566
1788650059351801000,0.740801025390625,8.925583839416504,4.175487995147705,-0.08140286058187485
1788650059367878100,0.756878173828125,9.08838939666748,4.170699596405029,-0.09816227108240128
1788650059383932700,0.7729326171875,9.006986618041992,4.144362926483154,-0.06224924325942993
1788650059399955500,0.78895556640625,8.671798706054688,4.141968727111816,-0.06224924325942993
1788650059415973400,0.804973388671875,8.729259490966797,4.185064792633057,-0.07422025501728058
1788650059432022000,0.82102197265625,8.877699851989746,4.1874589920043945,-0.06464344263076782
1788650059448108500,0.837108642578125,9.105149269104004,4.228160381317139,-0.17477671802043915
1788650059464173600,0.853173583984375,9.02135181427002,4.2090067863464355,-0.17717093229293823
1788650059480219000,0.869218994140625,9.004592895507812,4.211400985717773,-0.2059013396501541
1788650059496232400,0.885232421875,8.968679428100586,4.201824188232422,-0.2346317619085312
1788650059512294700,0.901294677734375,8.956708908081055,4.216189384460449,-0.28730419278144836
1788650059528343800,0.91734375,8.927978515625,4.23773717880249,-0.19871874153614044
1788650059544412700,0.93341259765625,8.875306129455566,4.242525577545166,-0.181959331035614
1788650059560467500,0.949467529296875,8.83939266204834,4.199429988861084,-0.2082955539226532
1788650059576483800,0.96548388671875,8.880094528198242,4.175487995147705,-0.3208230137825012
1788650059592531700,0.98153173828125,9.030928611755371,4.180276393890381,-0.28730419278144836
1788650059608588300,0.99758837890625,9.083600997924805,4.185064792633057,-0.19871874153614044
1788650059624667600,1.013667724609375,9.138668060302734,4.20421838760376,-0.21308395266532898
1788650059640729900,1.029729736328125,9.014169692993164,4.189853191375732,-0.2298433631658554
1788650059656750000,1.04575,8.865729331970215,4.170699596405029,-0.24181437492370605
1788650059672819200,1.061819091796875,8.87051773071289,4.146757125854492,-0.2298433631658554
1788650059688885800,1.0778857421875,9.011775016784668,4.110844135284424,-0.15801730751991272
1788650059704925400,1.093925537109375,9.0859956741333,4.062960147857666,-0.11252748221158981
1788650059721001000,1.1100009765625,9.014169692993164,4.05817174911499,-0.06703764945268631
1788650059737029400,1.126029296875,8.829815864562988,4.05817174911499,-0.023942016065120697
1788650059753075700,1.14207568359375,8.638279914855957,4.125209331512451,-0.047884032130241394
1788650059769145300,1.158145263671875,8.583212852478027,4.151545524597168,-0.040701430290937424
1788650059785196800,1.17419677734375,8.78432559967041,4.180276393890381,-0.11252748221158981
1788650059801273600,1.190273681640625,8.992621421813965,4.101267337799072,-0.19153612852096558
1788650059817301800,1.2063017578125,9.033323287963867,4.072536945343018,-0.24181437492370605
1788650059833363500,1.222363525390625,8.980650901794434,4.048594951629639,-0.24181437492370605
1788650059849444600,1.238444580078125,8.987833023071289,4.0964789390563965,-0.20350714027881622
1788650059865502700,1.254502685546875,9.097966194152832,4.141968727111816,-0.16759411990642548
1788650059881550600,1.270550537109375,9.095572471618652,4.153939723968506,-0.16759411990642548
1788650059897564700,1.286564697265625,9.10993766784668,4.151545524597168,-0.2059013396501541
1788650059913656000,1.302656005859375,9.066842079162598,4.0964789390563965,-0.24660277366638184
1788650059929691000,1.31869091796875,9.107542991638184,4.072536945343018,-0.2561795711517334
1788650059945759700,1.334759765625,9.27034854888916,4.065354347229004,-0.19871874153614044
1788650059961812500,1.3508125,9.299078941345215,4.067748546600342,-0.17717093229293823
1788650059977829000,1.3668291015625,9.186552047729492,4.062960147857666,-0.17717093229293823
1788650059993891600,1.3828916015625,9.030928611755371,4.046200752258301,-0.17238251864910126
1788650060009946400,1.3989462890625,8.856152534484863,4.101267337799072,-0.12689268589019775
1788650060034074400,1.423074462890625,8.978256225585938,4.07014274597168,-0.15322890877723694
1788650060050092500,1.439092529296875,9.100360870361328,4.0749311447143555,-0.15083470940589905
1788650060066107000,1.45510693359375,9.078812599182129,4.060565948486328,-0.10773907601833344
1788650060082172200,1.471172119140625,9.064447402954102,4.017470359802246,-0.1412578970193863
1788650060098201300,1.487201416015625,9.064447402954102,3.9624037742614746,-0.15801730751991272
1788650060114307300,1.503307373046875,8.990227699279785,4.017470359802246,-0.11971008777618408
1788650060130321700,1.51932177734375,9.023746490478516,4.031835556030273,-0.035913024097681046
1788650060146351400,1.535351318359375,9.105149269104004,4.041412353515625,0.021547814831137657
1788650060162419200,1.551419189453125,9.217676162719727,4.015076160430908,0.05985504388809204
1788650060178461200,1.567461181640625,9.265560150146484,3.998316764831543,0.06224924325942993
1788650060194520300,1.583520263671875,9.23682975769043,3.971980571746826,0.09816227108240128
1788650060210534000,1.599533935546875,9.229647636413574,3.955221176147461,0.05985504388809204
1788650060226546400,1.61554638671875,9.150638580322266,3.9695863723754883,0.026336219161748886
1788650060242609000,1.63160888671875,9.030928611755371,3.9839515686035156,0.033518824726343155
1788650060258653400,1.6476533203125,8.916007041931152,4.019864559173584,0
1788650060274723600,1.6637236328125,8.801085472106934,4.027047157287598,0
1788650060290739000,1.679739013671875,8.779537200927734,4.05817174911499,-0.040701430290937424
1788650060306768000,1.695767822265625,8.738836288452148,4.067748546600342,-0.10055647045373917
1788650060322828000,1.711828125,8.688557624816895,4.055777549743652,-0.16759411990642548
1788650060338881500,1.727881591796875,8.757989883422852,4.036623954772949,-0.19153612852096558
1788650060354967000,1.743967041015625,8.89445972442627,4.055777549743652,-0.09816227108240128
1788650060370985000,1.75998486328125,8.990227699279785,4.015076160430908,-0.07182604819536209
1788650060386999600,1.77599951171875,8.954314231872559,4.000710964202881,-0.05985504388809204
1788650060403065600,1.792065673828125,8.892065048217773,4.017470359802246,-0.047884032130241394
1788650060419077600,1.80807763671875,8.853757858276367,4.043806552886963,-0.040701430290937424
1788650060435170600,1.824170654296875,8.827422142028809,4.055777549743652,-0.08379705995321274
1788650060451186200,1.840186279296875,8.848969459533691,4.079719543457031,-0.06703764945268631
1788650060467222000,1.856221923828125,8.901641845703125,4.0964789390563965,-0.08140286058187485
1788650060483288800,1.872288818359375,8.932766914367676,4.141968727111816,-0.05267243832349777
1788650060499315000,1.88831494140625,8.966285705566406,4.137180328369141,-0.07422025501728058
1788650060515414300,1.904414306640625,8.899248123168945,4.182670593261719,-0.17238251864910126
1788650060531428900,1.920428955078125,8.78193187713623,4.216189384460449,-0.1364694982767105
1788650060547441000,1.93644091796875,8.786720275878906,4.2090067863464355,-0.14604631066322327
1788650060563510000,1.952510009765625,8.868123054504395,4.1874589920043945,-0.0694318488240242
1788650060579542300,1.968542236328125,8.971074104309082,4.168305397033691,-0.009576806798577309
1788650060595652000,1.984652099609375,9.011775016784668,4.144362926483154,0.040701430290937424
1788650060611679700,2.0006796875,8.995016098022461,4.144362926483154,0.06464344263076782
1788650060627714600,2.016714599609375,9.066842079162598,4.108449935913086,0.021547814831137657
1788650060643781600,2.03278173828125,9.11233139038086,4.132391929626465,-0.026336219161748886
1788650060659817200,2.048817138671875,9.071630477905273,4.141968727111816,-0.05027823522686958
1788650060675887400,2.064887451171875,9.062053680419922,4.129997730255127,-0.05027823522686958
1788650060691931000,2.080930908203125,9.105149269104004,4.077325344085693,-0.06703764945268631
1788650060707962400,2.09696240234375,9.186552047729492,4.065354347229004,0.004788403399288654
1788650060724031000,2.113031005859375,9.107542991638184,4.0533833503723145,0.06464344263076782
1788650060740102700,2.1291025390625,9.014169692993164,4.041412353515625,0.043095629662275314
1788650060756172000,2.145172119140625,8.983044624328613,4.01268196105957,0.0454898327589035
1788650060772221700,2.1612216796875,8.987833023071289,4.000710964202881,0.0071826050989329815
1788650060788276000,2.17727587890625,9.002198219299316,4.0294413566589355,-0.06464344263076782
1788650060804343300,2.19334326171875,8.992621421813965,4.094084739685059,-0.031124621629714966
1788650060820356000,2.209356201171875,8.863334655761719,4.110844135284424,0.047884032130241394
1788650060836446500,2.225446533203125,8.7268648147583,4.146757125854492,0.11013327538967133
1788650060852462600,2.241462646484375,8.746018409729004,4.19224739074707,0.0694318488240242
1788650060868474600,2.257474609375,8.83939266204834,4.285621166229248,0.12210428714752197
1788650060884539400,2.273539306640625,8.987833023071289,4.326322555541992,0.14844051003456116
1788650060900555800,2.2895556640625,9.129091262817383,4.3406877517700195,0.035913024097681046
1788650060916657700,2.30565771484375,9.121908187866211,4.357447147369385,-0.011971008032560349
1788650060932677000,2.321677001953125,9.102754592895508,4.4532151222229,0.031124621629714966
1788650060948708600,2.33770849609375,8.951920509338379,4.522646903991699,0.13168109953403473
1788650060964772000,2.353772216796875,9.097966194152832,4.505887508392334,0.31124621629714966
1788650060980792600,2.36979248046875,9.167398452758789,4.525041103363037,0.2537853717803955
1788650060996892400,2.385892333984375,8.983044624328613,4.599261283874512,0.24420857429504395
1788650061012910000,2.40191015625,8.628703117370605,4.738125324249268,0.31603461503982544
1788650061028931600,2.417931640625,8.439560890197754,4.836287498474121,0.45010992884635925
1788650061045001500,2.43400146484375,8.47547435760498,4.821922302246094,0.44771572947502136
1788650061061036500,2.45003662109375,8.729259490966797,4.754884719848633,0.3663128614425659
1788650061077102600,2.4661025390625,8.7484130859375,4.704606533050537,0.2992752194404602
1788650061093122000,2.4821220703125,8.652645111083984,4.721365928649902,0.2585737705230713
1788650061109156000,2.498156005859375,8.556877136230469,4.754884719848633,0.2513911724090576
1788650061125225200,2.51422509765625,8.700529098510742,4.788403511047363,0.17238251864910126
1788650061141259300,2.53025927734375,8.757989883422852,4.802768707275391,0.09576806426048279
1788650061157322800,2.54632275390625,8.556877136230469,4.831499099731445,0.038307227194309235
1788650061173340000,2.56233984375,8.31985092163086,4.898536682128906,0.05027823522686958
1788650061189357300,2.578357421875,8.2312650680542,4.886565685272217,0.07661445438861847
1788650061205424000,2.594424072265625,8.324639320373535,4.876988887786865,0.035913024097681046
1788650061221469200,2.61046923828125,8.56884765625,4.788403511047363,0.026336219161748886
1788650061237542100,2.626542236328125,8.676587104797363,4.771644115447998,0.10295066982507706
1788650061253562400,2.642562255859375,8.647856712341309,4.788403511047363,0.17238251864910126
1788650061269594600,2.6585947265625,8.492233276367188,4.738125324249268,0.15083470940589905
1788650061285664500,2.67466455078125,8.346187591552734,4.771644115447998,0.1628057211637497
1788650061301721900,2.690721923828125,8.281543731689453,4.809951305389404,0.24660277366638184
1788650061317821200,2.7068212890625,8.202534675598145,4.8602294921875,0.3998316824436188
1788650061333843700,2.72284375,8.269572257995605,4.95120906829834,0.42616790533065796
1788650061349864000,2.738864013671875,8.33182144165039,4.927267074584961,0.4189853072166443
1788650061365931800,2.754931884765625,8.317456245422363,4.960785865783691,0.33039984107017517
1788650061381950000,2.770949951171875,8.360552787780762,4.982333660125732,0.21547815203666687
1788650061398035200,2.78703515625,8.367734909057617,5.027823448181152,0.2346317619085312
1788650061414055400,2.803055419921875,8.681375503540039,5.008669853210449,0.23702596127986908
1788650061430091300,2.81909130859375,9.148244857788086,4.888959884643555,0.12449848651885986
1788650061446157600,2.835157470703125,9.765948295593262,4.786009311676025,0.05027823522686958
1788650061462181600,2.851181640625,10.237606048583984,4.656722068786621,0.0071826050989329815
1788650061478285000,2.86728515625,10.24000072479248,4.596867084503174,-0.002394201699644327
1788650061494307800,2.883307861328125,9.864110946655273,4.8482584953308105,0.0694318488240242
1788650061510323200,2.8993232421875,9.423578262329102,4.891354084014893,0.27054479718208313
1788650061526388500,2.915388427734375,9.097966194152832,4.644751071929932,0.16998831927776337
1788650061542420700,2.931420654296875,9.327810287475586,4.400542736053467,-0.1149216815829277
1788650061558529000,2.947529052734375,10.137049674987793,4.1180267333984375,-0.06703764945268631
1788650061574563000,2.96356298828125,11.173739433288574,3.797203779220581,0.009576806798577309
1788650061590595000,2.979594970703125,11.959037780761719,3.404554843902588,-0.12689268589019775
1788650061606641000,2.995640869140625,12.018892288208008,3.1723172664642334,-0.4692635238170624
1788650061622664400,3.01166455078125,11.149797439575195,3.1220390796661377,-0.8212111592292786
1788650061638733300,3.0277333984375,9.974244117736816,3.224989652633667,-0.8259995579719543
1788650061654782000,3.043781982421875,8.734047889709473,3.361459255218506,-0.730231523513794
1788650061670810400,3.059810302734375,7.812280178070068,3.464409828186035,-0.5650315880775452
1788650061686865200,3.075865234375,7.649474620819092,3.603273630142212,-0.47884035110473633
1788650061702896000,3.091896240234375,7.817068576812744,3.60566782951355,-0.19393034279346466
1788650061718930200,3.10793017578125,8.20732307434082,3.529053211212158,-0.19153612852096558
1788650061734972200,3.12397216796875,8.62391471862793,3.3686418533325195,-0.26575639843940735
1788650061751024400,3.1400244140625,9.028534889221191,3.2848446369171143,-0.4812345504760742
1788650061767129300,3.15612939453125,9.181763648986816,3.3255462646484375,-0.4118026793003082
1788650061783142400,3.172142333984375,8.87291145324707,3.3518824577331543,-0.2944868206977844
1788650061799234300,3.188234375,8.451532363891602,3.4739866256713867,-0.33279404044151306
1788650061815256300,3.20425634765625,8.185775756835938,3.5266590118408203,-0.2944868206977844
1788650061831272400,3.2202724609375,8.042123794555664,3.5960910320281982,-0.2825157940387726
1788650061847387600,3.2363876953125,8.070854187011719,3.7181951999664307,-0.3447650372982025
1788650061863401700,3.252401611328125,7.994239330291748,3.864241600036621,-0.44771572947502136
1788650061879496200,3.26849609375,7.90086555480957,4.019864559173584,-0.48602294921875
1788650061895515000,3.284514892578125,7.8314337730407715,3.998316764831543,-0.31364041566848755
1788650061911553800,3.3005537109375,8.008605003356934,3.993528366088867,-0.28969839215278625
1788650061927626500,3.31662646484375,8.286332130432129,3.9624037742614746,-0.24899697303771973
1788650061943655700,3.33265576171875,8.489839553833008,3.957615375518799,-0.11013327538967133
1788650061959760600,3.3487607421875,8.461109161376953,4.0294413566589355,-0.07182604819536209
1788650061975779300,3.364779296875,8.31985092163086,4.108449935913086,0.035913024097681046
1788650061991799600,3.380799560546875,8.142680168151855,4.156333923339844,0.12449848651885986
1788650062007865900,3.396865966796875,8.142680168151855,4.072536945343018,0.10055647045373917
1788650062023903200,3.4129033203125,8.616731643676758,4.110844135284424,-0.05746084079146385
1788650062039966000,3.428966064453125,9.131484985351562,4.220977783203125,-0.26096799969673157
1788650062055985400,3.4449853515625,9.315838813781738,4.347870349884033,-0.4118026793003082
1788650062071988700,3.46098876953125,9.224859237670898,4.489128112792969,-0.4620809257030487
1788650062088054800,3.4770546875,9.198522567749023,4.534617900848389,-0.3926490843296051
1788650062104095500,3.493095458984375,9.48343276977539,4.649539470672607,-0.4189853072166443
1788650062120156200,3.50915625,9.818621635437012,4.525041103363037,-0.22505496442317963
1788650062136171300,3.525171142578125,10.120290756225586,4.3861775398254395,-0.09576806426048279
1788650062152185000,3.54118505859375,10.24239444732666,4.529829502105713,-0.2968810200691223
1788650062168251100,3.557251220703125,10.002974510192871,5.157110691070557,-0.3687070608139038
1788650062184300300,3.57330029296875,9.607931137084961,4.970362663269043,0.47405192255973816
1788650062200382000,3.5893818359375,9.603142738342285,4.534617900848389,1.0223240852355957
1788650062216399000,3.605399169921875,10.481815338134766,3.8977603912353516,1.0127472877502441
1788650062232433000,3.621432861328125,12.100295066833496,3.0837318897247314,0.9816226959228516
1788650062248478000,3.63747802734375,13.287819862365723,2.650381326675415,0.9193734526634216
1788650062264510500,3.653510498046875,13.292608261108398,2.6144683361053467,0.7493851184844971
1788650062280582700,3.669582763671875,11.899182319641113,2.7700912952423096,0.7565677165985107
1788650062296601900,3.685601806640625,10.070012092590332,3.1435868740081787,0.8044517636299133
1788650062312619500,3.70161962890625,8.621520042419434,3.4572272300720215,0.7158663272857666
1788650062328667000,3.7176669921875,7.972691535949707,3.7205893993377686,1.137245774269104
1788650062344716800,3.733716796875,8.01339340209961,3.6774938106536865,1.6903064250946045
1788650062360813300,3.749813232421875,8.358158111572266,3.471592426300049,1.699883222579956
1788650062376821000,3.765821044921875,8.480262756347656,3.1938650608062744,1.3742717504501343
1788650062392851500,3.7818515625,8.580819129943848,2.937685489654541,1.1204863786697388
1788650062408919300,3.797919189453125,8.485051155090332,2.808398485183716,0.7206547260284424
1788650062424951000,3.813950927734375,8.329427719116211,2.827552318572998,0.3711012601852417
1788650062441045200,3.830045166015625,8.20732307434082,2.9305028915405273,0.07661445438861847
1788650062457067800,3.84606787109375,8.08282470703125,3.064578056335449,-0.11971008777618408
1788650062473085700,3.862085693359375,8.056488990783691,3.2848446369171143,-0.2849099934101105
1788650062489154800,3.87815478515625,8.092401504516602,3.4380736351013184,-0.2777273952960968
1788650062505188400,3.894188232421875,8.034940719604492,3.576937437057495,-0.22266076505184174
1788650062521293800,3.9102939453125,8.070854187011719,3.7612907886505127,-0.1628057211637497
1788650062537325000,3.926324951171875,8.070854187011719,3.8355112075805664,0.040701430290937424
1788650062553354500,3.9423544921875,8.006210327148438,3.9193081855773926,0.2106897532939911
1788650062569419000,3.9584189453125,7.99184513092041,4.01268196105957,0.3016694188117981
1788650062585460500,3.97446044921875,7.929595947265625,4.098873138427734,0.38546648621559143
1788650062601525200,3.990525146484375,7.948749542236328,4.141968727111816,0.3447650372982025
1788650062617561600,4.0065615234375,8.142680168151855,4.242525577545166,0.2561795711517334
1788650062633590500,4.022590576171875,8.31985092163086,4.304774761199951,0.16998831927776337
1788650062649657300,4.0386572265625,8.49941635131836,4.268861770629883,0.19153612852096558
1788650062665707500,4.05470751953125,8.724471092224121,4.201824188232422,0.19393034279346466
1788650062681781500,4.070781494140625,8.920795440673828,4.285621166229248,0.090979665517807
1788650062697833000,4.0868330078125,8.827422142028809,4.501099109649658,0.07182604819536209
1788650062713867800,4.10286767578125,8.56884765625,4.721365928649902,0.09576806426048279
1788650062729976600,4.1189765625,8.339004516601562,4.98472785949707,0.10055647045373917
1788650062745989600,4.13498974609375,8.42040729522705,5.130774021148682,0.0071826050989329815
1788650062762081000,4.1510810546875,8.803479194641113,5.183446884155273,-0.12210428714752197
1788650062778100700,4.167100830078125,9.349357604980469,5.061342239379883,-0.1628057211637497
1788650062794117600,4.18311767578125,9.99100399017334,4.876988887786865,-0.13168109953403473
1788650062810187300,4.199187255859375,10.577583312988281,4.5609540939331055,-0.12449848651885986
1788650062826210800,4.2152109375,10.81700325012207,4.290409564971924,-0.1867477297782898
1788650062842314500,4.231314453125,10.536881446838379,4.443638324737549,-0.3926490843296051
1788650062858333700,4.247333740234375,9.787496566772461,4.886565685272217,-0.272938996553421
1788650062874367000,4.263366943359375,9.016563415527344,4.6950297355651855,-0.17956513166427612
1788650062890431200,4.27943115234375,8.83939266204834,4.54419469833374,-0.912190854549408
1788650062906454500,4.29545458984375,9.48343276977539,4.285621166229248,-1.192312479019165
1788650062922563000,4.31156298828125,10.632649421691895,3.890577793121338,-1.0055646896362305
1788650062938583000,4.3275830078125,11.348516464233398,3.4763808250427246,-0.6943184733390808
1788650062954601200,4.343601318359375,11.365275382995605,3.315969467163086,-0.6799532771110535
1788650062970646500,4.359646484375,10.864887237548828,3.339911460876465,-0.47644615173339844
1788650062986683600,4.37568359375,10.362105369567871,3.31118106842041,-0.2298433631658554
1788650063002741000,4.391740966796875,10.096348762512207,3.2609026432037354,-0.11013327538967133
1788650063018761000,4.407760986328125,9.847352027893066,3.220201253890991,-0.10773907601833344
1788650063034939400,4.423939453125,9.402029991149902,3.177105665206909,-0.07661445438861847
1788650063050848300,4.43984814453125,8.81784439086914,3.1268274784088135,-0.10295066982507706
1788650063066907000,4.455906982421875,8.40843677520752,3.1028854846954346,-0.0933738648891449
1788650063082975200,4.471975341796875,8.101978302001953,3.0837318897247314,-0.06464344263076782
1788650063098991600,4.48799169921875,8.10437297821045,3.07415509223938,-0.09576806426048279
1788650063115007200,4.50400732421875,8.286332130432129,3.0789434909820557,-0.24660277366638184
1788650063131072000,4.520072021484375,8.372523307800293,3.1196448802948,-0.37828385829925537
1788650063147127800,4.5361279296875,8.317456245422363,3.2369606494903564,-0.35434186458587646
1788650063163227100,4.55222705078125,8.090007781982422,3.3446998596191406,-0.30885201692581177
1788650063179247900,4.568247802734375,7.845798969268799,3.4739866256713867,-0.2777273952960968
1788650063195281400,4.584281494140625,7.7883381843566895,3.708618402481079,-0.2513911724090576
1788650063211351600,4.6003515625,7.8745293617248535,3.845088005065918,-0.07900865375995636
1788650063227364400,4.6163642578125,8.018181800842285,3.93367338180542,0.033518824726343155
1788650063243454000,4.632453857421875,8.085219383239746,3.955221176147461,-0.17956513166427612
1788650063259477800,4.648477783203125,8.20732307434082,3.9193081855773926,-0.3734954595565796
1788650063275495700,4.66449560546875,8.315062522888184,3.823540210723877,-0.3878606855869293
1788650063291566300,4.68056640625,8.197746276855469,3.9193081855773926,-0.3447650372982025
1788650063307582000,4.69658203125,8.128314971923828,4.046200752258301,-0.19153612852096558
1788650063323675100,4.712675048828125,8.145073890686035,4.113238334655762,0.043095629662275314
1788650063339696400,4.7286962890625,8.348581314086914,4.170699596405029,-0.06703764945268631
1788650063355735600,4.744735595703125,8.501810073852539,4.19224739074707,-0.26336219906806946
1788650063371807700,4.760807861328125,8.528146743774414,4.261679172515869,-0.545877993106842
1788650063387837000,4.7768369140625,8.394071578979492,4.522646903991699,-0.6823474764823914
1788650063403916000,4.792916015625,8.20492935180664,4.800374507904053,-0.6560112833976746
1788650063419948500,4.808948486328125,8.271966934204102,5.094861030578613,-0.6153098344802856
1788650063435970000,4.824969970703125,8.796297073364258,5.094861030578613,-0.49559974670410156
1788650063452039000,4.841038818359375,9.583989143371582,4.960785865783691,-0.5195417404174805
1788650063468075800,4.85707568359375,10.417171478271484,4.608838081359863,-0.40940847992897034
1788650063484134100,4.873134033203125,11.322179794311523,4.311957359313965,-0.3016694188117981
1788650063500169500,4.88916943359375,12.076353073120117,3.974374771118164,-0.3423708379268646
1788650063516215000,4.905215087890625,11.91354751586914,4.156333923339844,-0.5650315880775452
1788650063532259600,4.921259521484375,11.046846389770508,4.759673118591309,-0.31124621629714966
1788650063548283600,4.93728369140625,10.072406768798828,4.1180267333984375,0.9385270476341248
1788650063564351500,4.9533515625,9.77791976928711,3.691859006881714,1.015141487121582
1788650063580394800,4.969394775390625,10.436325073242188,3.28963303565979,0.8188169598579407
1788650063596431000,4.98543115234375,11.099518775939941,2.829946517944336,0.8523358106613159
1788650063612491300,5.0014912109375,11.286267280578613,2.7916390895843506,0.5410895943641663
1788650063628536600,5.01753662109375,10.72841739654541,3.1483752727508545,0.08858546614646912
1788650063644624000,5.033623779296875,9.916783332824707,3.3446998596191406,-0.19153612852096558
1788650063660642800,5.049642822265625,8.999804496765137,3.2561142444610596,-0.272938996553421
1788650063676676400,5.06567626953125,8.556877136230469,3.224989652633667,0.2537853717803955
1788650063692782300,5.0817822265625,8.700529098510742,3.2800562381744385,0.8786720037460327
1788650063708808000,5.097807861328125,9.318233489990234,3.1483752727508545,1.0319008827209473
1788650063724905000,5.113905029296875,9.897629737854004,2.7748796939849854,0.7924807667732239
1788650063740927500,5.129927490234375,10.220847129821777,2.535459518432617,0.3998316824436188
1788650063756949000,5.145948974609375,10.067618370056152,2.516305923461914,0.0694318488240242
1788650063773011000,5.162010986328125,9.533711433410645,2.760514497756958,-0.05506663769483566
1788650063789022000,5.17802197265625,8.78193187713623,2.935291290283203,0.0071826050989329815
1788650063805120000,5.1941201171875,8.030152320861816,3.002328872680664,-0.026336219161748886
1788650063821140200,5.21014013671875,7.496245384216309,3.160346269607544,-0.22505496442317963
1788650063837176000,5.226176025390625,7.2352776527404785,3.2992098331451416,-0.3687070608139038
1788650063853244400,5.242244384765625,7.074865818023682,3.4356794357299805,-0.4381389021873474
1788650063869271800,5.258271728515625,7.0557122230529785,3.667917013168335,-0.35913026332855225
1788650063885384000,5.274384033203125,7.134721279144287,3.8283286094665527,-0.15322890877723694
1788650063901405200,5.2904052734375,7.4555439949035645,3.971980571746826,-0.1628057211637497
1788650063917424000,5.306424072265625,7.927201747894287,4.036623954772949,-0.2346317619085312
1788650063933493200,5.3224931640625,8.324639320373535,4.101267337799072,-0.2777273952960968
1788650063949528000,5.338528076171875,8.556877136230469,4.113238334655762,-0.2849099934101105
1788650063965589200,5.35458935546875,8.662221908569336,4.091690540313721,-0.3256114423274994
1788650063981608000,5.37060791015625,8.83939266204834,4.067748546600342,-0.30885201692581177
1788650063997645600,5.3866455078125,8.947132110595703,4.015076160430908,-0.304063618183136
1788650064013716000,5.402716064453125,8.98543930053711,3.971980571746826,-0.33039984107017517
1788650064029763800,5.418763916015625,9.026140213012695,4.091690540313721,-0.45010992884635925
1788650064045848000,5.43484814453125,9.05487060546875,4.343081951141357,-0.5530605912208557
1788650064061868300,5.450868408203125,9.150638580322266,4.517858505249023,-0.6344634294509888
1788650064077887500,5.466887451171875,9.263166427612305,4.558559894561768,-0.706289529800415
1788650064093958000,5.4829580078125,9.215282440185547,4.5825018882751465,-0.7469909191131592
1788650064110005800,5.499005859375,9.255983352661133,4.477157115936279,-0.7469909191131592
1788650064126082800,5.515082763671875,9.854534149169922,4.194641590118408,-0.5291185975074768
1788650064142099000,5.531098876953125,10.675745010375977,3.88818359375,-0.3208230137825012
1788650064158130400,5.54713037109375,11.27190113067627,3.7924153804779053,-0.33758243918418884
1788650064174171000,5.5631708984375,10.979808807373047,4.23773717880249,-0.4644751250743866
1788650064190209000,5.579208984375,10.11789608001709,4.424484729766846,-0.2825157940387726
1788650064206297900,5.5952978515625,9.48343276977539,4.395754337310791,-0.49799394607543945
1788650064222316800,5.61131689453125,9.761159896850586,4.326322555541992,-1.094150185585022
1788650064238335200,5.627335205078125,10.848128318786621,4.000710964202881,-1.1659762859344482
1788650064254401800,5.64340185546875,11.645397186279297,3.5434184074401855,-0.8379706144332886
1788650064270443000,5.659443115234375,11.566388130187988,3.3662476539611816,-0.8834604024887085
1788650064286528000,5.675528076171875,10.812214851379395,3.399766445159912,-0.8810662031173706
1788650064302550800,5.69155078125,9.770736694335938,3.287238836288452,-0.7015010714530945
1788650064318590500,5.707590576171875,9.14585018157959,3.184288263320923,-0.706289529800415
1788650064334620200,5.7236201171875,8.966285705566406,3.1866824626922607,-0.8355764150619507
1788650064350642400,5.739642333984375,8.760383605957031,3.1962592601776123,-0.6847416758537292
1788650064366740000,5.755739990234375,8.60236644744873,3.141192674636841,-0.4189853072166443
1788650064382771000,5.77177099609375,8.506598472595215,2.9903578758239746,-0.28969839215278625
1788650064398790100,5.7877900390625,8.652645111083984,2.849100112915039,-0.3064578175544739
1788650064414860800,5.80386083984375,8.774748802185059,2.738966703414917,-0.31842881441116333
1788650064430886100,5.81988623046875,8.757989883422852,2.698265314102173,-0.2849099934101105
1788650064446944300,5.8359443359375,8.516175270080566,2.6815059185028076,-0.22505496442317963
1788650064462978300,5.851978271484375,8.042123794555664,2.8610711097717285,-0.24899697303771973
1788650064479016400,5.868016357421875,7.422025203704834,3.117250680923462,-0.23942017555236816
1788650064495047400,5.88404736328125,6.938396453857422,3.337517261505127,-0.40701428055763245
1788650064511070000,5.900070068359375,6.998251438140869,3.44765043258667,-0.49559974670410156
1788650064527144400,5.91614453125,7.321468830108643,3.5913026332855225,-0.5937620401382446
1788650064543193600,5.932193603515625,7.752425193786621,3.687070608139038,-0.49320554733276367
1788650064559228000,5.948227783203125,8.183381080627441,3.713406801223755,-0.33279404044151306
1788650064575298300,5.96429833984375,8.667010307312012,3.7397429943084717,-0.31842881441116333
1788650064591347000,5.980346923828125,9.241618156433105,3.7876269817352295,-0.42377370595932007
1788650064607432700,5.9964326171875,9.588777542114258,3.8283286094665527,-0.4908113479614258
1788650064623448800,6.01244873046875,9.457097053527832,3.8738183975219727,-0.545877993106842
1788650064639484000,6.02848388671875,9.14345645904541,3.892971992492676,-0.49320554733276367
1788650064655551700,6.0445517578125,8.908824920654297,3.912125587463379,-0.45250412821769714
1788650064671567600,6.060567626953125,8.83699893951416,4.015076160430908,-0.5267243981361389
1788650064687680300,6.07668017578125,8.645462036132812,4.240131378173828,-0.5746083855628967
1788650064703697000,6.09269677734375,8.312667846679688,4.486733913421631,-0.5793967843055725
1788650064719713800,6.1087138671875,8.365341186523438,4.8602294921875,-0.6392518281936646
1788650064735782000,6.124781982421875,8.635885238647461,5.066130638122559,-0.45250412821769714
1788650064751826200,6.140826171875,9.191340446472168,5.260061264038086,-0.4189853072166443
1788650064767934000,6.156933837890625,9.988609313964844,5.109226226806641,-0.2346317619085312
1788650064783953200,6.172953125,10.824186325073242,4.738125324249268,-0.44771572947502136
1788650064799985700,6.188985595703125,11.585541725158691,4.211400985717773,-0.43335050344467163
1788650064816026600,6.205026611328125,11.858481407165527,4.137180328369141,-0.524330198764801
1788650064832034800,6.221034912109375,11.51611042022705,4.7405195236206055,-0.4692635238170624
1788650064848079600,6.23707958984375,10.754754066467285,4.596867084503174,0.5817909836769104
1788650064864090600,6.253090576171875,10.271124839782715,4.37420654296875,1.0342950820922852
1788650064880097300,6.26909716796875,10.256759643554688,4.170699596405029,1.015141487121582
1788650064896153900,6.28515380859375,10.721235275268555,3.600879430770874,1.0534487962722778
1788650064912191000,6.30119091796875,11.21444034576416,3.090914487838745,0.6248866319656372
1788650064928233500,6.3172333984375,11.283872604370117,2.9305028915405273,-0.33518823981285095
1788650064944245800,6.333245849609375,10.702081680297852,2.808398485183716,-0.5315127968788147
1788650064960276000,6.34927587890625,9.90241813659668,2.7102363109588623,-0.4189853072166443
1788650064976332500,6.36533251953125,9.27034854888916,2.7006595134735107,-0.12449848651885986
1788650064992370200,6.3813701171875,8.920795440673828,2.8347349166870117,0.35913026332855225
1788650065008437200,6.397437255859375,8.827422142028809,2.918531894683838,0.9457096457481384
1788650065024451800,6.413451904296875,8.616731643676758,2.8443117141723633,1.0989385843276978
1788650065040465700,6.429465576171875,8.219294548034668,2.585737943649292,1.2042834758758545
1788650065056521200,6.445521240234375,7.955932140350342,2.47560453414917,1.1516109704971313
1788650065072562000,6.46156201171875,8.10437297821045,2.540247917175293,0.9983820915222168
1788650065088635400,6.477635498046875,8.523358345031738,2.6168625354766846,0.9074024558067322
1788650065104650800,6.493650634765625,8.554482460021973,2.669534921646118,0.7781155705451965
1788650065120683000,6.50968310546875,7.929595947265625,2.889801502227783,0.629675030708313
1788650065136707300,6.525707275390625,7.067683219909668,3.179499864578247,0.4405331015586853
1788650065152745500,6.541745361328125,6.658275127410889,3.3925838470458984,0.28730419278144836
1788650065168806700,6.557806640625,6.672640323638916,3.579331636428833,0.0694318488240242
1788650065184824600,6.573824462890625,6.952761650085449,3.73016619682312,-0.16759411990642548
1788650065200840400,6.58984033203125,7.534552574157715,3.892971992492676,-0.33997663855552673
1788650065216903000,6.60590283203125,8.164227485656738,3.931279182434082,-0.363918662071228
1788650065232921600,6.621921630859375,8.585607528686523,4.048594951629639,-0.33279404044151306
1788650065249017600,6.638017578125,8.901641845703125,4.079719543457031,-0.3016694188117981
1788650065265034800,6.65403466796875,9.220070838928223,4.127603530883789,-0.28969839215278625
1788650065281062400,6.6700625,9.512163162231445,4.127603530883789,-0.17477671802043915
1788650065297125000,6.686125,9.557653427124023,4.137180328369141,-0.016759412363171577
1788650065313151200,6.702151123046875,9.452308654785156,4.218583583831787,0.002394201699644327
1788650065329213700,6.718213623046875,9.361329078674316,4.326322555541992,0.08858546614646912
1788650065345227000,6.73422705078125,9.375694274902344,4.4939165115356445,0.19153612852096558
1788650065361235500,6.7502353515625,9.227252960205078,4.67827033996582,0.26815059781074524
1788650065377296000,6.7662958984375,9.030928611755371,4.841075897216797,0.19393034279346466
1788650065393326800,6.782326904296875,8.973467826843262,4.841075897216797,0.014365210197865963
1788650065409389800,6.798389892578125,9.296685218811035,4.692635536193848,-0.016759412363171577
1788650065425427500,6.814427490234375,10.043676376342773,4.28322696685791,0.090979665517807
1788650065441472300,6.83047216796875,10.862493515014648,4.0294413566589355,0.22505496442317963
1788650065457536300,6.846536376953125,11.216835021972656,4.402936935424805,-0.08379705995321274
1788650065473553200,6.86255322265625,10.682928085327148,4.477157115936279,-0.05267243832349777
1788650065489626400,6.87862646484375,9.706093788146973,4.244919776916504,-0.45489832758903503
1788650065505672200,6.894672119140625,9.624691009521484,4.132391929626465,-1.2713210582733154
1788650065521705200,6.910705322265625,10.776301383972168,3.8307228088378906,-1.2880805730819702
1788650065537768700,6.926768798828125,12.157755851745605,3.488351821899414,-0.8595184087753296
1788650065553776600,6.942776611328125,12.627019882202148,3.3854012489318848,-0.6536170840263367
1788650065569833000,6.9588330078125,11.923124313354492,3.4141316413879395,-0.5602431893348694
1788650065585845200,6.97484521484375,10.5344877243042,3.35667085647583,-0.38307225704193115
1788650065601876000,6.9908759765625,9.284713745117188,3.3446998596191406,-0.4668693244457245
1788650065617914400,7.006914306640625,8.78432559967041,3.2154128551483154,-0.35434186458587646
1788650065633920000,7.022919921875,8.738836288452148,3.0382418632507324,-0.304063618183136
1788650065649998800,7.038998779296875,8.844181060791016,2.913743495941162,-0.37828385829925537
1788650065666011400,7.055011474609375,8.810662269592285,2.8586769104003906,-0.395043283700943
1788650065682017300,7.071017333984375,8.633491516113281,2.942473888397217,-0.2059013396501541
1788650065698070800,7.08707080078125,8.47547435760498,3.0573954582214355,0.021547814831137657
1788650065714095600,7.103095703125,8.176198959350586,3.1004912853240967,0.11971008777618408
1788650065730191400,7.11919140625,8.061277389526367,3.1028854846954346,0.17956513166427612
1788650065746195500,7.135195556640625,8.001421928405762,3.023876667022705,0.15801730751991272
1788650065762219000,7.151218994140625,7.94635534286499,2.983175277709961,0.08858546614646912
1788650065778274000,7.167274169921875,7.750030994415283,3.045424461364746,0.28730419278144836
1788650065794292200,7.183292236328125,7.618350028991699,3.2369606494903564,0.4908113479614258
1788650065810393900,7.199393798828125,7.386112213134766,3.514688014984131,0.5554547905921936
1788650065826403000,7.215403076171875,7.311892032623291,3.648763418197632,0.4189853072166443
1788650065842410000,7.231409912109375,7.316680431365967,3.6559460163116455,0.10534487664699554
1788650065858471400,7.247471435546875,7.457938194274902,3.6990416049957275,-0.031124621629714966
1788650065874497500,7.26349755859375,7.759607791900635,3.7397429943084717,0.11013327538967133
1788650065890554600,7.2795546875,8.04930591583252,3.825934410095215,0.2585737705230713
1788650065906568400,7.295568359375,8.439560890197754,3.9049429893493652,0.15562310814857483
1788650065922596900,7.311596923828125,8.769960403442383,3.88818359375,-0.035913024097681046
1788650065938652700,7.327652587890625,8.860940933227539,3.955221176147461,-0.19632454216480255
1788650065954688500,7.3436884765625,8.700529098510742,4.137180328369141,-0.3232172429561615
1788650065970754000,7.359754150390625,8.678980827331543,4.4077253341674805,-0.4357447028160095
1788650065986764000,7.375763916015625,8.956708908081055,4.666299343109131,-0.5147533416748047
1788650066002771500,7.391771484375,9.366117477416992,4.953603267669678,-0.5506663918495178
1788650066018829800,7.407829833984375,9.775525093078613,5.032611846923828,-0.43095630407333374
1788650066034873900,7.423873779296875,10.079588890075684,4.912901878356934,-0.2585737705230713
1788650066050946800,7.43994677734375,10.556035041809082,4.637568473815918,-0.07182604819536209
1788650066066959400,7.45595947265625,11.03248119354248,4.182670593261719,0.0933738648891449
1788650066082961000,7.4719609375,11.23598861694336,4.223371982574463,-0.1843535304069519
1788650066098998300,7.487998291015625,10.967838287353516,4.884171485900879,-0.24660277366638184
1788650066115029800,7.50402978515625,10.496180534362793,4.446032524108887,0.9864110946655273
1788650066131126300,7.520126220703125,10.457873344421387,4.1611223220825195,1.403002142906189
1788650066147133400,7.536133544921875,11.288661003112793,3.7612907886505127,1.2689268589019775
1788650066163138300,7.55213818359375,12.081141471862793,3.184288263320923,1.170764684677124
1788650066179172000,7.568172119140625,12.140996932983398,2.7533318996429443,0.9624691009521484
1788650066195217400,7.584217529296875,11.681309700012207,2.5737667083740234,0.5434837937355042
1788650066211304200,7.60030419921875,10.826580047607422,2.604891538619995,0.22744916379451752
1788650066227317200,7.616317138671875,9.93354320526123,2.6886885166168213,0.16998831927776337
1788650066243344000,7.63234375,9.066842079162598,2.784456491470337,0.363918662071228
1788650066259391500,7.6483916015625,8.209717750549316,2.8874073028564453,0.6943184733390808
1788650066275395800,7.664395751953125,7.819462776184082,3.002328872680664,0.9481038451194763
1788650066291479000,7.68047900390625,7.845798969268799,3.0358476638793945,1.1324573755264282
1788650066307495000,7.696494873046875,8.075642585754395,2.959233283996582,1.1276689767837524
1788650066323505000,7.7125048828125,8.29830265045166,2.8227639198303223,1.0534487962722778
1788650066339564000,7.72856396484375,8.453926086425781,2.691082715988159,0.8068459630012512
1788650066355595000,7.744594970703125,8.506598472595215,2.7030537128448486,0.4596867263317108
1788650066371646000,7.76064599609375,8.516175270080566,2.7700912952423096,0.14604631066322327
1788650066387673000,7.776673095703125,8.453926086425781,2.9017724990844727,-0.07182604819536209
1788650066403699500,7.792699462890625,8.329427719116211,3.045424461364746,-0.2561795711517334
1788650066419710700,7.808710693359375,8.243236541748047,3.201047658920288,-0.44771572947502136
1788650066435751000,7.8247509765625,8.221688270568848,3.3207578659057617,-0.5722141861915588
1788650066451842000,7.840842041015625,8.17380428314209,3.464409828186035,-0.42616790533065796
1788650066467878100,7.856878173828125,8.106766700744629,3.7253777980804443,-0.24660277366638184
1788650066483904000,7.872904052734375,8.092401504516602,3.9408559799194336,-0.11013327538967133
1788650066500004600,7.889004638671875,8.152256965637207,4.106055736541748,0.06703764945268631
1788650066516000800,7.905000732421875,8.429984092712402,4.225766181945801,0.0454898327589035
1788650066532081400,7.921081298828125,8.640673637390137,4.271255970001221,0.038307227194309235
1788650066548091400,7.93709130859375,8.860940933227539,4.244919776916504,0.028730420395731926
1788650066564113000,7.95311279296875,8.875306129455566,4.228160381317139,0.0694318488240242
1788650066580210400,7.96921044921875,8.87291145324707,4.199429988861084,0.15322890877723694
1788650066596211200,7.985211181640625,8.971074104309082,4.23773717880249,0.1412578970193863
1788650066612298800,8.001298828125,8.951920509338379,4.333505153656006,0.12210428714752197
1788650066628301300,8.01730126953125,8.937555313110352,4.426878929138184,0.05267243832349777
1788650066644305200,8.03330517578125,8.978256225585938,4.553771495819092,-0.10295066982507706
1788650066660356900,8.04935693359375,9.148244857788086,4.651933670043945,-0.31124621629714966
1788650066676375000,8.065375,9.569623947143555,4.513070106506348,-0.3902548849582672
1788650066692473300,8.081473388671874,10.077195167541504,4.220977783203125,-0.06703764945268631
1788650066708479000,8.09747900390625,10.448296546936035,4.015076160430908,0.22266076505184174
1788650066724526800,8.11352685546875,10.596736907958984,4.005499362945557,0.040701430290937424
1788650066740576300,8.129576171875,10.254365921020508,4.266467571258545,-0.5961562395095825
1788650066756589000,8.145589111328125,9.80904483795166,4.134786128997803,-0.6991068720817566
1788650066772681000,8.161680908203126,9.909601211547852,3.9815573692321777,-0.871489405632019
1788650066788677400,8.177677490234375,10.66137981414795,3.8307228088378906,-1.0247182846069336
1788650066804677600,8.193677734375,11.535264015197754,3.552995204925537,-0.9840168952941895
1788650066820708600,8.20970849609375,12.076353073120117,3.2561142444610596,-0.7158663272857666
1788650066836710000,8.2257099609375,11.860875129699707,3.0382418632507324,-0.2777273952960968
1788650066852735000,8.24173486328125,10.773907661437988,3.1938650608062744,0.016759412363171577
1788650066868737500,8.257737548828125,9.66539192199707,3.3925838470458984,0.33279404044151306
1788650066884758500,8.273758544921876,8.887276649475098,3.4380736351013184,0.47884035110473633
1788650066900798700,8.289798828125,8.468291282653809,3.4955344200134277,0.5482721924781799
1788650066916811500,8.3058115234375,8.169015884399414,3.5027170181274414,0.7015010714530945
1788650066932832800,8.321832763671875,7.967903137207031,3.488351821899414,0.7254431247711182
1788650066948840200,8.337840087890624,7.862558364868164,3.4572272300720215,0.3208230137825012
1788650066964846600,8.3538466796875,7.879317760467529,3.3518824577331543,-0.2298433631658554
1788650066980908300,8.369908203125,8.279149055480957,3.3494882583618164,-0.49559974670410156
1788650066996956000,8.385955810546875,8.913613319396973,3.375824451446533,-0.35913026332855225
1788650067013028400,8.4020283203125,9.66539192199707,3.268085241317749,0.038307227194309235
1788650067029038600,8.41803857421875,10.055646896362305,3.19865345954895,0.2585737705230713
1788650067045065200,8.434065185546874,9.976638793945312,3.114856481552124,0.2801215946674347
1788650067061121000,8.45012109375,9.418789863586426,3.0885202884674072,0.3711012601852417
1788650067077165000,8.4661650390625,8.662221908569336,3.162740468978882,0.5315127968788147
1788650067093206300,8.482206298828125,7.838616371154785,3.2824504375457764,0.5315127968788147
1788650067109214700,8.498214599609375,7.2783732414245605,3.3662476539611816,0.33039984107017517
1788650067125226500,8.5142265625,7.113173484802246,3.4380736351013184,-0.016759412363171577
1788650067141286400,8.530286376953125,7.297526836395264,3.4404678344726562,-0.3064578175544739
1788650067157300200,8.54630029296875,7.632715225219727,3.4763808250427246,-0.3423708379268646
1788650067173392600,8.562392578125,7.972691535949707,3.5673606395721436,-0.38546648621559143
1788650067189405700,8.57840576171875,8.154650688171387,3.60566782951355,-0.4429273009300232
1788650067205434000,8.59443408203125,8.267178535461426,3.579331636428833,-0.507570743560791
1788650067221493200,8.6104931640625,8.429984092712402,3.7181951999664307,-0.5195417404174805
1788650067237518800,8.626518798828124,8.549694061279297,3.9384617805480957,-0.44532153010368347
1788650067253633000,8.642633056640625,8.573636054992676,3.995922565460205,-0.2537853717803955
1788650067269657000,8.658656982421874,8.595184326171875,4.07014274597168,-0.1843535304069519
1788650067285672700,8.674672607421876,8.681375503540039,4.240131378173828,-0.3064578175544739
1788650067301735200,8.690735107421874,8.899248123168945,4.357447147369385,-0.3471592366695404
1788650067317774000,8.706774169921875,9.074024200439453,4.424484729766846,-0.4572925269603729
1788650067333842000,8.722842041015625,9.2033109664917,4.345476150512695,-0.8786720037460327
1788650067349880600,8.738880615234375,9.47146224975586,4.1180267333984375,-1.1683704853057861
1788650067365923800,8.754923828125,9.81143856048584,4.1180267333984375,-1.0654197931289673
1788650067381988900,8.77098876953125,10.333374977111816,4.817133903503418,-0.6272808313369751
1788650067398035700,8.78703564453125,10.903194427490234,5.231330871582031,0.6392518281936646
1788650067414110200,8.803110107421874,11.274295806884766,5.0876784324646,1.659181833267212
1788650067430154000,8.819154052734374,11.865663528442383,4.513070106506348,1.4915876388549805
1788650067446168000,8.83516796875,12.665327072143555,3.754108190536499,0.790086567401886
1788650067462250200,8.851250244140624,13.357251167297363,3.0334534645080566,0.3734954595565796
1788650067478254800,8.8672548828125,13.51766300201416,2.6431987285614014,0.009576806798577309
1788650067494317300,8.8833173828125,12.811373710632324,2.6024973392486572,-0.2849099934101105
1788650067510332200,8.899332275390625,11.592724800109863,2.7317841053009033,0.24899697303771973
1788650067526363000,8.91536279296875,10.32858657836914,3.00711727142334,0.4692635238170624
1788650067542449400,8.931449462890624,8.683769226074219,2.999934673309326,0.16998831927776337
1788650067558452700,8.94745263671875,7.41484260559082,3.098097085952759,-0.31364041566848755
1788650067574532400,8.963532470703125,7.029376029968262,3.2992098331451416,-0.002394201699644327
1788650067590542800,8.97954296875,7.177816867828369,3.5960910320281982,0.7948749661445618
1788650067606554600,8.9955546875,7.709329605102539,3.5266590118408203,1.3766659498214722
1788650067622614300,9.0116142578125,8.1139497756958,3.1316158771514893,1.2114660739898682
1788650067638637300,9.02763720703125,8.40843677520752,2.7437551021575928,1.0103530883789062
1788650067654742800,9.04374267578125,8.576030731201172,2.5929205417633057,0.950498104095459
1788650067670756600,9.059756591796875,8.966285705566406,2.6431987285614014,0.9074024558067322
1788650067686782700,9.07578271484375,8.877699851989746,2.4468741416931152,0.31364041566848755
1788650067702834400,9.09183447265625,8.5903959274292,2.585737943649292,0.17238251864910126
1788650067718855200,9.107855224609375,8.192957878112793,3.00711727142334,0.5003881454467773
1788650067734870800,9.123870849609375,7.668628215789795,3.4524388313293457,0.6584054827690125
1788650067750880800,9.139880859375,7.304709434509277,3.751713991165161,0.646434485912323
1788650067766889500,9.155889404296875,7.266402244567871,3.907337188720703,0.5171475410461426
1788650067782938600,9.171938720703125,7.41484260559082,3.9600095748901367,0.2298433631658554
1788650067798973200,9.18797314453125,7.893682956695557,4.000710964202881,-0.08619125932455063
1788650067815049500,9.204049560546874,8.379706382751465,4.0078935623168945,-0.06224924325942993
1788650067831060200,9.220060302734375,8.743624687194824,4.060565948486328,0.0933738648891449
1788650067847088400,9.23608837890625,9.095572471618652,4.005499362945557,0.10773907601833344
1788650067863150800,9.25215087890625,9.294290542602539,3.9384617805480957,0.07182604819536209
1788650067879191600,9.268191650390625,9.406818389892578,3.8810009956359863,-0.019153613597154617
1788650067895261700,9.28426171875,9.368511199951172,3.9911341667175293,-0.019153613597154617
1788650067911277000,9.300277099609374,9.193734169006348,3.974374771118164,-0.09576806426048279
1788650067927287600,9.31628759765625,8.882488250732422,4.0749311447143555,-0.23942017555236816
1788650067943348200,9.33234814453125,8.904036521911621,4.141968727111816,-0.36152446269989014
1788650067959398000,9.34839794921875,9.095572471618652,4.19224739074707,-0.3902548849582672
1788650067975483600,9.364483642578126,9.244012832641602,4.28322696685791,-0.3280056416988373
1788650067991497200,9.380497314453125,9.440337181091309,4.247313976287842,-0.19393034279346466
1788650068007526100,9.396526123046876,9.670180320739746,4.050989151000977,-0.1412578970193863
1788650068023588000,9.412588134765626,9.923966407775879,3.7828385829925537,-0.1843535304069519
1788650068039599600,9.428599609375,10.005369186401367,3.734954595565796,-0.26096799969673157
1788650068055691000,9.44469091796875,9.696516990661621,4.141968727111816,-0.3878606855869293
1788650068071709200,9.460709228515626,9.452308654785156,4.273650169372559,-0.33758243918418884
1788650068087723300,9.47672314453125,9.373299598693848,4.438849925994873,-0.7326257228851318
1788650068103785700,9.49278564453125,9.593565940856934,4.692635536193848,-1.139639973640442
1788650068119812600,9.5088125,10.02452278137207,4.714183330535889,-0.9816226959228516
1788650068135916000,9.524916015625,10.821791648864746,4.4723687171936035,-0.9576807022094727
1788650068151926000,9.540926025390625,11.48259162902832,4.242525577545166,-0.9241618514060974
1788650068167950000,9.5569501953125,11.647790908813477,3.93367338180542,-0.7924807667732239
1788650068183983600,9.572983642578125,11.374852180480957,3.6104562282562256,-0.9074024558067322
1788650068199985000,9.58898486328125,10.809821128845215,3.265691041946411,-1.0247182846069336
1788650068216044800,9.605044921875,10.08437728881836,3.0597896575927734,-1.015141487121582
1788650068232062700,9.621062744140625,9.387664794921875,3.002328872680664,-0.9600749015808105
1788650068248076500,9.63707666015625,8.62630844116211,2.9305028915405273,-1.0630255937576294
1788650068264124000,9.6531240234375,7.850587368011475,2.913743495941162,-0.9959878921508789
1788650068280144600,9.66914453125,7.374141216278076,2.983175277709961,-0.8810662031173706
1788650068296168700,9.685168701171875,7.096413612365723,3.004723072052002,-0.9959878921508789
1788650068312199200,9.70119921875,7.264008045196533,3.050212860107422,-0.9457096457481384
1788650068328240600,9.71724072265625,7.704541206359863,3.098097085952759,-0.7996633648872375
1788650068344307000,9.733306884765625,8.382100105285645,3.1531636714935303,-0.524330198764801
1788650068360348000,9.749347900390624,9.126696586608887,3.114856481552124,-0.2825157940387726
1788650068376424700,9.7654248046875,9.84256362915039,3.028665065765381,-0.26575639843940735
1788650068392438500,9.7814384765625,10.398017883300781,2.9089550971984863,-0.33279404044151306
1788650068408454000,9.797453857421875,10.800244331359863,2.760514497756958,-0.40701428055763245
1788650068424550100,9.813550048828125,10.903194427490234,2.6623523235321045,-0.28969839215278625
1788650068440561000,9.829560791015625,10.287884712219238,2.7246015071868896,-0.09576806426048279
1788650068456646400,9.845646484375,9.100360870361328,2.9017724990844727,-0.08379705995321274
1788650068472664300,9.861664306640625,8.157045364379883,3.1076738834381104,-0.16759411990642548
1788650068488697900,9.87769775390625,7.637503623962402,3.28963303565979,-0.26815059781074524
1788650068504750300,9.893750244140625,7.630321025848389,3.421314239501953,-0.35913026332855225
1788650068520763400,9.909763427734376,8.044517517089844,3.4955344200134277,-0.5410895943641663
1788650068536820200,9.9258203125,8.791508674621582,3.514688014984131,-0.6105214357376099
1788650068552837400,9.94183740234375,9.354146003723145,3.40216064453125,-0.48602294921875
1788650068568854000,9.95785400390625,9.636661529541016,3.3925838470458984,-0.4620809257030487
1788650068584917800,9.973917724609375,9.643844604492188,3.4165258407592773,-0.3998316824436188
1788650068600938200,9.989938232421874,9.612719535827637,3.44765043258667,-0.33518823981285095
1788650068617039000,10.0060390625,9.773131370544434,3.603273630142212,-0.48602294921875
1788650068633056500,10.022056396484375,9.940725326538086,3.825934410095215,-0.6584054827690125
1788650068649090600,10.038090576171875,10.093954086303711,3.8714241981506348,-0.6607996821403503
1788650068665158100,10.054158203125,10.187328338623047,3.9264907836914062,-0.5195417404174805
1788650068681195000,10.070195068359375,9.926360130310059,3.9671921730041504,-0.3471592366695404
1788650068697255000,10.0862548828125,9.385271072387695,3.950432777404785,-0.20111294090747833
1788650068713271800,10.102271728515625,8.604761123657227,3.971980571746826,-0.08858546614646912
1788650068729288000,10.118287841796874,8.176198959350586,4.098873138427734,-0.11013327538967133
1788650068745355500,10.13435546875,8.087613105773926,4.199429988861084,-0.20111294090747833
1788650068761426200,10.15042626953125,8.365341186523438,4.2544965744018555,-0.3998316824436188
1788650068777499600,10.166499755859375,8.69095230102539,4.247313976287842,-0.40222588181495667
1788650068793517300,10.182517333984375,8.920795440673828,4.307168960571289,-0.28730419278144836
1788650068809553000,10.198552978515625,8.966285705566406,4.431667327880859,-0.26815059781074524
1788650068825619500,10.214619384765625,8.956708908081055,4.479551315307617,-0.4668693244457245
1788650068841663200,10.230663330078125,8.786720275878906,4.522646903991699,-0.7445967197418213
1788650068857739500,10.246739501953124,8.705317497253418,4.649539470672607,-1.0055646896362305
1788650068873760000,10.262760009765625,8.71728801727295,4.656722068786621,-0.9911994934082031
1788650068889779500,10.278779541015625,8.89445972442627,4.484339714050293,-1.015141487121582
1788650068905848000,10.29484814453125,9.220070838928223,4.259284973144531,-1.0630255937576294
1788650068921901800,10.31090185546875,9.53849983215332,4.077325344085693,-1.1659762859344482
1788650068937991200,10.3269912109375,9.619902610778809,3.9671921730041504,-1.094150185585022
1788650068954013400,10.343013427734375,9.311050415039062,3.955221176147461,-1.0414776802062988
1788650068970050600,10.359050537109376,8.746018409729004,4.043806552886963,-0.9265560507774353
1788650068986119000,10.375118896484375,8.291120529174805,4.23773717880249,-0.7948749661445618
1788650069002138000,10.39113818359375,8.037335395812988,4.443638324737549,-0.5219359993934631
1788650069018237700,10.40723779296875,7.95832633972168,4.637568473815918,-0.2561795711517334
1788650069034261800,10.42326171875,7.987056732177734,4.793191909790039,0.05506663769483566
1788650069050284300,10.4392841796875,8.142680168151855,4.874594688415527,0.24899697303771973
1788650069066357000,10.45535693359375,8.382100105285645,4.845864295959473,0.24660277366638184
1788650069082381000,10.471381103515625,8.7484130859375,4.771644115447998,0.11971008777618408
1788650069098502700,10.487502685546875,9.117119789123535,4.630385875701904,0.004788403399288654
1788650069114528500,10.503528564453125,9.514557838439941,4.46518611907959,-0.12210428714752197
1788650069130562600,10.5195625,9.72285270690918,4.383783340454102,-0.12210428714752197
1788650069146631200,10.535631103515625,9.746794700622559,4.3861775398254395,-0.002394201699644327
1788650069162667500,10.55166748046875,9.512163162231445,4.441244125366211,0.2513911724090576
1788650069178779000,10.56777880859375,9.117119789123535,4.4532151222229,0.4884171485900879
1788650069194823700,10.58382373046875,8.540117263793945,4.489128112792969,0.5626373887062073
1788650069210846000,10.599845947265624,8.243236541748047,4.551377296447754,0.47405192255973816
1788650069226915000,10.6159150390625,8.24084186553955,4.572925090789795,0.49799394607543945
1788650069242963700,10.631963623046875,8.372523307800293,4.568136692047119,0.5099649429321289
1788650069259032300,10.6480322265625,8.65982723236084,4.505887508392334,0.4357447028160095
1788650069275074600,10.664074462890625,8.983044624328613,4.467580318450928,0.28730419278144836
1788650069291123700,10.680123779296874,9.272743225097656,4.400542736053467,0.1364694982767105
1788650069307193300,10.696193359375,9.485827445983887,4.3406877517700195,0.2513911724090576
1788650069323246800,10.712246826171874,9.452308654785156,4.367023944854736,0.38067805767059326
1788650069339336200,10.728336181640625,9.181763648986816,4.37420654296875,0.5003881454467773
1788650069355356000,10.74435595703125,8.892065048217773,4.393360137939453,0.6727706789970398
1788650069371374000,10.7603740234375,8.707711219787598,4.371812343597412,0.8451532125473022
1788650069387484000,10.77648388671875,8.588001251220703,4.252102375030518,0.9792284965515137
1788650069403493400,10.792493408203125,8.621520042419434,4.180276393890381,1.0414776802062988
1788650069419581000,10.808580810546875,8.71728801727295,4.134786128997803,1.1013327836990356
1788650069435600100,10.82460009765625,8.889671325683594,4.086902141571045,1.0797849893569946
1788650069451636500,10.840636474609376,8.93037223815918,3.995922565460205,1.0654197931289673
1788650069467752000,10.856751953125,8.93037223815918,3.9911341667175293,1.05105459690094
1788650069483768800,10.872768798828124,8.825027465820312,4.017470359802246,1.048660397529602
1788650069499870000,10.888869873046875,8.796297073364258,4.019864559173584,1.0582371950149536
1788650069515891200,10.90489111328125,8.791508674621582,3.993528366088867,1.0462661981582642
1788650069531913500,10.92091357421875,8.877699851989746,3.9480385780334473,0.9792284965515137
1788650069547986000,10.93698583984375,8.999804496765137,3.909731388092041,0.9648633003234863
1788650069564012300,10.95301220703125,9.083600997924805,3.801992416381836,1.0007762908935547
1788650069580123100,10.969123046875,9.217676162719727,3.7229835987091064,1.0055646896362305
1788650069596145400,10.9851455078125,9.38048267364502,3.687070608139038,1.278503656387329
1788650069612184800,11.001184814453126,9.50498104095459,3.754108190536499,1.5322890281677246
1788650069628255200,11.017255126953126,9.567230224609375,3.818751811981201,1.6831238269805908
1788650069644292000,11.0332919921875,9.442731857299805,3.756502389907837,1.7166426181793213
1788650069660369000,11.049368896484374,9.330204010009766,3.6774938106536865,1.647210717201233
1788650069676386800,11.06538671875,9.23443603515625,3.7277719974517822,1.7908629179000854
1788650069692405200,11.0814052734375,9.29189682006836,3.687070608139038,1.922544002532959
1788650069708475000,11.097474853515624,9.313444137573242,3.5913026332855225,1.8171991109848022
1788650069724520700,11.113520751953125,9.473855972290039,3.5170822143554688,1.3120225667953491
1788650069740595200,11.12959521484375,9.775525093078613,3.5410242080688477,0.8427590131759644
1788650069756621000,11.14562109375,10.139444351196289,3.584120035171509,0.45489832758903503
1788650069772661000,11.161660888671875,10.271124839782715,3.6607344150543213,0.21787235140800476
1788650069788733000,11.17773291015625,10.101137161254883,3.7876269817352295,0.09576806426048279
1788650069804789500,11.19378955078125,9.651026725769043,3.84269380569458,0.10055647045373917
1788650069820876300,11.209876220703125,9.241618156433105,3.9193081855773926,0.004788403399288654
1788650069836898000,11.22589794921875,8.786720275878906,3.9169139862060547,-0.05506663769483566
1788650069852921600,11.241921630859375,8.451532363891602,3.9169139862060547,-0.05746084079146385
1788650069868994300,11.257994384765626,8.310274124145508,3.869029998779297,0.06224924325942993
1788650069885012000,11.274011962890626,8.396465301513672,3.8331170082092285,0.22026655077934265
1788650069901107000,11.29010693359375,8.678980827331543,3.8379054069519043,0.40222588181495667
1788650069917127200,11.306127197265624,8.992621421813965,3.77565598487854,0.5410895943641663
1788650069933162500,11.32216259765625,9.217676162719727,3.734954595565796,0.5386953949928284
1788650069949228300,11.338228271484375,9.227252960205078,3.711012601852417,0.586579442024231
1788650069965252400,11.35425244140625,9.124302864074707,3.7277719974517822,0.6392518281936646
1788650069981353500,11.370353515625,9.016563415527344,3.7708675861358643,0.667982280254364
1788650069997379800,11.3863798828125,8.939949035644531,3.840299606323242,0.646434485912323
1788650070013403400,11.4024033203125,8.791508674621582,3.952826976776123,0.5482721924781799
1788650070029472500,11.418472412109375,8.583212852478027,4.060565948486328,0.5123591423034668
1788650070045499000,11.434498779296876,8.377311706542969,4.244919776916504,0.3256114423274994
1788650070061610800,11.45061083984375,8.377311706542969,4.0964789390563965,0.2298433631658554
1788650070077639400,11.466639404296876,8.736441612243652,3.840299606323242,0.07422025501728058
1788650070093644300,11.482644287109375,9.29189682006836,3.7277719974517822,-0.014365210197865963
1788650070109708500,11.49870849609375,9.911994934082031,3.627215623855591,-0.14844051003456116
1788650070125740800,11.51474072265625,10.223240852355957,3.5458126068115234,-0.2753331959247589
1788650070141814300,11.530814208984374,9.96945571899414,3.584120035171509,-0.5650315880775452
1788650070157854000,11.54685400390625,9.332598686218262,3.7445313930511475,-0.9481038451194763
1788650070173879300,11.56287939453125,8.62630844116211,3.9863457679748535,-1.259350061416626
1788650070189949400,11.578949462890625,8.276755332946777,4.20421838760376,-1.3551181554794312
1788650070205991000,11.594990966796875,8.343792915344238,4.4723687171936035,-1.4676456451416016
1788650070222024000,11.61102392578125,8.60236644744873,4.58968448638916,-1.3838485479354858
1788650070238075600,11.62707568359375,8.9064302444458,4.558559894561768,-1.2449848651885986
1788650070254127600,11.643127685546874,9.138668060302734,4.4292731285095215,-1.039083480834961
1788650070270196200,11.6591962890625,9.35893440246582,4.280832767486572,-0.8786720037460327
1788650070286210000,11.6752099609375,9.713275909423828,4.244919776916504,-0.6536170840263367
1788650070302299400,11.69129931640625,9.967061996459961,4.197035789489746,-0.507570743560791
1788650070318324700,11.70732470703125,10.046070098876953,4.223371982574463,-0.4381389021873474
1788650070334345700,11.723345703125,9.986215591430664,4.170699596405029,-0.37828385829925537
1788650070350462200,11.739462158203125,9.703699111938477,4.07014274597168,-0.507570743560791
1788650070366479400,11.755479248046875,9.078812599182129,4.0078935623168945,-0.7829039692878723
1788650070382580000,11.771580078125,8.573636054992676,4.02465295791626,-1.113303780555725
1788650070398602200,11.787602294921875,8.336610794067383,4.067748546600342,-1.3718775510787964
1788650070414641000,11.803640869140626,8.374917984008789,4.153939723968506,-1.556231141090393
1788650070430714000,11.819714111328125,8.513781547546387,4.211400985717773,-1.7357962131500244
1788650070446746000,11.83574609375,8.628703117370605,4.2760443687438965,-1.8770540952682495
1788650070462853600,11.851853515625,8.69095230102539,4.371812343597412,-1.9153614044189453
1788650070478873900,11.867873779296875,8.702922821044922,4.37420654296875,-1.7908629179000854
1788650070494894600,11.88389453125,8.901641845703125,4.37420654296875,-1.522712230682373
1788650070510964500,11.899964599609374,9.07641887664795,4.314351558685303,-1.1540051698684692
1788650070527001900,11.916001953125,9.294290542602539,4.244919776916504,-0.9074024558067322
1788650070543069000,11.93206884765625,9.521739959716797,4.216189384460449,-0.8355764150619507
1788650070559093000,11.948093017578126,9.610325813293457,4.19224739074707,-0.6919242739677429
1788650070575133000,11.9641328125,9.411606788635254,4.225766181945801,-0.5410895943641663
1788650070591205400,11.980205322265626,8.987833023071289,4.235342979431152,-0.5195417404174805
1788650070607244300,11.996244384765625,8.59997272491455,4.2951979637146,-0.7350199222564697
1788650070623318000,12.012318115234375,8.487444877624512,4.331110954284668,-0.7948749661445618
1788650070639338500,12.02833837890625,8.537723541259766,4.390965938568115,-0.7158663272857666
1788650070655359700,12.04435986328125,8.71489429473877,4.398148536682129,-0.6584054827690125
1788650070671428600,12.0604287109375,8.841787338256836,4.331110954284668,-0.7445967197418213
1788650070687475000,12.076474853515625,8.89445972442627,4.302380561828613,-0.9145850539207458
1788650070703555800,12.092555908203124,8.825027465820312,4.357447147369385,-1.0079588890075684
1788650070719577900,12.108577880859375,8.698134422302246,4.390965938568115,-0.9816226959228516
1788650070735610000,12.124610107421875,8.525752067565918,4.4723687171936035,-1.161187767982483
1788650070751677700,12.140677734375,8.482656478881836,4.580107688903809,-1.280897855758667
1788650070767732200,12.156732177734375,8.389283180236816,4.774038314819336,-1.3407529592514038
1788650070783819800,12.17281982421875,8.183381080627441,4.991910457611084,-1.2497732639312744
1788650070799839500,12.188839599609375,8.027758598327637,5.12119722366333,-0.9840168952941895
1788650070815856000,12.204856201171875,8.226476669311523,5.080495834350586,-0.5363011956214905
1788650070831919400,12.22091943359375,8.789113998413086,4.891354084014893,-0.2825157940387726
1788650070847934000,12.236933837890625,9.390059471130371,4.5609540939331055,-0.11252748221158981
1788650070864015400,12.253015380859376,9.737217903137207,4.367023944854736,-0.016759412363171577
1788650070880037600,12.26903759765625,9.478644371032715,4.395754337310791,0.08619125932455063
1788650070896073500,12.285073486328125,8.772355079650879,4.577713489532471,0.13407529890537262
1788650070912140800,12.301140869140625,8.219294548034668,4.797980308532715,0.2777273952960968
1788650070928162600,12.31716259765625,8.154650688171387,5.03021764755249,0.42616790533065796
1788650070944263700,12.333263671875,8.377311706542969,5.039794445037842,0.3878606855869293
1788650070960286500,12.349286376953126,8.83699893951416,4.977545261383057,0.05027823522686958
1788650070976305700,12.3653056640625,8.757989883422852,4.843470096588135,-0.17717093229293823
1788650070992372500,12.38137255859375,8.647856712341309,4.817133903503418,-0.2346317619085312
1788650071008406000,12.397406005859375,8.439560890197754,4.778826713562012,-0.1173158809542656
1788650071024510700,12.4135107421875,8.360552787780762,4.76924991607666,0.05985504388809204
1788650071040545000,12.429544921875,8.374917984008789,4.809951305389404,0.24181437492370605
1788650071056583700,12.445583740234374,8.609549522399902,4.850652694702148,0.2561795711517334
1788650071072648000,12.46164794921875,8.731653213500977,4.884171485900879,0.13168109953403473
1788650071088685300,12.477685302734375,8.719682693481445,4.896142482757568,0.21547815203666687
1788650071104757000,12.493757080078124,8.501810073852539,5.0254292488098145,0.2968810200691223
1788650071120803600,12.509803466796875,8.324639320373535,5.195417881011963,0.36152446269989014
1788650071136834000,12.525833984375,8.324639320373535,5.1810526847839355,0.5027823448181152
1788650071152901600,12.541901611328125,8.396465301513672,5.1331682205200195,0.5123591423034668
1788650071168951000,12.557950927734375,8.635885238647461,5.066130638122559,0.3447650372982025
1788650071185027600,12.574027587890624,8.923190116882324,4.8937482833862305,0.19871874153614044
1788650071201079800,12.590079833984374,9.0859956741333,4.78122091293335,0.12210428714752197
1788650071217136600,12.60613671875,9.083600997924805,4.704606533050537,0.17956513166427612
1788650071233253000,12.622253173828126,8.932766914367676,4.716577529907227,0.19632454216480255
1788650071249264000,12.63826416015625,8.769960403442383,4.72376012802124,0.1388636976480484
1788650071265355500,12.65435546875,8.65982723236084,4.711789131164551,0.021547814831137657
1788650071281375200,12.670375244140626,8.645462036132812,4.709394931793213,-0.05267243832349777
1788650071297394700,12.686394775390625,8.607154846191406,4.692635536193848,-0.028730420395731926
1788650071313463300,12.70246337890625,8.607154846191406,4.69024133682251,-0.0454898327589035
1788650071329479400,12.7184794921875,8.635885238647461,4.654327869415283,-0.08619125932455063
1788650071345580800,12.734580810546875,8.60236644744873,4.584896087646484,-0.12449848651885986
1788650071361598000,12.750597900390625,8.51138687133789,4.632780075073242,-0.22266076505184174
1788650071377635000,12.766635009765626,8.283937454223633,4.707000732421875,-0.33518823981285095
1788650071393704200,12.7827041015625,8.169015884399414,4.73573112487793,-0.363918662071228
1788650071409725200,12.79872509765625,8.183381080627441,4.754884719848633,-0.38307225704193115
1788650071425803000,12.814802978515624,8.343792915344238,4.733336925506592,-0.44532153010368347
1788650071441825800,12.83082568359375,8.530540466308594,4.692635536193848,-0.40462008118629456
1788650071457849300,12.846849365234375,8.667010307312012,4.6255974769592285,-0.23942017555236816
1788650071473918000,12.86291796875,8.705317497253418,4.639962673187256,-0.19153612852096558
1788650071489950200,12.8789501953125,8.707711219787598,4.654327869415283,-0.19393034279346466
1788650071506011100,12.89501123046875,8.655038833618164,4.6950297355651855,-0.17956513166427612
1788650071522030300,12.9110302734375,8.528146743774414,4.750096321105957,-0.14365209639072418
1788650071538066700,12.927066650390625,8.44434928894043,4.81473970413208,-0.16998831927776337
1788650071554133800,12.9431337890625,8.554482460021973,4.855441093444824,-0.22266076505184174
1788650071570177300,12.95917724609375,8.619126319885254,4.788403511047363,-0.28730419278144836
1788650071586248200,12.975248291015625,8.540117263793945,4.817133903503418,-0.4884171485900879
1788650071602264000,12.99126416015625,8.427590370178223,4.8267107009887695,-0.6009446382522583
1788650071618279700,13.00727978515625,8.425195693969727,4.795586109161377,-0.7015010714530945
1788650071634346800,13.0233466796875,8.676587104797363,4.766855716705322,-0.7709329724311829
1788650071650400000,13.03939990234375,8.882488250732422,4.707000732421875,-0.6967126727104187
1788650071666480600,13.055480712890626,8.98543930053711,4.685452938079834,-0.5722141861915588
1788650071682500900,13.0715009765625,8.954314231872559,4.704606533050537,-0.3711012601852417
1788650071698539800,13.087539794921875,8.825027465820312,4.704606533050537,-0.14365209639072418
1788650071714609000,13.10360888671875,8.585607528686523,4.716577529907227,0.17477671802043915
1788650071730667300,13.119667236328125,8.336610794067383,4.754884719848633,0.3734954595565796
1788650071746756600,13.135756591796875,8.35336971282959,4.738125324249268,0.4189853072166443
1788650071762776000,13.151776123046876,8.523358345031738,4.704606533050537,0.3519476354122162
1788650071778794500,13.16779443359375,8.686163902282715,4.671087741851807,0.2298433631658554
1788650071794866200,13.1838662109375,8.846575736999512,4.63517427444458,0.18914192914962769
1788650071810888000,13.199887939453125,8.856152534484863,4.661510944366455,0.16759411990642548
1788650071826983400,13.2159833984375,8.834604263305664,4.675876140594482,0.1173158809542656
1788650071843008000,13.232008056640625,8.813055992126465,4.63517427444458,0.021547814831137657
1788650071859048700,13.248048583984374,8.947132110595703,4.594472885131836,-0.05985504388809204
1788650071875121400,13.264121337890625,9.165003776550293,4.54419469833374,-0.08619125932455063
1788650071891151400,13.2801513671875,9.337387084960938,4.501099109649658,-0.033518824726343155
1788650071907251200,13.296251220703125,9.220070838928223,4.541800498962402,0.07182604819536209
1788650071923274200,13.312274169921874,9.057265281677246,4.55616569519043,0.10055647045373917
1788650071939292700,13.328292724609375,8.913613319396973,4.584896087646484,0.181959331035614
1788650071955360800,13.34436083984375,8.846575736999512,4.577713489532471,0.19871874153614044
1788650071971393500,13.3603935546875,8.877699851989746,4.501099109649658,0.19632454216480255
1788650071987457500,13.37645751953125,9.042900085449219,4.455609321594238,0.15801730751991272
1788650072003492600,13.39249267578125,9.090784072875977,4.460397720336914,0.1412578970193863
1788650072019525400,13.408525390625,9.07641887664795,4.4723687171936035,0.19153612852096558
1788650072035587300,13.42458740234375,8.966285705566406,4.570530891418457,0.21787235140800476
1788650072051624700,13.440624755859375,8.868123054504395,4.699818134307861,0.2322375625371933
1788650072067684600,13.4566845703125,8.793902397155762,4.687847137451172,0.22026655077934265
1788650072083732700,13.472732666015625,8.851364135742188,4.663905143737793,0.11252748221158981
1788650072099766500,13.4887666015625,8.93037223815918,4.659116744995117,-0.004788403399288654
1788650072115833900,13.504833740234375,8.916007041931152,4.730942726135254,-0.14604631066322327
1788650072131888600,13.520888671875,8.923190116882324,4.797980308532715,-0.22266076505184174
1788650072147965000,13.53696484375,8.786720275878906,4.912901878356934,-0.26336219906806946
1788650072164012500,13.553012451171876,8.573636054992676,5.032611846923828,-0.2298433631658554
1788650072180050200,13.56905029296875,8.288725852966309,5.1116204261779785,-0.17238251864910126
1788650072196164400,13.585164306640625,8.008605003356934,5.195417881011963,-0.1149216815829277
1788650072212180200,13.60118017578125,7.929595947265625,5.20978307723999,-0.05027823522686958
1788650072228267300,13.617267333984374,8.10437297821045,5.183446884155273,0.0694318488240242
1788650072244285700,13.63328564453125,8.281543731689453,5.1331682205200195,0.10055647045373917
1788650072260303400,13.649303466796875,8.341399192810059,5.147533416748047,-0.043095629662275314
1788650072276419300,13.66541943359375,8.236053466796875,5.109226226806641,-0.10534487664699554
1788650072292436500,13.6814365234375,8.068459510803223,5.109226226806641,-0.20111294090747833
1788650072308529700,13.69752978515625,7.908048152923584,5.154716491699219,-0.272938996553421
1788650072324551000,13.713551025390625,7.790732383728027,5.200206279754639,-0.19393034279346466
1788650072340587800,13.729587890625,7.532158374786377,5.236119270324707,-0.20350714027881622
1788650072356657000,13.745656982421876,7.508216381072998,5.22175407409668,-0.08140286058187485
1788650072372682000,13.761681884765625,7.805097579956055,5.12119722366333,0.021547814831137657
1788650072388750300,13.777750244140625,8.066065788269043,5.099649429321289,0.0071826050989329815
1788650072404764200,13.79376416015625,8.221688270568848,5.035006046295166,0.1388636976480484
1788650072420780800,13.80978076171875,8.300697326660156,5.018246650695801,0.2561795711517334
1788650072436847600,13.82584765625,8.334216117858887,5.061342239379883,0.3734954595565796
1788650072452881400,13.84188134765625,8.348581314086914,5.183446884155273,0.40222588181495667
1788650072468947700,13.85794775390625,8.463502883911133,5.284003257751465,0.4357447028160095
1788650072484968700,13.87396875,8.547300338745117,5.276820659637451,0.4644751250743866
1788650072501004800,13.8900048828125,8.65982723236084,5.339069843292236,0.4213795065879822
1788650072517079300,13.906079345703125,8.578424453735352,5.39174222946167,0.4165911078453064
1788650072533123600,13.92212353515625,8.434772491455078,5.4444146156311035,0.3687070608139038
1788650072549193700,13.93819384765625,8.516175270080566,5.497087001800537,0.18914192914962769
1788650072565211000,13.9542109375,8.695740699768066,5.458779811859131,-0.05746084079146385
1788650072581228000,13.97022802734375,8.89445972442627,5.418078422546387,-0.16519992053508759
1788650072597295000,13.986295166015625,9.062053680419922,5.293580055236816,-0.043095629662275314
1788650072613343000,14.002343017578125,9.220070838928223,5.272032260894775,-0.22266076505184174
1788650072629432600,14.0184326171875,9.126696586608887,5.544970989227295,-0.5195417404174805
1788650072645452000,14.0344521484375,9.11233139038086,5.664681434631348,-0.395043283700943
1788650072661488400,14.05048828125,9.064447402954102,5.585672378540039,-0.31603461503982544
1788650072677559300,14.066559326171875,9.351752281188965,5.564124584197998,-0.3280056416988373
1788650072693615000,14.082614990234376,9.86889934539795,5.252878665924072,-0.19393034279346466
1788650072709707300,14.098707275390625,10.512939453125,4.836287498474121,-0.1412578970193863
1788650072725730300,14.114730224609374,11.092336654663086,4.350264549255371,-0.40462008118629456
1788650072741749800,14.130749755859375,11.403582572937012,4.036623954772949,-0.5889736413955688
1788650072757796000,14.146796142578125,11.286267280578613,3.7924153804779053,-0.6009446382522583
1788650072773869600,14.16286962890625,10.615890502929688,3.687070608139038,-0.5937620401382446
1788650072789971000,14.178970947265626,9.713275909423828,3.7205893993377686,-0.5746083855628967
1788650072805993200,14.1949931640625,9.097966194152832,3.711012601852417,-0.5315127968788147
1788650072822028000,14.211028076171875,8.604761123657227,3.7229835987091064,-0.5434837937355042
1788650072838098200,14.22709814453125,8.341399192810059,3.8762125968933105,-0.5530605912208557
1788650072854126000,14.2431259765625,8.219294548034668,3.9911341667175293,-0.43095630407333374
1788650072870233600,14.259233642578126,8.121131896972656,4.034229755401611,-0.304063618183136
1788650072886261000,14.275260986328124,8.161833763122559,3.97916316986084,-0.37828385829925537
1788650072902277000,14.291277099609376,8.377311706542969,3.8762125968933105,-0.33758243918418884
1788650072918345000,14.307344970703125,8.44434928894043,3.840299606323242,-0.21308395266532898
1788650072934384000,14.323384033203125,8.324639320373535,3.9049429893493652,-0.031124621629714966
1788650072950450000,14.339449951171876,7.970297336578369,4.01268196105957,0.05746084079146385
1788650072966488600,14.355488525390625,7.55131196975708,4.062960147857666,0.05027823522686958
1788650072982524400,14.3715244140625,7.261613845825195,4.0964789390563965,0.023942016065120697
1788650072998592000,14.387592041015624,7.168240070343018,4.158728122711182,0.038307227194309235
1788650073014632700,14.4036328125,7.1921820640563965,4.235342979431152,0.1412578970193863
1788650073030700000,14.419699951171875,7.273584842681885,4.290409564971924,0.21308395266532898
1788650073046744000,14.435744140625,7.419631004333496,4.383783340454102,0.17956513166427612
1788650073062773500,14.4517734375,7.627926826477051,4.426878929138184,0.08858546614646912
1788650073078836200,14.467836181640624,7.759607791900635,4.496310710906982,0.009576806798577309
1788650073094892000,14.48389208984375,7.915230751037598,4.584896087646484,-0.031124621629714966
1788650073110965200,14.49996533203125,8.090007781982422,4.596867084503174,-0.023942016065120697
1788650073126982400,14.515982421875,8.463502883911133,4.649539470672607,-0.07900865375995636
1788650073143018000,14.53201806640625,8.791508674621582,4.654327869415283,-0.047884032130241394
1788650073159129000,14.548129150390626,9.141061782836914,4.666299343109131,-0.0454898327589035
1788650073175140900,14.564140869140624,9.20091724395752,4.821922302246094,-0.2106897532939911
1788650073191230000,14.58022998046875,9.14345645904541,4.934449672698975,-0.49559974670410156
1788650073207244500,14.59624462890625,9.224859237670898,5.04218864440918,-0.6057330369949341
1788650073223257300,14.61225732421875,9.428366661071777,5.272032260894775,-0.7086837291717529
1788650073239321600,14.628321533203126,9.651026725769043,5.353435039520264,-0.47165772318840027
1788650073255337000,14.6443369140625,9.708487510681152,5.408501625061035,-0.31842881441116333
1788650073271434200,14.660434326171876,9.605537414550781,5.310339450836182,-0.12928688526153564
1788650073287452700,14.67645263671875,9.66539192199707,5.219359874725342,-0.1604115068912506
1788650073303489500,14.692489501953125,9.797073364257812,5.228936672210693,-0.31364041566848755
1788650073319554800,14.708554931640625,9.955090522766113,5.583278179168701,-0.5267243981361389
1788650073335584800,14.724584716796874,10.022128105163574,5.590460777282715,-0.3926490843296051
1788650073351691000,14.74069091796875,10.038887977600098,5.322310447692871,-0.35913026332855225
1788650073367709000,14.756708984375,10.232817649841309,4.987122058868408,-0.3280056416988373
1788650073383728400,14.772728271484375,10.673351287841797,4.446032524108887,-0.3016694188117981
1788650073399797500,14.788797607421875,11.250353813171387,3.866635799407959,-0.4141969084739685
1788650073415809800,14.804809814453124,11.319786071777344,3.4979286193847656,-0.3878606855869293
1788650073431861000,14.820861083984376,10.47702693939209,3.6343982219696045,-0.023942016065120697
1788650073447880400,14.83688037109375,9.002198219299316,3.797203779220581,0.33997663855552673
1788650073463912700,14.85291259765625,7.620744228363037,3.823540210723877,0.730231523513794
1788650073479957800,14.868957763671874,6.9240312576293945,3.9049429893493652,1.0247182846069336
1788650073495990300,14.884990234375,6.878541469573975,4.098873138427734,1.4173674583435059
1788650073512041200,14.901041259765625,7.007828235626221,4.261679172515869,1.7980455160140991
1788650073528056000,14.91705615234375,7.259219646453857,4.194641590118408,1.9057846069335938
1788650073544072200,14.933072265625,7.702147006988525,3.9839515686035156,1.5490485429763794
1788650073560139000,14.949138916015626,8.334216117858887,3.73016619682312,1.115697979927063
1788650073576175900,14.96517578125,9.08838939666748,3.509899616241455,0.8307880163192749
1788650073592239600,14.981239501953125,9.763554573059082,3.4117374420166016,0.6224924325942993
1788650073608254000,14.99725390625,10.036493301391602,3.3710360527038574,0.5219359993934631
1788650073624287700,15.013287841796876,9.739612579345703,3.5410242080688477,0.18914192914962769
1788650073640355000,15.02935498046875,9.026140213012695,3.6798880100250244,0.038307227194309235
1788650073656406300,15.04540625,8.329427719116211,3.845088005065918,-0.09816227108240128
1788650073672489200,15.0614892578125,7.671022415161133,3.998316764831543,-0.16759411990642548
1788650073688505000,15.077505126953126,7.338228225708008,4.199429988861084,-0.1867477297782898
1788650073704521700,15.093521728515626,7.187393665313721,4.378994941711426,-0.15562310814857483
1788650073720577000,15.109576904296874,7.242460250854492,4.520252704620361,-0.1364694982767105
1788650073736598500,15.1255986328125,7.352593421936035,4.651933670043945,-0.11013327538967133
1788650073752702000,15.141701904296875,7.642292022705078,4.750096321105957,-0.11252748221158981
1788650073768717300,15.15771728515625,8.085219383239746,4.7620673179626465,-0.08379705995321274
1788650073784748800,15.173748779296876,8.520963668823242,4.730942726135254,0.014365210197865963
1788650073800814000,15.18981396484375,8.671798706054688,4.707000732421875,0.12689268589019775
1788650073816834300,15.205834228515625,8.683769226074219,4.76924991607666,0.1867477297782898
1788650073832933600,15.22193359375,8.774748802185059,4.862623691558838,0.17477671802043915
1788650073848949800,15.23794970703125,8.813055992126465,4.929661273956299,0
1788650073864964400,15.25396435546875,8.87051773071289,5.070919036865234,-0.1628057211637497
1788650073881028600,15.270028564453124,9.047688484191895,5.200206279754639,-0.18914192914962769
1788650073897048300,15.28604833984375,9.26795482635498,5.152322292327881,-0.19632454216480255
1788650073913114000,15.302114013671876,9.634267807006836,4.879383087158203,-0.1364694982767105
1788650073929149000,15.31814892578125,10.144232749938965,4.668693542480469,-0.09576806426048279
1788650073945178600,15.3341787109375,10.38604736328125,4.8482584953308105,-0.38546648621559143
1788650073961246700,15.350246826171874,10.103530883789062,5.12119722366333,-0.3232172429561615
1788650073977292800,15.366292724609375,9.557653427124023,5.104437828063965,-0.43095630407333374
1788650073993365000,15.382364990234375,9.533711433410645,5.238513469696045,-1.1324573755264282
1788650074009408000,15.398407958984375,10.268731117248535,5.147533416748047,-1.4748282432556152
1788650074025431000,15.41443115234375,11.216835021972656,4.81473970413208,-1.3766659498214722
1788650074041470000,15.430469970703125,12.09550666809082,4.364629745483398,-1.2401964664459229
1788650074057494500,15.44649462890625,12.15057373046875,3.9887399673461914,-1.2066776752471924
1788650074073552100,15.46255224609375,11.003750801086426,3.8738183975219727,-1.3455413579940796
1788650074089567500,15.4785673828125,9.567230224609375,3.936067581176758,-1.4724340438842773
1788650074105570000,15.494570068359375,8.62391471862793,3.8953661918640137,-1.2761094570159912
1788650074121654000,15.510654052734376,8.360552787780762,3.84269380569458,-1.381454348564148
1788650074137661000,15.526660888671875,8.42040729522705,3.7205893993377686,-1.4652514457702637
1788650074153751600,15.54275146484375,8.42040729522705,3.603273630142212,-1.4867992401123047
1788650074169780700,15.55878076171875,8.281543731689453,3.4955344200134277,-1.3958195447921753
1788650074185794800,15.574794921875,7.999027729034424,3.488351821899414,-1.1994950771331787
1788650074201860400,15.5908603515625,7.7213006019592285,3.5649664402008057,-0.8475474119186401
1788650074217883000,15.6068828125,7.5632829666137695,3.5889084339141846,-0.5315127968788147
1788650074233980700,15.622980712890625,7.570465564727783,3.557783842086792,-0.21547815203666687
1788650074249997800,15.638997802734375,7.55131196975708,3.6367924213409424,0
1788650074266026000,15.65502587890625,7.38132381439209,3.7445313930511475,0.19871874153614044
1788650074282091300,15.67109130859375,7.15387487411499,3.883395195007324,0.26575639843940735
1788650074298115000,15.687114990234376,6.9695210456848145,4.048594951629639,0.28969839215278625
1788650074314218500,15.703218505859375,6.97430944442749,4.216189384460449,0.1628057211637497
1788650074330233600,15.719233642578125,7.436390399932861,4.316745758056641,-0.11013327538967133
1788650074346247200,15.7352470703125,8.152256965637207,4.359841346740723,-0.45489832758903503
1788650074362312400,15.7513125,9.01895809173584,4.352658748626709,-0.6536170840263367
1788650074378347500,15.767347412109375,9.567230224609375,4.410119533538818,-0.6009446382522583
1788650074394410500,15.783410400390625,9.526528358459473,4.446032524108887,-0.33758243918418884
1788650074410421500,15.79942138671875,9.0859956741333,4.6040496826171875,-0.07900865375995636
1788650074426448000,15.81544775390625,8.437167167663574,4.730942726135254,0.05027823522686958
1788650074442511000,15.831510986328125,7.994239330291748,4.766855716705322,0.08858546614646912
1788650074458551000,15.847551025390626,8.133103370666504,4.738125324249268,-0.033518824726343155
1788650074474621400,15.863621337890624,8.446743965148926,4.752490520477295,-0.19153612852096558
1788650074490637000,15.879636962890626,8.571242332458496,5.003881454467773,-0.4165911078453064
1788650074506653200,15.895653076171875,8.504204750061035,5.216965675354004,-0.5003881454467773
1788650074522722600,15.91172265625,8.62630844116211,5.403713226318359,-0.5602431893348694
1788650074538777600,15.927777587890626,8.884882926940918,5.51624059677124,-0.5722141861915588
1788650074554863900,15.94386376953125,9.006986618041992,5.547365188598633,-0.586579442024231
1788650074570884900,15.959884765625,9.258378028869629,5.382165431976318,-0.5602431893348694
1788650074586921000,15.9759208984375,9.670180320739746,5.353435039520264,-0.8379706144332886
1788650074602994000,15.991993896484376,9.909601211547852,5.781997203826904,-1.41257905960083
1788650074619012600,16.0080126953125,9.713275909423828,5.815515995025635,-0.8571242094039917
1788650074635110100,16.024110107421876,9.579200744628906,5.4659624099731445,-0.5267243981361389
1788650074651130000,16.040130126953127,10.14902114868164,5.1595048904418945,-0.5291185975074768
1788650074667147000,16.05614697265625,11.080365180969238,4.663905143737793,-0.49559974670410156
1788650074683191600,16.072191650390625,11.645397186279297,4.280832767486572,-0.6248866319656372
1788650074699242200,16.0882421875,11.36048698425293,4.060565948486328,-0.7613561153411865
1788650074715336200,16.104336181640626,10.522516250610352,4.015076160430908,-0.7110779285430908
1788650074731361800,16.12036181640625,9.533711433410645,3.9432501792907715,-0.45250412821769714
1788650074747396600,16.136396728515624,8.710105895996094,3.9240965843200684,-0.29209262132644653
1788650074763451100,16.152451171875,7.970297336578369,3.950432777404785,-0.0694318488240242
1788650074779461000,16.168461181640627,7.364564418792725,4.062960147857666,0.16519992053508759
1788650074795549200,16.184549072265625,7.182605266571045,4.072536945343018,0.4620809257030487
1788650074811576300,16.200576416015625,7.515398979187012,3.931279182434082,0.8547300100326538
1788650074827595000,16.216594970703124,8.008605003356934,3.8738183975219727,1.3431471586227417
1788650074843661300,16.232661376953125,8.62630844116211,3.8307228088378906,1.867477297782898
1788650074859692000,16.248692138671874,9.220070838928223,3.512293815612793,2.1116859912872314
1788650074875798300,16.26479833984375,9.311050415039062,3.3016040325164795,1.920149803161621
1788650074891828500,16.280828369140625,9.059659004211426,3.2154128551483154,1.5394717454910278
1788650074907873000,16.296873046875,9.105149269104004,3.268085241317749,0.9911994934082031
1788650074923943200,16.312943115234376,9.361329078674316,3.2561142444610596,0.4405331015586853
1788650074939986400,16.328986328125,9.385271072387695,3.315969467163086,0.09816227108240128
1788650074956053800,16.3450537109375,9.0859956741333,3.529053211212158,-0.2753331959247589
1788650074972096800,16.3610966796875,8.379706382751465,3.7229835987091064,-0.47884035110473633
1788650074988130600,16.377130615234375,7.709329605102539,3.9217023849487305,-0.7852981686592102
1788650075004198100,16.3931982421875,7.364564418792725,4.091690540313721,-1.0869675874710083
1788650075020210000,16.4092099609375,7.383718013763428,4.206612586975098,-1.192312479019165
1788650075036260900,16.4252607421875,7.445967197418213,4.266467571258545,-1.070208191871643
1788650075052284700,16.44128466796875,7.68538761138916,4.3406877517700195,-0.9959878921508789
1788650075068323800,16.45732373046875,7.943961143493652,4.3622355461120605,-0.7589619159698486
1788650075084397000,16.47339697265625,8.255207061767578,4.4077253341674805,-0.5722141861915588
1788650075100413200,16.4894130859375,8.482656478881836,4.400542736053467,-0.45250412821769714
1788650075116511700,16.50551171875,8.616731643676758,4.460397720336914,-0.3016694188117981
1788650075132536800,16.521536865234374,8.62630844116211,4.49870491027832,-0.19632454216480255
1788650075148559600,16.5375595703125,8.492233276367188,4.594472885131836,-0.19632454216480255
1788650075164630500,16.553630615234376,8.26478385925293,4.728548526763916,-0.272938996553421
1788650075180655900,16.56965576171875,8.188169479370117,4.884171485900879,-0.27054479718208313
1788650075196759300,16.58575927734375,8.343792915344238,5.094861030578613,-0.181959331035614
1788650075212779800,16.60177978515625,8.607154846191406,5.245696067810059,-0.05985504388809204
1788650075228812300,16.617812255859373,8.827422142028809,5.284003257751465,-0.002394201699644327
1788650075244877000,16.633876953125,9.117119789123535,5.023035049438477,0.011971008032560349
1788650075260905700,16.64990576171875,9.576807022094727,4.618414878845215,0.05985504388809204
1788650075276970800,16.665970703125,10.196905136108398,4.383783340454102,-0.043095629662275314
1788650075292993300,16.6819931640625,10.754754066467285,4.426878929138184,-0.2513911724090576
1788650075309011700,16.69801171875,10.769119262695312,4.716577529907227,-0.4836287498474121
1788650075325080300,16.714080322265627,10.271124839782715,4.809951305389404,-0.38546648621559143
1788650075341121800,16.730121826171874,9.782708168029785,5.142745018005371,-0.7565677165985107
1788650075357186300,16.746186279296875,9.773131370544434,5.231330871582031,-1.1204863786697388
1788650075373209300,16.762209228515626,10.120290756225586,4.999093055725098,-1.4245500564575195
1788650075389252000,16.778252197265626,10.828974723815918,4.563348293304443,-1.8794482946395874
1788650075405299500,16.794299560546875,11.396400451660156,4.228160381317139,-2.030282974243164
1788650075421330700,16.81033056640625,11.736376762390137,3.7852327823638916,-2.0374655723571777
1788650075437408500,16.826408447265624,11.372458457946777,3.383007049560547,-2.2026655673980713
1788650075453429200,16.84242919921875,10.54645824432373,3.201047658920288,-2.2457611560821533
1788650075469452300,16.858452392578126,9.442731857299805,3.160346269607544,-2.049436569213867
1788650075485501700,16.874501708984376,8.358158111572266,3.1866824626922607,-1.8363527059555054
1788650075501549300,16.89054931640625,7.493851184844971,3.265691041946411,-1.6519991159439087
1788650075517620700,16.906620849609375,7.046135425567627,3.404554843902588,-1.2401964664459229
1788650075533643300,16.922643310546874,7.024587631225586,3.6104562282562256,-0.7589619159698486
1788650075549682400,16.938682373046873,7.19936466217041,3.7229835987091064,-0.13407529890537262
1788650075565750800,16.954750732421875,7.599195957183838,3.6559460163116455,0.06703764945268631
1788650075581806000,16.97080615234375,8.307879447937012,3.4117374420166016,0.031124621629714966
1788650075597904000,16.98690380859375,9.2033109664917,3.1723172664642334,-0.11013327538967133
1788650075613925000,17.002925048828125,9.859322547912598,3.093308687210083,-0.1628057211637497
1788650075629938700,17.018938720703126,10.323798179626465,3.1004912853240967,-0.21787235140800476
1788650075645987000,17.034987060546875,10.1753568649292,3.1244332790374756,-0.13168109953403473
1788650075662004700,17.051004638671873,9.473855972290039,3.2130186557769775,-0.06224924325942993
1788650075678058500,17.06705859375,8.559270858764648,3.3638534545898438,-0.05267243832349777
1788650075694074000,17.08307421875,7.939172744750977,3.5386300086975098,-0.028730420395731926
1788650075710105900,17.09910595703125,7.603984832763672,3.7181951999664307,-0.014365210197865963
1788650075726164700,17.115164794921874,7.5632829666137695,3.8546648025512695,-0.05746084079146385
1788650075742191000,17.131191162109374,7.723694801330566,3.9408559799194336,-0.21787235140800476
1788650075758292000,17.1472919921875,7.924807548522949,4.062960147857666,-0.31842881441116333
1788650075774319400,17.1633193359375,8.092401504516602,4.1874589920043945,-0.28730419278144836
1788650075790336300,17.179336181640625,8.303091049194336,4.338293552398682,-0.26096799969673157
1788650075806403000,17.195403076171875,8.62630844116211,4.434061527252197,-0.2753331959247589
1788650075822443800,17.21144384765625,9.002198219299316,4.458003520965576,-0.31364041566848755
1788650075838515000,17.227514892578125,9.330204010009766,4.467580318450928,-0.31603461503982544
1788650075854554000,17.24355419921875,9.485827445983887,4.491522312164307,-0.395043283700943
1788650075870593300,17.25959326171875,9.473855972290039,4.63517427444458,-0.5674257874488831
1788650075886661400,17.275661376953124,9.375694274902344,4.819528102874756,-0.6727706789970398
1788650075902708500,17.29170849609375,9.258378028869629,4.8722004890441895,-0.6799532771110535
1788650075918797000,17.307797119140623,9.102754592895508,4.888959884643555,-0.7206547260284424
1788650075934843600,17.32384375,8.935160636901855,4.865017890930176,-0.6967126727104187
1788650075950881500,17.339881591796875,8.827422142028809,4.8482584953308105,-0.6584054827690125
1788650075966986500,17.355986572265625,8.779537200927734,4.793191909790039,-0.5817909836769104
1788650075982997200,17.371997314453125,8.923190116882324,4.836287498474121,-0.5770025849342346
1788650075999087000,17.388087158203124,9.01895809173584,4.95120906829834,-0.5027823448181152
1788650076015103700,17.404103759765626,8.832210540771484,4.924872875213623,-0.4429273009300232
1788650076031138000,17.420137939453124,8.631096839904785,4.965574264526367,-0.6560112833976746
1788650076047201500,17.436201416015624,8.485051155090332,5.370194435119629,-0.8020575642585754
1788650076063211800,17.452211669921876,8.44434928894043,5.4444146156311035,-0.3256114423274994
1788650076079314700,17.468314697265626,8.324639320373535,5.463568210601807,0.026336219161748886
1788650076095330000,17.484330078125,8.544905662536621,5.3127336502075195,0.24660277366638184
1788650076111344400,17.500344482421873,9.011775016784668,4.821922302246094,0.6631938815116882
1788650076127409200,17.5164091796875,9.732429504394531,4.302380561828613,0.8331822156906128
1788650076143423500,17.532423583984375,10.32858657836914,3.955221176147461,0.6057330369949341
1788650076159522000,17.54852197265625,10.424354553222656,3.6727054119110107,0.0933738648891449
1788650076175543800,17.564543701171875,10.18493366241455,3.5218706130981445,-0.23942017555236816
1788650076191579100,17.5805791015625,9.622296333312988,3.4596214294433594,-0.31603461503982544
1788650076207648800,17.596648681640627,8.78432559967041,3.56017804145813,-0.05985504388809204
1788650076223678200,17.61267822265625,7.9846625328063965,3.643975019454956,0.06464344263076782
1788650076239728600,17.628728759765625,7.304709434509277,3.8067808151245117,0.2298433631658554
1788650076255748600,17.64474853515625,7.0126166343688965,4.055777549743652,0.5386953949928284
1788650076271770600,17.6607705078125,7.137115478515625,4.218583583831787,0.8164227604866028
1788650076287829000,17.6768291015625,7.929595947265625,4.175487995147705,0.8954314589500427
1788650076303874000,17.6928740234375,9.059659004211426,3.825934410095215,0.9409212470054626
1788650076319928300,17.70892822265625,10.225635528564453,3.5194764137268066,1.2545616626739502
1788650076335949000,17.724948974609376,11.671732902526855,3.1938650608062744,1.4245500564575195
1788650076351981800,17.74098193359375,12.203246116638184,2.9448680877685547,1.3479355573654175
1788650076368028000,17.75702783203125,11.463438034057617,2.918531894683838,0.6967126727104187
1788650076384052700,17.773052734375,10.335768699645996,3.023876667022705,0.20111294090747833
1788650076400109000,17.789109130859377,9.47146224975586,3.2561142444610596,-0.033518824726343155
1788650076416128500,17.80512841796875,8.78432559967041,3.5386300086975098,-0.15562310814857483
1788650076432147000,17.82114697265625,8.233659744262695,3.6391866207122803,-0.2561795711517334
1788650076448199400,17.837199462890624,7.905653953552246,3.7876269817352295,-0.4357447028160095
1788650076464246800,17.853246826171876,7.8314337730407715,3.9264907836914062,-0.48602294921875
1788650076480325600,17.86932568359375,7.989450931549072,4.060565948486328,-0.4692635238170624
1788650076496339700,17.885339599609374,8.396465301513672,4.1180267333984375,-0.44771572947502136
1788650076512371000,17.901370849609375,8.731653213500977,4.197035789489746,-0.3519476354122162
1788650076528437800,17.917437744140624,8.815450668334961,4.393360137939453,-0.2106897532939911
1788650076544459500,17.93345947265625,8.695740699768066,4.520252704620361,-0.028730420395731926
1788650076560551700,17.9495517578125,8.650250434875488,4.481945514678955,0.05506663769483566
1788650076576569000,17.965569091796876,8.983044624328613,4.405331134796143,-0.0454898327589035
1788650076592585700,17.981585693359374,9.57201862335205,4.2329487800598145,-0.13168109953403473
1788650076608654300,17.997654296875,10.232817649841309,4.072536945343018,-0.12689268589019775
1788650076624681700,18.013681640625,10.500968933105469,4.000710964202881,-0.12928688526153564
1788650076640784400,18.029784423828126,10.393229484558105,3.9432501792907715,-0.15083470940589905
1788650076656813300,18.045813232421875,9.806650161743164,3.976768970489502,-0.1628057211637497
1788650076672848400,18.061848388671876,9.162610054016113,4.043806552886963,-0.0694318488240242
1788650076688922000,18.077922119140624,8.731653213500977,4.132391929626465,0.06464344263076782
1788650076704952300,18.093952392578124,8.552088737487793,4.151545524597168,0.12689268589019775
1788650076721075500,18.110075439453126,8.638279914855957,4.108449935913086,0.11013327538967133
1788650076737110800,18.12611083984375,8.954314231872559,4.101267337799072,-0.047884032130241394
1788650076753126700,18.142126708984375,9.047688484191895,4.036623954772949,0.040701430290937424
1788650076769192400,18.1581923828125,8.882488250732422,4.050989151000977,0.1843535304069519
1788650076785251600,18.17425146484375,8.674192428588867,4.122815132141113,0.2322375625371933
1788650076801315600,18.190315673828124,8.820239067077637,4.240131378173828,0.3256114423274994
1788650076817355800,18.206355712890623,9.033323287963867,4.426878929138184,0.30885201692581177
1788650076833396200,18.222396240234374,9.124302864074707,4.4939165115356445,0.3447650372982025
1788650076849467600,18.238467529296877,8.743624687194824,4.534617900848389,0.31842881441116333
1788650076865520400,18.254520263671875,8.31985092163086,4.572925090789795,0.2801215946674347
1788650076881592000,18.270592041015625,8.346187591552734,4.448426723480225,0.42377370595932007
1788650076897636400,18.28663623046875,8.987833023071289,4.2951979637146,0.3519476354122162
1788650076913654300,18.302654296875,9.744400978088379,4.1395745277404785,0.16759411990642548
1788650076929759500,18.318759521484374,10.031704902648926,4.0294413566589355,0.004788403399288654
1788650076945769700,18.334769775390626,9.801861763000488,4.065354347229004,-0.17238251864910126
1788650076961862700,18.350862548828125,9.141061782836914,4.225766181945801,-0.2322375625371933
1788650076977884200,18.36688427734375,8.4108304977417,4.381389141082764,-0.12928688526153564
1788650076993918200,18.382918212890626,7.90086555480957,4.534617900848389,-0.09576806426048279
1788650077010037800,18.399037841796876,7.769184589385986,4.63517427444458,-0.043095629662275314
1788650077026053600,18.4150537109375,7.922413349151611,4.651933670043945,0.07900865375995636
1788650077042152200,18.431152099609374,8.255207061767578,4.630385875701904,0.24420857429504395
1788650077058172200,18.447172119140625,8.65743350982666,4.687847137451172,0.3734954595565796
1788650077074192100,18.463192138671875,8.911218643188477,4.6950297355651855,0.43095630407333374
1788650077090264300,18.479264404296874,8.916007041931152,4.659116744995117,0.31124621629714966
1788650077106294500,18.49529443359375,8.851364135742188,4.644751071929932,0.12928688526153564
1788650077122401000,18.511401123046873,8.841787338256836,4.644751071929932,-0.019153613597154617
1788650077138419700,18.527419677734375,8.908824920654297,4.651933670043945,-0.15322890877723694
1788650077154455800,18.543455810546874,8.949525833129883,4.668693542480469,-0.1843535304069519
1788650077170523600,18.559523681640623,8.944737434387207,4.620809078216553,-0.2322375625371933
1788650077186567000,18.57556689453125,8.860940933227539,4.639962673187256,-0.272938996553421
1788650077202678300,18.59167822265625,8.688557624816895,4.69024133682251,-0.21787235140800476
1788650077218700300,18.6077001953125,8.449137687683105,4.675876140594482,-0.17238251864910126
1788650077234718700,18.62371875,8.324639320373535,4.730942726135254,-0.22744916379451752
1788650077250785500,18.63978564453125,8.322244644165039,4.72376012802124,-0.3064578175544739
1788650077266824200,18.65582421875,8.494627952575684,4.721365928649902,-0.3280056416988373
1788650077282901800,18.67190185546875,8.767566680908203,4.721365928649902,-0.3256114423274994
1788650077298922000,18.687921875,8.942343711853027,4.704606533050537,-0.3495534360408783
1788650077314955800,18.703955810546876,9.045293807983398,4.687847137451172,-0.38067805767059326
1788650077331020000,18.72002001953125,9.004592895507812,4.671087741851807,-0.4213795065879822
1788650077347067400,18.7360673828125,8.863334655761719,4.6950297355651855,-0.45010992884635925
1788650077363144400,18.75214453125,8.734047889709473,4.687847137451172,-0.3758896589279175
1788650077379166700,18.768166748046873,8.638279914855957,4.714183330535889,-0.3208230137825012
1788650077395188200,18.784188232421876,8.578424453735352,4.709394931793213,-0.26336219906806946
1788650077411260000,18.800260009765626,8.530540466308594,4.687847137451172,-0.20350714027881622
1788650077427321600,18.816321533203126,8.446743965148926,4.675876140594482,-0.10295066982507706
1788650077443414300,18.832414306640626,8.516175270080566,4.666299343109131,-0.14604631066322327
1788650077459438800,18.84843896484375,8.640673637390137,4.661510944366455,-0.2106897532939911
1788650077475479300,18.864479248046877,8.705317497253418,4.656722068786621,-0.17477671802043915
1788650077491550000,18.880550048828123,8.65743350982666,4.680664539337158,-0.16759411990642548
1788650077507574000,18.896573974609375,8.62630844116211,4.683058738708496,-0.26575639843940735
1788650077523668000,18.91266796875,8.631096839904785,4.6950297355651855,-0.3495534360408783
1788650077539691800,18.92869189453125,8.741230010986328,4.69024133682251,-0.35913026332855225
1788650077555711700,18.944711669921876,8.856152534484863,4.709394931793213,-0.38067805767059326
1788650077571782100,18.9607822265625,8.990227699279785,4.716577529907227,-0.31124621629714966
1788650077587806000,18.976805908203126,8.987833023071289,4.7620673179626465,-0.28730419278144836
1788650077603906800,18.99290673828125,8.81784439086914,4.812345504760742,-0.3256114423274994
1788650077619925200,19.00892529296875,8.707711219787598,4.8267107009887695,-0.31842881441116333
1788650077635957800,19.024957763671875,8.731653213500977,4.831499099731445,-0.33997663855552673
1788650077652023600,19.0410234375,8.956708908081055,4.833893299102783,-0.49320554733276367
1788650077668059600,19.0570595703125,9.260771751403809,4.809951305389404,-0.7134721279144287
1788650077684172300,19.07317236328125,9.363722801208496,4.790797710418701,-0.8810662031173706
1788650077700199000,19.089198974609374,9.308655738830566,4.774038314819336,-0.9672574996948242
1788650077716215600,19.105215576171876,9.191340446472168,4.730942726135254,-0.9552865028381348
1788650077732283000,19.121282958984374,8.983044624328613,4.728548526763916,-0.8978256583213806
1788650077748329000,19.137328857421874,8.741230010986328,4.728548526763916,-0.8523358106613159
1788650077764406500,19.153406494140626,8.530540466308594,4.776432514190674,-0.9265560507774353
1788650077780448800,19.16944873046875,8.300697326660156,4.778826713562012,-1.0031704902648926
1788650077796493800,19.185493896484374,8.20732307434082,4.738125324249268,-1.0031704902648926
1788650077812564700,19.201564697265624,8.291120529174805,4.699818134307861,-1.0271124839782715
1788650077828622300,19.217622314453124,8.508993148803711,4.654327869415283,-1.1420341730117798
1788650077844709400,19.23370947265625,8.678980827331543,4.639962673187256,-1.3311761617660522
1788650077860737300,19.2497373046875,8.757989883422852,4.580107688903809,-1.4772224426269531
1788650077876763400,19.265763427734374,8.798690795898438,4.489128112792969,-1.522712230682373
1788650077892880100,19.281880126953126,8.815450668334961,4.4292731285095215,-1.5059528350830078
1788650077908893000,19.297892822265624,8.803479194641113,4.343081951141357,-1.5131354331970215
1788650077924980700,19.313980712890626,8.774748802185059,4.24970817565918,-1.5873557329177856
1788650077940995800,19.329995849609375,8.595184326171875,4.137180328369141,-1.5466543436050415
1788650077957029000,19.346029052734377,8.798690795898438,4.110844135284424,-1.50355863571167
1788650077973091600,19.362091552734373,8.796297073364258,3.998316764831543,-1.2449848651885986
1788650077989104600,19.378104736328126,8.71489429473877,3.995922565460205,-1.6304513216018677
1788650078005202700,19.39420263671875,8.513781547546387,3.998316764831543,-1.7717092037200928
1788650078021218300,19.41021826171875,8.288725852966309,4.022258758544922,-1.8770540952682495
1788650078037233000,19.42623291015625,8.197746276855469,4.153939723968506,-1.9297266006469727
1788650078053296000,19.442296142578126,8.17380428314209,4.137180328369141,-1.7549498081207275
1788650078069318100,19.458318115234373,8.377311706542969,4.1180267333984375,-1.8698714971542358
1788650078085431300,19.474431396484373,8.834604263305664,3.9863457679748535,-2.032677173614502
1788650078101452000,19.4904521484375,9.437943458557129,3.7828385829925537,-2.10210919380188
1788650078117460200,19.506460205078124,9.916783332824707,3.6391866207122803,-2.030282974243164
1788650078133531400,19.522531494140626,10.086771965026855,3.5170822143554688,-1.9369091987609863
1788650078149570000,19.538570068359373,10.012551307678223,3.648763418197632,-1.7262194156646729
1788650078165631000,19.554630859375,9.785101890563965,3.8115692138671875,-1.501164436340332
1788650078181645800,19.570645751953126,9.569623947143555,3.9432501792907715,-1.41257905960083
1788650078197663000,19.5866630859375,9.454702377319336,4.046200752258301,-1.237802267074585
1788650078213731800,19.60273193359375,9.327810287475586,4.1180267333984375,-1.0654197931289673
1788650078229779000,19.618779052734375,9.205705642700195,4.165910720825195,-1.0055646896362305
1788650078245851400,19.634851318359374,9.093177795410156,4.165910720825195,-0.9145850539207458
1788650078261870000,19.6508701171875,9.02135181427002,4.240131378173828,-0.7996633648872375
1788650078277901600,19.666901611328125,8.973467826843262,4.244919776916504,-0.7924807667732239
1788650078293966600,19.682966552734374,9.162610054016113,4.177882194519043,-0.9409212470054626
1788650078310013700,19.699013671875,9.320627212524414,4.077325344085693,-1.048660397529602
1788650078326086700,19.715086669921874,9.466673851013184,4.005499362945557,-1.1755530834197998
1788650078342103600,19.731103515625,9.524134635925293,3.9001545906066895,-1.2234370708465576
1788650078358121700,19.747121826171874,9.457097053527832,3.8331170082092285,-1.2952631711959839
1788650078374189300,19.763189208984375,9.246406555175781,3.6942532062530518,-1.3551181554794312
1788650078390247000,19.779246826171875,9.01895809173584,3.646369218826294,-1.4197616577148438
1788650078406334200,19.795334228515625,8.880094528198242,3.646369218826294,-1.3838485479354858
1788650078422354000,19.81135400390625,8.808267593383789,3.7924153804779053,-1.2425906658172607
1788650078438387000,19.827386962890625,8.643068313598633,4.113238334655762,-1.0342950820922852
1788650078454454800,19.843454833984374,8.449137687683105,4.19224739074707,-0.5650315880775452
1788650078470468400,19.85946826171875,8.427590370178223,4.182670593261719,-0.26575639843940735
1788650078486560300,19.875560302734375,8.71728801727295,4.036623954772949,0.016759412363171577
1788650078502580500,19.89158056640625,9.363722801208496,3.7660791873931885,0.10773907601833344
1788650078518599000,19.907598876953124,10.134655952453613,3.4524388313293457,0.1364694982767105
1788650078534672600,19.923672607421874,10.587160110473633,3.2345664501190186,0.3064578175544739
1788650078550687700,19.939687744140624,10.340557098388672,3.184288263320923,0.4596867263317108
1788650078566781000,19.955781005859375,9.531316757202148,3.1938650608062744,0.5841852426528931
1788650078582806300,19.97180615234375,8.760383605957031,3.335123062133789,0.5099649429321289
1788650078598842400,19.98784228515625,8.17380428314209,3.60566782951355,0.5578489899635315
1788650078614913800,20.003913818359376,7.965508937835693,3.912125587463379,0.689530074596405
1788650078630939100,20.019939208984376,7.752425193786621,4.182670593261719,0.6919242739677429
1788650078647036700,20.03603662109375,7.572859764099121,4.383783340454102,0.5937620401382446
1788650078663065000,20.052065185546876,7.575253963470459,4.537012100219727,0.47884035110473633
1788650078679083500,20.06808349609375,7.951143741607666,4.436455726623535,0.35434186458587646
1788650078695152000,20.084152099609376,8.825027465820312,4.094084739685059,0.15562310814857483
1788650078711195000,20.10019482421875,10.163386344909668,3.821146011352539,-0.15801730751991272
1788650078727239200,20.1162392578125,11.920730590820312,3.485957622528076,-0.5410895943641663
1788650078743281200,20.13228125,13.18008041381836,3.160346269607544,-0.6057330369949341
1788650078759324000,20.148323974609376,13.187262535095215,2.9448680877685547,-0.6057330369949341
1788650078775369500,20.164369384765624,11.78665542602539,2.937685489654541,-0.49799394607543945
1788650078791393000,20.18039306640625,9.911994934082031,3.0526070594787598,-0.08858546614646912
1788650078807452400,20.196452392578124,8.236053466796875,3.3063924312591553,0.35434186458587646
1788650078823474200,20.21247412109375,7.448361396789551,3.469198226928711,0.47405192255973816
1788650078839496200,20.22849609375,7.297526836395264,3.5386300086975098,0.7398083209991455
1788650078855596300,20.24459619140625,7.766790390014648,3.708618402481079,0.8738836050033569
1788650078871608600,20.260608642578124,8.437167167663574,3.7038300037384033,0.9816226959228516
1788650078887698200,20.2766982421875,9.078812599182129,3.646369218826294,1.2234370708465576
1788650078903721200,20.29272119140625,9.385271072387695,3.665522813796997,1.1420341730117798
1788650078919757800,20.3087578125,9.531316757202148,3.552995204925537,1.1899182796478271
1788650078935830000,20.324830078125,9.667786598205566,3.4572272300720215,0.811634361743927
1788650078951849700,20.340849609375,9.744400978088379,3.3638534545898438,0.5410895943641663
1788650078967961000,20.356961181640624,9.873687744140625,3.313575267791748,0.3064578175544739
1788650078983984400,20.372984375,9.909601211547852,3.3016040325164795,0.14844051003456116
1788650079000006400,20.38900634765625,9.928754806518555,3.380612850189209,-0.023942016065120697
1788650079016076000,20.405075927734377,9.84495735168457,3.4117374420166016,-0.13407529890537262
1788650079032102000,20.421101806640625,9.768342971801758,3.466804027557373,-0.24660277366638184
1788650079048174600,20.437174560546875,9.672574996948242,3.485957622528076,-0.26336219906806946
1788650079064198000,20.453197998046875,9.557653427124023,3.3901896476745605,-0.3447650372982025
1788650079080236800,20.46923681640625,9.500192642211914,3.3016040325164795,-0.3758896589279175
1788650079096312600,20.4853125,9.425971984863281,3.35667085647583,-0.2801215946674347
1788650079112347400,20.501347412109375,9.308655738830566,3.5434184074401855,-0.090979665517807
1788650079128428800,20.5174287109375,9.117119789123535,3.7828385829925537,0.0694318488240242
1788650079144451000,20.533451171875,8.999804496765137,3.909731388092041,0.19393034279346466
1788650079160474000,20.54947412109375,9.062053680419922,4.02465295791626,0.12210428714752197
1788650079176543500,20.56554345703125,9.287108421325684,4.050989151000977,0.11013327538967133
1788650079192588300,20.58158837890625,9.50737476348877,4.000710964202881,0.1149216815829277
1788650079208663000,20.5976630859375,9.708487510681152,3.9911341667175293,0.1628057211637497
1788650079224688000,20.613688232421875,9.77791976928711,3.995922565460205,0.028730420395731926
1788650079240728300,20.629728271484375,9.758766174316406,4.110844135284424,-0.031124621629714966
1788650079256797700,20.645797607421876,9.531316757202148,4.201824188232422,-0.05027823522686958
1788650079272845000,20.661844970703125,9.011775016784668,4.32871675491333,-0.22266076505184174
1788650079288927500,20.677927490234374,8.506598472595215,4.460397720336914,-0.29209262132644653
