time,seconds_elapsed,z,y,x
1788674681414301400,0.318301513671875,0.21991148591041565,-0.060475658625364304,0.24434609711170197
1788674681430262000,0.334261962890625,0.21991148591041565,-0.060475658625364304,0.24434609711170197
1788674681446131200,0.350131103515625,0.21991148591041565,-0.060475658625364304,0.24434609711170197
1788674681462061300,0.366061279296875,0.21991148591041565,-0.060475658625364304,0.24434609711170197
1788674681477930500,0.381930419921875,0.21991148591041565,-0.060475658625364304,0.24434609711170197
1788674681493860600,0.397860595703125,0.21991148591041565,-0.060475658625364304,0.24434609711170197
1788674681509760300,0.41376025390625,0.2687807083129883,-0.4899139404296875,0.27122417092323303
1788674681525599000,0.429598876953125,0.27611109614372253,-0.6505714654922485,0.32620203495025635
1788674681541498600,0.44549853515625,0.25595253705978394,-0.8106181621551514,0.3286454975605011
1788674681557367800,0.461367919921875,0.23151792585849762,-0.8894197940826416,0.3170390725135803
1788674681581202000,0.485201904296875,0.21624629199504852,-0.7941248416900635,0.24556782841682434
1788674681597040600,0.50104052734375,0.18631389737129211,-0.6298020482063293,0.12034045159816742
1788674681612970800,0.516970703125,0.1612684279680252,-0.46792277693748474,-0.001832595793530345
1788674681628900900,0.53290087890625,0.1466076523065567,-0.28099802136421204,-0.10384709388017654
1788674681644709000,0.548709228515625,0.09834930300712585,-0.18509216606616974,-0.16859880089759827
1788674681660639200,0.56463916015625,0.021380282938480377,-0.12950342893600464,-0.22418753802776337
1788674681676539000,0.580538818359375,-0.06352998316287994,-0.05314527451992035,-0.2840523421764374
1788674681692469000,0.596468994140625,-0.10201449692249298,-0.04764748737215996,-0.3029891550540924
1788674681708399000,0.612399169921875,-0.28038713335990906,0.17043140530586243,0.14355333149433136
1788674681724207400,0.628207275390625,-0.3799581825733185,-0.16371189057826996,0.39156460762023926
1788674681740076500,0.64407666015625,-0.33169981837272644,-0.21807889640331268,0.43737950921058655
1788674681755976200,0.65997607421875,-0.28527405858039856,-0.19792033731937408,0.24984388053417206
1788674681771875800,0.675875732421875,-0.19608774781227112,-0.00855211354792118,-0.11728613078594208
1788674681787806000,0.691805908203125,-0.1563815027475357,0.3494149148464203,-0.40072759985923767
1788674681803614000,0.707614013671875,-0.17898350954055786,0.6627888083457947,-0.5693264007568359
1788674681819513900,0.723513916015625,-0.14355333149433136,0.7391469478607178,-0.6475171446800232
1788674681835413500,0.73941357421875,-0.04703662544488907,0.7965682744979858,-0.6096435189247131
1788674681851282400,0.755282470703125,0.02932153269648552,0.6823364496231079,-0.5552765130996704
1788674681875086300,0.77908642578125,0.10995574295520782,0.4331034719944,-0.34636059403419495
1788674681891016400,0.795016357421875,0.03848451003432274,0.23884831368923187,-0.09224065393209457
1788674681906885600,0.8108857421875,-0.007941247895359993,0.0757472887635231,0.09651670604944229
1788674681922815700,0.826815673828125,-0.1362229436635971,0.006719517521560192,0.1569923609495163
1788674681938654500,0.842654541015625,-0.2376265823841095,0.06536258012056351,0.031154127791523933
1788674681962488600,0.866488525390625,-0.20891591906547546,0.26511552929878235,-0.19914206862449646
1788674681986353400,0.890353515625,-0.37140607833862305,0.060475658625364304,-0.03848451003432274
1788674682002253000,0.906253173828125,-0.413555771112442,-0.1270599663257599,0.03176499158143997
1788674682018091500,0.922091552734375,-0.4660901725292206,-0.13011430203914642,0.18325957655906677
1788674682033991200,0.9379912109375,-0.33719760179519653,-0.059864792972803116,0.25961771607398987
1788674682057795000,0.961795166015625,-0.4911356568336487,0.1264491081237793,-0.08552113175392151
1788674682073694700,0.97769482421875,-0.1918116807937622,0.45265114307403564,-0.32070425152778625
1788674682089624800,0.993624755859375,0.10873401165008545,0.5699372887611389,-0.375071257352829
1788674682105494000,1.009493896484375,0.30115658044815063,0.6017022728919983,-0.15943582355976105
1788674682121363200,1.02536328125,0.4440990388393402,0.46303585171699524,0.13255776464939117
1788674682137262800,1.041262939453125,0.39156460762023926,0.1667662113904953,0.3689626157283783
1788674682153101300,1.057101318359375,0.26572638750076294,-0.06475171446800232,0.47280970215797424
1788674682169031700,1.07303173828125,0.16065755486488342,-0.26511552929878235,0.403781920671463
1788674682184900600,1.088900634765625,0.17104226350784302,-0.24617868661880493,0.2480112910270691
1788674682200739300,1.1047392578125,0.2174680233001709,-0.11178833991289139,0.11056660860776901
1788674682216639000,1.120638916015625,0.2382374405860901,-0.025045474991202354,0.08124507963657379
1788674682232508200,1.136508056640625,0.2974913716316223,-0.00427605677396059,0.14844025671482086
1788674682248377300,1.15237744140625,0.30482175946235657,-0.00366519158706069,0.304210901260376
1788674682272211500,1.17621142578125,0.25595253705978394,-0.19058994948863983,0.5100724697113037
1788674682288141600,1.1921416015625,0.2736676335334778,-0.342695415019989,0.475253164768219
1788674682304072000,1.208072021484375,0.2840523421764374,-0.41599923372268677,0.35613444447517395
1788674682319880000,1.2238798828125,0.2638937830924988,-0.4031710624694824,0.1814269721508026
1788674682335749000,1.2397490234375,0.20586158335208893,-0.34574973583221436,0.04764748737215996
1788674682359614000,1.263614013671875,0.11545353382825851,-0.21807889640331268,0.0012217304902151227
1788674682375452400,1.279452392578125,0.019547687843441963,-0.19547687470912933,0.08918632566928864
1788674682399378200,1.303378173828125,-0.060475658625364304,-0.16554448008537292,0.11850785464048386
1788674682415217000,1.319216796875,-0.0507018156349659,-0.05742133408784866,0.028099801391363144
1788674682431116500,1.335116455078125,-0.021380282938480377,-0.19364428520202637,-0.22540926933288574
1788674682454920200,1.358920166015625,-0.006719517521560192,0.04703662544488907,-0.3530801236629486
1788674682470789400,1.374789306640625,-0.10018189996480942,0.03726277872920036,-0.17104226350784302
1788674682486658600,1.390658447265625,-0.2577851414680481,0.1215621829032898,0.08918632566928864
1788674682502558200,1.40655810546875,-0.36224308609962463,-0.0012217304902151227,0.33169981837272644
1788674682518366200,1.4223662109375,-0.3830125033855438,-0.09834930300712585,0.2736676335334778
1788674682542231000,1.44623095703125,-0.5668829679489136,-0.0006108652451075613,-0.16737708449363708
1788674682566034700,1.47003466796875,-0.4813618063926697,0.4642575979232788,-0.8802568316459656
1788674682581904000,1.48590380859375,-0.32498031854629517,0.6597344875335693,-1.1233811378479004
1788674682597803500,1.501803466796875,-0.06902777403593063,0.6585127115249634,-1.026253581047058
1788674682613672700,1.517672607421875,-0.14355333149433136,0.3982841372489929,-0.6872233748435974
1788674682629542000,1.5335419921875,-0.3604104816913605,0.0024434609804302454,-0.19425514340400696
1788674682645472000,1.549471923828125,-0.43127086758613586,-0.27611109614372253,0.16982053220272064
1788674682661402000,1.565402099609375,-0.37262779474258423,-0.5876523852348328,0.35735616087913513
1788674682685205800,1.589205810546875,-0.15821409225463867,-0.7000515460968018,0.2828305959701538
1788674682701044500,1.60504443359375,-0.019547687843441963,-0.6285803318023682,0.16310101747512817
1788674682716852500,1.6208525390625,0.07757988572120667,-0.5106833577156067,0.059864792972803116
1788674682732721700,1.6367216796875,0.12034045159816742,-0.3830125033855438,0.024434609338641167
1788674682772455700,1.67645556640625,0.43615779280662537,0.5900958180427551,-0.08429940044879913
1788674682788355300,1.692355224609375,0.543059229850769,1.5919147729873657,-0.475253164768219
1788674682804285400,1.708285400390625,0.31459560990333557,0.9944885969161987,-0.2577851414680481
1788674682820154600,1.724154541015625,0.29016098380088806,0.5400048494338989,0.01160643994808197
1788674682835993300,1.739993408203125,0.32498031854629517,-0.012217304669320583,0.26083946228027344
1788674682851923500,1.75592333984375,0.2681698501110077,-0.3488040566444397,0.2871066629886627
1788674682867823000,1.771822998046875,0.059864792972803116,-0.054367005825042725,-0.2987131178379059
1788674682891657200,1.7956572265625,-0.029932396486401558,0.04886921867728233,-0.5522221922874451
1788674682907526400,1.8115263671875,-0.12522737681865692,0.16982053220272064,-0.33597588539123535
1788674682923395600,1.8273955078125,0.10201449692249298,0.09957103431224823,-0.192422553896904
1788674682939325700,1.84332568359375,0.2767219543457031,0.40744712948799133,-0.31642818450927734
1788674682955195000,1.85919482421875,0.24434609711170197,0.25045475363731384,-0.2382374405860901
1788674682971033600,1.87503369140625,0.19486601650714874,-0.07024950534105301,-0.015882495790719986
1788674682986902500,1.890902587890625,0.13316862285137177,-0.4954117238521576,0.25045475363731384
1788674683002833000,1.9068330078125,0.05742133408784866,-0.5925393104553223,0.2822197377681732
1788674683018702000,1.9227021484375,-0.00855211354792118,-0.3078760802745819,0.09896016865968704
1788674683034540500,1.93854052734375,-0.030543262138962746,-0.1820378452539444,0.09285151958465576
1788674683050470700,1.954470703125,-0.015882495790719986,-0.22602014243602753,0.2278527319431305
1788674683066309400,1.970309326171875,-0.033597588539123535,-0.2217440903186798,0.2528982162475586
1788674683082178600,1.986178466796875,-0.013439035043120384,-0.1918116807937622,0.1215621829032898
1788674683098078200,2.002078125,-0.001832595793530345,-0.19853121042251587,-0.042760565876960754
1788674683113917000,2.0179169921875,0.025656340643763542,-0.23396138846874237,-0.22052235901355743
1788674683129816600,2.033816650390625,0.03787364438176155,-0.28588494658470154,-0.3219259977340698
1788674683145716200,2.04971630859375,-0.021991148591041565,-0.23579397797584534,-0.31642818450927734
1788674683161585200,2.065585205078125,-0.08552113175392151,-0.08674286305904388,-0.3127630054950714
1788674683177484800,2.08148486328125,-0.09896016865968704,-0.01771509274840355,-0.24862214922904968
1788674683193323500,2.097323486328125,-0.08674286305904388,0.15882496535778046,-0.05009094998240471
1788674683209223200,2.11322314453125,-0.08491026610136032,0.31520646810531616,0.251676470041275
1788674683225092400,2.12909228515625,-0.09224065393209457,0.2822197377681732,0.4178318381309509
1788674683240992000,2.144991943359375,-0.06902777403593063,0.32681289315223694,0.5296201705932617
1788674683256922000,2.160922119140625,0.01466076634824276,0.342695415019989,0.49846604466438293
1788674683272730400,2.17673046875,0.05375614017248154,0.251676470041275,0.5302310585975647
1788674683288568800,2.19256884765625,0.0354301854968071,0.027488935738801956,0.4050036668777466
1788674683304468500,2.208468505859375,0.02687807008624077,0.24129177629947662,0.3176499307155609
1788674683320429300,2.22442919921875,0.04703662544488907,0.2871066629886627,0.2571742534637451
1788674683336329000,2.240328857421875,0.021380282938480377,0.1814269721508026,0.21135938167572021
1788674683352137000,2.256136962890625,0.004886921960860491,-0.08979719132184982,0.11911872029304504
1788674683368006100,2.272006103515625,-0.005497787147760391,-0.3891211748123169,-0.04764748737215996
1788674683383905800,2.28790576171875,-0.0024434609804302454,-0.2993239760398865,-0.14966198801994324
1788674683399805400,2.303805419921875,-0.02687807008624077,-0.23335053026676178,-0.17470745742321014
1788674683415735600,2.319735595703125,-0.08552113175392151,-0.18020524084568024,-0.1264491081237793
1788674683431604700,2.335604736328125,-0.10384709388017654,-0.18509216606616974,-0.0507018156349659
1788674683447443500,2.351443359375,-0.07391469180583954,-0.1722639948129654,0.039706241339445114
1788674683463343000,2.367343017578125,-0.048258353024721146,-0.12461651116609573,0.07330382615327835
1788674683487177200,2.39117724609375,-0.00855211354792118,-0.059864792972803116,0.03481931984424591
1788674683503076900,2.407076904296875,-0.003054326167330146,-0.09834930300712585,0.014049900695681572
1788674683519007200,2.42300732421875,-0.02687807008624077,-0.10690141469240189,0.06108652427792549
1788674683534907000,2.438906982421875,-0.1160643994808197,-0.15393804013729095,0.11178833991289139
1788674683550806500,2.454806640625,-0.12095131725072861,-0.10201449692249298,0.13439035415649414
1788674683566645000,2.47064501953125,-0.015271631069481373,0.010995574295520782,0.19058994948863983
1788674683582575400,2.486575439453125,0.048258353024721146,0.036041051149368286,0.2370157092809677
1788674683598444300,2.5024443359375,0.09224065393209457,0.05009094998240471,0.2932153046131134
1788674683614405000,2.518405029296875,0.1258382350206375,0.07208210229873657,0.3738495409488678
1788674683630396400,2.534396484375,0.17104226350784302,0.10384709388017654,0.48685958981513977
1788674683646235000,2.55023486328125,0.18387043476104736,0.1459967941045761,0.5858197808265686
1788674683678064600,2.582064697265625,-0.3084869384765625,0.543059229850769,0.7330383062362671
1788674683693995000,2.5979951171875,-0.6285803318023682,0.44715335965156555,0.5729916095733643
1788674683709833500,2.61383349609375,-0.9101892113685608,0.43249258399009705,0.4648684561252594
1788674683725733000,2.629733154296875,-0.9926560521125793,0.3194825351238251,0.3604104816913605
1788674683741632800,2.6456328125,-0.8515461683273315,-0.030543262138962746,0.3494149148464203
1788674683765467100,2.669467041015625,-0.3488040566444397,-0.15332718193531036,0.3591887652873993
1788674683781336300,2.68533642578125,-0.06658431142568588,-0.15027284622192383,0.32498031854629517
1788674683797266400,2.701266357421875,0.01710422709584236,-0.12217304855585098,0.21502456068992615
1788674683813166000,2.717166015625,-0.051312681287527084,-0.01710422709584236,0.08185594528913498
1788674683829004800,2.7330048828125,-0.045204028487205505,0.1875356286764145,-0.06780604273080826
1788674683844935000,2.748934814453125,0.23579397797584534,0.05742133408784866,-0.28527405858039856
1788674683860804000,2.76480419921875,0.4550946056842804,-0.030543262138962746,-0.5644394755363464
1788674683876764700,2.7807646484375,0.38667771220207214,-0.16371189057826996,-0.9468411207199097
1788674683892633900,2.7966337890625,0.22479841113090515,-0.252287358045578,-1.171028733253479
1788674683908503000,2.8125029296875,0.07330382615327835,-0.37140607833862305,-1.1105530261993408
1788674683924402700,2.828402587890625,-0.05314527451992035,-0.15332718193531036,-0.9046914577484131
1788674683940271900,2.84427197265625,-0.1814269721508026,-0.6004805564880371,-0.7415903806686401
1788674683956202000,2.860201904296875,-0.25534167885780334,-0.5955936312675476,-0.25045475363731384
1788674683972040700,2.876040771484375,-0.24984388053417206,-0.5180137157440186,0.03176499158143997
1788674683987909600,2.89190966796875,-0.2278527319431305,-0.3543018400669098,0.12278391420841217
1788674684003748400,2.907748291015625,-0.23396138846874237,-0.23457226157188416,0.0806342139840126
1788674684019587000,2.923587158203125,-0.19608774781227112,-0.07269296050071716,0.030543262138962746
1788674684035456000,2.9394560546875,-0.05253441259264946,0.20830504596233368,0.07208210229873657
1788674684051386400,2.955386474609375,0.1661553531885147,0.2535090744495392,0.09162978827953339
1788674684067194400,2.9711943359375,0.2028072625398636,0.23335053026676178,0.060475658625364304
1788674684091028700,2.99502880859375,0.21624629199504852,-0.06536258012056351,-0.009773843921720982
1788674684106958800,3.010958740234375,0.2816088795661926,-0.24984388053417206,0.030543262138962746
1788674684122797300,3.02679736328125,0.294437050819397,-0.242513507604599,0.11362093687057495
1788674684138697000,3.042697021484375,0.2431243658065796,-0.1313360333442688,0.11301007121801376
1788674684154657800,3.05865771484375,0.12461651116609573,-0.08674286305904388,0.051312681287527084
1788674684170496500,3.07449658203125,0.0403171069920063,-0.1563815027475357,-0.021991148591041565
1788674684186335000,3.0903349609375,-0.014049900695681572,-0.25106561183929443,-0.06719517707824707
1788674684202234600,3.106234619140625,0.0012217304902151227,-0.24862214922904968,-0.059864792972803116
1788674684218073300,3.1220732421875,0.03848451003432274,-0.13377949595451355,-0.039095375686883926
1788674684234003500,3.13800341796875,0.059864792972803116,-0.08124507963657379,-0.03481931984424591
1788674684257776600,3.161776611328125,0.09651670604944229,-0.14905111491680145,-0.031154127791523933
1788674684281641500,3.185641357421875,0.025045474991202354,-0.1313360333442688,-0.0006108652451075613
1788674684297480000,3.20147998046875,-0.02932153269648552,-0.08491026610136032,0.04642575979232788
1788674684313410300,3.217410400390625,-0.05925392732024193,-0.03726277872920036,0.09407325088977814
1788674684329279200,3.233279296875,-0.06902777403593063,-0.00427605677396059,0.17470745742321014
1788674684353022000,3.25702197265625,-0.05314527451992035,0.17592918872833252,0.2681698501110077
1788674684376795100,3.280795166015625,-0.13011430203914642,0.2168571650981903,0.3805690407752991
1788674684392694800,3.29669482421875,-0.2376265823841095,0.31581732630729675,0.4141666293144226
1788674684408594400,3.312594482421875,-0.2785545587539673,0.4086688458919525,0.413555771112442
1788674684424524800,3.32852490234375,-0.26511552929878235,0.44715335965156555,0.39645153284072876
1788674684440363300,3.34436328125,-0.19425514340400696,0.5021312236785889,0.4141666293144226
1788674684456263000,3.360262939453125,-0.02932153269648552,0.485027015209198,0.4862487316131592
1788674684472193300,3.376193359375,0.2028072625398636,0.4147774875164032,0.5283984541893005
1788674684488062200,3.392062255859375,0.313373863697052,0.28955012559890747,0.3927863538265228
1788674684503931400,3.407931396484375,0.22846360504627228,-0.012217304669320583,0.16432274878025055
1788674684519800600,3.423800537109375,0.07269296050071716,-0.30115658044815063,-0.2987131178379059
1788674684535669800,3.439669677734375,-0.02321287989616394,-0.7819074988365173,-0.5571091175079346
1788674684551599900,3.455599853515625,-0.01466076634824276,-1.0671815872192383,-0.6206390857696533
1788674684567560700,3.471560791015625,0.04459316283464432,-0.9841039180755615,-0.44226643443107605
1788674684583368700,3.48736865234375,0.10995574295520782,-1.0696250200271606,-0.09468411654233932
1788674684599238000,3.50323779296875,0.15515977144241333,-0.7330383062362671,0.18570303916931152
1788674684615137500,3.519137451171875,0.2968805134296417,0.04459316283464432,0.2974913716316223
1788674684631006700,3.5350068359375,0.4092797040939331,0.5229006409645081,0.10934487730264664
1788674684654780000,3.55877978515625,0.024434609338641167,0.10262536257505417,-0.21502456068992615
1788674684670679600,3.574679443359375,-0.34147366881370544,-0.21624629199504852,-0.1466076523065567
1788674684686518000,3.59051806640625,-0.3701843321323395,-0.21502456068992615,0.12278391420841217
1788674684702417700,3.606417724609375,-0.1014036312699318,0.13439035415649414,0.5577199459075928
1788674684718286800,3.622286865234375,0.06841690838336945,0.4740314185619354,0.8570439219474792
1788674684734125600,3.63812548828125,0.07635815441608429,0.7177666425704956,1.0629055500030518
1788674684750055700,3.6540556640625,0.03726277872920036,0.8234463334083557,1.0873401165008545
1788674684765924900,3.6699248046875,-0.006719517521560192,0.8497135639190674,0.9816604256629944
1788674684781763600,3.685763671875,-0.06658431142568588,0.7953465580940247,0.7812966704368591
1788674684797693700,3.701693603515625,0.05803219974040985,0.44837507605552673,0.6426302194595337
1788674684813593300,3.71759326171875,0.3243694305419922,0.0555887371301651,0.6249151229858398
1788674684837397000,3.74139697265625,0.5650503635406494,0.05253441259264946,0.10934487730264664
1788674684853235700,3.757235595703125,0.39217549562454224,-0.02015855349600315,-0.39706242084503174
1788674684869196300,3.7731962890625,0.12767083942890167,-0.1820378452539444,-0.6860016584396362
1788674684885096000,3.789095947265625,-0.2877175211906433,-0.2877175211906433,-0.7086036801338196
1788674684900934700,3.8049345703125,-0.5968153476715088,-0.08552113175392151,-0.3732386529445648
1788674684916834300,3.820834228515625,-0.7635815739631653,0.10567969083786011,0.37262779474258423
1788674684932673000,3.836673095703125,-0.6884451508522034,0.44654250144958496,0.9358455538749695
1788674684948603100,3.85260302734375,-0.48747047781944275,0.7446447610855103,1.2278391122817993
1788674684972437200,3.876437255859375,-0.3023782968521118,0.9523389339447021,0.978606104850769
1788674684996210400,3.90021044921875,-0.2278527319431305,0.9645562171936035,0.44776421785354614
1788674685012079600,3.91607958984375,-0.19914206862449646,0.675616979598999,0.036651913076639175
1788674685028009700,3.932009765625,-0.13316862285137177,0.2577851414680481,-0.2382374405860901
1788674685043970600,3.947970458984375,-0.05742133408784866,-0.04398229718208313,-0.41233405470848083
1788674685059717600,3.963717529296875,0.018936822190880775,-0.3500257730484009,-0.8197811841964722
1788674685075617300,3.9796171875,0.1716531366109848,-1.0024298429489136,-0.6200281977653503
1788674685091577900,3.995577880859375,0.39706242084503174,-1.0836749076843262,-0.5681046843528748
1788674685107447000,4.011447021484375,0.5852088928222656,-1.0519099235534668,-0.6908885836601257
1788674685123316200,4.027316162109375,0.6542366743087769,-0.8344419002532959,-0.7293730974197388
1788674685139216000,4.0432158203125,0.4764748811721802,-0.6316346526145935,-0.6768386960029602
1788674685170923500,4.074923583984375,-0.182648703455925,-0.9028588533401489,-0.49724429845809937
1788674685186823400,4.090823486328125,-0.6145304441452026,-1.111163854598999,-0.47830748558044434
1788674685202692400,4.1066923828125,-0.7202101349830627,-1.2107349634170532,-0.2919935882091522
1788674685218561500,4.1225615234375,-0.4691445231437683,-1.1759155988693237,0.2370157092809677
1788674685242456800,4.146456787109375,0.26572638750076294,-0.588263213634491,0.4703662395477295
1788674685258264800,4.162264892578125,0.49724429845809937,-0.26022860407829285,0.2070833146572113
1788674685274164700,4.178164794921875,0.48808133602142334,0.08002334833145142,-0.20586158335208893
1788674685290033700,4.19403369140625,0.36163222789764404,0.018936822190880775,-0.43737950921058655
1788674685305933300,4.209933349609375,0.04092797264456749,-0.0354301854968071,-0.543059229850769
1788674685321833000,4.2258330078125,-0.1973094791173935,0.11545353382825851,-0.45326200127601624
1788674685337671700,4.241671630859375,-0.2577851414680481,0.005497787147760391,-0.16493362188339233
1788674685353571300,4.2575712890625,-0.22357667982578278,0.021380282938480377,0.15332718193531036
1788674685369440500,4.2734404296875,-0.08368854224681854,0.048258353024721146,0.44654250144958496
1788674685385401000,4.289401123046875,0.11667526513338089,0.11484266817569733,0.5907067060470581
1788674685409143800,4.313143798828125,0.31642818450927734,0.192422553896904,0.5412266254425049
1788674685425074000,4.329073974609375,0.2730567753314972,0.23396138846874237,0.2535090744495392
1788674685440973600,4.3449736328125,0.09162978827953339,0.10690141469240189,-0.09162978827953339
1788674685456781800,4.36078173828125,-0.22663100063800812,-0.22968533635139465,-0.413555771112442
1788674685472681500,4.376681396484375,-0.3927863538265228,-0.37140607833862305,-0.45631635189056396
1788674685496454700,4.40045458984375,-0.3830125033855438,-0.25473082065582275,-0.1313360333442688
1788674685512323800,4.41632373046875,-0.2932153046131134,-0.05742133408784866,0.07757988572120667
1788674685528193000,4.432193115234375,-0.13439035415649414,0.2217440903186798,0.22663100063800812
1788674685544092700,4.4480927734375,-0.048258353024721146,0.5076290369033813,0.2583959996700287
1788674685560053200,4.46405322265625,-0.05192354694008827,0.6511823534965515,0.2932153046131134
1788674685575922400,4.47992236328125,-0.1111774742603302,0.5711590051651001,0.3390302062034607
1788674685591761200,4.49576123046875,-0.13744467496871948,0.47219884395599365,0.3286454975605011
1788674685607660800,4.511660888671875,-0.06902777403593063,0.26450464129447937,0.25045475363731384
1788674685623529700,4.52752978515625,0.02687807008624077,0.1215621829032898,0.056810468435287476
1788674685639368400,4.543368408203125,0.10873401165008545,0.01771509274840355,-0.18631389737129211
1788674685655207200,4.559207275390625,0.17531833052635193,0.0910189226269722,-0.5760459303855896
1788674685671076400,4.575076416015625,0.08918632566928864,-0.16554448008537292,-0.9046914577484131
1788674685686976000,4.59097607421875,0.04398229718208313,-0.3292563557624817,-0.8741481900215149
1788674685702814500,4.606814453125,0.00733038317412138,-0.3695734739303589,-0.7580837607383728
1788674685718683600,4.62268359375,0.01710422709584236,-0.46364670991897583,-0.6524040699005127
1788674685742548500,4.646548583984375,0.21441370248794556,-0.5088507533073425,-0.3732386529445648
1788674685758417700,4.662417724609375,0.22113321721553802,-0.48197266459465027,-0.27977627515792847
1788674685774225700,4.6782255859375,0.22663100063800812,-0.46731191873550415,-0.304210901260376
1788674685790125300,4.694125244140625,0.24556782841682434,-0.43799036741256714,-0.46364670991897583
1788674685806055400,4.710055419921875,0.28099802136421204,-0.6572909951210022,-0.5387831330299377
1788674685822016300,4.726016357421875,0.3127630054950714,-0.5913175344467163,-0.5210680365562439
1788674685837885400,4.741885498046875,0.3188716471195221,-0.45631635189056396,-0.47219884395599365
1788674685853724000,4.757723876953125,0.26450464129447937,-0.12400564551353455,-0.5308418869972229
1788674685869623600,4.77362353515625,0.14233160018920898,-0.48319441080093384,-0.5467243790626526
1788674685885492700,4.78949267578125,0.1466076523065567,-0.17592918872833252,-0.5192354321479797
1788674685901422800,4.8054228515625,0.2626720666885376,0.051312681287527084,-0.37201693654060364
1788674685917322500,4.821322509765625,0.32681289315223694,0.15027284622192383,-0.10262536257505417
1788674685933191700,4.837191650390625,0.2669481039047241,0.14782938361167908,0.08796459436416626
1788674685949091300,4.85309130859375,0.17043140530586243,0.12217304855585098,0.13561208546161652
1788674685964991000,4.868990966796875,0.12339477986097336,0.09957103431224823,0.06291911751031876
1788674685980951800,4.884951904296875,0.08124507963657379,-0.01160643994808197,-0.07757988572120667
1788674685996820700,4.90082080078125,-0.04398229718208313,-0.12339477986097336,-0.2174680233001709
1788674686012659500,4.916659423828125,-0.22968533635139465,-0.2480112910270691,-0.32498031854629517
1788674686028559000,4.93255908203125,-0.26939156651496887,-0.15332718193531036,-0.3536909818649292
1788674686044428300,4.94842822265625,-0.2877175211906433,-0.0806342139840126,-0.3182607889175415
1788674686060297500,4.96429736328125,-0.3439171314239502,-0.05925392732024193,-0.2981022298336029
1788674686076166700,4.980166748046875,-0.32681289315223694,0.021991148591041565,-0.2974913716316223
1788674686092005000,4.996005126953125,-0.23396138846874237,0.02626720629632473,-0.2376265823841095
1788674686107874300,5.011874267578125,-0.16798794269561768,0.0354301854968071,-0.15882496535778046
1788674686123743500,5.027743408203125,-0.09162978827953339,-0.07757988572120667,-0.12828169763088226
1788674686139582200,5.043582275390625,0.07757988572120667,-0.10567969083786011,-0.10934487730264664
1788674686155451100,5.059451171875,0.15393804013729095,-0.007941247895359993,-0.08185594528913498
1788674686171289900,5.075289794921875,0.1569923609495163,0.04948008432984352,-0.03726277872920036
1788674686187189500,5.091189453125,0.14233160018920898,0.025656340643763542,-0.02687807008624077
1788674686203058700,5.10705859375,0.11545353382825851,0.0012217304902151227,-0.04764748737215996
1788674686218897200,5.122897216796875,0.0861319974064827,0.024434609338641167,-0.06902777403593063
1788674686234797000,5.138797119140625,0.06658431142568588,0.10873401165008545,-0.059864792972803116
1788674686250635500,5.154635498046875,0.0910189226269722,0.24556782841682434,-0.05375614017248154
1788674686266535200,5.17053515625,0.13744467496871948,0.3029891550540924,-0.05253441259264946
1788674686282374000,5.186373779296875,0.10384709388017654,0.18570303916931152,0.0024434609804302454
1788674686298243000,5.2022431640625,0.02626720629632473,0.07757988572120667,0.08368854224681854
1788674686314142700,5.218142822265625,-0.02076941914856434,0.01466076634824276,0.10201449692249298
1788674686329981200,5.233981201171875,-0.03726277872920036,0.003054326167330146,0.04948008432984352
1788674686345850400,5.249850341796875,-0.0354301854968071,0.04581489413976669,-0.0354301854968071
1788674686361689000,5.265689208984375,-0.0507018156349659,0.05253441259264946,-0.07941248267889023
1788674686377558300,5.281558349609375,-0.06841690838336945,0.11789698898792267,-0.08429940044879913
1788674686393458000,5.2974580078125,-0.06230825558304787,0.15332718193531036,-0.04214970022439957
1788674686409326800,5.313326904296875,-0.08307767659425735,0.14355333149433136,0.014049900695681572
1788674686425226500,5.3292265625,-0.13316862285137177,0.07696902006864548,0.05192354694008827
1788674686441126400,5.34512646484375,-0.17837265133857727,-0.003054326167330146,0.07024950534105301
1788674686457056500,5.361056396484375,-0.18020524084568024,-0.01466076634824276,0.09712757170200348
1788674686480860200,5.384860107421875,-0.15943582355976105,0.03237585723400116,0.11239920556545258
1788674686496790300,5.400790283203125,-0.14477506279945374,0.06536258012056351,0.02076941914856434
1788674686512690000,5.41668994140625,-0.1270599663257599,0.09529497474431992,-0.08552113175392151
1788674686528620300,5.432620361328125,-0.1368338167667389,0.13011430203914642,-0.18631389737129211
1788674686544428300,5.44842822265625,-0.17409659922122955,0.10567969083786011,-0.21380282938480377
1788674686560267000,5.46426708984375,-0.18020524084568024,-0.016493361443281174,-0.182648703455925
1788674686576136000,5.480135986328125,-0.12461651116609573,-0.09224065393209457,-0.14049901068210602
1788674686592066300,5.49606640625,-0.0555887371301651,-0.15454891324043274,-0.11362093687057495
1788674686607874300,5.511874267578125,-0.033597588539123535,-0.2028072625398636,-0.13866640627384186
1788674686623648500,5.5276484375,-0.03787364438176155,-0.2028072625398636,-0.18570303916931152
1788674686639548200,5.543548095703125,-0.04092797264456749,-0.17043140530586243,-0.21930062770843506
1788674686655447800,5.55944775390625,-0.05009094998240471,-0.192422553896904,-0.21074850857257843
1788674686671378200,5.575378173828125,-0.06352998316287994,-0.21502456068992615,-0.16371189057826996
1788674686687247400,5.591247314453125,-0.09224065393209457,-0.24556782841682434,-0.08552113175392151
1788674686703085800,5.6070859375,-0.11728613078594208,-0.2834414839744568,-0.00733038317412138
1788674686718955000,5.622955078125,-0.14294247329235077,-0.2590068578720093,0.07024950534105301
1788674686734854700,5.638854736328125,-0.13316862285137177,-0.18387043476104736,0.12095131725072861
1788674686750723800,5.654723876953125,-0.1160643994808197,-0.05375614017248154,0.10262536257505417
1788674686766531800,5.67053173828125,-0.1270599663257599,0.01771509274840355,0.018325956538319588
1788674686782431500,5.686431396484375,-0.1508837193250656,0.0354301854968071,-0.1215621829032898
1788674686798300700,5.70230078125,-0.15454891324043274,0.02382374368607998,-0.21441370248794556
1788674686814230800,5.718230712890625,-0.13439035415649414,0.004886921960860491,-0.2565633952617645
1788674686830130400,5.73413037109375,-0.09773843735456467,0.012217304669320583,-0.22846360504627228
1788674686845969200,5.74996923828125,-0.0403171069920063,0.054367005825042725,-0.19547687470912933
1788674686861838300,5.76583837890625,0.007941247895359993,0.05497787147760391,-0.2376265823841095
1788674686877676800,5.7816767578125,0.05742133408784866,0.030543262138962746,-0.3121521472930908
1788674686893607200,5.797607177734375,0.08735372871160507,-0.0006108652451075613,-0.3280346393585205
1788674686909537300,5.813537353515625,0.10506882518529892,-0.04764748737215996,-0.23273965716362
1788674686925376000,5.8293759765625,0.1258382350206375,-0.07696902006864548,-0.09712757170200348
1788674686941275600,5.845275634765625,0.16065755486488342,-0.09468411654233932,0.04398229718208313
1788674686957175300,5.86117529296875,0.19120082259178162,-0.06902777403593063,0.12400564551353455
1788674686973105400,5.87710546875,0.18936823308467865,-0.054367005825042725,0.10323622822761536
1788674686989005000,5.893005126953125,0.15882496535778046,-0.039706241339445114,-0.014049900695681572
1788674687004935200,5.90893505859375,0.14049901068210602,0.00855211354792118,-0.1111774742603302
1788674687020743400,5.924743408203125,0.11301007121801376,-0.00366519158706069,-0.15393804013729095
1788674687036551400,5.940551513671875,0.08368854224681854,-0.015882495790719986,-0.13316862285137177
1788674687052420600,5.956420654296875,0.06902777403593063,-0.0354301854968071,-0.021380282938480377
1788674687068320300,5.9723203125,0.07757988572120667,-0.0555887371301651,0.10262536257505417
1788674687084250400,5.98825048828125,0.07941248267889023,-0.04642575979232788,0.19853121042251587
1788674687100089000,6.004089111328125,0.08246681094169617,-0.05619960278272629,0.21441370248794556
1788674687115927600,6.019927490234375,0.1417207419872284,-0.09162978827953339,0.1716531366109848
1788674687131796700,6.035796630859375,0.2431243658065796,-0.07513642311096191,0.12522737681865692
1788674687147726800,6.051726806640625,0.34513887763023376,-0.07269296050071716,0.0757472887635231
1788674687163535000,6.06753515625,0.3952298164367676,-0.04581489413976669,0.05375614017248154
1788674687179373800,6.083373779296875,0.3885102868080139,-0.08368854224681854,0.0354301854968071
1788674687195242800,6.09924267578125,0.2926044464111328,-0.0910189226269722,0.06291911751031876
1788674687211142400,6.115142333984375,0.1459967941045761,-0.1459967941045761,0.18936823308467865
1788674687227011600,6.131011474609375,0.04459316283464432,-0.2272418737411499,0.34086281061172485
1788674687242819800,6.14681982421875,-0.06230825558304787,-0.33719760179519653,0.4990769028663635
1788674687258688800,6.162688720703125,-0.06902777403593063,-0.43737950921058655,0.588874101638794
1788674687274588400,6.17858837890625,0.016493361443281174,-0.47280970215797424,0.637132465839386
1788674687290518800,6.194518798828125,0.13866640627384186,-0.39706242084503174,0.6151412725448608
1788674687306449000,6.210448974609375,0.30115658044815063,-0.375071257352829,0.5057964324951172
1788674687322257000,6.2262568359375,0.37751471996307373,-0.49846604466438293,0.33536502718925476
1788674687338156500,6.242156494140625,0.3543018400669098,-0.6291912198066711,0.09346238523721695
1788674687353995300,6.257995361328125,0.3494149148464203,-0.6279694437980652,-0.1062905490398407
1788674687369956000,6.2739560546875,0.3701843321323395,-0.41661009192466736,-0.29993483424186707
1788674687385855700,6.289855712890625,0.3677408695220947,-0.3677408695220947,-0.42577308416366577
1788674687401663700,6.305663818359375,0.3090978264808655,-0.24434609711170197,-0.44654250144958496
1788674687417563400,6.3215634765625,0.2767219543457031,-0.24984388053417206,-0.42210787534713745
1788674687433402000,6.337402099609375,0.2028072625398636,-0.39095374941825867,-0.4245513379573822
1788674687449301800,6.3533017578125,0.14538592100143433,-0.39217549562454224,-0.3805690407752991
1788674687465201400,6.369201416015625,0.12889257073402405,-0.3481931984424591,-0.2070833146572113
1788674687481040000,6.385039794921875,0.05375614017248154,-0.18081611394882202,0.0708603709936142
1788674687496970200,6.40097021484375,-0.01160643994808197,0.03237585723400116,0.24617868661880493
1788674687512808700,6.41680859375,-0.00366519158706069,0.18875735998153687,0.28588494658470154
1788674687528738800,6.43273876953125,0.05742133408784866,0.28466320037841797,0.22540926933288574
1788674687544638500,6.448638427734375,0.182648703455925,0.29626965522766113,0.1466076523065567
1788674687560477200,6.464477294921875,0.251676470041275,0.28649580478668213,0.11972958594560623
1788674687576407300,6.4804072265625,0.26083946228027344,0.2919935882091522,0.12889257073402405
1788674687592246000,6.49624609375,0.18325957655906677,0.12950342893600464,0.15515977144241333
1788674687608176000,6.512176025390625,0.016493361443281174,-0.0024434609804302454,0.1368338167667389
1788674687624045300,6.52804541015625,-0.048258353024721146,-0.13500121235847473,0.1258382350206375
1788674687639975400,6.543975341796875,0.05803219974040985,-0.24678955972194672,0.13011430203914642
1788674687655814100,6.559814208984375,0.17043140530586243,-0.22052235901355743,0.13255776464939117
1788674687671713800,6.5757138671875,0.22907446324825287,0.03787364438176155,0.06841690838336945
1788674687687644000,6.591643798828125,0.2223549485206604,0.2974913716316223,0
1788674687703543600,6.60754345703125,0.13500121235847473,0.5564982295036316,-0.02015855349600315
1788674687719351800,6.623351806640625,-0.027488935738801956,0.6163630485534668,0.003054326167330146
1788674687735221000,6.639220947265625,-0.28955012559890747,0.09468411654233932,0.08246681094169617
1788674687751090000,6.65508984375,-0.5027421116828918,-0.5546656250953674,0.2889392673969269
1788674687766989600,6.670989501953125,-0.5143485069274902,-0.4196644127368927,0.4862487316131592
1788674687782889200,6.68688916015625,-0.342695415019989,0.2431243658065796,0.6053674817085266
1788674687798788900,6.702788818359375,-0.15577064454555511,0.6261368989944458,0.59803706407547
1788674687814627600,6.718627685546875,-0.04337143152952194,0.45875978469848633,0.45326200127601624
1788674687830466300,6.73446630859375,-0.10445795953273773,-0.006108652334660292,0.2938261926174164
1788674687854239500,6.758239501953125,-0.5662720799446106,-0.7525860071182251,0.05009094998240471
1788674687870078000,6.774077880859375,-0.8552113175392151,-0.7312057018280029,-0.10018189996480942
1788674687885947100,6.789947021484375,-0.9566149711608887,-0.38240164518356323,-0.28955012559890747
1788674687901846800,6.8058466796875,-0.8326093554496765,-0.02932153269648552,-0.3799581825733185
1788674687917655000,6.821655029296875,-0.5577199459075928,0.19547687470912933,-0.36713001132011414
1788674687933524000,6.83752392578125,-0.29077184200286865,0.27550023794174194,-0.2730567753314972
1788674687957358300,6.8613583984375,0.0959058403968811,0.30115658044815063,-0.06780604273080826
1788674687973197000,6.877197021484375,0.2590068578720093,0.29138273000717163,0.007941247895359993
1788674687989096700,6.8930966796875,0.2932153046131134,0.11239920556545258,0.02382374368607998
1788674688005057300,6.909057373046875,0.18997909128665924,-0.12400564551353455,-0.00427605677396059
1788674688020987400,6.9249873046875,0.04459316283464432,-0.18997909128665924,-0.05375614017248154
1788674688036826000,6.940826171875,-0.09040805697441101,-0.1472185254096985,-0.1319468915462494
1788674688052664800,6.956664794921875,-0.12461651116609573,-0.0861319974064827,-0.16859880089759827
1788674688068564500,6.972564453125,-0.03848451003432274,0.04153883829712868,-0.054367005825042725
1788674688084464000,6.988464111328125,0.07757988572120667,0.14416420459747314,0.13255776464939117
1788674688100333000,7.0043330078125,0.1612684279680252,0.19058994948863983,0.33108896017074585
1788674688116202200,7.0202021484375,0.19058994948863983,0.19853121042251587,0.37262779474258423
1788674688132071400,7.036071533203125,0.16371189057826996,0.1820378452539444,0.2724458873271942
1788674688147971000,7.05197119140625,0.06230825558304787,0.003054326167330146,0.07757988572120667
1788674688163901200,7.067901123046875,0.16371189057826996,-0.3488040566444397,-0.0959058403968811
1788674688179831600,7.08383154296875,0.30482175946235657,-0.3995058834552765,-0.17470745742321014
1788674688195700500,7.099700439453125,0.2834414839744568,-0.3194825351238251,-0.24190263450145721
1788674688211569700,7.115569580078125,0.25473082065582275,-0.13500121235847473,-0.1722639948129654
1788674688227469300,7.13146923828125,0.3396410644054413,0.09407325088977814,-0.1270599663257599
1788674688243399700,7.147399658203125,0.4129449129104614,0.3445279896259308,-0.02076941914856434
1788674688259299300,7.16329931640625,0.4343251883983612,0.45204028487205505,0.1264491081237793
1788674688275168300,7.179168212890625,0.40194934606552124,0.3121521472930908,0.2370157092809677
1788674688291037400,7.195037353515625,0.36590829491615295,0.1466076523065567,0.26572638750076294
1788674688306937000,7.21093701171875,0.2736676335334778,-0.16432274878025055,0.2119702398777008
1788674688322867500,7.226867431640625,0.1612684279680252,-0.38240164518356323,0.09162978827953339
1788674688338797600,7.242797607421875,0.03481931984424591,-0.5503895878791809,-0.15882496535778046
1788674688354666800,7.258666748046875,-0.00855211354792118,-0.6426302194595337,-0.40744712948799133
1788674688370566400,7.27456640625,0.045204028487205505,-0.5748242139816284,-0.5913175344467163
1788674688386466000,7.290466064453125,0.07452555745840073,-0.44287729263305664,-0.5424483418464661
1788674688402365700,7.30636572265625,0.10506882518529892,-0.2583959996700287,-0.22540926933288574
1788674688418295800,7.3222958984375,0.17837265133857727,-0.06169738993048668,0.1270599663257599
1788674688434103800,7.338103759765625,0.32620203495025635,0.10751228034496307,0.39095374941825867
1788674688450003500,7.35400341796875,0.4001167416572571,0.10506882518529892,0.4245513379573822
1788674688465872600,7.36987255859375,0.3243694305419922,-0.13316862285137177,0.2791654169559479
1788674688481803000,7.385802978515625,0.09468411654233932,-0.3488040566444397,0.09040805697441101
1788674688497672000,7.401671875,-0.19120082259178162,-0.3842342495918274,-0.09407325088977814
1788674688513510700,7.4175107421875,-0.3390302062034607,-0.33108896017074585,-0.15760323405265808
1788674688529379800,7.4333798828125,-0.33169981837272644,-0.1661553531885147,-0.1722639948129654
1788674688545279500,7.449279541015625,-0.16554448008537292,0.005497787147760391,-0.17898350954055786
1788674688561209600,7.465209716796875,-0.01771509274840355,0.1007927656173706,-0.15821409225463867
1788674688577139700,7.4811396484375,0.10262536257505417,0.08918632566928864,-0.08796459436416626
1788674688592978400,7.496978515625,0.14782938361167908,0.09407325088977814,0.00366519158706069
1788674688608878000,7.512878173828125,0.1514945775270462,0.0806342139840126,0.12095131725072861
1788674688624777700,7.52877783203125,0.12339477986097336,0.029932396486401558,0.15760323405265808
1788674688640677400,7.544677490234375,0.05009094998240471,-0.010995574295520782,0.06352998316287994
1788674688656577000,7.560576904296875,0.02382374368607998,-0.0507018156349659,-0.09162978827953339
1788674688680411400,7.584411376953125,0.08552113175392151,-0.05314527451992035,-0.23457226157188416
1788674688696280300,7.6002802734375,0.0708603709936142,0.04642575979232788,-0.20036379992961884
1788674688712119000,7.616119140625,0.01710422709584236,0.06536258012056351,-0.11178833991289139
1788674688728018700,7.632018798828125,-0.015271631069481373,-0.04337143152952194,-0.003054326167330146
1788674688743948800,7.64794873046875,-0.006719517521560192,-0.08735372871160507,0.05619960278272629
1788674688759879200,7.663879150390625,0.025656340643763542,-0.0403171069920063,0.09224065393209457
1788674688775809300,7.679809326171875,0.04948008432984352,0.00366519158706069,0.12278391420841217
1788674688791617300,7.6956171875,0.033597588539123535,0.009162978269159794,0.1612684279680252
1788674688807517000,7.711516845703125,-0.00855211354792118,0.012217304669320583,0.18387043476104736
1788674688823355600,7.727355712890625,-0.15271630883216858,-0.13439035415649414,0.27061331272125244
1788674688839285800,7.74328564453125,-0.3591887652873993,-0.20463985204696655,0.40744712948799133
1788674688855215900,7.7592158203125,-0.588874101638794,-0.13866640627384186,0.5650503635406494
1788674688871085000,7.7750849609375,-0.6389650702476501,-0.02321287989616394,0.5497786998748779
1788674688886954200,7.790954345703125,-0.4697553813457489,0.16493362188339233,0.28099802136421204
1788674688902793000,7.80679296875,-0.242513507604599,0.30482175946235657,-0.02932153269648552
1788674688918692600,7.822692626953125,-0.05375614017248154,0.3738495409488678,-0.24984388053417206
1788674688934592300,7.83859228515625,-0.03481931984424591,0.3078760802745819,-0.21868975460529327
1788674688950430700,7.8544306640625,-0.16371189057826996,0.11301007121801376,-0.01466076634824276
1788674688966330400,7.870330322265625,-0.27061331272125244,-0.10201449692249298,0.15577064454555511
1788674688982169000,7.886169189453125,-0.2773328125476837,-0.1973094791173935,0.18936823308467865
1788674688998130000,7.9021298828125,-0.2168571650981903,-0.1313360333442688,0.08002334833145142
1788674689014029600,7.918029541015625,-0.15027284622192383,-0.02076941914856434,-0.08796459436416626
1788674689029929200,7.93392919921875,-0.10262536257505417,0.04703662544488907,-0.20036379992961884
1788674689045767700,7.949767578125,-0.048258353024721146,0.012217304669320583,-0.26450464129447937
1788674689061697800,7.96569775390625,0.010995574295520782,-0.09346238523721695,-0.2883284091949463
1788674689077628200,7.981628173828125,0.06169738993048668,-0.10995574295520782,-0.30604347586631775
1788674689093466600,7.997466552734375,0.054367005825042725,-0.09529497474431992,-0.26511552929878235
1788674689109305300,8.013305419921876,0.00733038317412138,-0.08185594528913498,-0.1869247704744339
1788674689125174500,8.029174560546876,-0.045204028487205505,-0.10201449692249298,-0.10201449692249298
1788674689141013000,8.045012939453125,-0.05925392732024193,-0.12461651116609573,-0.05375614017248154
1788674689156912600,8.06091259765625,-0.05497787147760391,-0.1362229436635971,0.009162978269159794
1788674689172781800,8.07678173828125,-0.07452555745840073,-0.09407325088977814,0.06169738993048668
1788674689188620500,8.09262060546875,-0.17287486791610718,-0.048258353024721146,0.12767083942890167
1788674689204459300,8.108459228515626,-0.25961771607398987,-0.08796459436416626,0.14233160018920898
1788674689220359000,8.12435888671875,-0.28099802136421204,-0.11362093687057495,0.07757988572120667
1788674689236289000,8.1402890625,-0.1966986060142517,-0.08185594528913498,-0.03726277872920036
1788674689252188700,8.156188720703126,-0.015271631069481373,-0.021380282938480377,-0.12034045159816742
1788674689268057900,8.172057861328126,0.10262536257505417,-0.0012217304902151227,-0.12522737681865692
1788674689283927000,8.187927001953126,0.14966198801994324,-0.03176499158143997,-0.12095131725072861
1788674689299826700,8.20382666015625,0.17531833052635193,-0.06658431142568588,-0.15271630883216858
1788674689315756800,8.2197568359375,0.251676470041275,-0.0757472887635231,-0.2217440903186798
1788674689331656400,8.235656494140626,0.294437050819397,0.019547687843441963,-0.22479841113090515
1788674689347525600,8.251525634765626,0.26022860407829285,0.12889257073402405,-0.10506882518529892
1788674689363425300,8.26742529296875,0.15271630883216858,0.10995574295520782,0.036651913076639175
1788674689379294500,8.28329443359375,0.05253441259264946,-0.01160643994808197,0.0354301854968071
1788674689395224600,8.299224609375,0.1160643994808197,-0.1722639948129654,-0.2119702398777008
1788674689411154700,8.31515478515625,0.34208452701568604,-0.17470745742321014,-0.656069278717041
1788674689426962700,8.330962646484375,0.53328537940979,0.06352998316287994,-0.8552113175392151
1788674689442832000,8.346831787109375,0.6206390857696533,0.3127630054950714,-0.6359107494354248
1788674689458731500,8.3627314453125,0.4544837474822998,0.323147714138031,-0.003054326167330146
1788674689474600700,8.3786005859375,0.15332718193531036,0.06352998316287994,0.5748242139816284
1788674689490470000,8.394469970703126,-0.1313360333442688,-0.38728857040405273,0.8588765263557434
1788674689506369500,8.41036962890625,-0.29016098380088806,-0.7367035150527954,0.7782423496246338
1788674689522238700,8.42623876953125,-0.3628539443016052,-0.9321803450584412,0.46364670991897583
1788674689538108000,8.44210791015625,-0.3445279896259308,-0.788627028465271,0.09896016865968704
1788674689554038000,8.4580380859375,-0.2736676335334778,-0.40256020426750183,-0.32009339332580566
1788674689569937700,8.473937744140626,-0.192422553896904,-0.1014036312699318,-0.5644394755363464
1788674689585776400,8.4897763671875,-0.09407325088977814,0.1667662113904953,-0.6334672570228577
1788674689601676000,8.505676025390626,-0.03237585723400116,0.32070425152778625,-0.5296201705932617
1788674689617575700,8.52157568359375,-0.00427605677396059,0.39645153284072876,-0.2993239760398865
1788674689633505800,8.537505859375,0.056810468435287476,0.3488040566444397,-0.1062905490398407
1788674689649344500,8.553344482421876,0.1771509200334549,0.24373523890972137,0.00855211354792118
1788674689665152500,8.569152587890626,0.2724458873271942,0.11239920556545258,-0.007941247895359993
1788674689681082600,8.58508251953125,0.29504790902137756,-0.0507018156349659,-0.0757472887635231
1788674689696921300,8.60092138671875,0.19303341209888458,-0.1319468915462494,-0.11178833991289139
1788674689712821000,8.616821044921876,-0.015882495790719986,-0.21868975460529327,-0.08979719132184982
1788674689728690200,8.632690185546876,-0.17592918872833252,-0.31093040108680725,-0.031154127791523933
1788674689744528600,8.648528564453125,-0.26022860407829285,-0.2840523421764374,0.036651913076639175
1788674689760428300,8.66442822265625,-0.2382374405860901,-0.11178833991289139,0.08491026610136032
1788674689776267000,8.68026708984375,-0.1368338167667389,0.08185594528913498,0.16249015927314758
1788674689792136200,8.69613623046875,0,0.2767219543457031,0.2272418737411499
1788674689808096800,8.7120966796875,0.11301007121801376,0.37751471996307373,0.29016098380088806
1788674689823935500,8.727935546875,0.1472185254096985,0.3787364661693573,0.2681698501110077
1788674689839774200,8.743774169921876,0.1319468915462494,0.3903428912162781,0.16920967400074005
1788674689855673900,8.759673828125,0.08429940044879913,0.2474004179239273,0.18570303916931152
1788674689871542800,8.775542724609375,0.048258353024721146,0.09162978827953339,0.3488040566444397
1788674689887442400,8.7914423828125,-0.028099801391363144,-0.09346238523721695,0.636521577835083
1788674689903250700,8.807250732421876,-0.21930062770843506,-0.4612032473087311,0.8704829812049866
1788674689919120000,8.823119873046876,-0.5070181488990784,-0.8686503767967224,0.9578366875648499
1788674689942954000,8.8469541015625,-0.6096435189247131,-0.7941248416900635,0.5363397002220154
1788674689958823200,8.8628232421875,-0.45326200127601624,-0.29993483424186707,-0.05925392732024193
1788674689974692400,8.8786923828125,-0.304210901260376,0.24373523890972137,-0.5186246037483215
1788674689990622500,8.89462255859375,-0.22418753802776337,0.6908885836601257,-0.779464066028595
1788674690006522000,8.910522216796876,-0.2590068578720093,0.7171558141708374,-0.6707300543785095
1788674690022391300,8.926391357421876,-0.4105014503002167,0.47280970215797424,-0.251676470041275
1788674690038260500,8.942260498046876,-0.5369505286216736,0.23396138846874237,0.15454891324043274
1788674690054129700,8.958129638671876,-0.6108652353286743,0.0757472887635231,0.46731191873550415
1788674690070059800,8.974059814453126,-0.6059783101081848,0.09957103431224823,0.5192354321479797
1788674690085959400,8.98995947265625,-0.5412266254425049,0.17287486791610718,0.384845107793808
1788674690101859000,9.005859130859376,-0.423329621553421,0.12767083942890167,0.0910189226269722
1788674690117728300,9.021728271484376,-0.28955012559890747,-0.009162978269159794,-0.21380282938480377
1788674690133597400,9.037597412109376,-0.09896016865968704,-0.1667662113904953,-0.5161811113357544
1788674690149497000,9.0534970703125,0.06414084881544113,-0.2785545587539673,-0.6475171446800232
1788674690165427200,9.06942724609375,0.19914206862449646,-0.4080579876899719,-0.6346889734268188
1788674690181265700,9.085265625,0.2626720666885376,-0.4893030524253845,-0.5619960427284241
1788674690197134800,9.101134765625,0.27611109614372253,-0.4893030524253845,-0.4856378734111786
1788674690212973600,9.1169736328125,0.23945917189121246,-0.43737950921058655,-0.4080579876899719
1788674690228842800,9.1328427734375,0.14233160018920898,-0.3066543638706207,-0.2730567753314972
1788674690244712000,9.1487119140625,0.02871066704392433,-0.17043140530586243,-0.13500121235847473
1788674690260550400,9.16455029296875,-0.08552113175392151,-0.03481931984424591,0.006719517521560192
1788674690276480500,9.18048046875,-0.12950342893600464,0.0403171069920063,0.1062905490398407
1788674690292319200,9.1963193359375,-0.0861319974064827,0.06291911751031876,0.17287486791610718
1788674690308249300,9.212249267578125,0.022602014243602753,0.06352998316287994,0.17531833052635193
1788674690324118500,9.228118408203125,0.15271630883216858,-0.03298672288656235,0.16982053220272064
1788674690339957200,9.243957275390626,0.21013765037059784,-0.1814269721508026,0.17409659922122955
1788674690355887400,9.259887451171876,0.2070833146572113,-0.33719760179519653,0.1716531366109848
1788674690371726000,9.27572607421875,0.14966198801994324,-0.3805690407752991,0.18814650177955627
1788674690387656200,9.29165625,0.06169738993048668,-0.2816088795661926,0.19853121042251587
1788674690403525400,9.307525390625,0.031154127791523933,-0.036041051149368286,0.15943582355976105
1788674690419363800,9.32336376953125,0.08185594528913498,0.19975294172763824,0.0959058403968811
1788674690435202600,9.33920263671875,0.09407325088977814,0.11178833991289139,0.09285151958465576
1788674690451102200,9.355102294921876,0.02871066704392433,-0.1667662113904953,0.10873401165008545
1788674690474875400,9.37887548828125,-0.06475171446800232,-0.3927863538265228,0.1362229436635971
1788674690490744600,9.39474462890625,-0.08491026610136032,-0.2577851414680481,0.16859880089759827
1788674690506674700,9.4106748046875,-0.045204028487205505,0.04948008432984352,0.22052235901355743
1788674690522483000,9.42648291015625,0.09040805697441101,0.28955012559890747,0.27611109614372253
1788674690538351900,9.442351806640625,0.25595253705978394,0.3023782968521118,0.2736676335334778
1788674690562186200,9.466186279296876,0.2828305959701538,-0.11545353382825851,0.003054326167330146
1788674690578086000,9.4820859375,0.2431243658065796,-0.3878994286060333,-0.22479841113090515
1788674690593924600,9.497924560546876,0.21991148591041565,-0.5998696684837341,-0.42699480056762695
1788674690609824300,9.51382421875,0.16310101747512817,-0.5833762884140015,-0.5155702829360962
1788674690625724000,9.529723876953126,0.09162978827953339,-0.4086688458919525,-0.5418374538421631
1788674690641623600,9.54562353515625,0.1466076523065567,-0.05009094998240471,-0.5222898125648499
1788674690657492500,9.561492431640625,0.2583959996700287,0.36713001132011414,-0.44837507605552673
1788674690673361700,9.577361572265625,0.2993239760398865,0.6139195561408997,-0.304210901260376
1788674690689261300,9.59326123046875,0.31581732630729675,0.6805039048194885,-0.1062905490398407
1788674690705161000,9.609160888671875,0.2583959996700287,0.5729916095733643,0.11728613078594208
1788674690721030100,9.625030029296875,0.2064724564552307,0.6444628238677979,0.24129177629947662
1788674690736899300,9.6408994140625,0.13927727937698364,0.29077184200286865,0.26022860407829285
1788674690752768500,9.6567685546875,0.1508837193250656,-0.2877175211906433,0.17959438264369965
1788674690768668200,9.672668212890626,0.2730567753314972,-0.27977627515792847,0.09346238523721695
1788674690784567800,9.68856787109375,0.3793473243713379,0.22907446324825287,0.08124507963657379
1788674690800467500,9.704467529296876,0.41661009192466736,0.7305948138237,0.14294247329235077
1788674690816336600,9.720336669921876,0.3689626157283783,0.9297369122505188,0.19486601650714874
1788674690832175000,9.736175048828125,0.22540926933288574,0.7800748944282532,0.20891591906547546
1788674690848044300,9.752044189453125,0.03787364438176155,0.5937610268592834,0.16249015927314758
1788674690863974700,9.767974609375,-0.11178833991289139,0.4440990388393402,0.06841690838336945
1788674690879874300,9.783874267578126,-0.27488934993743896,0.07819075137376785,-0.048258353024721146
1788674690895682300,9.799682373046876,-0.36163222789764404,-0.12522737681865692,-0.00855211354792118
1788674690911551500,9.815551513671876,-0.384845107793808,-0.19975294172763824,0.19058994948863983
1788674690927512000,9.831511962890625,-0.5051855444908142,-0.2174680233001709,0.48319441080093384
1788674690943442200,9.847442138671875,-0.6927211880683899,-0.3549126982688904,0.665232241153717
1788674690959372500,9.86337255859375,-0.8820894360542297,-0.5760459303855896,0.6963863968849182
1788674690975272200,9.879272216796876,-0.9346238374710083,-0.5174028873443604,0.5387831330299377
1788674690991141400,9.895141357421876,-0.8283332586288452,-0.1368338167667389,0.12278391420841217
1788674691006979800,9.910979736328125,-0.5717698931694031,0.2730567753314972,-0.3897320330142975
1788674691022849000,9.92684912109375,-0.2064724564552307,0.5546656250953674,-0.8936958312988281
1788674691038748700,9.942748779296876,-0.05253441259264946,0.4404338300228119,-0.9437867999076843
1788674691054648300,9.9586484375,-0.10934487730264664,0.07147123664617538,-0.49235737323760986
1788674691070517500,9.974517578125,-0.3023782968521118,-0.2681698501110077,0.08796459436416626
1788674691086386700,9.99038671875,-0.4440990388393402,-0.42577308416366577,0.5601634383201599
1788674691102255900,10.006255859375,-0.3677408695220947,-0.2938261926174164,0.6511823534965515
1788674691118124800,10.022124755859375,-0.17959438264369965,-0.08491026610136032,0.4355469346046448
1788674691133963500,10.037963623046876,0.006108652334660292,0.07452555745840073,0.11178833991289139
1788674691149863200,10.05386328125,-0.05864306539297104,0.23029619455337524,-0.18325957655906677
1788674691165824000,10.069823974609376,-0.19120082259178162,0.33475416898727417,-0.3799581825733185
1788674691181693000,10.08569287109375,-0.11239920556545258,0.1661553531885147,-0.5772676467895508
1788674691197592600,10.101592529296875,0.1417207419872284,-0.12217304855585098,-0.685390830039978
1788674691213400800,10.11740087890625,0.2675589919090271,-0.43127086758613586,-0.626747727394104
1788674691229270000,10.13327001953125,0.14049901068210602,-0.6731734871864319,-0.44837507605552673
1788674691245200100,10.1492001953125,-0.030543262138962746,-0.8087855577468872,-0.27977627515792847
1788674691261130200,10.165130126953125,-0.07880161702632904,-0.7397578358650208,-0.20952677726745605
1788674691277060400,10.181060302734375,-0.0555887371301651,-0.5589417219161987,-0.14477506279945374
1788674691292899000,10.196899169921876,-0.04642575979232788,-0.3390302062034607,-0.045204028487205505
1788674691308798700,10.212798828125,-0.05619960278272629,-0.14355333149433136,0.024434609338641167
1788674691324668000,10.22866796875,-0.05009094998240471,-0.04092797264456749,0.03848451003432274
1788674691340537000,10.244537109375,-0.04153883829712868,-0.0757472887635231,-0.009162978269159794
1788674691356467200,10.26046728515625,-0.009162978269159794,-0.11850785464048386,-0.0861319974064827
1788674691372397300,10.276397216796875,0.042760565876960754,-0.2571742534637451,-0.07330382615327835
1788674691388266500,10.2922666015625,0.07819075137376785,-0.3903428912162781,0.03481931984424591
1788674691404166100,10.308166259765626,0.05803219974040985,-0.36651915311813354,0.1514945775270462
1788674691420065800,10.324065673828125,0.08307767659425735,-0.10690141469240189,0.2076941877603531
1788674691435965400,10.33996533203125,0.14294247329235077,0.09346238523721695,0.22846360504627228
1788674691451773700,10.355773681640626,0.15821409225463867,0.2791654169559479,0.24068090319633484
1788674691467642600,10.371642578125,0.02871066704392433,0.24007004499435425,0.2828305959701538
1788674691483511800,10.38751171875,-0.13866640627384186,-0.003054326167330146,0.3988949954509735
1788674691499442200,10.403442138671876,-0.1661553531885147,-0.13500121235847473,0.4801400899887085
1788674691515372300,10.419372314453126,-0.09407325088977814,-0.21807889640331268,0.5009095072746277
1788674691531241500,10.435241455078126,0.04948008432984352,-0.2577851414680481,0.38606682419776917
1788674691547080000,10.451079833984375,0.2938261926174164,-0.06291911751031876,0.09162978827953339
1788674691562949000,10.46694921875,0.513126790523529,0.21013765037059784,-0.13316862285137177
1788674691578818300,10.482818359375,0.6475171446800232,0.32498031854629517,-0.14966198801994324
1788674691594687500,10.4986875,0.6114761233329773,0.13255776464939117,-0.13561208546161652
1788674691610526000,10.51452587890625,0.44104471802711487,-0.21930062770843506,-0.12889257073402405
1788674691626425600,10.530425537109375,0.32681289315223694,-0.4129449129104614,-0.24862214922904968
1788674691642264300,10.546264404296876,0.1869247704744339,-0.7538077235221863,-0.39584067463874817
1788674691658133500,10.562133544921876,0.1111774742603302,-0.7684684991836548,-0.28038713335990906
1788674691674033200,10.578033203125,0.21807889640331268,-0.5406157374382019,0.02932153269648552
1788674691689872000,10.593871826171876,0.4508185386657715,0.04092797264456749,0.3543018400669098
1788674691705771500,10.609771484375,0.607810914516449,0.5674937963485718,0.5479460954666138
1788674691721640400,10.625640380859375,0.7263187766075134,0.720820963382721,0.616973876953125
1788674691745535700,10.64953564453125,0.4954117238521576,0.49235737323760986,0.37751471996307373
1788674691761435400,10.665435302734375,0.18509216606616974,-0.17959438264369965,-0.036041051149368286
1788674691777365800,10.68136572265625,0.14538592100143433,-0.5271766781806946,-0.20830504596233368
1788674691793234700,10.697234619140625,0.1160643994808197,-0.5461135506629944,-0.14782938361167908
1788674691809104000,10.713103759765625,0.0403171069920063,-0.5558874011039734,0.036041051149368286
1788674691825003500,10.72900341796875,0.014049900695681572,-0.46242499351501465,0.3744603991508484
1788674691840872700,10.744872802734376,0.05375614017248154,-0.08979719132184982,0.6579018831253052
1788674691856772400,10.7607724609375,0.13072516024112701,0.30604347586631775,0.7330383062362671
1788674691872641500,10.7766416015625,0.04948008432984352,0.36224308609962463,0.46792277693748474
1788674691888480300,10.792480224609376,-0.08368854224681854,0.2620611786842346,0.13805554807186127
1788674691904380000,10.8083798828125,-0.15454891324043274,0.1514945775270462,-0.16004669666290283
1788674691920248800,10.824248779296875,-0.1459967941045761,0.152105450630188,-0.2736676335334778
1788674691936179200,10.84017919921875,-0.10690141469240189,0.22602014243602753,-0.3604104816913605
1788674691952048400,10.85604833984375,-0.0757472887635231,0.24923302233219147,-0.423329621553421
1788674691967886800,10.871886962890626,-0.025656340643763542,0.22846360504627228,-0.34147366881370544
1788674691983847700,10.88784765625,-0.08124507963657379,0.05253441259264946,-0.018936822190880775
1788674691999716600,10.903716552734375,-0.22296582162380219,-0.05925392732024193,0.39156460762023926
1788674692015647000,10.91964697265625,-0.2785545587539673,-0.02382374368607998,0.4709770977497101
1788674692031546600,10.935546630859376,-0.304210901260376,0.08918632566928864,0.18081611394882202
1788674692047385000,10.951385009765625,-0.3194825351238251,0.3500257730484009,-0.35124751925468445
1788674692063254300,10.967254150390625,-0.27550023794174194,0.4386012554168701,-0.9804387092590332
1788674692079123500,10.98312353515625,-0.31154128909111023,0.13072516024112701,-1.0464121103286743
1788674692095053600,10.999053466796875,-0.42699480056762695,-0.24617868661880493,-0.5357288122177124
1788674692110953200,11.014953125,-0.44715335965156555,-0.4105014503002167,0.04948008432984352
1788674692126852900,11.030852783203125,-0.41172316670417786,-0.16432274878025055,0.45753806829452515
1788674692142722000,11.04672216796875,-0.37690386176109314,0.17043140530586243,0.44287729263305664
1788674692158560800,11.062560791015626,-0.3176499307155609,0.53328537940979,0.1368338167667389
1788674692174491000,11.078490966796876,-0.2632829248905182,0.7141014933586121,-0.24068090319633484
1788674692190390500,11.094390625,-0.3689626157283783,0.7324274182319641,-0.5693264007568359
1788674692206229200,11.110229248046876,-0.49846604466438293,0.6426302194595337,-0.7379252314567566
1788674692222159400,11.126159423828126,-0.5607742667198181,0.24617868661880493,-0.720820963382721
1788674692237998000,11.141998046875,-0.4239404797554016,-0.33719760179519653,-0.4550946056842804
1788674692253928200,11.15792822265625,-0.26450464129447937,-0.6145304441452026,-0.060475658625364304
1788674692269766700,11.1737666015625,-0.13744467496871948,-0.5314527750015259,0.3836233615875244
1788674692285635800,11.1896357421875,0.003054326167330146,-0.4294382631778717,0.5717698931694031
1788674692301566200,11.205566162109376,0.018936822190880775,-0.4202753007411957,0.4764748811721802
1788674692317435100,11.22143505859375,-0.06475171446800232,-0.47280970215797424,0.23273965716362
1788674692333334800,11.237334716796875,-0.16004669666290283,-0.3695734739303589,-0.03176499158143997
1788674692349234400,11.253234375,-0.1814269721508026,-0.24923302233219147,-0.18387043476104736
1788674692365073200,11.2690732421875,-0.1319468915462494,-0.23457226157188416,-0.2541199326515198
1788674692380911900,11.284911865234376,-0.09346238523721695,-0.2474004179239273,-0.25961771607398987
1788674692396811500,11.3008115234375,-0.0910189226269722,-0.21380282938480377,-0.19425514340400696
1788674692412711200,11.316711181640626,-0.05497787147760391,-0.20952677726745605,-0.11728613078594208
1788674692428580400,11.332580322265626,0.00733038317412138,-0.18570303916931152,-0.015271631069481373
1788674692444418800,11.348418701171875,0.056810468435287476,-0.20830504596233368,0.05314527451992035
1788674692460318500,11.364318359375,0.10445795953273773,-0.29138273000717163,0.09285151958465576
1788674692476248600,11.38024853515625,0.1618792861700058,-0.40622538328170776,0.10506882518529892
1788674692492148500,11.3961484375,0.1514945775270462,-0.4434881806373596,0.16859880089759827
1788674692508078600,11.41207861328125,0.1160643994808197,-0.42210787534713745,0.303600013256073
1788674692523886600,11.427886474609375,0.10751228034496307,-0.1918116807937622,0.5192354321479797
1788674692539786200,11.4437861328125,0.2021963894367218,-0.06719517707824707,0.616973876953125
1788674692555686000,11.459685791015625,0.3903428912162781,-0.23151792585849762,0.4440990388393402
1788674692571616300,11.4756162109375,0.44165557622909546,-0.5522221922874451,-0.08857546001672745
1788674692587454700,11.491454833984376,0.3793473243713379,-0.7257078886032104,-0.8301658630371094
1788674692603354400,11.507354248046875,0.25106561183929443,-0.5418374538421631,-0.8839219808578491
1788674692619223600,11.5232236328125,0.14844025671482086,-0.2718350291252136,-0.2785545587539673
1788674692635062300,11.539062255859376,0.06536258012056351,-0.16493362188339233,0.5925393104553223
1788674692651022800,11.55502294921875,0.0555887371301651,-0.18081611394882202,0.9260717034339905
1788674692666892000,11.57089208984375,0.09285151958465576,-0.35552358627319336,0.646906316280365
1788674692682730800,11.586730712890626,0.1111774742603302,-0.4288274049758911,0.12828169763088226
1788674692698630400,11.60263037109375,0.0959058403968811,-0.5503895878791809,-0.32498031854629517
1788674692714530000,11.618530029296876,0.06352998316287994,-0.6029239892959595,-0.43127086758613586
1788674692730399000,11.63439892578125,0.12828169763088226,-0.3988949954509735,-0.3029891550540924
1788674692746268200,11.65026806640625,0.29993483424186707,-0.05314527451992035,-0.19058994948863983
1788674692762167800,11.666167724609375,0.4715879559516907,0.4740314185619354,-0.24190263450145721
1788674692778037000,11.682037109375,0.47830748558044434,0.8161159753799438,-0.413555771112442
1788674692793875700,11.697875732421876,0.3274237811565399,0.7024950385093689,-0.48319441080093384
1788674692809805800,11.713805908203126,0.1875356286764145,0.46364670991897583,-0.33719760179519653
1788674692825675000,11.729675048828126,0.09957103431224823,0.22113321721553802,-0.05009094998240471
1788674692841544200,11.745544189453126,0.05375614017248154,0.10751228034496307,0.17409659922122955
1788674692865378300,11.76937841796875,-0.00427605677396059,0.1820378452539444,0.384845107793808
1788674692881217000,11.785217041015626,-0.05742133408784866,0.21502456068992615,0.403781920671463
1788674692897147100,11.801147216796876,-0.192422553896904,0.25961771607398987,0.3072652220726013
1788674692913016300,11.817016357421876,-0.36224308609962463,0.3836233615875244,0.10384709388017654
1788674692928977000,11.832976806640625,-0.3536909818649292,0.48685958981513977,-0.09040805697441101
1788674692944876500,11.84887646484375,-0.24678955972194672,0.6010913848876953,-0.19058994948863983
1788674692960745700,11.864745849609376,-0.1417207419872284,0.6438519954681396,-0.10323622822761536
1788674692976645400,11.880645263671875,-0.05619960278272629,0.5754350423812866,0.12095131725072861
1788674692992514600,11.8965146484375,-0.07513642311096191,0.4098905920982361,0.20830504596233368
1788674693008444700,11.912444580078125,-0.17470745742321014,0.12828169763088226,0.12950342893600464
1788674693024344300,11.92834423828125,-0.2431243658065796,-0.06719517707824707,0.0555887371301651
1788674693040244000,11.944243896484375,-0.32498031854629517,-0.21868975460529327,0.15943582355976105
1788674693056143600,11.9601435546875,-0.403781920671463,-0.3433062732219696,0.33108896017074585
1788674693071982300,11.975982421875,-0.4660901725292206,-0.24556782841682434,0.3084869384765625
1788674693087912400,11.991912353515625,-0.4337143301963806,0.02076941914856434,-0.012828170321881771
1788674693103812000,12.00781201171875,-0.3225368559360504,0.24984388053417206,-0.6896668672561646
1788674693119650800,12.02365087890625,-0.23579397797584534,0.10751228034496307,-1.0305296182632446
1788674693135520000,12.03952001953125,-0.24862214922904968,-0.21563543379306793,-0.6548475623130798
1788674693151389200,12.05538916015625,-0.36529740691185,-0.42699480056762695,0.242513507604599
1788674693167288800,12.071288818359376,-0.4612032473087311,-0.5577199459075928,0.9517280459403992
1788674693183188500,12.0871884765625,-0.5296201705932617,-0.4251621961593628,1.2834278345108032
1788674693199057700,12.1030576171875,-0.4764748811721802,-0.11362093687057495,1.0464121103286743
1788674693214957300,12.118957275390626,-0.38606682419776917,0.34025195240974426,0.46303585171699524
1788674693230826200,12.134826171875,-0.3396410644054413,0.6493497490882874,-0.030543262138962746
1788674693246756600,12.150756591796876,-0.34697145223617554,0.7110471725463867,-0.35735616087913513
1788674693262625500,12.16662548828125,-0.30054569244384766,0.6102544069290161,-0.4202753007411957
1788674693278525200,12.182525146484375,-0.19486601650714874,0.2938261926174164,-0.3335324227809906
1788674693294364000,12.198364013671876,-0.12278391420841217,-0.02871066704392433,-0.21074850857257843
1788674693310294000,12.2142939453125,-0.06536258012056351,-0.2974913716316223,-0.0708603709936142
1788674693326224400,12.230224365234376,0.02382374368607998,-0.4447098970413208,0.012217304669320583
1788674693342154500,12.246154541015626,0.11362093687057495,-0.4648684561252594,0.09834930300712585
1788674693357932000,12.26193212890625,0.14477506279945374,-0.32986724376678467,0.14294247329235077
1788674693373801200,12.27780126953125,0.13500121235847473,-0.18631389737129211,0.13988813757896423
1788674693389700900,12.293700927734376,0.10751228034496307,-0.15332718193531036,0.11301007121801376
1788674693405600500,12.3096005859375,0.1007927656173706,-0.11911872029304504,0.04337143152952194
1788674693421530600,12.325530517578125,0.0959058403968811,-0.08491026610136032,-0.012828170321881771
1788674693437339000,12.3413388671875,0.1264491081237793,-0.013439035043120384,-0.04153883829712868
1788674693453269000,12.35726904296875,0.15454891324043274,-0.018325956538319588,-0.03420845419168472
1788674693469107700,12.373107666015626,0.13988813757896423,-0.1062905490398407,-0.009162978269159794
1788674693484976600,12.3889765625,0.1258382350206375,-0.19058994948863983,0.04703662544488907
1788674693500907000,12.404906982421876,0.1618792861700058,-0.22663100063800812,0.13011430203914642
1788674693516745500,12.420745361328125,0.29016098380088806,-0.17348572611808777,0.1765400618314743
1788674693532614700,12.43661474609375,0.39156460762023926,-0.09896016865968704,0.2028072625398636
1788674693548453400,12.452453369140626,0.3891211748123169,-0.09896016865968704,0.27550023794174194
1788674693564414000,12.4684140625,0.29993483424186707,-0.09040805697441101,0.3677408695220947
1788674693580313600,12.484313720703126,0.22663100063800812,0.01710422709584236,0.4917465150356293
1788674693604148000,12.50814794921875,0.39584067463874817,0.11850785464048386,0.4648684561252594
1788674693620047600,12.524047607421876,0.6542366743087769,-0.004886921960860491,0.1618792861700058
1788674693635916500,12.53991650390625,0.8020660877227783,-0.2669481039047241,-0.2632829248905182
1788674693651755300,12.55575537109375,0.740368664264679,-0.27061331272125244,-0.588874101638794
1788674693667685400,12.571685302734375,0.6145304441452026,0.02015855349600315,-0.4251621961593628
1788674693683554600,12.587554443359375,0.5424483418464661,0.30115658044815063,0.15943582355976105
1788674693699484700,12.603484619140625,0.5406157374382019,0.35552358627319336,0.598647952079773
1788674693715323400,12.619323486328126,0.5497786998748779,0.2638937830924988,0.5424483418464661
1788674693731192600,12.635192626953126,0.5057964324951172,-0.013439035043120384,0.07513642311096191
1788674693747061800,12.651061767578126,0.4245513379573822,-0.2431243658065796,-0.37140607833862305
1788674693762961400,12.66696142578125,0.384845107793808,-0.33719760179519653,-0.6585127115249634
1788674693778891500,12.6828916015625,0.40744712948799133,-0.22602014243602753,-0.6884451508522034
1788674693794699500,12.698699462890625,0.3933972120285034,-0.05253441259264946,-0.6737843751907349
1788674693810568700,12.714568603515625,0.3280346393585205,-0.02015855349600315,-0.7519751191139221
1788674693826498800,12.730498779296875,0.22357667982578278,-0.08307767659425735,-0.8753699064254761
1788674693842398700,12.746398681640626,0.15821409225463867,-0.14355333149433136,-0.8607091307640076
1788674693858328800,12.762328857421876,0.10201449692249298,-0.25595253705978394,-0.6023131608963013
1788674693874167300,12.778167236328125,0.054367005825042725,-0.31642818450927734,-0.26572638750076294
1788674693890067000,12.79406689453125,0.024434609338641167,-0.4086688458919525,0.07513642311096191
1788674693905966600,12.809966552734375,0.005497787147760391,-0.35063666105270386,0.2217440903186798
1788674693921897000,12.82589697265625,-0.019547687843441963,-0.1612684279680252,0.2376265823841095
1788674693937827000,12.8418271484375,-0.042760565876960754,0.001832595793530345,0.16737708449363708
1788674693953665800,12.857665771484376,-0.10751228034496307,0.08979719132184982,0.03420845419168472
1788674693969565400,12.8735654296875,-0.1716531366109848,0.16982053220272064,-0.06902777403593063
1788674693985434400,12.889434326171875,-0.21502456068992615,0.2571742534637451,-0.15393804013729095
1788674694001364700,12.90536474609375,-0.2669481039047241,0.2626720666885376,-0.12828169763088226
1788674694017264400,12.921264404296876,-0.34086281061172485,0.1966986060142517,-0.045204028487205505
1788674694033133600,12.937133544921876,-0.3805690407752991,0.11423180252313614,-0.01710422709584236
1788674694049002500,12.95300244140625,-0.3995058834552765,0.03726277872920036,0.03420845419168472
1788674694064932900,12.968932861328126,-0.4288274049758911,-0.05253441259264946,0.11545353382825851
1788674694080802000,12.984802001953126,-0.45142942667007446,-0.13744467496871948,0.1918116807937622
1788674694096732200,13.000732177734376,-0.43615779280662537,-0.2474004179239273,0.3549126982688904
1788674694112509700,13.016509765625,-0.40683624148368835,-0.23945917189121246,0.48869219422340393
1788674694128379000,13.03237890625,-0.42088615894317627,-0.16737708449363708,0.49296826124191284
1788674694144309000,13.04830908203125,-0.39706242084503174,0.0012217304902151227,0.19364428520202637
1788674694160208600,13.064208740234376,-0.28527405858039856,0.18448130786418915,-0.4147774875164032
1788674694184043000,13.08804296875,-0.23884831368923187,0.06780604273080826,-0.6493497490882874
1788674694199912000,13.103911865234375,-0.3243694305419922,-0.22479841113090515,-0.16004669666290283
1788674694215842300,13.11984228515625,-0.41661009192466736,-0.3744603991508484,0.4703662395477295
1788674694231680800,13.1356806640625,-0.46670106053352356,-0.37629300355911255,0.7715228199958801
1788674694247580400,13.151580322265625,-0.5057964324951172,-0.2565633952617645,0.6774495840072632
1788674694263480000,13.16747998046875,-0.5021312236785889,0.021380282938480377,0.3500257730484009
1788674694287284000,13.191283935546876,-0.4538728892803192,0.4764748811721802,-0.17043140530586243
1788674694303183600,13.20718359375,-0.39584067463874817,0.6004805564880371,-0.2987131178379059
1788674694319083300,13.223083251953126,-0.3182607889175415,0.626747727394104,-0.3029891550540924
1788674694335013400,13.239013427734376,-0.2638937830924988,0.5351179838180542,-0.24678955972194672
1788674694350882600,13.254882568359376,-0.22540926933288574,0.26450464129447937,-0.17104226350784302
1788674694366751700,13.270751708984376,-0.192422553896904,0.04581489413976669,-0.08796459436416626
1788674694382620700,13.28662060546875,-0.12461651116609573,-0.16798794269561768,-0.012217304669320583
1788674694398520300,13.302520263671875,-0.0507018156349659,-0.24862214922904968,0.016493361443281174
1788674694414450700,13.31845068359375,-0.009162978269159794,-0.25595253705978394,0.007941247895359993
1788674694430289200,13.3342890625,-0.019547687843441963,-0.2785545587539673,-0.015271631069481373
1788674694446188800,13.350188720703125,-0.04459316283464432,-0.32070425152778625,-0.0403171069920063
1788674694462088400,13.36608837890625,-0.06841690838336945,-0.32498031854629517,-0.09957103431224823
1788674694478018800,13.382018798828126,-0.06108652427792549,-0.25534167885780334,-0.13805554807186127
1788674694493857300,13.397857177734375,0.015882495790719986,-0.15332718193531036,-0.1319468915462494
1788674694509696000,13.413696044921876,0.10323622822761536,-0.06108652427792549,-0.10445795953273773
1788674694525565200,13.429565185546876,0.16859880089759827,-0.014049900695681572,-0.10873401165008545
1788674694541464800,13.44546484375,0.15393804013729095,-0.1014036312699318,-0.10690141469240189
1788674694557364500,13.461364501953126,0.08429940044879913,-0.1618792861700058,-0.02076941914856434
1788674694573294600,13.477294677734376,0.05192354694008827,-0.21135938167572021,0.06902777403593063
1788674694589133300,13.49313330078125,0.04764748737215996,-0.294437050819397,0.04764748737215996
1788674694605033000,13.509032958984376,0.006719517521560192,-0.2620611786842346,0.016493361443281174
1788674694620993500,13.52499365234375,-0.012217304669320583,-0.11178833991289139,0.11789698898792267
1788674694636893200,13.54089306640625,0.02321287989616394,0.0024434609804302454,0.2822197377681732
1788674694652792800,13.556792724609375,0.15393804013729095,-0.02076941914856434,0.3781255781650543
1788674694668631600,13.572631591796876,0.3536909818649292,-0.25961771607398987,0.2877175211906433
1788674694684531200,13.58853125,0.4954117238521576,-0.607200026512146,-0.04092797264456749
1788674694700370000,13.604369873046876,0.4544837474822998,-0.6120869517326355,-0.25961771607398987
1788674694716300000,13.620300048828126,0.3982841372489929,-0.22540926933288574,-0.1062905490398407
1788674694732199700,13.63619970703125,0.39767327904701233,0.10812314599752426,0.3585779070854187
1788674694748038100,13.6520380859375,0.4282165467739105,0.15027284622192383,0.6285803318023682
1788674694763907300,13.6679072265625,0.413555771112442,0.04581489413976669,0.4764748811721802
1788674694779746000,13.68374609375,0.3188716471195221,-0.16493362188339233,0.0959058403968811
1788674694795676200,13.69967626953125,0.2840523421764374,-0.3781255781650543,-0.08002334833145142
1788674694811575800,13.715575927734376,0.2974913716316223,-0.26511552929878235,-0.05864306539297104
1788674694827414500,13.73141455078125,0.3286454975605011,-0.0806342139840126,0.04948008432984352
1788674694843344600,13.7473447265625,0.32131510972976685,-0.012828170321881771,-0.04581489413976669
1788674694859213800,13.7632138671875,0.2932153046131134,0.03787364438176155,-0.35063666105270386
1788674694875113500,13.779113525390626,0.2669481039047241,0.10873401165008545,-0.5393940210342407
1788674694891043600,13.795043701171876,0.18936823308467865,0.13255776464939117,-0.45875978469848633
1788674694906882300,13.81088232421875,0.1007927656173706,0.12095131725072861,-0.15332718193531036
1788674694922751500,13.82675146484375,0.06536258012056351,0.08429940044879913,0.2125810980796814
1788674694938620400,13.842620361328125,0.07696902006864548,0.029932396486401558,0.35063666105270386
1788674694954489600,13.858489501953125,0.08674286305904388,0.03420845419168472,0.2968805134296417
1788674694970389200,13.87438916015625,0.0806342139840126,0.019547687843441963,0.18814650177955627
1788674694986185000,13.89018505859375,0.06169738993048668,-0.009773843921720982,0.09040805697441101
1788674695002054000,13.906053955078125,0.03176499158143997,0.016493361443281174,0.06719517707824707
1788674695017923000,13.921923095703125,-0.009162978269159794,0.11301007121801376,0.0861319974064827
1788674695033822700,13.93782275390625,-0.04703662544488907,0.2174680233001709,0.11728613078594208
1788674695049722400,13.953722412109375,-0.10934487730264664,0.24434609711170197,0.10201449692249298
1788674695065500200,13.969500244140624,-0.21991148591041565,0.12889257073402405,0.027488935738801956
1788674695081399800,13.98539990234375,-0.394618958234787,-0.07513642311096191,-0.05619960278272629
1788674695097330000,14.001329833984375,-0.4746423065662384,-0.1973094791173935,-0.04948008432984352
1788674695113229600,14.0172294921875,-0.44715335965156555,-0.1869247704744339,0.09468411654233932
1788674695129129200,14.033129150390625,-0.3396410644054413,-0.0861319974064827,0.33597588539123535
1788674695145028900,14.04902880859375,-0.2987131178379059,0.03848451003432274,0.6236934065818787
1788674695160898000,14.06489794921875,-0.44287729263305664,0.16249015927314758,0.6530149579048157
1788674695176736500,14.080736572265625,-0.6059783101081848,0.21380282938480377,0.35735616087913513
1788674695192667000,14.0966669921875,-0.7049384713172913,0.2742784917354584,-0.2321287989616394
1788674695208566500,14.11256640625,-0.6884451508522034,0.2321287989616394,-0.7556403279304504
1788674695224435700,14.128435791015624,-0.626747727394104,-0.00733038317412138,-0.9633345007896423
1788674695240304600,14.1443046875,-0.5699372887611389,-0.21441370248794556,-0.5815436840057373
1788674695256143400,14.160143310546875,-0.4550946056842804,-0.19547687470912933,0.22540926933288574
1788674695272073500,14.176073486328125,-0.3066543638706207,-0.0403171069920063,0.7489207983016968
1788674695287973000,14.19197314453125,-0.1508837193250656,0.18081611394882202,0.8643743395805359
1788674695303781400,14.207781494140624,-0.08307767659425735,0.4086688458919525,0.5088507533073425
1788674695319650600,14.223650634765624,-0.11423180252313614,0.4489859640598297,0.05742133408784866
1788674695335550200,14.23955029296875,-0.14477506279945374,0.3536909818649292,-0.10995574295520782
1788674695351449900,14.255449951171874,-0.11972958594560623,0.18814650177955627,-0.06963863968849182
1788674695367318800,14.27131884765625,-0.08796459436416626,0.02015855349600315,0.02932153269648552
1788674695383218400,14.287218505859375,-0.08368854224681854,-0.0861319974064827,0.04398229718208313
1788674695399118300,14.303118408203124,-0.08429940044879913,-0.1160643994808197,-0.06230825558304787
1788674695414956800,14.318956787109375,-0.07024950534105301,-0.10873401165008545,-0.21441370248794556
1788674695430887000,14.334886962890625,-0.05314527451992035,-0.07941248267889023,-0.2535090744495392
1788674695446786600,14.35078662109375,-0.036041051149368286,0.01710422709584236,-0.19608774781227112
1788674695462655700,14.36665576171875,-0.03848451003432274,0.13500121235847473,-0.12095131725072861
1788674695478525000,14.38252490234375,-0.04459316283464432,0.18936823308467865,0.010995574295520782
1788674695494424600,14.398424560546875,-0.012217304669320583,0.17470745742321014,0.15271630883216858
1788674695510354700,14.414354736328125,0.09896016865968704,0.13744467496871948,0.2480112910270691
1788674695526285000,14.43028515625,0.18936823308467865,0.04948008432984352,0.252287358045578
1788674695542123500,14.44612353515625,0.21868975460529327,-0.05803219974040985,0.19608774781227112
1788674695558023200,14.462023193359375,0.24190263450145721,-0.28955012559890747,0.12339477986097336
1788674695573892400,14.477892333984375,0.27122417092323303,-0.475253164768219,0.08368854224681854
1788674695589822500,14.493822509765625,0.3439171314239502,-0.46792277693748474,0.10201449692249298
1788674695605691600,14.509691650390625,0.3952298164367676,-0.394618958234787,0.18875735998153687
1788674695621530400,14.5255302734375,0.37629300355911255,-0.3628539443016052,0.32620203495025635
1788674695637430000,14.541429931640625,0.29993483424186707,-0.33047810196876526,0.4331034719944
1788674695653268500,14.5572685546875,0.26022860407829285,-0.16554448008537292,0.5821545720100403
1788674695669168400,14.57316845703125,0.2669481039047241,-0.09468411654233932,0.6340781450271606
1788674695685037300,14.589037353515625,0.2681698501110077,-0.21502456068992615,0.46242499351501465
1788674695700937000,14.60493701171875,0.32070425152778625,-0.5192354321479797,0.09285151958465576
1788674695716775700,14.620775634765625,0.40194934606552124,-0.7666358947753906,-0.5907067060470581
1788674695732675300,14.63667529296875,0.43615779280662537,-0.4245513379573822,-1.0231993198394775
1788674695748544500,14.65254443359375,0.4489859640598297,0.19425514340400696,-0.9639453291893005
1788674695764474600,14.668474609375,0.46547931432724,0.5027421116828918,-0.5461135506629944
1788674695780283000,14.684282958984374,0.504574716091156,0.48747047781944275,-0.045204028487205505
1788674695796151800,14.70015185546875,0.4807509481906891,0.20097467303276062,0.1313360333442688
1788674695812051500,14.716051513671875,0.3439171314239502,-0.16432274878025055,0.02626720629632473
1788674695827951000,14.731951171875,0.23457226157188416,-0.3029891550540924,-0.1508837193250656
1788674695843851000,14.74785107421875,0.22296582162380219,-0.23396138846874237,-0.2889392673969269
1788674695859689500,14.763689453125,0.29626965522766113,-0.09224065393209457,-0.33108896017074585
1788674695875589000,14.779589111328125,0.3634648323059082,0.04581489413976669,-0.3732386529445648
1788674695891427800,14.795427734375,0.3017674386501312,0.05864306539297104,-0.37690386176109314
1788674695907327500,14.811327392578125,0.16859880089759827,0.02871066704392433,-0.27977627515792847
1788674695923257600,14.827257568359375,0.06230825558304787,0.06475171446800232,-0.1258382350206375
1788674695939065600,14.843065673828125,0.0012217304902151227,0.10018189996480942,-0.07024950534105301
1788674695954965500,14.858965576171874,-0.029932396486401558,0.13744467496871948,-0.12095131725072861
1788674695970895600,14.8748955078125,-0.05192354694008827,0.15027284622192383,-0.14294247329235077
1788674695986795300,14.890795166015625,-0.051312681287527084,0.2583959996700287,-0.09407325088977814
1788674696002725400,14.906725341796875,-0.02626720629632473,0.44715335965156555,-0.014049900695681572
1788674696018564000,14.922564208984374,0.01160643994808197,0.5833762884140015,0.08002334833145142
1788674696034402600,14.938402587890625,-0.018325956538319588,0.5601634383201599,0.1466076523065567
1788674696050302200,14.95430224609375,-0.17409659922122955,0.4447098970413208,0.1508837193250656
1788674696066171400,14.97017138671875,-0.29504790902137756,0.29565876722335815,0.010995574295520782
1788674696082071000,14.986071044921875,-0.35246923565864563,0.09224065393209457,-0.18570303916931152
1788674696097909800,15.00190966796875,-0.3683517575263977,-0.016493361443281174,-0.2070833146572113
1788674696113839900,15.01783984375,-0.3323107063770294,-0.03848451003432274,0.015271631069481373
1788674696129709000,15.033708984375,-0.27488934993743896,0.029932396486401558,0.32070425152778625
1788674696145639200,15.04963916015625,-0.27122417092323303,0.05619960278272629,0.6835582256317139
1788674696161538800,15.065538818359375,-0.30543261766433716,0.0024434609804302454,0.8417723178863525
1788674696177438500,15.0814384765625,-0.3701843321323395,-0.06902777403593063,0.6640105247497559
1788674696193307600,15.0973076171875,-0.4098905920982361,-0.06352998316287994,0.18509216606616974
1788674696209146400,15.113146484375,-0.4740314185619354,-0.04337143152952194,-0.48319441080093384
1788674696225046000,15.1290458984375,-0.5320636034011841,-0.01710422709584236,-0.9523389339447021
1788674696240915200,15.144915283203124,-0.6010913848876953,-0.15943582355976105,-0.9627236127853394
1788674696256784100,15.1607841796875,-0.6230825781822205,-0.24068090319633484,-0.34636059403419495
1788674696272683800,15.176683837890625,-0.5070181488990784,-0.1612684279680252,0.5681046843528748
1788674696288522500,15.1925224609375,-0.3695734739303589,-0.018325956538319588,0.9663888216018677
1788674696304452600,15.20845263671875,-0.28038713335990906,0.07513642311096191,0.797789990901947
1788674696320321800,15.22432177734375,-0.29138273000717163,0.05009094998240471,0.1820378452539444
1788674696336191000,15.24019091796875,-0.33475416898727417,0.03420845419168472,-0.3323107063770294
1788674696352121000,15.25612109375,-0.3188716471195221,-0.015271631069481373,-0.6108652353286743
1788674696367959800,15.271959716796875,-0.27550023794174194,-0.13316862285137177,-0.5467243790626526
1788674696383890000,15.287889892578125,-0.2064724564552307,-0.19792033731937408,-0.3885102868080139
1788674696399820000,15.303820068359375,-0.14477506279945374,-0.294437050819397,-0.3237585723400116
1788674696415628300,15.319628173828125,-0.009773843921720982,-0.28038713335990906,-0.35246923565864563
1788674696431497500,15.33549755859375,0.10445795953273773,-0.18081611394882202,-0.34574973583221436
1788674696447397000,15.351397216796874,0.15393804013729095,-0.10323622822761536,-0.2028072625398636
1788674696463266000,15.36726611328125,0.15454891324043274,-0.06963863968849182,-0.01466076634824276
1788674696479165700,15.383165771484375,0.12339477986097336,-0.10201449692249298,0.08552113175392151
1788674696495065600,15.399065673828124,0.04337143152952194,-0.20525072515010834,0.00366519158706069
1788674696510965200,15.41496533203125,-0.01160643994808197,-0.27977627515792847,-0.21807889640331268
1788674696526803700,15.4308037109375,-0.0024434609804302454,-0.31154128909111023,-0.3390302062034607
1788674696542673000,15.4466728515625,0.04948008432984352,-0.303600013256073,-0.3194825351238251
1788674696558603000,15.46260302734375,0.13805554807186127,-0.2871066629886627,-0.17287486791610718
1788674696574472200,15.47847216796875,0.2321287989616394,-0.23151792585849762,0.02626720629632473
1788674696590371800,15.494371826171875,0.2687807083129883,-0.10506882518529892,0.10995574295520782
1788674696606241000,15.510240966796875,0.2742784917354584,0.01771509274840355,0.1814269721508026
1788674696622171100,15.526171142578125,0.2736676335334778,0.06230825558304787,0.29993483424186707
1788674696638040300,15.542040283203125,0.2370157092809677,-0.004886921960860491,0.4086688458919525
1788674696653879000,15.557879150390624,0.19486601650714874,-0.05803219974040985,0.40256020426750183
1788674696669778700,15.57377880859375,0.1417207419872284,-0.0708603709936142,0.3640756905078888
1788674696685708800,15.589708740234375,0.1563815027475357,-0.01771509274840355,0.3286454975605011
1788674696701608400,15.6056083984375,0.24556782841682434,-0.04886921867728233,0.23579397797584534
1788674696717477600,15.6214775390625,0.39156460762023926,-0.2620611786842346,0.03176499158143997
1788674696733285600,15.63728564453125,0.4856378734111786,-0.42699480056762695,-0.2541199326515198
1788674696749154800,15.65315478515625,0.45814892649650574,-0.23335053026676178,-0.48808133602142334
1788674696765024000,15.66902392578125,0.42210787534713745,0.1563815027475357,-0.3591887652873993
1788674696780954000,15.6849541015625,0.4245513379573822,0.4098905920982361,0.07452555745840073
1788674696796853800,15.700853759765625,0.44715335965156555,0.38728857040405273,0.403781920671463
1788674696812692500,15.7166923828125,0.4538728892803192,0.15882496535778046,0.41111230850219727
1788674696836557000,15.74055712890625,0.3341432809829712,-0.4050036668777466,-0.20402899384498596
1788674696852334800,15.7563349609375,0.23518311977386475,-0.6065891981124878,-0.6243042945861816
1788674696868204000,15.7722041015625,0.2125810980796814,-0.5748242139816284,-0.6725626587867737
1788674696884134100,15.788134033203125,0.2834414839744568,-0.3995058834552765,-0.47280970215797424
1788674696900064300,15.804064208984375,0.3549126982688904,-0.11972958594560623,-0.2767219543457031
1788674696915933400,15.819933349609375,0.2816088795661926,0.0403171069920063,-0.2223549485206604
1788674696931802600,15.835802734375,0.1459967941045761,0.05619960278272629,-0.2382374405860901
1788674696955698000,15.859697998046874,-0.0507018156349659,-0.17470745742321014,-0.2021963894367218
1788674696971566800,15.87556689453125,-0.12339477986097336,-0.24678955972194672,-0.07269296050071716
1788674696987466500,15.891466552734375,-0.10018189996480942,-0.19547687470912933,0.04153883829712868
1788674697003335700,15.907335693359375,-0.015882495790719986,-0.08307767659425735,0.14294247329235077
1788674697019266000,15.92326611328125,0.021380282938480377,0.0006108652451075613,0.2070833146572113
1788674697035165700,15.939165771484374,0.0012217304902151227,0.04703662544488907,0.20586158335208893
1788674697051004200,15.955004150390625,-0.04764748737215996,0.048258353024721146,0.13988813757896423
1788674697066903800,15.97090380859375,-0.08307767659425735,0.1111774742603302,0.05314527451992035
1788674697082803500,15.986803466796875,-0.10812314599752426,0.15271630883216858,-0.048258353024721146
1788674697098703000,16.002703125,-0.08368854224681854,0.25106561183929443,-0.1270599663257599
1788674697114602800,16.018602783203125,0.006719517521560192,0.3701843321323395,-0.04337143152952194
1788674697130441500,16.03444140625,0.016493361443281174,0.31459560990333557,0.16798794269561768
1788674697146310700,16.050310546875,-0.07208210229873657,0.12767083942890167,0.3634648323059082
1788674697162210300,16.066210205078125,-0.12339477986097336,-0.015882495790719986,0.4288274049758911
1788674697178110000,16.08210986328125,-0.11789698898792267,-0.16493362188339233,0.5119050741195679
1788674697194040000,16.0980400390625,-0.09040805697441101,-0.21380282938480377,0.6505714654922485
1788674697209939700,16.113939697265625,-0.1459967941045761,-0.2474004179239273,0.6230825781822205
1788674697225809000,16.129808837890625,-0.3017674386501312,-0.17959438264369965,0.2272418737411499
1788674697241678000,16.145677978515625,-0.4764748811721802,0.1508837193250656,-0.5265658497810364
1788674697257547300,16.16154736328125,-0.4905247986316681,0.375071257352829,-1.0671815872192383
1788674697273477400,16.177477294921875,-0.42577308416366577,0.27061331272125244,-0.9456194043159485
1788674697289316000,16.193316162109376,-0.423329621553421,-0.08429940044879913,-0.2168571650981903
1788674697313241900,16.217241943359376,-0.40194934606552124,-0.35124751925468445,0.9724974632263184
1788674697329019400,16.233019287109375,-0.4282165467739105,-0.27488934993743896,1.009149432182312
1788674697344919000,16.2489189453125,-0.4080579876899719,0.014049900695681572,0.5479460954666138
1788674697360818700,16.264818603515625,-0.36224308609962463,0.29626965522766113,-0.06536258012056351
1788674697376718300,16.28071826171875,-0.33169981837272644,0.3689626157283783,-0.36713001132011414
1788674697400522000,16.30452197265625,-0.2889392673969269,0.33719760179519653,-0.4288274049758911
1788674697416391200,16.32039111328125,-0.3274237811565399,0.2119702398777008,-0.394008070230484
1788674697432290800,16.336290771484375,-0.33719760179519653,0.08552113175392151,-0.43249258399009705
1788674697448129500,16.352129638671876,-0.2840523421764374,-0.11239920556545258,-0.42271876335144043
1788674697464059600,16.3680595703125,-0.18631389737129211,-0.18997909128665924,-0.3243694305419922
1788674697479898400,16.3838984375,-0.027488935738801956,-0.1472185254096985,-0.16493362188339233
1788674697495828500,16.399828369140625,0.06291911751031876,-0.10018189996480942,-0.048258353024721146
1788674697511758600,16.415758544921875,0.0910189226269722,-0.12339477986097336,0.00366519158706069
1788674697527536000,16.4315361328125,0.07452555745840073,-0.1411098688840866,-0.018325956538319588
1788674697543405300,16.4474052734375,0.04886921867728233,-0.18875735998153687,-0.05619960278272629
1788674697559335400,16.46333544921875,0.06230825558304787,-0.18814650177955627,-0.10567969083786011
1788674697575265800,16.479265869140626,0.12339477986097336,-0.13255776464939117,-0.11667526513338089
1788674697591165400,16.49516552734375,0.17287486791610718,-0.0959058403968811,-0.07024950534105301
1788674697614938600,16.518938720703126,0.2370157092809677,-0.0708603709936142,0.15027284622192383
1788674697630838300,16.53483837890625,0.2431243658065796,-0.10934487730264664,0.2822197377681732
1788674697646707200,16.550707275390625,0.2076941877603531,-0.1918116807937622,0.24434609711170197
1788674697662576400,16.566576416015625,0.15882496535778046,-0.2577851414680481,0.13316862285137177
1788674697678506800,16.5825068359375,0.14355333149433136,-0.26450464129447937,0.14294247329235077
1788674697694406400,16.598406494140626,0.17348572611808777,-0.2064724564552307,0.3182607889175415
1788674697710275300,16.614275390625,0.19975294172763824,-0.09285151958465576,0.5155702829360962
1788674697726114000,16.630114013671875,0.2272418737411499,0.03787364438176155,0.6432411074638367
1788674697741983200,16.645983154296875,0.2376265823841095,0.03726277872920036,0.5442809462547302
1788674697757943800,16.66194384765625,0.2217440903186798,-0.09712757170200348,0.19058994948863983
1788674697773843500,16.677843505859375,0.24862214922904968,-0.2785545587539673,-0.23151792585849762
1788674697789743000,16.6937431640625,0.26511552929878235,-0.4398229718208313,-0.6414085030555725
1788674697805612300,16.7096123046875,0.23273965716362,-0.34086281061172485,-0.6450737118721008
1788674697821481500,16.7254814453125,0.22296582162380219,-0.027488935738801956,-0.16859880089759827
1788674697837381000,16.741381103515625,0.2382374405860901,0.13744467496871948,0.32681289315223694
1788674697853280800,16.75728076171875,0.27611109614372253,0.18509216606616974,0.5406157374382019
1788674697869211000,16.7732109375,0.3139847218990326,0.11972958594560623,0.33475416898727417
1788674697885019100,16.78901904296875,0.2535090744495392,-0.13500121235847473,-0.16493362188339233
1788674697900918800,16.804918701171875,0.13927727937698364,-0.3396410644054413,-0.50335294008255
1788674697916849000,16.820848876953125,0.04153883829712868,-0.44593164324760437,-0.5369505286216736
1788674697932718000,16.836718017578125,0.024434609338641167,-0.38179078698158264,-0.3072652220726013
1788674697948617700,16.85261767578125,0.06902777403593063,-0.1569923609495163,-0.0012217304902151227
1788674697964456400,16.86845654296875,0.03176499158143997,-0.018936822190880775,0.11484266817569733
1788674697980356000,16.884356201171876,-0.05803219974040985,-0.033597588539123535,0.015271631069481373
1788674697996225000,16.90022509765625,-0.14782938361167908,-0.04764748737215996,-0.14294247329235077
1788674698012155400,16.9161552734375,-0.18509216606616974,-0.09407325088977814,-0.16737708449363708
1788674698028055000,16.932054931640625,-0.14233160018920898,-0.08735372871160507,-0.05803219974040985
1788674698043863000,16.947863037109375,-0.07147123664617538,-0.04948008432984352,0.07147123664617538
1788674698059762700,16.9637626953125,0.005497787147760391,0.021380282938480377,0.13927727937698364
1788674698075662300,16.979662353515625,0.022602014243602753,0.08796459436416626,0.13072516024112701
1788674698091562000,16.99556201171875,-0.00427605677396059,0.09896016865968704,0.08429940044879913
1788674698107431200,17.01143115234375,-0.03237585723400116,0.08735372871160507,0.033597588539123535
1788674698123270000,17.027269775390625,-0.05619960278272629,0.11056660860776901,0.056810468435287476
1788674698139139000,17.04313916015625,-0.08307767659425735,0.10262536257505417,0.1563815027475357
1788674698155038700,17.059038818359376,-0.1111774742603302,0.1319468915462494,0.2632829248905182
1788674698170907600,17.07490771484375,-0.1111774742603302,0.19120082259178162,0.29565876722335815
1788674698186868500,17.090868408203125,-0.12095131725072861,0.20036379992961884,0.2877175211906433
1788674698202676500,17.106676513671875,-0.1612684279680252,0.18570303916931152,0.3182607889175415
1788674698218576100,17.122576171875,-0.17409659922122955,0.1563815027475357,0.38728857040405273
1788674698242410500,17.146410400390625,-0.11301007121801376,0.14905111491680145,0.618195652961731
1788674698258310100,17.16231005859375,-0.07452555745840073,0.14294247329235077,0.7751879692077637
1788674698274179300,17.178179443359376,-0.1319468915462494,0.013439035043120384,0.6609562039375305
1788674698290109400,17.194109375,-0.2272418737411499,-0.08735372871160507,0.24495697021484375
1788674698306039600,17.21003955078125,-0.30970868468284607,-0.14355333149433136,-0.2889392673969269
1788674698321878300,17.225878173828125,-0.3597996234893799,-0.15393804013729095,-0.6542366743087769
1788674698337778000,17.24177783203125,-0.3646865487098694,-0.09162978827953339,-0.7635815739631653
1788674698353647000,17.257647216796876,-0.3677408695220947,-0.17837265133857727,-0.45814892649650574
1788674698369546800,17.273546630859375,-0.4196644127368927,-0.2834414839744568,0.10873401165008545
1788674698385446400,17.2894462890625,-0.44776421785354614,-0.23945917189121246,0.4196644127368927
1788674698401284900,17.305284912109375,-0.38606682419776917,0.007941247895359993,0.4086688458919525
1788674698417154000,17.321154052734375,-0.2877175211906433,0.2974913716316223,0.17837265133857727
1788674698433023200,17.337023193359375,-0.22907446324825287,0.5497786998748779,-0.13805554807186127
1788674698448953300,17.352953369140625,-0.1618792861700058,0.607810914516449,-0.294437050819397
1788674698464853000,17.36885302734375,-0.0708603709936142,0.5088507533073425,-0.27550023794174194
1788674698480691700,17.384691650390625,-0.07208210229873657,0.28038713335990906,-0.16798794269561768
1788674698496591400,17.40059130859375,-0.10323622822761536,-0.04337143152952194,-0.05803219974040985
1788674698512430000,17.41643017578125,-0.10384709388017654,-0.2742784917354584,-0.02687807008624077
1788674698528360200,17.432360107421875,-0.08185594528913498,-0.4251621961593628,-0.045204028487205505
1788674698544259800,17.448259765625,-0.03481931984424591,-0.43127086758613586,-0.04214970022439957
1788674698560098600,17.4640986328125,-0.021380282938480377,-0.3878994286060333,-0.012828170321881771
1788674698575967500,17.479967529296875,-0.04948008432984352,-0.2822197377681732,-0.01466076634824276
1788674698591836700,17.495836669921875,-0.0910189226269722,-0.17531833052635193,-0.06902777403593063
1788674698607736300,17.511736328125,-0.13439035415649414,-0.08246681094169617,-0.16798794269561768
1788674698623636000,17.527635986328125,-0.1466076523065567,-0.04214970022439957,-0.24678955972194672
1788674698639474700,17.543474609375,-0.0757472887635231,-0.007941247895359993,-0.294437050819397
1788674698655374300,17.559374267578125,0.012828170321881771,-0.04764748737215996,-0.27000242471694946
1788674698671213000,17.575213134765626,0.08857546001672745,-0.17348572611808777,-0.1313360333442688
1788674698687143200,17.59114306640625,0.14966198801994324,-0.2742784917354584,0.042760565876960754
1788674698703042800,17.607042724609375,0.22846360504627228,-0.3536909818649292,0.21991148591041565
1788674698718850800,17.622850830078125,0.28466320037841797,-0.3445279896259308,0.2730567753314972
1788674698734720000,17.638719970703125,0.3494149148464203,-0.23884831368923187,0.21013765037059784
1788674698750589200,17.654589111328125,0.3695734739303589,-0.15454891324043274,0.1313360333442688
1788674698766519300,17.670519287109375,0.313373863697052,-0.1014036312699318,0.1722639948129654
1788674698782419000,17.6864189453125,0.2681698501110077,-0.01466076634824276,0.3738495409488678
1788674698798196500,17.702196533203125,0.2840523421764374,0.07819075137376785,0.6493497490882874
1788674698814065700,17.718065673828125,0.3530801236629486,0.1368338167667389,0.7037167549133301
1788674698829965300,17.73396533203125,0.4001167416572571,0.06841690838336945,0.46792277693748474
1788674698845865000,17.749864990234375,0.4343251883983612,-0.13316862285137177,0.08246681094169617
1788674698861764600,17.7657646484375,0.3988949954509735,-0.46731191873550415,-0.35185837745666504
1788674698877633800,17.7816337890625,0.26511552929878235,-0.5070181488990784,-0.43249258399009705
1788674698893503000,17.7975029296875,0.15515977144241333,-0.2565633952617645,-0.08124507963657379
1788674698909341700,17.813341796875,0.13377949595451355,-0.11728613078594208,0.2968805134296417
1788674698925271800,17.829271728515625,0.14049901068210602,-0.0708603709936142,0.4349360466003418
1788674698941171500,17.84517138671875,0.19975294172763824,-0.0555887371301651,0.24923302233219147
1788674698957040600,17.86104052734375,0.23518311977386475,-0.08307767659425735,-0.08735372871160507
1788674698972970800,17.876970703125,0.2015855312347412,-0.13805554807186127,-0.29993483424186707
1788674698988809500,17.8928095703125,0.1160643994808197,-0.2376265823841095,-0.3384193480014801
1788674699004709000,17.908709228515626,0.05192354694008827,-0.2583959996700287,-0.25595253705978394
1788674699020608800,17.92460888671875,0.039095375686883926,-0.17837265133857727,-0.12095131725072861
1788674699036478000,17.94047802734375,0.004886921960860491,-0.013439035043120384,0.015271631069481373
1788674699052347000,17.956346923828125,-0.02015855349600315,0.13866640627384186,0.06475171446800232
1788674699068216000,17.972216064453125,-0.03787364438176155,0.2217440903186798,0.04337143152952194
1788674699084115700,17.98811572265625,-0.06719517707824707,0.15393804013729095,-0.06658431142568588
1788674699100015400,18.004015380859375,-0.1319468915462494,-0.015882495790719986,-0.22357667982578278
1788674699115884500,18.019884521484375,-0.12828169763088226,-0.11239920556545258,-0.2528982162475586
1788674699131784200,18.0357841796875,-0.0959058403968811,-0.15515977144241333,-0.10262536257505417
1788674699147653400,18.0516533203125,-0.09285151958465576,-0.13500121235847473,0.051312681287527084
1788674699163553000,18.067552978515625,-0.10506882518529892,-0.08429940044879913,0.15454891324043274
1788674699179422200,18.083422119140625,-0.08185594528913498,0.02382374368607998,0.12339477986097336
1788674699195260700,18.0992607421875,-0.07330382615327835,0.20525072515010834,0.01710422709584236
1788674699211160600,18.11516064453125,-0.11423180252313614,0.30115658044815063,-0.025656340643763542
1788674699227060200,18.131060302734376,-0.16249015927314758,0.3433062732219696,0.00855211354792118
1788674699242960000,18.1469599609375,-0.2070833146572113,0.2382374405860901,0.0806342139840126
1788674699258859500,18.162859619140626,-0.1966986060142517,0.18020524084568024,0.1765400618314743
1788674699274637000,18.178636962890625,-0.14233160018920898,0.16371189057826996,0.26939156651496887
1788674699290506200,18.19450634765625,-0.08246681094169617,0.0861319974064827,0.3500257730484009
1788674699306375200,18.210375244140625,-0.0507018156349659,-0.0012217304902151227,0.3634648323059082
1788674699322305500,18.226305419921875,-0.01038470957428217,-0.06352998316287994,0.3732386529445648
1788674699338205200,18.242205078125,0.009773843921720982,-0.08368854224681854,0.37079519033432007
1788674699354013200,18.25801318359375,-0.0354301854968071,-0.0959058403968811,0.20891591906547546
1788674699369943300,18.273943359375,-0.1062905490398407,-0.04459316283464432,-0.1612684279680252
1788674699385843000,18.289843017578125,-0.1417207419872284,0.04092797264456749,-0.5546656250953674
1788674699401712000,18.305712158203125,-0.2070833146572113,0.11362093687057495,-0.911410927772522
1788674699417550800,18.32155078125,-0.3066543638706207,0.10506882518529892,-0.8344419002532959
1788674699433450500,18.337450439453125,-0.44715335965156555,-0.039706241339445114,-0.2974913716316223
1788674699449319700,18.353319580078125,-0.48685958981513977,-0.16798794269561768,0.18936823308467865
1788674699465158100,18.369158203125,-0.503963828086853,-0.20402899384498596,0.5161811113357544
1788674699481088500,18.385088623046876,-0.46792277693748474,-0.13805554807186127,0.5051855444908142
1788674699496988200,18.40098828125,-0.3854559659957886,0.015271631069481373,0.23273965716362
1788674699512826600,18.41682666015625,-0.34147366881370544,0.17959438264369965,-0.08124507963657379
1788674699528695800,18.43269580078125,-0.32498031854629517,0.26450464129447937,-0.36529740691185
1788674699544565000,18.44856494140625,-0.2974913716316223,0.23335053026676178,-0.4862487316131592
1788674699560495000,18.4644951171875,-0.2767219543457031,0.1007927656173706,-0.4911356568336487
1788674699576425500,18.480425537109376,-0.2382374405860901,-0.06230825558304787,-0.4001167416572571
1788674699592294400,18.49629443359375,-0.15943582355976105,-0.24190263450145721,-0.2272418737411499
1788674699608163600,18.51216357421875,-0.09162978827953339,-0.28527405858039856,-0.09224065393209457
1788674699624032800,18.52803271484375,-0.06108652427792549,-0.2376265823841095,-0.006719517521560192
1788674699639902000,18.54390185546875,-0.05375614017248154,-0.13805554807186127,-0.025045474991202354
1788674699655801600,18.559801513671875,-0.09285151958465576,-0.0555887371301651,-0.0507018156349659
1788674699679635700,18.5836357421875,-0.16310101747512817,-0.06780604273080826,-0.05803219974040985
1788674699695535400,18.599535400390625,-0.1368338167667389,-0.10445795953273773,-0.06536258012056351
1788674699711343600,18.615343505859375,-0.039706241339445114,-0.13072516024112701,-0.08918632566928864
1788674699727243300,18.6312431640625,0.0708603709936142,-0.13988813757896423,-0.10384709388017654
1788674699750986000,18.654986083984376,0.24556782841682434,-0.17837265133857727,-0.11484266817569733
1788674699766885600,18.6708857421875,0.32009339332580566,-0.18814650177955627,-0.051312681287527084
1788674699782785300,18.686785400390626,0.33536502718925476,-0.1814269721508026,0.11362093687057495
1788674699798715400,18.70271533203125,0.3286454975605011,-0.13744467496871948,0.252287358045578
1788674699814615000,18.718614990234375,0.33658674359321594,-0.08368854224681854,0.2871066629886627
1788674699838388200,18.74238818359375,0.29138273000717163,-0.09529497474431992,0.24007004499435425
1788674699854349000,18.75834912109375,0.22846360504627228,-0.05742133408784866,0.2987131178379059
1788674699878091500,18.782091552734375,0.22113321721553802,0.09346238523721695,0.5937610268592834
1788674699894022000,18.79802197265625,0.27611109614372253,0.18020524084568024,0.6322455406188965
1788674699909830000,18.813829833984375,0.3390302062034607,0.19975294172763824,0.5436700582504272
1788674699933694700,18.83769482421875,0.41661009192466736,-0.014049900695681572,0.17837265133857727
1788674699949502700,18.853502685546875,0.37201693654060364,-0.2541199326515198,-0.11667526513338089
1788674699965402400,18.86940234375,0.29993483424186707,-0.23518311977386475,-0.252287358045578
1788674699981271600,18.885271484375,0.3384193480014801,-0.0659734457731247,-0.11239920556545258
1788674699997171200,18.901171142578125,0.4306600093841553,-0.009162978269159794,0.15577064454555511
1788674700013010000,18.917010009765626,0.42088615894317627,-0.11178833991289139,0.26083946228027344
1788674700028878800,18.93287890625,0.3481931984424591,-0.27611109614372253,0.11972958594560623
1788674700044717600,18.948717529296875,0.24007004499435425,-0.36224308609962463,-0.11789698898792267
1788674700060586800,18.964586669921875,0.14416420459747314,-0.39217549562454224,-0.21868975460529327
1788674700076516900,18.980516845703125,0.04337143152952194,-0.4184426963329315,-0.21380282938480377
1788674700092416500,18.99641650390625,0.03237585723400116,-0.4098905920982361,-0.11911872029304504
1788674700116189700,19.020189697265625,0.08552113175392151,-0.18509216606616974,0.02076941914856434
1788674700132119800,19.036119873046875,0.10873401165008545,-0.007941247895359993,0.025045474991202354
1788674700147897600,19.051897705078126,0.09224065393209457,0.0403171069920063,-0.03481931984424591
1788674700163797200,19.06779736328125,0.04214970022439957,-0.0012217304902151227,-0.11972958594560623
1788674700179697000,19.08369677734375,-0.004886921960860491,-0.012217304669320583,-0.1722639948129654
1788674700195596500,19.099596435546875,0,0.033597588539123535,-0.1313360333442688
1788674700211526700,19.115526611328125,0.05375614017248154,0.1319468915462494,-0.08735372871160507
1788674700227365400,19.131365478515626,0.07452555745840073,0.23151792585849762,-0.07941248267889023
1788674700251199500,19.155199462890625,0.01710422709584236,0.2571742534637451,-0.09162978827953339
1788674700267007700,19.1710078125,-0.02626720629632473,0.20097467303276062,-0.07269296050071716
1788674700282907400,19.186907470703126,-0.04092797264456749,0.12217304855585098,-0.00427605677396059
1788674700298776300,19.2027763671875,-0.07330382615327835,0.03298672288656235,0.07513642311096191
1788674700314645500,19.2186455078125,-0.10751228034496307,-0.00366519158706069,0.11850785464048386
1788674700330514700,19.2345146484375,-0.10751228034496307,0.006719517521560192,0.11911872029304504
1788674700346384000,19.2503837890625,-0.09834930300712585,0.04642575979232788,0.11911872029304504
1788674700370216400,19.274216552734377,-0.15760323405265808,0.09834930300712585,0.11728613078594208
1788674700386055200,19.29005517578125,-0.16859880089759827,0.09651670604944229,0.27977627515792847
1788674700401954800,19.305954833984377,-0.15943582355976105,0.09529497474431992,0.4355469346046448
1788674700417823700,19.32182373046875,-0.17898350954055786,0.07024950534105301,0.3335324227809906
1788674700433723400,19.337723388671876,-0.23090706765651703,0.08368854224681854,-0.04886921867728233
1788674700449653800,19.35365380859375,-0.3170390725135803,0.08491026610136032,-0.5571091175079346
1788674700465461800,19.369461669921876,-0.39095374941825867,0.10201449692249298,-0.8533787727355957
1788674700481361400,19.385361328125,-0.4190535545349121,0.07269296050071716,-0.8118399381637573
1788674700497200000,19.4012001953125,-0.43188172578811646,-0.09040805697441101,-0.31581732630729675
1788674700513130200,19.417130126953126,-0.44226643443107605,-0.2681698501110077,0.41722095012664795
1788674700529030000,19.43302978515625,-0.4398229718208313,-0.2638937830924988,0.7409795522689819
1788674700544868600,19.44886865234375,-0.4251621961593628,-0.10751228034496307,0.6542366743087769
1788674700560737500,19.464737548828126,-0.41172316670417786,0.1215621829032898,0.3274237811565399
1788674700576668000,19.48066796875,-0.3805690407752991,0.33292156457901,-0.08307767659425735
1788674700600471600,19.504471435546876,-0.3536909818649292,0.3793473243713379,-0.42577308416366577
1788674700616371200,19.52037109375,-0.3445279896259308,0.21563543379306793,-0.4795292317867279
1788674700632301300,19.53630126953125,-0.3390302062034607,0.006719517521560192,-0.4239404797554016
1788674700648140000,19.55214013671875,-0.2742784917354584,-0.1459967941045761,-0.3182607889175415
1788674700663978800,19.567978759765627,-0.16432274878025055,-0.2321287989616394,-0.15943582355976105
1788674700679847700,19.58384765625,-0.09896016865968704,-0.19303341209888458,-0.036041051149368286
1788674700695716900,19.599716796875,-0.08185594528913498,-0.08429940044879913,0.016493361443281174
1788674700711647000,19.61564697265625,-0.1062905490398407,-0.048258353024721146,-0.025045474991202354
1788674700727546600,19.631546630859376,-0.14538592100143433,-0.025656340643763542,-0.09346238523721695
1788674700743385300,19.64738525390625,-0.15393804013729095,-0.018936822190880775,-0.12522737681865692
1788674700759254500,19.663254638671877,-0.10751228034496307,-0.04398229718208313,-0.09896016865968704
1788674700775154200,19.679154296875,-0.03237585723400116,-0.05803219974040985,-0.08979719132184982
1788674700791084300,19.695084228515626,0.05253441259264946,-0.060475658625364304,-0.15332718193531036
1788674700806984000,19.71098388671875,0.1508837193250656,-0.06291911751031876,-0.2382374405860901
1788674700822822700,19.72682275390625,0.21502456068992615,-0.10812314599752426,-0.22907446324825287
1788674700838752800,19.742752685546876,0.26083946228027344,-0.14049901068210602,-0.08124507963657379
1788674700854591500,19.758591552734377,0.303600013256073,-0.15577064454555511,0.10751228034496307
1788674700870521600,19.774521484375,0.33658674359321594,-0.1918116807937622,0.21441370248794556
1788674700886451700,19.79045166015625,0.3280346393585205,-0.2278527319431305,0.18814650177955627
1788674700902321000,19.80632080078125,0.2926044464111328,-0.26939156651496887,0.11667526513338089
1788674700918220500,19.822220458984376,0.2840523421764374,-0.24434609711170197,0.1459967941045761
1788674700934089700,19.83808984375,0.2974913716316223,-0.10751228034496307,0.2938261926174164
1788674700949989400,19.8539892578125,0.31581732630729675,0.016493361443281174,0.4349360466003418
1788674700965889000,19.869888916015626,0.3604104816913605,0.10201449692249298,0.45142942667007446
1788674700981727700,19.885727783203127,0.36224308609962463,0.1111774742603302,0.36163222789764404
1788674700997657900,19.901657958984377,0.3891211748123169,-0.05803219974040985,0.18936823308467865
1788674701013496600,19.91749658203125,0.3982841372489929,-0.2687807083129883,0.01160643994808197
1788674701029426700,19.9334267578125,0.3488040566444397,-0.323147714138031,-0.10323622822761536
1788674701045356800,19.949356689453126,0.32070425152778625,-0.19425514340400696,-0.01771509274840355
1788674701061195500,19.965195556640627,0.36224308609962463,0.025656340643763542,0.17470745742321014
1788674701077125600,19.981125732421877,0.39095374941825867,0.08674286305904388,0.22296582162380219
1788674701100898800,20.00489892578125,0.3579670190811157,-0.024434609338641167,0.02076941914856434
1788674701124763600,20.028763671875,0.21930062770843506,-0.20402899384498596,-0.1667662113904953
1788674701148536800,20.052536865234377,0.0959058403968811,-0.21868975460529327,-0.16371189057826996
1788674701164436500,20.0684365234375,0.05742133408784866,-0.12217304855585098,-0.13316862285137177
1788674701180244500,20.084244384765626,0.03298672288656235,0.045204028487205505,-0.11972958594560623
1788674701196113700,20.10011376953125,-0.02626720629632473,0.1215621829032898,-0.11056660860776901
1788674701211952400,20.115952392578127,-0.07635815441608429,0.10506882518529892,-0.1111774742603302
1788674701227852000,20.13185205078125,-0.08796459436416626,-0.0006108652451075613,-0.14233160018920898
1788674701243751700,20.147751708984377,-0.08307767659425735,-0.12950342893600464,-0.2168571650981903
1788674701259590100,20.163590087890626,-0.06414084881544113,-0.21502456068992615,-0.2125810980796814
1788674701275459300,20.179459228515626,-0.031154127791523933,-0.23029619455337524,-0.10995574295520782
1788674701291298000,20.195298095703127,-0.00855211354792118,-0.12217304855585098,0.048258353024721146
1788674701307197700,20.21119775390625,-0.015271631069481373,0.018325956538319588,0.16982053220272064
1788674701323097300,20.227097412109377,-0.04764748737215996,0.09040805697441101,0.14355333149433136
