time,seconds_elapsed,z,y,x
1788674681390467000,0.294467041015625,-3.4800000190734863,-4.739999771118164,32.15999984741211
1788674681406366700,0.31036669921875,-16.979999542236328,9.479999542236328,22.19999885559082
1788674681422296800,0.326296875,-30.239999771118164,22.979999542236328,12.239999771118164
1788674681438227200,0.342227294921875,-29.399999618530273,23.15999984741211,12.119999885559082
1788674681454157300,0.3581572265625,-29.099998474121094,24.119998931884766,12.179999351501465
1788674681470087400,0.37408740234375,-29.459999084472656,23.939998626708984,12.420000076293945
1788674681485926100,0.389926025390625,-29.579999923706055,24.059999465942383,12.059999465942383
1788674681501825800,0.40582568359375,-29.69999885559082,24.420000076293945,11.699999809265137
1788674681517695000,0.421695068359375,-30.17999839782715,23.760000228881836,11.880000114440918
1788674681533625000,0.437625,-30.899999618530273,23.279998779296875,11.639999389648438
1788674681549494300,0.453494384765625,-31.439998626708984,23.579999923706055,11.279999732971191
1788674681565302300,0.46930224609375,-31.3799991607666,23.579999923706055,11.579999923706055
1788674681581202000,0.485201904296875,-31.260000228881836,22.559999465942383,11.399999618530273
1788674681597071000,0.501071044921875,-31.079999923706055,22.139999389648438,11.460000038146973
1788674681612970800,0.516970703125,-31.3799991607666,22.739999771118164,11.039999961853027
1788674681628900900,0.53290087890625,-30.719999313354492,22.979999542236328,10.4399995803833
1788674681644739600,0.548739501953125,-29.760000228881836,22.920000076293945,10.019999504089355
1788674681660669700,0.564669677734375,-30,22.799999237060547,9.960000038146973
1788674681676569300,0.5805693359375,-30.35999870300293,22.85999870300293,10.4399995803833
1788674681692499500,0.59649951171875,-30.599998474121094,23.399999618530273,10.139999389648438
1788674681708429800,0.612429931640625,-29.639999389648438,24.18000030517578,10.979999542236328
1788674681724237800,0.62823779296875,-30.65999984741211,23.760000228881836,11.15999984741211
1788674681740107000,0.64410693359375,-31.85999870300293,22.3799991607666,9.960000038146973
1788674681755976200,0.65997607421875,-31.01999855041504,22.619998931884766,10.019999504089355
1788674681771906300,0.67590625,-30.299999237060547,23.51999855041504,10.619999885559082
1788674681787806000,0.691805908203125,-30.299999237060547,23.579999923706055,10.4399995803833
1788674681803644700,0.707644775390625,-30.719999313354492,23.579999923706055,9.779999732971191
1788674681819544300,0.72354443359375,-30.059999465942383,23.279998779296875,9.779999732971191
1788674681835413500,0.73941357421875,-29.399999618530273,23.69999885559082,10.260000228881836
1788674681851313200,0.755313232421875,-29.15999984741211,24,11.399999618530273
1788674681867212800,0.771212890625,-29.15999984741211,23.939998626708984,11.219999313354492
1788674681883081700,0.787081787109375,-28.979999542236328,24.420000076293945,9.84000015258789
1788674681898920400,0.80292041015625,-29.219999313354492,24.18000030517578,10.800000190734863
1788674681914850600,0.8188505859375,-30.17999839782715,24.299999237060547,11.460000038146973
1788674681930781000,0.834781005859375,-29.639999389648438,24.719999313354492,11.039999961853027
1788674681946711000,0.8507109375,-29.099998474121094,24.299999237060547,11.219999313354492
1788674681962519000,0.86651904296875,-28.979999542236328,24.059999465942383,11.34000015258789
1788674681986384000,0.8903837890625,-28.68000030517578,24.239999771118164,11.9399995803833
1788674682002253000,0.906253173828125,-28.439998626708984,24.84000015258789,12
1788674682018122200,0.922122314453125,-27.959999084472656,25.19999885559082,11.219999313354492
1788674682034022000,0.93802197265625,-28.3799991607666,24.35999870300293,10.739999771118164
1788674682057825500,0.961825439453125,-28.3799991607666,24.420000076293945,10.920000076293945
1788674682073725200,0.97772509765625,-29.81999969482422,24.119998931884766,10.559999465942383
1788674682097559300,1.001559326171875,-30.119998931884766,23.760000228881836,11.279999732971191
1788674682113428500,1.017428466796875,-30,23.81999969482422,11.34000015258789
1788674682129358600,1.033358642578125,-30.299999237060547,22.85999870300293,11.219999313354492
1788674682145227800,1.049227783203125,-29.939998626708984,22.3799991607666,11.460000038146973
1788674682161097000,1.065096923828125,-28.619998931884766,23.15999984741211,12.179999351501465
1788674682184931300,1.088931396484375,-28.439998626708984,23.03999900817871,12.359999656677246
1788674682200769800,1.104769775390625,-28.3799991607666,22.799999237060547,12.59999942779541
1788674682216669400,1.12066943359375,-28.979999542236328,22.260000228881836,13.199999809265137
1788674682232508200,1.136508056640625,-29.279998779296875,22.5,13.25999927520752
1788674682248407800,1.15240771484375,-28.799999237060547,22.439998626708984,13.199999809265137
1788674682264307500,1.168307373046875,-29.15999984741211,22.439998626708984,13.4399995803833
1788674682280207000,1.18420703125,-29.34000015258789,22.260000228881836,12.59999942779541
1788674682296106800,1.200106689453125,-29.69999885559082,22.619998931884766,12.359999656677246
1788674682311976000,1.215975830078125,-29.69999885559082,22.3799991607666,12.539999961853027
1788674682327875600,1.23187548828125,-29.34000015258789,20.81999969482422,12.239999771118164
1788674682343775200,1.247775146484375,-29.8799991607666,20.219999313354492,13.25999927520752
1788674682359614000,1.263614013671875,-29.8799991607666,20.399999618530273,13.739999771118164
1788674682375483000,1.27948291015625,-28.920000076293945,21.299999237060547,13.319999694824219
1788674682399378200,1.303378173828125,-29.219999313354492,20.939998626708984,12.719999313354492
1788674682415247400,1.319247314453125,-28.5,21.18000030517578,12.960000038146973
1788674682454950700,1.35895068359375,-30.35999870300293,21.119998931884766,12.539999961853027
1788674682470819800,1.37481982421875,-29.69999885559082,21.779998779296875,12.84000015258789
1788674682494623500,1.39862353515625,-29.51999855041504,21.059999465942383,13.679999351501465
1788674682510462200,1.414462158203125,-29.579999923706055,20.939998626708984,12.479999542236328
1788674682534296300,1.43829638671875,-29.639999389648438,20.69999885559082,12.420000076293945
1788674682550135000,1.454135009765625,-29.219999313354492,21.18000030517578,12.359999656677246
1788674682566065200,1.470065185546875,-29.459999084472656,21.899999618530273,12.420000076293945
1788674682581934300,1.485934326171875,-29.219999313354492,22.559999465942383,12.359999656677246
1788674682597803500,1.501803466796875,-28.619998931884766,22.3799991607666,12.239999771118164
1788674682613703200,1.517703125,-28.3799991607666,22.979999542236328,12.119999885559082
1788674682629572400,1.533572265625,-27.599998474121094,23.399999618530273,12.059999465942383
1788674682645502500,1.54950244140625,-27,23.939998626708984,12.719999313354492
1788674682661432600,1.5654326171875,-27,24.53999900817871,12.539999961853027
1788674682685205800,1.589205810546875,-27.779998779296875,23.399999618530273,11.639999389648438
1788674682701075000,1.605074951171875,-27.479999542236328,23.69999885559082,11.519999504089355
1788674682716883200,1.62088330078125,-28.079999923706055,23.399999618530273,11.15999984741211
1788674682732752400,1.63675244140625,-28.85999870300293,23.03999900817871,11.460000038146973
1788674682764582100,1.66858203125,-28.5,23.760000228881836,11.039999961853027
1788674682780481800,1.684481689453125,-28.3799991607666,22.920000076293945,11.09999942779541
1788674682804285400,1.708285400390625,-28.079999923706055,22.68000030517578,11.399999618530273
1788674682820185000,1.72418505859375,-27.65999984741211,23.34000015258789,12.300000190734863
1788674682836023800,1.74002392578125,-27.239999771118164,24,12.779999732971191
1788674682851954000,1.755953857421875,-27.239999771118164,23.81999969482422,13.019999504089355
1788674682867853600,1.771853515625,-26.760000228881836,23.279998779296875,13.859999656677246
1788674682891687700,1.795687744140625,-26.939998626708984,23.51999855041504,13.019999504089355
1788674682907526400,1.8115263671875,-27.059999465942383,23.81999969482422,12.719999313354492
1788674682931330000,1.835330078125,-27.18000030517578,23.459999084472656,13.019999504089355
1788674682947229700,1.851229736328125,-26.579999923706055,25.01999855041504,13.679999351501465
1788674682963129300,1.86712939453125,-25.85999870300293,25.799999237060547,13.619999885559082
1788674682979029000,1.883029052734375,-25.19999885559082,24.420000076293945,13.380000114440918
1788674682994867700,1.89886767578125,-26.760000228881836,23.279998779296875,13.739999771118164
1788674683010767400,1.914767333984375,-28.260000228881836,23.939998626708984,13.799999237060547
1788674683026636500,1.930636474609375,-27,24.53999900817871,13.559999465942383
1788674683042566700,1.946566650390625,-26.760000228881836,24.479999542236328,13.319999694824219
1788674683058435800,1.962435791015625,-28.01999855041504,24.18000030517578,13.619999885559082
1788674683074243800,1.978243896484375,-27.420000076293945,23.81999969482422,13.319999694824219
1788674683090143500,1.9941435546875,-26.8799991607666,23.8799991607666,12.899999618530273
1788674683106012700,2.0100126953125,-26.219999313354492,24.779998779296875,13.380000114440918
1788674683121943000,2.025943115234375,-25.739999771118164,25.260000228881836,14.15999984741211
1788674683137842700,2.0418427734375,-26.279998779296875,25.01999855041504,14.219999313354492
1788674683153650700,2.057650634765625,-26.34000015258789,24.53999900817871,13.979999542236328
1788674683169519900,2.073519775390625,-26.03999900817871,24.420000076293945,13.679999351501465
1788674683185419500,2.08941943359375,-25.920000076293945,25.559999465942383,13.199999809265137
1788674683201349600,2.105349609375,-25.31999969482422,25.739999771118164,13.859999656677246
1788674683217249300,2.121249267578125,-25.079999923706055,25.3799991607666,13.559999465942383
1788674683233088000,2.137087890625,-25.5,24.899999618530273,13.319999694824219
1788674683248926500,2.152926513671875,-26.279998779296875,24.239999771118164,14.09999942779541
1788674683264826000,2.168826171875,-26.03999900817871,24.53999900817871,14.09999942779541
1788674683280695300,2.1846953125,-25.5,25.079999923706055,13.920000076293945
1788674683296595000,2.200594970703125,-25.799999237060547,24.53999900817871,13.4399995803833
1788674683312494600,2.21649462890625,-26.279998779296875,23.8799991607666,13.619999885559082
1788674683328394200,2.232394287109375,-26.81999969482422,24.059999465942383,14.039999961853027
1788674683344233000,2.24823291015625,-27.119998931884766,24.18000030517578,13.799999237060547
1788674683360132600,2.264132568359375,-27.119998931884766,23.15999984741211,13.859999656677246
1788674683376032300,2.2800322265625,-27.059999465942383,22.920000076293945,13.799999237060547
1788674683391871000,2.29587109375,-27.119998931884766,23.51999855041504,13.859999656677246
1788674683407740200,2.311740234375,-26.34000015258789,24.119998931884766,14.399999618530273
1788674683423639800,2.327639892578125,-25.5,24.119998931884766,14.399999618530273
1788674683439570000,2.34356982421875,-26.099998474121094,23.760000228881836,14.34000015258789
1788674683455469600,2.359469482421875,-27.119998931884766,23.760000228881836,13.619999885559082
1788674683471369200,2.375369140625,-26.69999885559082,23.399999618530273,13.380000114440918
1788674683487208000,2.3912080078125,-26.34000015258789,23.219999313354492,14.34000015258789
1788674683503107600,2.407107666015625,-27.420000076293945,23.279998779296875,13.979999542236328
1788674683519037700,2.42303759765625,-27.719999313354492,23.51999855041504,13.25999927520752
1788674683534937300,2.438937255859375,-27.35999870300293,23.399999618530273,13.380000114440918
1788674683550806500,2.454806640625,-26.8799991607666,23.81999969482422,13.139999389648438
1788674683566675700,2.47067578125,-26.579999923706055,23.69999885559082,12.84000015258789
1788674683582575400,2.486575439453125,-27.35999870300293,22.68000030517578,12.960000038146973
1788674683598475000,2.50247509765625,-28.01999855041504,22.559999465942383,13.199999809265137
1788674683614435600,2.518435546875,-29.34000015258789,22.31999969482422,13.5
1788674683630396400,2.534396484375,-29.03999900817871,22.559999465942383,14.219999313354492
1788674683646265300,2.550265380859375,-27.84000015258789,22.619998931884766,14.34000015258789
1788674683670160600,2.57416064453125,-29.51999855041504,21.299999237060547,14.519999504089355
1788674683685999400,2.589999267578125,-29.8799991607666,20.8799991607666,14.579999923706055
1788674683701899000,2.60589892578125,-28.979999542236328,21.420000076293945,14.219999313354492
1788674683717859600,2.621859619140625,-28.3799991607666,22.079999923706055,14.34000015258789
1788674683733790000,2.6377900390625,-28.31999969482422,22.139999389648438,13.4399995803833
1788674683757563100,2.661563232421875,-27.959999084472656,22.079999923706055,13.319999694824219
1788674683773493200,2.6774931640625,-27.35999870300293,22.739999771118164,13.559999465942383
1788674683789332000,2.69333203125,-27.479999542236328,22.799999237060547,13.380000114440918
1788674683805201000,2.709200927734375,-28.079999923706055,22.559999465942383,13.25999927520752
1788674683821100500,2.7251005859375,-28.31999969482422,22.439998626708984,12.84000015258789
1788674683837031000,2.741031005859375,-28.439998626708984,22.3799991607666,13.079999923706055
1788674683852961000,2.7569609375,-28.439998626708984,22.5,13.25999927520752
1788674683868799700,2.7727998046875,-28.260000228881836,22.260000228881836,13.199999809265137
1788674683884699400,2.788699462890625,-27.959999084472656,22.3799991607666,13.679999351501465
1788674683900568300,2.804568359375,-27.420000076293945,23.34000015258789,13.5
1788674683916498700,2.820498779296875,-26.939998626708984,23.939998626708984,13.5
1788674683932398300,2.8363984375,-26.8799991607666,25.079999923706055,14.039999961853027
1788674683948236800,2.85223681640625,-25.799999237060547,25.559999465942383,13.619999885559082
1788674683964106000,2.86810595703125,-25.439998626708984,24.65999984741211,12.479999542236328
1788674683979975200,2.88397509765625,-26.579999923706055,24.420000076293945,12.479999542236328
1788674683995874800,2.899874755859375,-26.8799991607666,24.84000015258789,13.079999923706055
1788674684011713500,2.915713623046875,-26.760000228881836,25.439998626708984,12.84000015258789
1788674684027521500,2.931521484375,-27,25.31999969482422,12.779999732971191
1788674684043421200,2.947421142578125,-26.939998626708984,24,12.899999618530273
1788674684059290400,2.963290283203125,-27.18000030517578,24.119998931884766,12.65999984741211
1788674684075159600,2.97915966796875,-27.239999771118164,24.35999870300293,12.899999618530273
1788674684091059200,2.99505908203125,-26.760000228881836,23.760000228881836,12.539999961853027
1788674684106958800,3.010958740234375,-26.939998626708984,23.81999969482422,12
1788674684122828000,3.026828125,-27.18000030517578,23.459999084472656,12.300000190734863
1788674684138727700,3.042727783203125,-27,24.18000030517578,12.899999618530273
1788674684154657800,3.05865771484375,-26.8799991607666,24.53999900817871,13.079999923706055
1788674684170527000,3.07452685546875,-26.51999855041504,24.119998931884766,13.199999809265137
1788674684186365400,3.090365478515625,-26.8799991607666,23.760000228881836,12.899999618530273
1788674684202234600,3.106234619140625,-27.239999771118164,22.799999237060547,12.899999618530273
1788674684218103800,3.122103759765625,-27.719999313354492,22.5,13.019999504089355
1788674684234034000,3.138033935546875,-29.459999084472656,22.619998931884766,13.4399995803833
1788674684257807000,3.16180712890625,-30.53999900817871,21.959999084472656,12.59999942779541
1788674684273737500,3.177737548828125,-30.959999084472656,21.420000076293945,11.699999809265137
1788674684289606400,3.1936064453125,-30.299999237060547,22.020000457763672,11.699999809265137
1788674684305445000,3.209445068359375,-30,22.260000228881836,12.239999771118164
1788674684321344800,3.2253447265625,-30.479999542236328,22.31999969482422,12.420000076293945
1788674684337183500,3.24118359375,-30.899999618530273,22.19999885559082,12.300000190734863
1788674684353052700,3.257052734375,-31.01999855041504,22.260000228881836,11.75999927520752
1788674684368952300,3.272952392578125,-31.079999923706055,22.5,12.239999771118164
1788674684384790800,3.288790771484375,-30.479999542236328,21.959999084472656,12.779999732971191
1788674684400629500,3.30462939453125,-29.219999313354492,21.84000015258789,12.059999465942383
1788674684416559600,3.3205595703125,-29.760000228881836,21.84000015258789,12
1788674684432489700,3.33648974609375,-30.35999870300293,21.53999900817871,12.899999618530273
1788674684448389400,3.352389404296875,-30.53999900817871,21.479999542236328,12.719999313354492
1788674684464228000,3.36822802734375,-30.84000015258789,21.719999313354492,12.65999984741211
1788674684480127700,3.384127685546875,-30.17999839782715,20.939998626708984,13.079999923706055
1788674684495997000,3.399996826171875,-30.17999839782715,20.579999923706055,12.539999961853027
1788674684511896600,3.415896484375,-30.35999870300293,20.760000228881836,13.199999809265137
1788674684527796200,3.431796142578125,-30.479999542236328,20.69999885559082,13.4399995803833
1788674684543635000,3.447635009765625,-30.899999618530273,21.479999542236328,13.25999927520752
1788674684559565000,3.46356494140625,-31.139999389648438,22.020000457763672,13.380000114440918
1788674684575464700,3.479464599609375,-30.959999084472656,21.84000015258789,12.84000015258789
1788674684591364400,3.4953642578125,-31.5,21.479999542236328,12
1788674684607264000,3.511263916015625,-32.15999984741211,21.239999771118164,12.65999984741211
1788674684623072000,3.527072021484375,-31.67999839782715,20.69999885559082,12.539999961853027
1788674684638971600,3.5429716796875,-31.979999542236328,20.760000228881836,11.579999923706055
1788674684654810400,3.558810302734375,-31.979999542236328,20.639999389648438,12.359999656677246
1788674684670710000,3.5747099609375,-31.139999389648438,21,12.84000015258789
1788674684686548700,3.590548828125,-30.53999900817871,21.35999870300293,12.779999732971191
1788674684702417700,3.606417724609375,-30.17999839782715,21,11.699999809265137
1788674684718286800,3.622286865234375,-30.239999771118164,20.8799991607666,11.519999504089355
1788674684734156000,3.638156005859375,-30.959999084472656,21,12.300000190734863
1788674684750086100,3.654086181640625,-31.5,21,12.539999961853027
1788674684765955300,3.669955322265625,-31.260000228881836,21.53999900817871,13.5
1788674684781794000,3.6857939453125,-31.5,21.420000076293945,13.5
1788674684797724200,3.70172412109375,-32.459999084472656,19.619998931884766,12.960000038146973
1788674684813593300,3.71759326171875,-32.880001068115234,18.479999542236328,13.319999694824219
1788674684829493000,3.733492919921875,-32.15999984741211,18.35999870300293,14.399999618530273
1788674684845362200,3.749362060546875,-32.21999740600586,18,15.59999942779541
1788674684861231400,3.7652314453125,-32.7599983215332,17.8799991607666,14.9399995803833
1788674684877131000,3.781131103515625,-32.52000045776367,18.420000076293945,13.380000114440918
1788674684893030700,3.79703076171875,-32.52000045776367,18.65999984741211,14.039999961853027
1788674684908960800,3.812960693359375,-32.15999984741211,18.600000381469727,14.279999732971191
1788674684924799500,3.828799560546875,-31.559999465942383,18.84000015258789,13.139999389648438
1788674684940668400,3.84466845703125,-31.85999870300293,19.260000228881836,13.139999389648438
1788674684972437200,3.876437255859375,-32.81999969482422,19.020000457763672,14.880000114440918
1788674684988337000,3.8923369140625,-32.70000076293945,17.34000015258789,14.9399995803833
1788674685004206000,3.9082060546875,-31.5,16.979999542236328,14.819999694824219
1788674685020075300,3.9240751953125,-31.67999839782715,17.940000534057617,15.420000076293945
1788674685035975000,3.939974853515625,-32.099998474121094,18.53999900817871,16.139999389648438
1788674685051813600,3.955813720703125,-31.559999465942383,18.239999771118164,15.179999351501465
1788674685067743700,3.97174365234375,-31.619998931884766,18.18000030517578,14.699999809265137
1788674685083643400,3.987643310546875,-31.3799991607666,18.479999542236328,14.9399995803833
1788674685099512600,4.0035126953125,-31.739999771118164,18.239999771118164,14.699999809265137
1788674685115381800,4.0193818359375,-31.85999870300293,18.059999465942383,14.460000038146973
1788674685131250700,4.035250732421875,-31.85999870300293,18.779998779296875,14.9399995803833
1788674685147181000,4.05118115234375,-32.21999740600586,19.079999923706055,14.519999504089355
1788674685170954200,4.074954345703125,-31.799999237060547,18.779998779296875,13.4399995803833
1788674685186854000,4.09085400390625,-30.779998779296875,19.439998626708984,13.619999885559082
1788674685202723000,4.10672314453125,-31.559999465942383,19.68000030517578,13.079999923706055
1788674685218592000,4.122592041015625,-32.279998779296875,19.439998626708984,12.359999656677246
1788674685234461200,4.138461181640625,-32.279998779296875,19.68000030517578,11.880000114440918
1788674685250360800,4.15436083984375,-31.85999870300293,19.31999969482422,10.979999542236328
1788674685274195200,4.1781953125,-32.279998779296875,19.439998626708984,10.619999885559082
1788674685290064400,4.194064453125,-32.34000015258789,20.219999313354492,11.579999923706055
1788674685305964000,4.209964111328125,-33,20.639999389648438,11.579999923706055
1788674685321863700,4.22586376953125,-32.15999984741211,20.69999885559082,11.519999504089355
1788674685337702100,4.2417021484375,-30,21.059999465942383,11.460000038146973
1788674685353601800,4.257601806640625,-29.51999855041504,21.119998931884766,11.279999732971191
1788674685369471000,4.273470947265625,-29.81999969482422,20.760000228881836,11.399999618530273
1788674685385401000,4.289401123046875,-29.8799991607666,20.639999389648438,11.279999732971191
1788674685409174300,4.31317431640625,-30.53999900817871,20.760000228881836,11.880000114440918
1788674685425074000,4.329073974609375,-30.959999084472656,20.279998779296875,12.359999656677246
1788674685441004300,4.34500439453125,-30.65999984741211,19.799999237060547,12.300000190734863
1788674685456812300,4.360812255859375,-30.779998779296875,19.079999923706055,12.719999313354492
1788674685472712000,4.3767119140625,-30.959999084472656,19.19999885559082,12.539999961853027
1788674685488550700,4.392550537109375,-30.420000076293945,19.139999389648438,12.479999542236328
1788674685504450300,4.4084501953125,-30.719999313354492,19.139999389648438,12.899999618530273
1788674685520319500,4.424319580078125,-30.65999984741211,20.639999389648438,12.59999942779541
1788674685536158000,4.440157958984375,-30.239999771118164,21,12
1788674685552057600,4.4560576171875,-31.01999855041504,20.399999618530273,12.119999885559082
1788674685575953000,4.479952880859375,-29.8799991607666,20.520000457763672,13.139999389648438
1788674685591791600,4.49579150390625,-30.65999984741211,20.520000457763672,12.479999542236328
1788674685607691300,4.511691162109375,-30.53999900817871,20.219999313354492,13.019999504089355
1788674685623560400,4.527560546875,-30.35999870300293,20.34000015258789,12.65999984741211
1788674685639399000,4.54339892578125,-30,19.619998931884766,12.420000076293945
1788674685655237600,4.559237548828125,-30.119998931884766,19.920000076293945,12.899999618530273
1788674685671106800,4.57510693359375,-30.65999984741211,20.34000015258789,12.65999984741211
1788674685686976000,4.59097607421875,-29.81999969482422,20.8799991607666,12.719999313354492
1788674685702845000,4.606844970703125,-29.399999618530273,21.479999542236328,13.319999694824219
1788674685718714000,4.622714111328125,-29.15999984741211,21.600000381469727,12.899999618530273
1788674685742579000,4.646578857421875,-28.85999870300293,21.53999900817871,12.65999984741211
1788674685766352100,4.67035205078125,-29.099998474121094,22.139999389648438,13.079999923706055
1788674685782221300,4.68622119140625,-28.799999237060547,22.260000228881836,12.539999961853027
1788674685798151400,4.7021513671875,-28.920000076293945,22.19999885559082,12.059999465942383
1788674685814051000,4.718051025390625,-28.619998931884766,22.3799991607666,12
1788674685829950700,4.73395068359375,-28.85999870300293,22.85999870300293,12
1788674685845820000,4.74981982421875,-28.68000030517578,22.920000076293945,11.880000114440918
1788674685861719600,4.765719482421875,-28.739999771118164,22.619998931884766,12.300000190734863
1788674685877649700,4.781649658203125,-28.439998626708984,22.619998931884766,12
1788674685893488400,4.79748828125,-27.899999618530273,22.85999870300293,11.460000038146973
1788674685909357600,4.813357666015625,-27.959999084472656,23.8799991607666,11.15999984741211
1788674685925257200,4.82925732421875,-27.899999618530273,24.059999465942383,12
1788674685941217800,4.8452177734375,-27.779998779296875,23.279998779296875,12.479999542236328
1788674685957117400,4.861117431640625,-27.599998474121094,22.439998626708984,12.479999542236328
1788674685972986600,4.876986572265625,-27.299999237060547,23.15999984741211,12.300000190734863
1788674685988886300,4.89288623046875,-26.939998626708984,23.69999885559082,12.119999885559082
1788674686004755500,4.90875537109375,-26.099998474121094,23.639999389648438,12.479999542236328
1788674686020655000,4.924655029296875,-25.85999870300293,24.35999870300293,12.719999313354492
1788674686036585200,4.940585205078125,-27.059999465942383,24.35999870300293,12.359999656677246
1788674686052393500,4.9563935546875,-27.959999084472656,24.18000030517578,11.9399995803833
1788674686068232000,4.97223193359375,-27.239999771118164,24.119998931884766,11.9399995803833
1788674686084101000,4.98810107421875,-26.15999984741211,24.84000015258789,11.519999504089355
1788674686100000800,5.004000732421875,-25.619998931884766,24.899999618530273,12
1788674686115870000,5.019869873046875,-25.799999237060547,24.65999984741211,12.239999771118164
1788674686131678000,5.035677978515625,-26.8799991607666,25.19999885559082,11.34000015258789
1788674686147516700,5.0515166015625,-27.119998931884766,24.899999618530273,11.639999389648438
1788674686163385900,5.0673857421875,-26.81999969482422,24.53999900817871,12
1788674686179316000,5.08331591796875,-26.579999923706055,25.139999389648438,11.9399995803833
1788674686203058700,5.10705859375,-26.459999084472656,25.079999923706055,12.300000190734863
1788674686218927900,5.122927978515625,-26.34000015258789,26.15999984741211,12
1788674686234827500,5.13882763671875,-25.619998931884766,26.099998474121094,12.179999351501465
1788674686250666000,5.154666015625,-24.84000015258789,25.19999885559082,12.359999656677246
1788674686266535200,5.17053515625,-24.479999542236328,25.31999969482422,12.539999961853027
1788674686282374000,5.186373779296875,-24.299999237060547,26.279998779296875,13.139999389648438
1788674686298273500,5.2022734375,-25.260000228881836,26.51999855041504,13.739999771118164
1788674686314173200,5.218173095703125,-25.619998931884766,26.219999313354492,13.5
1788674686330012000,5.234011962890625,-25.260000228881836,26.03999900817871,13.25999927520752
1788674686345880800,5.249880859375,-25.439998626708984,25.619998931884766,13.739999771118164
1788674686361719600,5.265719482421875,-24.779998779296875,25.619998931884766,12.719999313354492
1788674686377588700,5.281588623046875,-24.059999465942383,25.68000030517578,12.420000076293945
1788674686393488400,5.29748828125,-24.18000030517578,25.01999855041504,13.139999389648438
1788674686409357600,5.313357666015625,-24.53999900817871,24.299999237060547,12.779999732971191
1788674686425257200,5.32925732421875,-25.5,25.260000228881836,12.84000015258789
1788674686441156900,5.345156982421875,-25.979999542236328,25.3799991607666,13.5
1788674686457087000,5.3610869140625,-25.31999969482422,24.899999618530273,13.5
1788674686472986600,5.376986572265625,-24.779998779296875,25.01999855041504,13.5
1788674686488886300,5.39288623046875,-25.5,24.420000076293945,13.019999504089355
1788674686504725000,5.40872509765625,-25.5,24.35999870300293,12.960000038146973
1788674686520655000,5.424655029296875,-25.31999969482422,25.079999923706055,12.899999618530273
1788674686544458800,5.448458740234375,-24.959999084472656,25.68000030517578,13.319999694824219
1788674686560267000,5.46426708984375,-25.01999855041504,26.279998779296875,13.25999927520752
1788674686576166700,5.480166748046875,-25.079999923706055,26.219999313354492,13.559999465942383
1788674686592096800,5.4960966796875,-24.600000381469727,26.459999084472656,13.619999885559082
1788674686607904800,5.51190478515625,-24.65999984741211,26.279998779296875,13.4399995803833
1788674686623679200,5.52767919921875,-24.479999542236328,26.399999618530273,12.420000076293945
1788674686639579000,5.543578857421875,-24.420000076293945,26.34000015258789,12.59999942779541
1788674686655478500,5.559478515625,-24.18000030517578,25.799999237060547,13.380000114440918
1788674686671378200,5.575378173828125,-24.479999542236328,25.619998931884766,12.420000076293945
1788674686687247400,5.591247314453125,-24.299999237060547,25.85999870300293,12.059999465942383
1788674686703116300,5.6071162109375,-23.939998626708984,26.939998626708984,12.59999942779541
1788674686718985500,5.6229853515625,-24.53999900817871,26.760000228881836,12.779999732971191
1788674686734885000,5.638885009765625,-24.899999618530273,26.399999618530273,12.300000190734863
1788674686750754300,5.65475439453125,-24.65999984741211,26.939998626708984,11.579999923706055
1788674686766562300,5.670562255859375,-24.65999984741211,27,11.880000114440918
1788674686782462000,5.6864619140625,-24,27,12
1788674686798331100,5.7023310546875,-23.459999084472656,26.939998626708984,11.639999389648438
1788674686814261500,5.718261474609375,-24.18000030517578,26.639999389648438,11.639999389648438
1788674686830161200,5.7341611328125,-23.760000228881836,26.579999923706055,12.239999771118164
1788674686845999600,5.74999951171875,-24,26.8799991607666,12.59999942779541
1788674686861868800,5.765868896484375,-23.939998626708984,27.420000076293945,12.179999351501465
1788674686877707500,5.78170751953125,-22.85999870300293,27.420000076293945,11.880000114440918
1788674686893637600,5.7976376953125,-23.459999084472656,27.18000030517578,12
1788674686909567700,5.813567626953125,-24.420000076293945,27.299999237060547,12.479999542236328
1788674686925406500,5.829406494140625,-24.420000076293945,27.779998779296875,11.9399995803833
1788674686941306000,5.84530615234375,-23.760000228881836,27.84000015258789,11.34000015258789
1788674686957205800,5.861205810546875,-23.399999618530273,27.779998779296875,12.479999542236328
1788674686973136000,5.877135986328125,-23.03999900817871,27.84000015258789,12.119999885559082
1788674686989035500,5.893035400390625,-22.85999870300293,27.420000076293945,11.279999732971191
1788674687004935200,5.90893505859375,-23.279998779296875,27.299999237060547,12.119999885559082
1788674687020743400,5.924743408203125,-23.8799991607666,27.420000076293945,12.539999961853027
1788674687036582000,5.940581787109375,-23.81999969482422,27.65999984741211,12.65999984741211
1788674687052451000,5.956451171875,-23.69999885559082,27.84000015258789,12.960000038146973
1788674687068350700,5.972350830078125,-24.299999237060547,27.420000076293945,12.899999618530273
1788674687084250400,5.98825048828125,-24,27.599998474121094,12.65999984741211
1788674687100089000,6.004089111328125,-23.279998779296875,27.719999313354492,12.479999542236328
1788674687115927600,6.019927490234375,-23.15999984741211,27.420000076293945,12.84000015258789
1788674687131827200,6.0358271484375,-23.100000381469727,27.479999542236328,12.539999961853027
1788674687147757600,6.051757568359375,-23.81999969482422,26.939998626708984,12.719999313354492
1788674687163535000,6.06753515625,-24.479999542236328,27.119998931884766,13.559999465942383
1788674687179404300,6.083404296875,-24,28.19999885559082,13.799999237060547
1788674687195273500,6.0992734375,-23.69999885559082,27.119998931884766,13.799999237060547
1788674687211173000,6.115173095703125,-23.399999618530273,26.099998474121094,13.739999771118164
1788674687227042000,6.1310419921875,-23.459999084472656,26.099998474121094,13.739999771118164
1788674687242850300,6.146850341796875,-23.939998626708984,25.799999237060547,13.5
1788674687258719500,6.162719482421875,-24.600000381469727,25.85999870300293,14.519999504089355
1788674687274619100,6.178619140625,-24.719999313354492,25.68000030517578,14.279999732971191
1788674687290549200,6.19454931640625,-24.53999900817871,25.739999771118164,13.139999389648438
1788674687306479400,6.210479248046875,-25.01999855041504,25.68000030517578,12.59999942779541
1788674687322287600,6.22628759765625,-25.01999855041504,24.719999313354492,12.420000076293945
1788674687338156500,6.242156494140625,-25.19999885559082,24.18000030517578,12.59999942779541
1788674687354025700,6.258025634765625,-25.85999870300293,24.35999870300293,13.25999927520752
1788674687369986600,6.273986572265625,-26.399999618530273,25.19999885559082,13.319999694824219
1788674687385886200,6.28988623046875,-26.459999084472656,24.53999900817871,12.779999732971191
1788674687401694200,6.305694091796875,-26.8799991607666,23.34000015258789,12.59999942779541
1788674687417593900,6.32159375,-26.579999923706055,23.8799991607666,12.479999542236328
1788674687433432600,6.3374326171875,-25.799999237060547,24.299999237060547,12.539999961853027
1788674687449332200,6.353332275390625,-25.619998931884766,24.420000076293945,12.539999961853027
1788674687465232000,6.36923193359375,-25.799999237060547,24.479999542236328,12.359999656677246
1788674687481070600,6.385070556640625,-25.920000076293945,24.479999542236328,12.300000190734863
1788674687496970200,6.40097021484375,-25.139999389648438,24.299999237060547,12.65999984741211
1788674687512839200,6.416839111328125,-24.84000015258789,24.719999313354492,12.539999961853027
1788674687528769500,6.43276953125,-25.68000030517578,25.31999969482422,12.84000015258789
1788674687544669200,6.448669189453125,-25.739999771118164,24.53999900817871,12.960000038146973
1788674687560507600,6.464507568359375,-25.799999237060547,23.69999885559082,13.319999694824219
1788674687576407300,6.4804072265625,-26.34000015258789,23.34000015258789,13.739999771118164
1788674687592276500,6.4962763671875,-25.920000076293945,23.15999984741211,13.739999771118164
1788674687608176000,6.512176025390625,-24.84000015258789,23.51999855041504,13.739999771118164
1788674687624075800,6.52807568359375,-24.779998779296875,24.059999465942383,13.559999465942383
1788674687640006100,6.544006103515625,-26.099998474121094,24.239999771118164,13.739999771118164
1788674687655844600,6.5598447265625,-25.619998931884766,23.760000228881836,13.920000076293945
1788674687671744300,6.575744140625,-25.979999542236328,23.8799991607666,14.15999984741211
1788674687687674400,6.59167431640625,-26.279998779296875,24.35999870300293,14.460000038146973
1788674687703574000,6.607573974609375,-25.5,24.059999465942383,14.279999732971191
1788674687719382300,6.62338232421875,-25.920000076293945,23.34000015258789,13.859999656677246
1788674687735251500,6.63925146484375,-25.3799991607666,23.279998779296875,14.219999313354492
1788674687751120600,6.65512060546875,-25.619998931884766,23.03999900817871,14.699999809265137
1788674687767020300,6.671020263671875,-26.15999984741211,22.979999542236328,14.219999313354492
1788674687782920000,6.686919921875,-25.559999465942383,23.34000015258789,13.25999927520752
1788674687798819600,6.702819580078125,-25.68000030517578,22.68000030517578,12.960000038146973
1788674687814627600,6.718627685546875,-26.15999984741211,21.479999542236328,13.559999465942383
1788674687830466300,6.73446630859375,-26.51999855041504,20.81999969482422,14.34000015258789
1788674687846366000,6.750365966796875,-27.119998931884766,21.299999237060547,14.639999389648438
1788674687862204400,6.766204345703125,-27.119998931884766,21.84000015258789,13.799999237060547
1788674687878012700,6.7820126953125,-26.459999084472656,21.959999084472656,12.960000038146973
1788674687893912300,6.797912353515625,-26.099998474121094,22.3799991607666,13.019999504089355
1788674687909750800,6.813750732421875,-26.51999855041504,22.079999923706055,12.359999656677246
1788674687925650400,6.829650390625,-25.920000076293945,22.3799991607666,11.699999809265137
1788674687941580800,6.845580810546875,-25.559999465942383,22.979999542236328,12
1788674687957358300,6.8613583984375,-26.279998779296875,22.619998931884766,12.420000076293945
1788674687973227500,6.8772275390625,-26.15999984741211,23.03999900817871,12.239999771118164
1788674687989127200,6.893127197265625,-25.68000030517578,23.639999389648438,12.119999885559082
1788674688005087700,6.909087646484375,-25.979999542236328,23.399999618530273,12.479999542236328
1788674688020987400,6.9249873046875,-26.15999984741211,22.5,12.960000038146973
1788674688036856600,6.940856689453125,-25.979999542236328,21.959999084472656,12.960000038146973
1788674688052695300,6.9566953125,-25.5,22.559999465942383,12.719999313354492
1788674688068595000,6.972594970703125,-25.3799991607666,23.219999313354492,12.420000076293945
1788674688084494600,6.98849462890625,-25.079999923706055,23.939998626708984,12.420000076293945
1788674688100363800,7.00436376953125,-24.899999618530273,23.69999885559082,12.899999618530273
1788674688116232700,7.020232666015625,-25.619998931884766,22.3799991607666,12.539999961853027
1788674688132102000,7.036101806640625,-25.01999855041504,21.899999618530273,12.420000076293945
1788674688148001500,7.05200146484375,-25.01999855041504,21.899999618530273,13.019999504089355
1788674688163932000,7.067931884765625,-26.219999313354492,21.84000015258789,12.899999618530273
1788674688179862000,7.083862060546875,-25.920000076293945,21.53999900817871,12.179999351501465
1788674688195731200,7.099731201171875,-25.3799991607666,22.020000457763672,12.420000076293945
1788674688211600400,7.115600341796875,-25.799999237060547,22.3799991607666,12.59999942779541
1788674688227500000,7.1315,-25.68000030517578,22.31999969482422,11.639999389648438
1788674688243399700,7.147399658203125,-24.719999313354492,21.959999084472656,11.699999809265137
1788674688259329800,7.163329833984375,-25.139999389648438,21.899999618530273,12.779999732971191
1788674688275199000,7.179198974609375,-25.799999237060547,21.84000015258789,12.960000038146973
1788674688291068200,7.195068115234375,-25.619998931884766,21.119998931884766,13.4399995803833
1788674688306967800,7.2109677734375,-25.979999542236328,21.420000076293945,14.219999313354492
1788674688322898000,7.22689794921875,-25.979999542236328,21.479999542236328,14.460000038146973
1788674688338828000,7.242828125,-25.31999969482422,21.84000015258789,14.399999618530273
1788674688354697200,7.258697265625,-24.479999542236328,21.84000015258789,14.34000015258789
1788674688370596900,7.274596923828125,-25.079999923706055,21.18000030517578,14.09999942779541
1788674688386496500,7.29049658203125,-25.619998931884766,21.479999542236328,13.739999771118164
1788674688402396200,7.306396240234375,-24.600000381469727,21.84000015258789,13.5
1788674688418295800,7.3222958984375,-23.8799991607666,21.53999900817871,13.559999465942383
1788674688434134500,7.338134521484375,-24.18000030517578,21.119998931884766,13.199999809265137
1788674688450034200,7.3540341796875,-24.35999870300293,21.600000381469727,13.139999389648438
1788674688465903400,7.3699033203125,-24.35999870300293,22.260000228881836,13.25999927520752
1788674688481803000,7.385802978515625,-24.959999084472656,22.439998626708984,13.199999809265137
1788674688497702700,7.40170263671875,-25.01999855041504,21.479999542236328,13.739999771118164
1788674688513541000,7.417541015625,-25.079999923706055,20.459999084472656,13.380000114440918
1788674688529410300,7.433410400390625,-25.559999465942383,20.81999969482422,13.319999694824219
1788674688545310000,7.44931005859375,-25.799999237060547,21,13.319999694824219
1788674688561240000,7.465239990234375,-25.739999771118164,20.939998626708984,12.779999732971191
1788674688577170400,7.48117041015625,-25.85999870300293,20.8799991607666,13.319999694824219
1788674688593009000,7.4970087890625,-25.559999465942383,20.520000457763672,13.139999389648438
1788674688608908500,7.512908447265625,-25.19999885559082,20.639999389648438,12.899999618530273
1788674688624808200,7.52880810546875,-25.260000228881836,21.719999313354492,13.559999465942383
1788674688640707800,7.544707763671875,-25.01999855041504,22.020000457763672,13.139999389648438
1788674688656607500,7.560607421875,-25.439998626708984,22.260000228881836,12.899999618530273
1788674688672446200,7.5764462890625,-25.439998626708984,22.19999885559082,13.4399995803833
1788674688688345900,7.592345947265625,-24.53999900817871,21.119998931884766,13.739999771118164
1788674688704215000,7.608215087890625,-23.8799991607666,21.059999465942383,13.979999542236328
1788674688720145200,7.624145263671875,-24.35999870300293,21.600000381469727,13.739999771118164
1788674688736044800,7.640044921875,-24.899999618530273,21.719999313354492,13.619999885559082
1788674688751944400,7.6559443359375,-24.600000381469727,21.899999618530273,13.619999885559082
1788674688767813600,7.671813720703125,-24.239999771118164,22.139999389648438,13.199999809265137
1788674688783713300,7.68771337890625,-24.119998931884766,21.899999618530273,13.25999927520752
1788674688799613000,7.703613037109375,-24.18000030517578,21.65999984741211,13.4399995803833
1788674688815482000,7.719482177734375,-24.479999542236328,21.779998779296875,13.979999542236328
1788674688831351300,7.735351318359375,-24.719999313354492,21.299999237060547,14.15999984741211
1788674688847251000,7.7512509765625,-24.719999313354492,21.479999542236328,13.559999465942383
1788674688863120100,7.7671201171875,-25.01999855041504,21.779998779296875,13.079999923706055
1788674688879050200,7.78305029296875,-24.779998779296875,21.53999900817871,12.779999732971191
1788674688894919400,7.79891943359375,-24.65999984741211,21.479999542236328,13.25999927520752
1788674688910758000,7.8147578125,-24.959999084472656,21.84000015258789,12.479999542236328
1788674688926627000,7.830626953125,-24.719999313354492,21.719999313354492,12.300000190734863
1788674688942526700,7.846526611328125,-24.65999984741211,21.959999084472656,12.960000038146973
1788674688958426400,7.86242626953125,-24.239999771118164,22.85999870300293,13.079999923706055
1788674688974295600,7.878295654296875,-24.65999984741211,21.84000015258789,13.380000114440918
1788674688990164700,7.894164794921875,-24.600000381469727,20.8799991607666,13.079999923706055
1788674689006064400,7.910064453125,-23.760000228881836,21.53999900817871,13.380000114440918
1788674689021964000,7.925964111328125,-23.81999969482422,22.559999465942383,13.4399995803833
1788674689037894100,7.94189404296875,-23.81999969482422,22.260000228881836,12.84000015258789
1788674689053793800,7.957793701171875,-23.51999855041504,22.3799991607666,13.079999923706055
1788674689069693400,7.973693359375,-23.760000228881836,22.559999465942383,13.019999504089355
1788674689085532200,7.9895322265625,-23.100000381469727,22.139999389648438,11.9399995803833
1788674689101401300,8.0054013671875,-22.739999771118164,22.799999237060547,12.479999542236328
1788674689117301000,8.021301025390626,-23.34000015258789,22.68000030517578,12.960000038146973
1788674689133139500,8.037139404296875,-23.279998779296875,22.3799991607666,12.359999656677246
1788674689148978200,8.052978271484376,-23.51999855041504,22.920000076293945,12.300000190734863
1788674689164847400,8.068847412109376,-23.639999389648438,22.85999870300293,12.59999942779541
1788674689180716500,8.084716552734376,-23.81999969482422,22.139999389648438,13.5
1788674689196585700,8.100585693359376,-23.03999900817871,22.19999885559082,13.25999927520752
1788674689212485400,8.1164853515625,-22.260000228881836,22.559999465942383,12.179999351501465
1788674689228354300,8.132354248046875,-23.15999984741211,22.5,12.119999885559082
1788674689244223500,8.148223388671875,-23.279998779296875,22.799999237060547,11.9399995803833
1788674689260123100,8.164123046875,-22.559999465942383,22.979999542236328,11.699999809265137
1788674689276053500,8.180053466796876,-22.619998931884766,23.219999313354492,11.579999923706055
1788674689291983600,8.195983642578126,-23.279998779296875,23.51999855041504,11.9399995803833
1788674689307822000,8.211822021484375,-23.279998779296875,23.579999923706055,12.479999542236328
1788674689323721700,8.2277216796875,-22.68000030517578,23.100000381469727,12.119999885559082
1788674689339591000,8.2435908203125,-23.34000015258789,22.559999465942383,12.65999984741211
1788674689355521300,8.259521240234376,-22.739999771118164,22.439998626708984,13.859999656677246
1788674689371421000,8.2754208984375,-22.19999885559082,22.920000076293945,13.799999237060547
1788674689387289900,8.291289794921875,-22.5,23.34000015258789,13.199999809265137
1788674689403159000,8.307158935546875,-22.260000228881836,23.03999900817871,12.59999942779541
1788674689419058700,8.32305859375,-22.68000030517578,22.5,12.300000190734863
1788674689434958300,8.338958251953125,-22.739999771118164,22.5,12.539999961853027
1788674689450858000,8.35485791015625,-22.260000228881836,23.219999313354492,13.079999923706055
1788674689466666200,8.370666259765626,-21.779998779296875,23.459999084472656,14.039999961853027
1788674689482535400,8.386535400390626,-21.65999984741211,23.399999618530273,14.34000015258789
1788674689498404400,8.402404296875,-21.779998779296875,23.639999389648438,14.039999961853027
1788674689514334700,8.418334716796876,-22.31999969482422,23.579999923706055,13.979999542236328
1788674689530234400,8.434234375,-21.959999084472656,23.34000015258789,14.15999984741211
1788674689546103600,8.450103515625,-21.65999984741211,22.68000030517578,13.979999542236328
1788674689562003200,8.466003173828126,-21.84000015258789,22.260000228881836,12.960000038146973
1788674689577841700,8.481841552734375,-21.299999237060547,22.260000228881836,12.300000190734863
1788674689593741300,8.4977412109375,-21.119998931884766,22.739999771118164,11.9399995803833
1788674689609671400,8.51367138671875,-20.760000228881836,22.979999542236328,12.300000190734863
1788674689625571300,8.5295712890625,-20.69999885559082,22.559999465942383,12.479999542236328
1788674689641409800,8.545409912109376,-21.65999984741211,23.03999900817871,12
1788674689657279000,8.561279052734376,-21.959999084472656,23.219999313354492,12.719999313354492
1788674689673178600,8.5771787109375,-20.69999885559082,23.100000381469727,13.619999885559082
1788674689689047800,8.5930478515625,-19.68000030517578,23.399999618530273,13.559999465942383
1788674689704886300,8.60888623046875,-19.260000228881836,23.459999084472656,13.380000114440918
1788674689720755500,8.62475537109375,-19.799999237060547,23.51999855041504,12.960000038146973
1788674689736624600,8.640624755859376,-20.219999313354492,24.299999237060547,13.380000114440918
1788674689752524300,8.656524169921875,-19.979999542236328,23.939998626708984,13.619999885559082
1788674689768393500,8.6723935546875,-19.799999237060547,23.279998779296875,12.779999732971191
1788674689784201500,8.688201416015625,-19.739999771118164,23.219999313354492,13.199999809265137
1788674689800101000,8.70410107421875,-19.920000076293945,23.34000015258789,13.199999809265137
1788674689816001000,8.7200009765625,-20.399999618530273,23.81999969482422,13.079999923706055
1788674689831900700,8.735900634765626,-20.399999618530273,23.15999984741211,13.799999237060547
1788674689847800300,8.75180029296875,-19.979999542236328,22.559999465942383,14.519999504089355
1788674689863638800,8.767638671875,-20.219999313354492,22.85999870300293,14.9399995803833
1788674689879508000,8.783508056640626,-20.15999984741211,23.459999084472656,14.699999809265137
1788674689895346700,8.7993466796875,-20.279998779296875,23.279998779296875,13.979999542236328
1788674689911246300,8.815246337890626,-21,22.260000228881836,13.619999885559082
1788674689927146000,8.83114599609375,-20.399999618530273,22.020000457763672,13.4399995803833
1788674689942954000,8.8469541015625,-21,22.079999923706055,12.899999618530273
1788674689958853600,8.862853515625,-21.53999900817871,21.84000015258789,12.65999984741211
1788674689974722800,8.878722900390626,-20.81999969482422,21.899999618530273,12.359999656677246
1788674689990653000,8.89465283203125,-21,21.84000015258789,11.9399995803833
1788674690006552600,8.910552490234375,-21.600000381469727,22.3799991607666,12.239999771118164
1788674690022421800,8.926421875,-20.81999969482422,23.34000015258789,12.84000015258789
1788674690038291000,8.942291015625,-19.739999771118164,23.03999900817871,12.420000076293945
1788674690054160100,8.95816015625,-20.15999984741211,22.799999237060547,12.059999465942383
1788674690070090200,8.97409033203125,-20.520000457763672,23.100000381469727,12.239999771118164
1788674690085990000,8.989989990234376,-20.399999618530273,22.979999542236328,12.479999542236328
1788674690101859000,9.005859130859376,-19.619998931884766,23.279998779296875,12.059999465942383
1788674690117758700,9.0217587890625,-19.85999870300293,22.979999542236328,11.279999732971191
1788674690133628000,9.0376279296875,-20.69999885559082,22.559999465942383,11.219999313354492
1788674690149527600,9.053527587890626,-20.520000457763672,23.459999084472656,11.699999809265137
1788674690165427200,9.06942724609375,-20.100000381469727,24.420000076293945,11.34000015258789
1788674690181296400,9.08529638671875,-20.279998779296875,24.299999237060547,11.15999984741211
1788674690197165600,9.10116552734375,-19.559999465942383,23.81999969482422,11.639999389648438
1788674690212973600,9.1169736328125,-19.31999969482422,24.479999542236328,11.460000038146973
1788674690228873200,9.132873291015626,-19.3799991607666,25.559999465942383,11.039999961853027
1788674690244742400,9.148742431640626,-18.600000381469727,24.719999313354492,10.739999771118164
1788674690260580900,9.164580810546875,-18.479999542236328,23.69999885559082,11.09999942779541
1788674690276480500,9.18048046875,-18.84000015258789,24.779998779296875,11.639999389648438
1788674690292349700,9.196349609375,-18.959999084472656,25.559999465942383,12
1788674690308280000,9.212280029296876,-18.600000381469727,24.899999618530273,11.219999313354492
1788674690324149000,9.22814892578125,-17.940000534057617,24.119998931884766,10.619999885559082
1788674690339987700,9.24398779296875,-17.69999885559082,23.34000015258789,11.039999961853027
1788674690355887400,9.259887451171876,-17.8799991607666,23.760000228881836,11.15999984741211
1788674690371756500,9.275756591796876,-18.299999237060547,24.65999984741211,11.219999313354492
1788674690387686700,9.291686767578126,-18.84000015258789,25.01999855041504,10.979999542236328
1788674690403555800,9.307555908203126,-18.600000381469727,24.779998779296875,11.219999313354492
1788674690419394600,9.32339453125,-18.719999313354492,24.479999542236328,11.34000015258789
1788674690435233000,9.33923291015625,-18.779998779296875,24.18000030517578,11.460000038146973
1788674690451102200,9.355102294921876,-18.600000381469727,24.059999465942383,11.460000038146973
1788674690467001900,9.371001953125,-17.8799991607666,24.059999465942383,11.399999618530273
1788674690482871000,9.38687109375,-18.059999465942383,23.69999885559082,12.119999885559082
1788674690498709800,9.402709716796876,-18.779998779296875,23.760000228881836,11.819999694824219
1788674690514548200,9.41854833984375,-19.079999923706055,23.939998626708984,11.460000038146973
1788674690530417400,9.43441748046875,-18.899999618530273,23.939998626708984,11.639999389648438
1788674690546347500,9.450347412109375,-18.600000381469727,23.939998626708984,11.579999923706055
1788674690562216700,9.466216796875,-18.959999084472656,24.059999465942383,12
1788674690578116400,9.482116455078126,-19.020000457763672,24.119998931884766,11.9399995803833
1788674690593955000,9.497955078125,-19.260000228881836,23.15999984741211,11.699999809265137
1788674690609854700,9.513854736328126,-19.020000457763672,22.5,11.9399995803833
1788674690625754400,9.52975439453125,-18.059999465942383,22.979999542236328,11.75999927520752
1788674690641654000,9.545654052734376,-17.81999969482422,24.35999870300293,11.34000015258789
1788674690657523200,9.561523193359376,-18,24.84000015258789,11.519999504089355
1788674690673392000,9.57739208984375,-17.760000228881836,25.079999923706055,12.359999656677246
1788674690689292000,9.5932919921875,-18.35999870300293,25.439998626708984,12.479999542236328
1788674690705191700,9.609191650390626,-18.479999542236328,24.959999084472656,12.539999961853027
1788674690721060600,9.625060546875,-16.920000076293945,24.84000015258789,13.199999809265137
1788674690736929800,9.6409296875,-16.739999771118164,24.420000076293945,12.65999984741211
1788674690752799000,9.656799072265626,-17.219999313354492,24.239999771118164,12.59999942779541
1788674690768698600,9.67269873046875,-17.100000381469727,24.059999465942383,13.4399995803833
1788674690784598300,9.688598388671876,-17.279998779296875,24,13.619999885559082
1788674690800498000,9.704497802734375,-17.940000534057617,24.299999237060547,13.920000076293945
1788674690816367000,9.7203671875,-17.34000015258789,24.299999237060547,14.75999927520752
1788674690832205800,9.736205810546876,-16.619998931884766,23.51999855041504,14.639999389648438
1788674690848074800,9.75207470703125,-16.5,23.100000381469727,14.399999618530273
1788674690864005000,9.768005126953126,-16.619998931884766,22.799999237060547,15.239999771118164
1788674690879904800,9.78390478515625,-16.68000030517578,23.51999855041504,14.880000114440918
1788674690895712800,9.799712646484375,-15.719999313354492,24.65999984741211,14.880000114440918
1788674690911582000,9.81558203125,-15.899999618530273,23.639999389648438,14.75999927520752
1788674690927542500,9.83154248046875,-16.440000534057617,23.15999984741211,14.09999942779541
1788674690943473000,9.847472900390626,-15.960000038146973,24.119998931884766,14.460000038146973
1788674690959403000,9.863403076171876,-15.960000038146973,24.779998779296875,14.219999313354492
1788674690975302700,9.879302734375,-15.899999618530273,24.65999984741211,13.920000076293945
1788674690991171800,9.895171875,-16.020000457763672,24.779998779296875,13.139999389648438
1788674691006979800,9.910979736328125,-16.440000534057617,24.600000381469727,12.359999656677246
1788674691022879500,9.92687939453125,-16.19999885559082,24.479999542236328,12.479999542236328
1788674691038779100,9.942779052734375,-15.65999984741211,24.899999618530273,12.960000038146973
1788674691054648300,9.9586484375,-15.719999313354492,24.84000015258789,12.84000015258789
1788674691070548000,9.9745478515625,-15.65999984741211,24.65999984741211,12
1788674691086386700,9.99038671875,-15,25.439998626708984,12
1788674691102286300,10.006286376953126,-15.65999984741211,25.739999771118164,12.719999313354492
1788674691118155500,10.022155517578126,-16.440000534057617,25.5,12.65999984741211
1788674691133994000,10.037993896484375,-16.139999389648438,24.719999313354492,11.819999694824219
1788674691149893600,10.0538935546875,-15.960000038146973,24.35999870300293,11.579999923706055
1788674691165824000,10.069823974609376,-15.719999313354492,24.84000015258789,12.65999984741211
1788674691181723600,10.0857236328125,-15.65999984741211,24.84000015258789,13.079999923706055
1788674691197623300,10.101623291015626,-14.519999504089355,25.799999237060547,12.539999961853027
1788674691213431300,10.117431396484376,-13.559999465942383,26.34000015258789,12.300000190734863
1788674691229300500,10.133300537109376,-13.979999542236328,26.399999618530273,12.479999542236328
1788674691245230600,10.149230712890626,-14.460000038146973,26.760000228881836,12.300000190734863
1788674691261160700,10.16516064453125,-14.519999504089355,26.15999984741211,11.519999504089355
1788674691277060400,10.181060302734375,-13.739999771118164,26.15999984741211,11.75999927520752
1788674691292929500,10.196929443359375,-13.199999809265137,26.69999885559082,12.059999465942383
1788674691308829200,10.2128291015625,-13.979999542236328,26.459999084472656,12.179999351501465
1788674691324668000,10.22866796875,-13.979999542236328,26.760000228881836,12.179999351501465
1788674691340567600,10.244567626953126,-13.559999465942383,26.81999969482422,11.15999984741211
1788674691356497700,10.26049755859375,-13.559999465942383,26.760000228881836,10.679999351501465
1788674691372427800,10.276427734375,-13.859999656677246,26.69999885559082,11.34000015258789
1788674691388297000,10.292296875,-14.699999809265137,26.639999389648438,11.9399995803833
1788674691404166100,10.308166259765626,-14.279999732971191,26.69999885559082,11.399999618530273
1788674691420065800,10.324065673828125,-13.679999351501465,26.34000015258789,11.699999809265137
1788674691435996000,10.339995849609375,-13.380000114440918,26.760000228881836,12.239999771118164
1788674691451804200,10.35580419921875,-13.4399995803833,27.420000076293945,12.059999465942383
1788674691467673300,10.37167333984375,-13.679999351501465,27.599998474121094,12.239999771118164
1788674691483542500,10.38754248046875,-13.559999465942383,27.239999771118164,12.239999771118164
1788674691499472600,10.40347265625,-13.5,26.639999389648438,12.779999732971191
1788674691515372300,10.419372314453126,-13.859999656677246,26.639999389648438,12.719999313354492
1788674691531272000,10.43527197265625,-13.799999237060547,27,12.059999465942383
1788674691547110400,10.4511103515625,-13.920000076293945,27,11.9399995803833
1788674691562949000,10.46694921875,-14.15999984741211,26.760000228881836,12.179999351501465
1788674691578848800,10.482848876953126,-13.619999885559082,26.579999923706055,12.719999313354492
1788674691594718000,10.498718017578126,-13.859999656677246,26.099998474121094,12.479999542236328
1788674691610556700,10.514556640625,-13.920000076293945,25.559999465942383,12.479999542236328
1788674691626456300,10.530456298828126,-13.679999351501465,25.559999465942383,13.019999504089355
1788674691650198800,10.55419873046875,-13.319999694824219,26.399999618530273,13.4399995803833
1788674691666098400,10.570098388671875,-12.65999984741211,26.69999885559082,13.319999694824219
1788674691681967600,10.585967529296875,-13.019999504089355,25.920000076293945,12.59999942779541
1788674691697867300,10.6018671875,-13.079999923706055,26.03999900817871,13.079999923706055
1788674691713797600,10.617797607421876,-13.079999923706055,26.51999855041504,13.619999885559082
1788674691729666600,10.63366650390625,-13.739999771118164,25.739999771118164,14.039999961853027
1788674691745566200,10.649566162109375,-13.739999771118164,25.619998931884766,14.519999504089355
1788674691761465900,10.6654658203125,-13.4399995803833,25.920000076293945,14.819999694824219
1788674691777365800,10.68136572265625,-13.319999694824219,25.3799991607666,14.9399995803833
1788674691793265400,10.697265380859376,-13.199999809265137,25.19999885559082,14.219999313354492
1788674691809134300,10.71313427734375,-12.84000015258789,25.920000076293945,14.819999694824219
1788674691825034000,10.729033935546875,-13.679999351501465,26.219999313354492,15.59999942779541
1788674691840872700,10.744872802734376,-14.039999961853027,26.099998474121094,15.719999313354492
1788674691856802800,10.760802734375,-13.859999656677246,25.559999465942383,16.3799991607666
1788674691872672000,10.776672119140626,-14.460000038146973,25.19999885559082,15.899999618530273
1788674691888510700,10.7925107421875,-14.579999923706055,26.34000015258789,15.179999351501465
1788674691904410400,10.808410400390626,-14.699999809265137,26.51999855041504,14.639999389648438
1788674691920279600,10.824279541015626,-13.4399995803833,26.459999084472656,15.059999465942383
1788674691936209700,10.840209716796876,-12.479999542236328,26.399999618530273,15.299999237060547
1788674691952078800,10.856078857421876,-12.899999618530273,25.619998931884766,14.9399995803833
1788674691967917300,10.871917236328125,-13.319999694824219,26.15999984741211,15.239999771118164
1788674691983847700,10.88784765625,-13.079999923706055,26.69999885559082,15.479999542236328
1788674691999747300,10.903747314453126,-12.779999732971191,26.639999389648438,15.119999885559082
1788674692015677400,10.919677490234376,-13.079999923706055,26.760000228881836,15.059999465942383
1788674692031577000,10.9355771484375,-13.079999923706055,26.81999969482422,15.179999351501465
1788674692047385000,10.951385009765625,-12.479999542236328,27,15.119999885559082
1788674692063284700,10.96728466796875,-12.420000076293945,27.479999542236328,15.59999942779541
1788674692079154000,10.98315380859375,-12.179999351501465,27.84000015258789,14.9399995803833
1788674692095084000,10.999083984375,-11.639999389648438,28.260000228881836,14.819999694824219
1788674692110983700,11.014983642578125,-11.460000038146973,28.739999771118164,15.539999961853027
1788674692126852900,11.030852783203125,-10.559999465942383,28.68000030517578,14.639999389648438
1788674692142722000,11.04672216796875,-10.260000228881836,28.619998931884766,13.859999656677246
1788674692158591200,11.06259130859375,-10.920000076293945,28.619998931884766,13.739999771118164
1788674692174521300,11.078521240234375,-11.219999313354492,28.799999237060547,14.279999732971191
1788674692190421000,11.0944208984375,-11.219999313354492,28.559999465942383,14.699999809265137
1788674692206259700,11.110259765625,-10.859999656677246,28.01999855041504,14.219999313354492
1788674692222159400,11.126159423828126,-10.619999885559082,28.979999542236328,14.15999984741211
1788674692238028500,11.142028564453126,-10.679999351501465,29.81999969482422,14.519999504089355
1788674692253928200,11.15792822265625,-10.380000114440918,29.69999885559082,13.739999771118164
1788674692269797400,11.17379736328125,-9.719999313354492,28.739999771118164,13.5
1788674692285666300,11.189666259765625,-10.319999694824219,28.85999870300293,14.039999961853027
1788674692301566200,11.205566162109376,-10.619999885559082,29.099998474121094,13.979999542236328
1788674692317435100,11.22143505859375,-10.920000076293945,29.760000228881836,13.319999694824219
1788674692333365500,11.237365478515626,-10.859999656677246,30,12.59999942779541
1788674692349265200,11.25326513671875,-11.34000015258789,29.219999313354492,12.960000038146973
1788674692365073200,11.2690732421875,-11.699999809265137,29.459999084472656,13.139999389648438
1788674692380942300,11.2849423828125,-10.800000190734863,30.059999465942383,12.59999942779541
1788674692396842000,11.300842041015626,-10.619999885559082,30.059999465942383,12.899999618530273
1788674692412711200,11.316711181640626,-11.039999961853027,29.760000228881836,13.799999237060547
1788674692428610800,11.33261083984375,-11.399999618530273,30.479999542236328,13.4399995803833
1788674692444449300,11.34844921875,-10.920000076293945,29.8799991607666,13.019999504089355
1788674692460349000,11.364348876953125,-10.559999465942383,29.219999313354492,13.139999389648438
1788674692476248600,11.38024853515625,-10.859999656677246,29.459999084472656,13.559999465942383
1788674692492179000,11.396178955078126,-11.519999504089355,29.459999084472656,13.380000114440918
1788674692508109000,11.412109130859376,-10.979999542236328,29.639999389648438,13.380000114440918
1788674692523917000,11.4279169921875,-10.5,29.639999389648438,13.979999542236328
1788674692539816700,11.443816650390625,-11.039999961853027,29.8799991607666,13.5
1788674692555716400,11.45971630859375,-11.579999923706055,30.420000076293945,12.479999542236328
1788674692571616300,11.4756162109375,-11.880000114440918,30.119998931884766,12.479999542236328
1788674692587485200,11.491485107421875,-11.34000015258789,29.8799991607666,12.960000038146973
1788674692603354400,11.507354248046875,-10.800000190734863,30.17999839782715,13.25999927520752
1788674692619223600,11.5232236328125,-10.859999656677246,29.81999969482422,13.679999351501465
1788674692635092700,11.5390927734375,-10.979999542236328,30.35999870300293,14.219999313354492
1788674692651053300,11.55505322265625,-11.34000015258789,30.53999900817871,14.460000038146973
1788674692666922500,11.570922607421876,-12.479999542236328,29.939998626708984,14.34000015258789
1788674692682761200,11.58676123046875,-13.619999885559082,29.219999313354492,14.15999984741211
1788674692698660900,11.602660888671876,-12.899999618530273,28.799999237060547,14.039999961853027
1788674692714530000,11.618530029296876,-11.519999504089355,28.31999969482422,13.559999465942383
1788674692730429700,11.6344296875,-11.519999504089355,29.219999313354492,13.319999694824219
1788674692746298600,11.650298583984375,-12.300000190734863,30,13.139999389648438
1788674692762167800,11.666167724609375,-12.359999656677246,29.459999084472656,13.139999389648438
1788674692778037000,11.682037109375,-12.59999942779541,28.920000076293945,14.519999504089355
1788674692793906200,11.69790625,-12.719999313354492,28.920000076293945,14.219999313354492
1788674692809805800,11.713805908203126,-11.519999504089355,29.34000015258789,13.5
1788674692825705500,11.72970556640625,-10.319999694824219,29.399999618530273,14.399999618530273
1788674692841574700,11.74557470703125,-10.319999694824219,29.34000015258789,14.880000114440918
1788674692857443800,11.76144384765625,-10.559999465942383,29.459999084472656,14.75999927520752
1788674692873313000,11.77731298828125,-10.679999351501465,29.579999923706055,15.59999942779541
1788674692889243100,11.7932431640625,-10.859999656677246,29.639999389648438,15.839999198913574
1788674692905142800,11.809142822265626,-11.279999732971191,29.219999313354492,15
1788674692921012000,11.825011962890626,-10.619999885559082,29.34000015258789,15
1788674692936942000,11.840942138671876,-10.319999694824219,30.65999984741211,14.9399995803833
1788674692952811300,11.856811279296876,-10.619999885559082,30.719999313354492,14.819999694824219
1788674692968741400,11.872741455078126,-10.4399995803833,30.299999237060547,15
1788674692984641000,11.88864111328125,-10.260000228881836,29.939998626708984,15.359999656677246
1788674693000510200,11.90451025390625,-10.260000228881836,29.760000228881836,15.420000076293945
1788674693016409900,11.920409912109376,-10.019999504089355,29.939998626708984,15.539999961853027
1788674693032279000,11.936279052734376,-9.119999885559082,29.939998626708984,15.299999237060547
1788674693048209200,11.952209228515626,-9.65999984741211,30.299999237060547,15
1788674693064108800,11.96810888671875,-10.5,30.479999542236328,15.179999351501465
1788674693079978000,11.98397802734375,-9.960000038146973,30.959999084472656,14.880000114440918
1788674693095847200,11.99984716796875,-9.420000076293945,30.84000015258789,15.059999465942383
1788674693111746800,12.015746826171876,-9.179999351501465,31.01999855041504,14.639999389648438
1788674693127646500,12.031646484375,-9.239999771118164,31.3799991607666,14.09999942779541
1788674693143515600,12.047515625,-9.239999771118164,30.84000015258789,13.979999542236328
1788674693159384600,12.063384521484375,-8.9399995803833,31.31999969482422,13.679999351501465
1788674693175253800,12.079253662109375,-9.300000190734863,31.739999771118164,13.799999237060547
1788674693191123000,12.095123046875,-10.260000228881836,31.139999389648438,13.019999504089355
1788674693207053000,12.111052978515625,-11.039999961853027,30.959999084472656,13.079999923706055
1788674693222952700,12.12695263671875,-11.279999732971191,30.779998779296875,13.799999237060547
1788674693238822000,12.14282177734375,-10.859999656677246,30.35999870300293,12.779999732971191
1788674693254691000,12.158691162109376,-9.960000038146973,31.079999923706055,11.819999694824219
1788674693270560300,12.174560302734376,-8.880000114440918,30.899999618530273,12.84000015258789
1788674693286490400,12.190490478515626,-9.420000076293945,30.599998474121094,13.199999809265137
1788674693302390000,12.20639013671875,-10.019999504089355,30.84000015258789,12.300000190734863
1788674693318259200,12.22225927734375,-8.9399995803833,30.599998474121094,13.019999504089355
1788674693334158800,12.238158935546876,-8.399999618530273,30.479999542236328,13.799999237060547
1788674693350058500,12.25405859375,-8.880000114440918,31.260000228881836,13.079999923706055
1788674693365927700,12.269927734375,-9.059999465942383,32.040000915527344,13.25999927520752
1788674693381827300,12.285827392578126,-9.65999984741211,31.920000076293945,12.960000038146973
1788674693397666000,12.301666015625,-9.719999313354492,31.31999969482422,12.359999656677246
1788674693413535000,12.317534912109375,-10.199999809265137,30.899999618530273,12.84000015258789
1788674693429434600,12.3334345703125,-10.800000190734863,31.3799991607666,12.779999732971191
1788674693445334300,12.349334228515625,-10.139999389648438,31.19999885559082,12.960000038146973
1788674693461234200,12.365234130859376,-9.65999984741211,31.3799991607666,12.84000015258789
1788674693477042200,12.381042236328126,-9.59999942779541,31.619998931884766,12.960000038146973
1788674693492941800,12.39694189453125,-10.380000114440918,30.959999084472656,13.4399995803833
1788674693508841500,12.412841552734376,-10.380000114440918,30.959999084472656,13.199999809265137
1788674693524741000,12.4287412109375,-10.079999923706055,31.139999389648438,13.979999542236328
1788674693540579800,12.444579833984376,-10.199999809265137,30.239999771118164,14.279999732971191
1788674693556479500,12.4604794921875,-9.960000038146973,30.17999839782715,14.34000015258789
1788674693572348700,12.4763486328125,-9.779999732971191,30.84000015258789,14.039999961853027
1788674693588278800,12.49227880859375,-9.779999732971191,30.53999900817871,13.679999351501465
1788674693604178400,12.508178466796876,-9.960000038146973,30.299999237060547,14.219999313354492
1788674693620078000,12.524078125,-10.319999694824219,29.579999923706055,14.880000114440918
1788674693635916500,12.53991650390625,-10.739999771118164,28.979999542236328,15.65999984741211
1788674693651785700,12.55578564453125,-10.800000190734863,29.15999984741211,15.479999542236328
1788674693667685400,12.571685302734375,-9.300000190734863,28.920000076293945,15.839999198913574
1788674693683585000,12.5875849609375,-9.359999656677246,29.279998779296875,16.739999771118164
1788674693699484700,12.603484619140625,-9.899999618530273,28.979999542236328,16.85999870300293
1788674693715353900,12.619353759765625,-9.479999542236328,28.439998626708984,17.100000381469727
1788674693731223000,12.63522314453125,-9.300000190734863,28.920000076293945,17.15999984741211
1788674693747061800,12.651061767578126,-8.9399995803833,28.68000030517578,17.399999618530273
1788674693762991900,12.666991943359376,-9.059999465942383,27.899999618530273,18.059999465942383
1788674693778891500,12.6828916015625,-8.639999389648438,27.65999984741211,18.18000030517578
1788674693794730200,12.698730224609376,-8.34000015258789,28.31999969482422,18.299999237060547
1788674693810599200,12.71459912109375,-8.15999984741211,28.079999923706055,18.899999618530273
1788674693826498800,12.730498779296875,-7.619999885559082,27.719999313354492,19.079999923706055
1788674693842429200,12.74642919921875,-7.079999923706055,28.19999885559082,18.18000030517578
1788674693858359300,12.762359375,-6.71999979019165,28.01999855041504,17.399999618530273
1788674693874198000,12.778197998046876,-6.71999979019165,27.84000015258789,18.18000030517578
1788674693890097700,12.79409765625,-7.319999694824219,27.84000015258789,19.079999923706055
1788674693905997300,12.809997314453126,-7.37999963760376,28.31999969482422,18.719999313354492
1788674693921927400,12.825927490234376,-7.079999923706055,28.920000076293945,18.779998779296875
1788674693937857500,12.841857421875,-7.199999809265137,28.31999969482422,19.31999969482422
1788674693953696300,12.8576962890625,-6.960000038146973,28.079999923706055,19.619998931884766
1788674693969565400,12.8735654296875,-7.019999980926514,27.65999984741211,19.3799991607666
1788674693985465000,12.889465087890626,-6.659999847412109,27.599998474121094,18.899999618530273
1788674694001395200,12.905395263671876,-5.87999963760376,28.31999969482422,18.779998779296875
1788674694017294800,12.921294921875,-5.940000057220459,28.5,18.959999084472656
1788674694033164000,12.9371640625,-6.239999771118164,27.719999313354492,18.479999542236328
1788674694049033200,12.953033203125,-6.119999885559082,27.599998474121094,18.53999900817871
1788674694064932900,12.968932861328126,-5.21999979019165,28.85999870300293,19.079999923706055
1788674694080832500,12.98483251953125,-5.039999961853027,28.979999542236328,19.020000457763672
1788674694096732200,13.000732177734376,-5.460000038146973,29.03999900817871,18.420000076293945
1788674694112540200,13.0165400390625,-5.699999809265137,29.219999313354492,17.579999923706055
1788674694128409300,13.032409423828126,-5.940000057220459,29.03999900817871,17.03999900817871
1788674694144309000,13.04830908203125,-6.71999979019165,29.34000015258789,17.399999618530273
1788674694160239000,13.064239013671875,-7.079999923706055,29.69999885559082,17.399999618530273
1788674694176169500,13.08016943359375,-6.119999885559082,29.69999885559082,16.739999771118164
1788674694191977500,13.0959775390625,-5.400000095367432,30.17999839782715,17.34000015258789
1788674694207846700,13.1118466796875,-5.099999904632568,30.239999771118164,17.579999923706055
1788674694223776800,13.12777685546875,-5.159999847412109,29.939998626708984,16.979999542236328
1788674694239707000,13.143706787109375,-5.639999866485596,30.479999542236328,16.559999465942383
1788674694255606500,13.1596064453125,-5.759999752044678,31.31999969482422,16.260000228881836
1788674694271445200,13.1754453125,-5.699999809265137,31.619998931884766,15.899999618530273
1788674694287314400,13.191314453125,-6.119999885559082,31.559999465942383,15.899999618530273
1788674694303214000,13.207214111328126,-5.639999866485596,32.099998474121094,15.179999351501465
1788674694319113700,13.22311376953125,-5.460000038146973,32.279998779296875,14.75999927520752
1788674694335043800,13.2390439453125,-5.159999847412109,32.279998779296875,14.699999809265137
1788674694350913000,13.2549130859375,-4.739999771118164,32.57999801635742,15.119999885559082
1788674694366782200,13.2707822265625,-4.380000114440918,32.52000045776367,15.420000076293945
1788674694382620700,13.28662060546875,-4.259999752044678,32.459999084472656,14.579999923706055
1788674694398551000,13.302551025390626,-4.319999694824219,32.39999771118164,14.279999732971191
1788674694414450700,13.31845068359375,-3.4800000190734863,32.459999084472656,15.119999885559082
1788674694430319600,13.334319580078125,-4.319999694824219,33.05999755859375,15
1788674694446219500,13.350219482421876,-4.619999885559082,33,14.75999927520752
1788674694462119200,13.366119140625,-4.199999809265137,32.63999938964844,14.75999927520752
1788674694478018800,13.382018798828126,-4.319999694824219,33.41999816894531,14.639999389648438
1788674694493887700,13.3978876953125,-4.319999694824219,33.959999084472656,14.639999389648438
1788674694509726500,13.4137265625,-4.259999752044678,34.07999801635742,14.15999984741211
1788674694525595600,13.429595703125,-4.079999923706055,33.84000015258789,15
1788674694541464800,13.44546484375,-4.440000057220459,33.65999984741211,15.59999942779541
1788674694557395000,13.46139501953125,-4.259999752044678,34.20000076293945,14.819999694824219
1788674694573294600,13.477294677734376,-4.079999923706055,33.71999740600586,14.09999942779541
1788674694589163800,13.493163818359376,-3.8399999141693115,33.36000061035156,14.519999504089355
1788674694605063400,13.5090634765625,-3.7200000286102295,34.07999801635742,15.059999465942383
1788674694620993500,13.52499365234375,-4.559999942779541,34.73999786376953,14.519999504089355
1788674694636923600,13.540923583984375,-4.920000076293945,34.73999786376953,15
1788674694652823300,13.5568232421875,-4.799999713897705,34.68000030517578,15.359999656677246
1788674694668662000,13.572662109375,-3.9599997997283936,34.73999786376953,15
1788674694684531200,13.58853125,-4.199999809265137,34.86000061035156,15.420000076293945
1788674694700400400,13.604400390625,-4.440000057220459,35.099998474121094,15.299999237060547
1788674694716330500,13.62033056640625,-3.6599998474121094,34.97999954223633,15.119999885559082
1788674694732230100,13.636230224609376,-4.559999942779541,35.34000015258789,15.719999313354492
1788674694748068900,13.65206884765625,-4.920000076293945,34.91999816894531,15.719999313354492
1788674694763907300,13.6679072265625,-4.619999885559082,34.2599983215332,15.539999961853027
1788674694779776500,13.683776611328126,-4.440000057220459,34.73999786376953,15.839999198913574
1788674694795706600,13.69970654296875,-5.039999961853027,35.70000076293945,15.960000038146973
1788674694811606300,13.715606201171875,-4.980000019073486,36,16.3799991607666
1788674694827445000,13.731445068359376,-4.739999771118164,34.73999786376953,16.31999969482422
1788674694843375000,13.747375,-5.039999961853027,33.89999771118164,16.5
1788674694859244300,13.763244384765626,-4.139999866485596,34.20000076293945,16.3799991607666
1788674694875144000,13.77914404296875,-4.619999885559082,34.79999923706055,16.260000228881836
1788674694891043600,13.795043701171876,-5.159999847412109,35.939998626708984,16.739999771118164
1788674694906912800,13.810912841796876,-4.739999771118164,36.23999786376953,17.15999984741211
1788674694922782000,13.826781982421876,-5.400000095367432,35.70000076293945,16.799999237060547
1788674694938651100,13.842651123046876,-6.239999771118164,35.81999969482422,16.619998931884766
1788674694954520000,13.85852001953125,-5.21999979019165,36.18000030517578,17.579999923706055
1788674694970420000,13.874419921875,-4.619999885559082,35.7599983215332,17.639999389648438
1788674694986215400,13.89021533203125,-5.699999809265137,35.880001068115234,17.579999923706055
1788674695002084600,13.906084716796874,-5.699999809265137,36.18000030517578,17.03999900817871
1788674695017923000,13.921923095703125,-4.980000019073486,35.939998626708984,16.799999237060547
1788674695033853400,13.937853515625,-4.980000019073486,35.21999740600586,17.940000534057617
1788674695049753000,13.953753173828124,-5.940000057220459,34.91999816894531,18
1788674695065530600,13.969530517578125,-5.87999963760376,35.52000045776367,17.399999618530273
1788674695081430300,13.98543017578125,-4.859999656677246,35.880001068115234,16.920000076293945
1788674695097330000,14.001329833984375,-4.5,36.47999954223633,16.559999465942383
1788674695113260000,14.017260009765625,-4.679999828338623,37.07999801635742,16.739999771118164
1788674695129159700,14.03315966796875,-6.179999828338623,37.13999938964844,16.19999885559082
1788674695145028900,14.04902880859375,-6.599999904632568,37.73999786376953,15.719999313354492
1788674695160898000,14.06489794921875,-6.659999847412109,38.099998474121094,15.960000038146973
1788674695176767200,14.080767333984374,-6.71999979019165,38.21999740600586,15.839999198913574
1788674695192697300,14.096697265625,-6.480000019073486,37.55999755859375,15.239999771118164
1788674695208597000,14.112596923828125,-6.659999847412109,37.68000030517578,14.519999504089355
1788674695224435700,14.128435791015624,-6.71999979019165,38.63999938964844,14.399999618530273
1788674695240304600,14.1443046875,-6.539999961853027,38.279998779296875,14.880000114440918
1788674695256173800,14.160173828125,-5.579999923706055,37.91999816894531,14.460000038146973
1788674695272073500,14.176073486328125,-5.759999752044678,38.81999969482422,14.399999618530273
1788674695287973000,14.19197314453125,-7.019999980926514,39.05999755859375,13.559999465942383
1788674695303811800,14.207811767578125,-6.599999904632568,38.7599983215332,12.179999351501465
1788674695319681000,14.223680908203125,-6.779999732971191,38.459999084472656,12.899999618530273
1788674695335550200,14.23955029296875,-7.019999980926514,38.040000915527344,13.5
1788674695351480300,14.255480224609375,-5.759999752044678,38.040000915527344,13.679999351501465
1788674695367349500,14.271349609375,-5.940000057220459,37.86000061035156,13.139999389648438
1788674695383218400,14.287218505859375,-6.599999904632568,38.63999938964844,12.65999984741211
1788674695399118300,14.303118408203124,-6.71999979019165,39.540000915527344,12.239999771118164
1788674695414987300,14.3189873046875,-6.960000038146973,38.939998626708984,12.059999465942383
1788674695430917600,14.334917724609374,-7.139999866485596,38.39999771118164,12.119999885559082
1788674695446817300,14.3508173828125,-7.199999809265137,39.540000915527344,12
1788674695462686200,14.366686279296875,-6.71999979019165,39.18000030517578,11.399999618530273
1788674695478555400,14.382555419921875,-6.119999885559082,38.81999969482422,10.979999542236328
1788674695494455000,14.398455078125,-6.239999771118164,39.119998931884766,11.519999504089355
1788674695510385400,14.414385498046874,-6.420000076293945,38.70000076293945,11.880000114440918
1788674695526285000,14.43028515625,-6.119999885559082,38.63999938964844,12.119999885559082
1788674695542154000,14.446154052734375,-6.420000076293945,38.939998626708984,12.059999465942383
1788674695558054000,14.462053955078124,-7.079999923706055,39,12.479999542236328
1788674695573922800,14.4779228515625,-7.199999809265137,39.119998931884766,12.59999942779541
1788674695589853200,14.493853271484374,-7.139999866485596,38.7599983215332,12.84000015258789
1788674695605722000,14.50972216796875,-6.899999618530273,38.15999984741211,13.5
1788674695621560800,14.525560791015625,-7.559999942779541,38.57999801635742,13.199999809265137
1788674695637460500,14.54146044921875,-8.34000015258789,38.279998779296875,13.139999389648438
1788674695653268500,14.5572685546875,-8.279999732971191,38.21999740600586,13.4399995803833
1788674695669198800,14.57319873046875,-9.179999351501465,38.15999984741211,13.559999465942383
1788674695685068000,14.589068115234374,-9.359999656677246,37.31999969482422,13.559999465942383
1788674695700937000,14.60493701171875,-8.699999809265137,37.619998931884766,13.5
1788674695716806100,14.62080615234375,-9,37.619998931884766,14.09999942779541
1788674695732675300,14.63667529296875,-9.119999885559082,37.31999969482422,14.219999313354492
1788674695748575000,14.652574951171875,-9.119999885559082,37.619998931884766,14.15999984741211
1788674695764474600,14.668474609375,-8.760000228881836,37.31999969482422,13.619999885559082
1788674695780313300,14.684313232421875,-8.34000015258789,37.439998626708984,13.979999542236328
1788674695796182500,14.7001826171875,-8.399999618530273,36.84000015258789,15.239999771118164
1788674695812051500,14.716051513671875,-8.34000015258789,36.779998779296875,15.59999942779541
1788674695827981800,14.73198193359375,-8.34000015258789,36.959999084472656,15.65999984741211
1788674695843881500,14.747881591796874,-8.699999809265137,36.36000061035156,15.119999885559082
1788674695859720000,14.763719970703125,-8.579999923706055,36.89999771118164,15
1788674695875589000,14.779589111328125,-8.039999961853027,36.599998474121094,15.839999198913574
1788674695891458300,14.795458251953125,-7.739999771118164,35.7599983215332,16.079999923706055
1788674695907358000,14.81135791015625,-7.199999809265137,36.119998931884766,16.440000534057617
1788674695923288000,14.8272880859375,-7.019999980926514,36.599998474121094,16.19999885559082
1788674695939096300,14.843096435546874,-6.599999904632568,36.41999816894531,15.960000038146973
1788674695954996000,14.858995849609375,-6.899999618530273,36.18000030517578,16.31999969482422
1788674695970926000,14.874926025390625,-7.199999809265137,36.05999755859375,15.059999465942383
1788674695986825700,14.89082568359375,-6.71999979019165,36.23999786376953,15.359999656677246
1788674696002755800,14.906755859375,-6.539999961853027,36.47999954223633,15.59999942779541
1788674696018564000,14.922564208984374,-6.480000019073486,36.65999984741211,15.779999732971191
1788674696034433300,14.938433349609374,-6.059999942779541,36.959999084472656,16.260000228881836
1788674696050333000,14.9543330078125,-5.279999732971191,36.65999984741211,15.479999542236328
1788674696066201900,14.970201904296875,-6.179999828338623,36.47999954223633,15.179999351501465
1788674696082101500,14.9861015625,-7.139999866485596,35.880001068115234,15.239999771118164
1788674696097940200,15.001940185546875,-6.539999961853027,35.57999801635742,15.719999313354492
1788674696113870300,15.017870361328125,-6.960000038146973,36.41999816894531,15.359999656677246
1788674696129739500,15.033739501953125,-7.139999866485596,36.29999923706055,14.699999809265137
1788674696145669600,15.049669677734375,-7.019999980926514,36.18000030517578,14.699999809265137
1788674696161569300,15.0655693359375,-7.559999942779541,36.119998931884766,14.039999961853027
1788674696177438500,15.0814384765625,-8.15999984741211,36.05999755859375,14.219999313354492
1788674696193307600,15.0973076171875,-8.699999809265137,36.18000030517578,13.859999656677246
1788674696209176800,15.1131767578125,-8.15999984741211,36.18000030517578,13.380000114440918
1788674696225076500,15.129076416015625,-7.679999828338623,36.47999954223633,13.859999656677246
1788674696240945700,15.144945556640625,-7.559999942779541,36.959999084472656,13.019999504089355
1788674696256814800,15.16081494140625,-6.960000038146973,36.959999084472656,12
1788674696272683800,15.176683837890625,-7.199999809265137,37.02000045776367,12.119999885559082
1788674696288553000,15.192552978515625,-7.37999963760376,36.779998779296875,11.75999927520752
1788674696304483300,15.2084833984375,-7.37999963760376,36.18000030517578,11.639999389648438
1788674696320352300,15.224352294921875,-8.279999732971191,37.07999801635742,12
1788674696336221400,15.240221435546875,-8.15999984741211,37.31999969482422,11.460000038146973
1788674696352121000,15.25612109375,-7.739999771118164,36.29999923706055,11.460000038146973
1788674696367990300,15.271990234375,-7.980000019073486,35.099998474121094,11.399999618530273
1788674696383920400,15.28792041015625,-7.199999809265137,35.39999771118164,10.920000076293945
1788674696399850800,15.303850830078124,-6.71999979019165,35.81999969482422,10.019999504089355
1788674696415658800,15.31965869140625,-6.480000019073486,36,9.59999942779541
1788674696431528000,15.33552783203125,-5.940000057220459,36.41999816894531,10.319999694824219
1788674696447427600,15.351427490234375,-6,36,10.679999351501465
1788674696463296800,15.367296875,-6.659999847412109,36.29999923706055,10.319999694824219
1788674696479196400,15.383196533203124,-7.5,36.18000030517578,9.719999313354492
1788674696495065600,15.399065673828124,-7.319999694824219,35.279998779296875,9.899999618530273
1788674696510965200,15.41496533203125,-7.319999694824219,35.099998474121094,10.619999885559082
1788674696526834200,15.430834228515625,-7.559999942779541,34.97999954223633,10.679999351501465
1788674696542703400,15.446703369140625,-7.019999980926514,34.86000061035156,10.380000114440918
1788674696558603000,15.46260302734375,-6.779999732971191,35.040000915527344,10.380000114440918
1788674696574502700,15.478502685546875,-7.440000057220459,34.91999816894531,9.960000038146973
1788674696590402300,15.49440234375,-7.440000057220459,35.63999938964844,10.079999923706055
1788674696606271500,15.510271484375,-7.739999771118164,35.34000015258789,10.619999885559082
1788674696622201600,15.52620166015625,-7.859999656677246,34.380001068115234,10.739999771118164
1788674696638070800,15.54207080078125,-7.440000057220459,34.380001068115234,10.739999771118164
1788674696653909500,15.557909423828125,-7.919999599456787,34.619998931884766,10.619999885559082
1788674696669809200,15.57380908203125,-7.919999599456787,35.15999984741211,10.5
1788674696685739300,15.5897392578125,-8.34000015258789,35.279998779296875,10.4399995803833
1788674696701639000,15.605638916015625,-8.220000267028809,35.459999084472656,10.920000076293945
1788674696717508000,15.621508056640625,-7.859999656677246,34.5,11.75999927520752
1788674696733316000,15.637316162109375,-8.15999984741211,33.89999771118164,11.579999923706055
1788674696749185300,15.653185302734375,-8.34000015258789,34.619998931884766,10.979999542236328
1788674696765054500,15.669054443359375,-7.919999599456787,34.439998626708984,10.920000076293945
1788674696780984600,15.684984619140625,-7.139999866485596,34.13999938964844,11.579999923706055
1788674696796884200,15.70088427734375,-8.09999942779541,34.439998626708984,12.059999465942383
1788674696812723000,15.716722900390625,-7.859999656677246,34.55999755859375,11.519999504089355
1788674696828592000,15.732592041015625,-7.37999963760376,34.2599983215332,11.639999389648438
1788674696844461300,15.74846142578125,-8.880000114440918,33.05999755859375,12.300000190734863
1788674696860330500,15.76433056640625,-8.9399995803833,33.47999954223633,12.359999656677246
1788674696876230100,15.780230224609374,-8.460000038146973,34.13999938964844,12.059999465942383
1788674696892129800,15.7961298828125,-8.819999694824219,33.959999084472656,12.359999656677246
1788674696907998700,15.811998779296875,-9,33.959999084472656,12.960000038146973
1788674696923868000,15.827867919921875,-7.919999599456787,34.02000045776367,12.899999618530273
1788674696939767600,15.843767578125,-6.960000038146973,33.41999816894531,13.019999504089355
1788674696955698000,15.859697998046874,-7.859999656677246,32.939998626708984,13.319999694824219
1788674696971597600,15.87559765625,-8.819999694824219,33.23999786376953,13.199999809265137
1788674696987497200,15.891497314453124,-8.880000114440918,33.29999923706055,12.539999961853027
1788674697003366100,15.9073662109375,-8.34000015258789,33.84000015258789,11.75999927520752
1788674697019296500,15.923296630859374,-8.399999618530273,34.55999755859375,12.059999465942383
1788674697035196200,15.939196044921875,-8.09999942779541,34.380001068115234,12.300000190734863
1788674697051034600,15.95503466796875,-7.980000019073486,34.13999938964844,12.420000076293945
1788674697066934300,15.970934326171875,-7.619999885559082,34.02000045776367,12.719999313354492
1788674697082834000,15.986833984375,-7.440000057220459,33.71999740600586,12.420000076293945
1788674697098733600,16.002733642578125,-8.34000015258789,34.02000045776367,12.539999961853027
1788674697114633500,16.018633544921876,-8.880000114440918,34.79999923706055,12.300000190734863
1788674697130441500,16.03444140625,-9.119999885559082,34.86000061035156,12.420000076293945
1788674697146341000,16.050341064453125,-8.579999923706055,34.2599983215332,12.59999942779541
1788674697162240800,16.06624072265625,-8.34000015258789,34.20000076293945,12.719999313354492
1788674697178140400,16.082140380859375,-9.420000076293945,33.959999084472656,12.359999656677246
1788674697194070500,16.098070556640625,-10.679999351501465,33.71999740600586,11.699999809265137
1788674697209939700,16.113939697265625,-10.679999351501465,33.65999984741211,12.059999465942383
1788674697225839400,16.12983935546875,-10.079999923706055,33.89999771118164,12.059999465942383
1788674697241708500,16.14570849609375,-9.84000015258789,34.31999969482422,11.460000038146973
1788674697257577700,16.16157763671875,-10.139999389648438,34.31999969482422,11.219999313354492
1788674697273477400,16.177477294921875,-9.719999313354492,34.2599983215332,10.800000190734863
1788674697289346600,16.1933466796875,-9,34.55999755859375,10.619999885559082
1788674697305246200,16.20924609375,-8.639999389648438,35.040000915527344,10.619999885559082
1788674697321115400,16.225115478515626,-8.880000114440918,35.040000915527344,10.5
1788674697337045500,16.24104541015625,-10.019999504089355,34.55999755859375,10.319999694824219
1788674697352945200,16.256945068359375,-10.619999885559082,34.55999755859375,10.079999923706055
1788674697368783600,16.27278369140625,-10.920000076293945,35.040000915527344,9.960000038146973
1788674697384652800,16.28865283203125,-10.800000190734863,35.459999084472656,9.479999542236328
1788674697400522000,16.30452197265625,-10.739999771118164,34.91999816894531,9.539999961853027
1788674697416421600,16.320421630859375,-10.139999389648438,35.099998474121094,9.59999942779541
1788674697432321300,16.3363212890625,-9.420000076293945,35.81999969482422,9.239999771118164
1788674697448160000,16.352159912109375,-9.899999618530273,36.23999786376953,9
1788674697464059600,16.3680595703125,-9.65999984741211,36.47999954223633,8.519999504089355
1788674697479928800,16.3839287109375,-9.420000076293945,36.65999984741211,7.859999656677246
1788674697495859000,16.39985888671875,-9.65999984741211,36.29999923706055,8.279999732971191
1788674697511789000,16.4157890625,-9.479999542236328,35.63999938964844,8.579999923706055
1788674697527566600,16.431566650390625,-9.119999885559082,35.880001068115234,8.519999504089355
1788674697543435800,16.447435791015625,-9.779999732971191,36.65999984741211,7.799999713897705
1788674697559366100,16.4633662109375,-9.960000038146973,37.31999969482422,7.019999980926514
1788674697575296300,16.479296142578125,-8.880000114440918,37.13999938964844,7.199999809265137
1788674697591196000,16.49519580078125,-8.819999694824219,36.540000915527344,7.199999809265137
1788674697614969000,16.518968994140625,-9.300000190734863,36.599998474121094,7.739999771118164
1788674697630868700,16.53486865234375,-9.539999961853027,36.71999740600586,7.980000019073486
1788674697646738000,16.550738037109376,-10.739999771118164,36.65999984741211,8.279999732971191
1788674697662607000,16.566607177734376,-10.559999465942383,36.41999816894531,8.519999504089355
1788674697678537200,16.582537109375,-10.5,36.65999984741211,8.699999809265137
1788674697694406400,16.598406494140626,-10.800000190734863,37.02000045776367,8.760000228881836
1788674697710306000,16.61430615234375,-10.380000114440918,36.18000030517578,8.460000038146973
1788674697726144500,16.63014453125,-10.920000076293945,35.880001068115234,8.699999809265137
1788674697742013700,16.646013671875,-11.699999809265137,36.05999755859375,8.9399995803833
1788674697757943800,16.66194384765625,-11.699999809265137,35.7599983215332,9.059999465942383
1788674697773874200,16.677874267578126,-12,35.63999938964844,9.65999984741211
1788674697789773800,16.69377392578125,-12.059999465942383,36.41999816894531,9.420000076293945
1788674697805642800,16.709642822265625,-12.179999351501465,37.02000045776367,9.359999656677246
1788674697821512000,16.725511962890625,-11.34000015258789,37.380001068115234,8.699999809265137
1788674697837411600,16.74141162109375,-11.34000015258789,37.20000076293945,7.980000019073486
1788674697861215500,16.765215576171876,-11.819999694824219,36.05999755859375,9.059999465942383
1788674697877115100,16.781115234375,-11.75999927520752,35.880001068115234,9.239999771118164
1788674697893045200,16.797045166015625,-11.9399995803833,35.939998626708984,9.359999656677246
1788674697908945000,16.81294482421875,-12.65999984741211,35.70000076293945,9.779999732971191
1788674697924783600,16.82878369140625,-12.539999961853027,35.70000076293945,9.539999961853027
1788674697940683300,16.844683349609376,-11.279999732971191,36.119998931884766,9.059999465942383
1788674697956552200,16.86055224609375,-11.09999942779541,35.880001068115234,9.239999771118164
1788674697972451800,16.876451904296875,-11.519999504089355,35.7599983215332,10.019999504089355
1788674697988351500,16.8923515625,-11.519999504089355,35.279998779296875,10.679999351501465
1788674698004220700,16.908220703125,-11.75999927520752,35.880001068115234,10.5
1788674698020089900,16.92408984375,-12.420000076293945,36.29999923706055,10.260000228881836
1788674698035959000,16.939958984375,-11.880000114440918,35.7599983215332,9.84000015258789
1788674698051858700,16.955858642578125,-11.039999961853027,36.71999740600586,9.420000076293945
1788674698067758300,16.97175830078125,-11.219999313354492,36.89999771118164,9.420000076293945
1788674698083597000,16.98759716796875,-12.059999465942383,36.41999816894531,9.719999313354492
1788674698099496700,17.00349658203125,-12,36.41999816894531,9.539999961853027
1788674698115366000,17.019365966796876,-12.300000190734863,36.36000061035156,9
1788674698131265500,17.035265625,-12.539999961853027,36.29999923706055,9.119999885559082
1788674698147195600,17.051195556640625,-11.639999389648438,36,9.420000076293945
1788674698163003600,17.067003662109375,-12.059999465942383,35.63999938964844,9.359999656677246
1788674698178872800,17.082872802734375,-12.420000076293945,36.119998931884766,9.479999542236328
1788674698194772500,17.0987724609375,-12.300000190734863,36.36000061035156,9.539999961853027
1788674698210702600,17.11470263671875,-12.59999942779541,36.119998931884766,9.539999961853027
1788674698226602200,17.130602294921875,-13.019999504089355,36.18000030517578,8.880000114440918
1788674698242441000,17.14644091796875,-14.15999984741211,35.939998626708984,9
1788674698258340600,17.162340576171875,-14.579999923706055,35.52000045776367,9.59999942779541
1788674698274209800,17.178209716796875,-14.219999313354492,35.81999969482422,9.239999771118164
1788674698290140000,17.194139892578125,-14.34000015258789,35.7599983215332,9.179999351501465
1788674698306039600,17.21003955078125,-14.699999809265137,35.459999084472656,9
1788674698321908700,17.22590869140625,-15.059999465942383,35.15999984741211,8.34000015258789
1788674698337808400,17.241808349609375,-15.059999465942383,35.040000915527344,7.980000019073486
1788674698353677600,17.257677490234375,-14.039999961853027,34.97999954223633,7.859999656677246
1788674698369577200,17.2735771484375,-13.979999542236328,35.39999771118164,7.679999828338623
1788674698385476900,17.289476806640625,-14.279999732971191,36.119998931884766,7.619999885559082
1788674698401315600,17.305315673828126,-13.679999351501465,36.23999786376953,8.220000267028809
1788674698417184500,17.3211845703125,-13.739999771118164,35.880001068115234,8.34000015258789
1788674698433053700,17.3370537109375,-13.619999885559082,35.34000015258789,7.5
1788674698448984000,17.352984130859376,-14.09999942779541,35.459999084472656,7.619999885559082
1788674698464883700,17.3688837890625,-14.15999984741211,35.57999801635742,7.319999694824219
1788674698480722200,17.38472216796875,-13.25999927520752,35.7599983215332,6.480000019073486
1788674698496591400,17.40059130859375,-13.920000076293945,36,6.539999961853027
1788674698512460500,17.41646044921875,-13.920000076293945,36,6.599999904632568
1788674698528360200,17.432360107421875,-13.859999656677246,36,6.659999847412109
1788674698544290300,17.448290283203125,-14.09999942779541,36.47999954223633,6.059999942779541
1788674698560129000,17.46412890625,-14.219999313354492,36.47999954223633,5.460000038146973
1788674698575998200,17.479998291015626,-13.559999465942383,36,6.119999885559082
1788674698591836700,17.495836669921875,-12.420000076293945,35.21999740600586,6.839999675750732
1788674698607766800,17.511766845703125,-12.899999618530273,35.39999771118164,7.019999980926514
1788674698623666400,17.52766650390625,-13.859999656677246,35.7599983215332,6.420000076293945
1788674698639505200,17.543505126953125,-13.679999351501465,35.21999740600586,5.940000057220459
1788674698655404800,17.55940478515625,-12.960000038146973,35.459999084472656,5.940000057220459
1788674698671243500,17.575243408203125,-12.779999732971191,35.880001068115234,5.400000095367432
1788674698687143200,17.59114306640625,-12.479999542236328,36.540000915527344,5.759999752044678
1788674698703073300,17.6070732421875,-13.4399995803833,36.119998931884766,6.179999828338623
1788674698718881300,17.62288134765625,-13.920000076293945,34.619998931884766,6.239999771118164
1788674698734750500,17.63875048828125,-13.799999237060547,35.040000915527344,6.599999904632568
1788674698750619600,17.65461962890625,-14.460000038146973,35.52000045776367,6.779999732971191
1788674698766519300,17.670519287109375,-14.399999618530273,34.97999954223633,6.71999979019165
1788674698782449400,17.686449462890625,-13.739999771118164,34.73999786376953,6.420000076293945
1788674698798227200,17.702227294921876,-14.34000015258789,34.68000030517578,6.71999979019165
1788674698814096100,17.71809619140625,-15.239999771118164,34.619998931884766,7.199999809265137
1788674698829965300,17.73396533203125,-15.779999732971191,34.5,8.09999942779541
1788674698845895700,17.749895751953126,-15.839999198913574,34.380001068115234,8.579999923706055
1788674698861795300,17.76579541015625,-15.119999885559082,34.07999801635742,8.34000015258789
1788674698877664300,17.781664306640625,-15.059999465942383,34.13999938964844,7.980000019073486
1788674698893533400,17.797533447265625,-15.239999771118164,34.439998626708984,8.09999942779541
1788674698909372200,17.8133720703125,-15.420000076293945,34.380001068115234,8.09999942779541
1788674698925302300,17.82930224609375,-15.65999984741211,33.65999984741211,7.799999713897705
1788674698941202000,17.845201904296875,-16.440000534057617,33.71999740600586,7.859999656677246
1788674698957071000,17.861071044921875,-16.68000030517578,33.779998779296875,8.34000015258789
1788674698972970800,17.876970703125,-15.420000076293945,33.05999755859375,8.819999694824219
1788674698988840000,17.89283984375,-14.819999694824219,33.18000030517578,8.819999694824219
1788674699004739600,17.908739501953125,-15.539999961853027,33.29999923706055,8.819999694824219
1788674699020639200,17.92463916015625,-15.960000038146973,32.939998626708984,8.819999694824219
1788674699036508400,17.94050830078125,-15.059999465942383,33.29999923706055,9.059999465942383
1788674699052377600,17.956377685546876,-14.699999809265137,33,8.9399995803833
1788674699068216000,17.972216064453125,-15.119999885559082,32.459999084472656,8.699999809265137
1788674699084146200,17.988146240234375,-14.819999694824219,33.119998931884766,8.699999809265137
1788674699100045800,18.0040458984375,-14.460000038146973,33.71999740600586,8.639999389648438
1788674699115915000,18.0199150390625,-15.119999885559082,33.18000030517578,8.15999984741211
1788674699131784200,18.0357841796875,-15.779999732971191,33.29999923706055,8.15999984741211
1788674699147653400,18.0516533203125,-15.420000076293945,33.47999954223633,8.639999389648438
1788674699163583500,18.06758349609375,-14.819999694824219,33.41999816894531,8.760000228881836
1788674699179452700,18.08345263671875,-15.299999237060547,33.599998474121094,8.9399995803833
1788674699195291400,18.09929150390625,-15.65999984741211,33,8.279999732971191
1788674699211191000,18.11519091796875,-15.719999313354492,32.63999938964844,8.279999732971191
1788674699227090700,18.131090576171875,-15.420000076293945,32.21999740600586,8.9399995803833
1788674699242990300,18.146990234375,-14.9399995803833,32.099998474121094,8.819999694824219
1788674699258890000,18.162889892578125,-14.880000114440918,33.23999786376953,8.220000267028809
1788674699274667500,18.17866748046875,-14.279999732971191,33.47999954223633,8.34000015258789
1788674699290536700,18.19453662109375,-14.819999694824219,32.21999740600586,8.760000228881836
1788674699306406000,18.210406005859376,-16.19999885559082,32.15999984741211,9.420000076293945
1788674699322336000,18.2263359375,-15.479999542236328,32.57999801635742,9.59999942779541
1788674699338235600,18.242235595703125,-15.65999984741211,31.67999839782715,8.760000228881836
1788674699354043600,18.258043701171875,-16.85999870300293,32.040000915527344,8.460000038146973
1788674699369974000,18.27397412109375,-16.440000534057617,32.52000045776367,8.9399995803833
1788674699385843000,18.289843017578125,-16.739999771118164,32.040000915527344,8.819999694824219
1788674699401742800,18.305742919921876,-17.03999900817871,31.619998931884766,8.399999618530273
1788674699417581300,18.321581298828125,-15.899999618530273,31.739999771118164,8.279999732971191
1788674699433450500,18.337450439453125,-14.9399995803833,32.57999801635742,8.220000267028809
1788674699449319700,18.353319580078125,-14.519999504089355,32.34000015258789,8.34000015258789
1788674699465188900,18.36918896484375,-14.9399995803833,32.7599983215332,8.15999984741211
1788674699481119000,18.385118896484375,-15.779999732971191,33.41999816894531,7.679999828338623
1788674699497018600,18.4010185546875,-15.59999942779541,32.459999084472656,7.139999866485596
1788674699512857300,18.416857421875,-15.119999885559082,31.920000076293945,7.259999752044678
1788674699528726300,18.432726318359375,-14.519999504089355,31.799999237060547,7.259999752044678
1788674699544595500,18.448595458984375,-14.9399995803833,31.920000076293945,6.420000076293945
1788674699560525600,18.464525634765625,-15.719999313354492,32.52000045776367,6.599999904632568
1788674699576456000,18.4804560546875,-15.299999237060547,32.939998626708984,6.659999847412109
1788674699592294400,18.49629443359375,-14.579999923706055,33.18000030517578,6.839999675750732
1788674699608194000,18.512194091796875,-14.519999504089355,33.36000061035156,7.079999923706055
1788674699624032800,18.52803271484375,-14.519999504089355,33,6.119999885559082
1788674699639932400,18.543932373046875,-14.519999504089355,32.57999801635742,5.759999752044678
1788674699655832000,18.55983203125,-15.119999885559082,32.279998779296875,6.179999828338623
1788674699671701200,18.575701171875,-15,32.34000015258789,6.420000076293945
1788674699687601000,18.591600830078125,-14.519999504089355,32.7599983215332,6.119999885559082
1788674699703439600,18.607439697265626,-14.15999984741211,32.880001068115234,5.940000057220459
1788674699719339300,18.62333935546875,-13.920000076293945,32.939998626708984,6.71999979019165
1788674699735208200,18.639208251953125,-13.920000076293945,32.15999984741211,6.539999961853027
1788674699758981400,18.6629814453125,-14.34000015258789,32.21999740600586,5.940000057220459
1788674699774942200,18.678942138671875,-14.34000015258789,31.920000076293945,6.599999904632568
1788674699790750200,18.694750244140625,-14.579999923706055,32.63999938964844,6.539999961853027
1788674699806649900,18.71064990234375,-14.279999732971191,32.52000045776367,6.480000019073486
1788674699822519000,18.72651904296875,-14.34000015258789,31.979999542236328,6.599999904632568
1788674699838418700,18.742418701171875,-14.219999313354492,31.67999839782715,6.659999847412109
1788674699854379500,18.758379638671876,-13.859999656677246,30.479999542236328,6.899999618530273
1788674699878122200,18.782122314453126,-14.579999923706055,30.779998779296875,7.079999923706055
1788674699894022000,18.79802197265625,-15.539999961853027,30.53999900817871,7.37999963760376
1788674699909860400,18.8138603515625,-15.839999198913574,30.53999900817871,7.799999713897705
1788674699933725200,18.83772509765625,-15.960000038146973,31.01999855041504,8.039999961853027
1788674699949533200,18.853533203125,-16.68000030517578,30.719999313354492,8.279999732971191
1788674699965432800,18.869432861328125,-17.15999984741211,29.69999885559082,8.639999389648438
1788674699981302000,18.885302001953125,-16.68000030517578,30.059999465942383,8.34000015258789
1788674699997201700,18.90120166015625,-15.899999618530273,30.84000015258789,9
1788674700013040400,18.917040283203125,-16.85999870300293,30.65999984741211,9.239999771118164
1788674700028909600,18.93290966796875,-16.559999465942383,30.899999618530273,9.420000076293945
1788674700044748000,18.948748046875,-16.19999885559082,30.65999984741211,10.079999923706055
1788674700060617200,18.9646171875,-16.139999389648438,29.939998626708984,10.139999389648438
1788674700076547300,18.98054736328125,-15.960000038146973,30.65999984741211,10.079999923706055
1788674700092447000,18.996447021484375,-15.899999618530273,31.079999923706055,9.719999313354492
1788674700108255200,19.012255126953125,-15.059999465942383,30.53999900817871,9.300000190734863
1788674700124155000,19.02815478515625,-15.119999885559082,30.35999870300293,9.300000190734863
1788674700140024000,19.044024169921876,-15.899999618530273,30.239999771118164,9.359999656677246
1788674700155923700,19.059923828125,-16.559999465942383,29.760000228881836,9.719999313354492
1788674700171823400,19.0758232421875,-15.899999618530273,29.8799991607666,9.59999942779541
1788674700187661800,19.091661865234375,-15.899999618530273,30.53999900817871,9.239999771118164
1788674700203561500,19.1075615234375,-16.139999389648438,30.420000076293945,9.719999313354492
1788674700219430700,19.1234306640625,-15.59999942779541,30.119998931884766,10.319999694824219
1788674700235360800,19.13936083984375,-15.719999313354492,30.17999839782715,10.319999694824219
1788674700251230000,19.15522998046875,-16.619998931884766,30.059999465942383,10.199999809265137
1788674700275003100,19.179003173828125,-15.719999313354492,30.35999870300293,10.4399995803833
1788674700290902800,19.19490283203125,-15.359999656677246,29.399999618530273,10.139999389648438
1788674700306711000,19.2107109375,-15.719999313354492,28.85999870300293,10.800000190734863
1788674700322580200,19.226580322265626,-16.020000457763672,28.799999237060547,10.920000076293945
1788674700346414300,19.250414306640625,-16.979999542236328,28.619998931884766,10.859999656677246
1788674700370247000,19.274246826171876,-17.03999900817871,28.3799991607666,11.15999984741211
1788674700386085600,19.290085693359377,-16.68000030517578,28.85999870300293,10.4399995803833
1788674700401985300,19.3059853515625,-15.539999961853027,29.03999900817871,9.65999984741211
1788674700417854500,19.3218544921875,-15.59999942779541,30.059999465942383,10.319999694824219
1788674700433754000,19.337754150390627,-16.020000457763672,30.959999084472656,10.260000228881836
1788674700449684200,19.353684326171877,-16.559999465942383,30,10.079999923706055
1788674700465492200,19.3694921875,-16.079999923706055,29.81999969482422,10.380000114440918
1788674700481361400,19.385361328125,-14.880000114440918,29.8799991607666,10.260000228881836
1788674700497230600,19.401230712890627,-14.9399995803833,29.760000228881836,9.960000038146973
1788674700513130200,19.417130126953126,-14.819999694824219,29.760000228881836,9.65999984741211
1788674700529030000,19.43302978515625,-14.399999618530273,29.579999923706055,9.59999942779541
1788674700544899000,19.448899169921877,-15.839999198913574,29.81999969482422,9.239999771118164
1788674700560768300,19.464768310546877,-16.260000228881836,30.059999465942383,8.880000114440918
1788674700576668000,19.48066796875,-15.539999961853027,29.69999885559082,9.059999465942383
1788674700592598000,19.496597900390626,-16.079999923706055,28.979999542236328,9.420000076293945
1788674700608497700,19.51249755859375,-16.3799991607666,29.219999313354492,9.479999542236328
1788674700624366800,19.528366943359377,-16.19999885559082,29.81999969482422,8.519999504089355
1788674700640205300,19.544205322265626,-16.260000228881836,30.17999839782715,8.279999732971191
1788674700656074500,19.560074462890626,-15.299999237060547,30.84000015258789,8.880000114440918
1788674700671974100,19.57597412109375,-14.699999809265137,30.779998779296875,9.119999885559082
1788674700687843300,19.59184326171875,-15.359999656677246,29.8799991607666,8.519999504089355
1788674700703712500,19.60771240234375,-15.479999542236328,30.059999465942383,8.220000267028809
1788674700719612200,19.623612060546876,-15.059999465942383,29.8799991607666,8.819999694824219
1788674700735481300,19.6394814453125,-14.699999809265137,29.8799991607666,8.579999923706055
1788674700751381000,19.655381103515627,-14.819999694824219,30.420000076293945,8.399999618530273
1788674700767280600,19.67128076171875,-15,30.17999839782715,8.460000038146973
1788674700783149800,19.68714990234375,-15.119999885559082,30.35999870300293,8.09999942779541
1788674700799019000,19.70301904296875,-14.460000038146973,31.079999923706055,8.220000267028809
1788674700814918700,19.718918701171877,-13.920000076293945,31.139999389648438,8.039999961853027
1788674700830848800,19.734848876953127,-14.279999732971191,30.599998474121094,7.859999656677246
1788674700846718000,19.750718017578127,-14.75999927520752,30.239999771118164,8.220000267028809
1788674700862587100,19.766587158203127,-13.979999542236328,29.8799991607666,8.15999984741211
1788674700878486800,19.78248681640625,-13.739999771118164,30,8.34000015258789
1788674700894386400,19.798386474609377,-14.460000038146973,30.959999084472656,8.760000228881836
1788674700910316500,19.814316650390627,-15.119999885559082,31.079999923706055,9.119999885559082
1788674700926216200,19.83021630859375,-15.59999942779541,30.65999984741211,9.239999771118164
1788674700942055000,19.846054931640627,-14.219999313354492,30.35999870300293,10.380000114440918
1788674700965919500,19.86991943359375,-14.699999809265137,29.15999984741211,10.5
1788674700981758200,19.88575830078125,-14.880000114440918,29.51999855041504,10.199999809265137
1788674700997688300,19.901688232421876,-15.420000076293945,29.51999855041504,10.019999504089355
1788674701013527000,19.917527099609377,-15.960000038146973,29.099998474121094,10.380000114440918
1788674701029457200,19.93345703125,-15.359999656677246,28.68000030517578,10.859999656677246
1788674701045387300,19.94938720703125,-16.139999389648438,29.279998779296875,10.979999542236328
1788674701061226000,19.96522607421875,-15.65999984741211,29.639999389648438,11.09999942779541
1788674701077125600,19.981125732421877,-14.819999694824219,29.03999900817871,10.800000190734863
1788674701092994800,19.996994873046877,-15.059999465942383,28.979999542236328,10.260000228881836
1788674701108864000,20.012864013671877,-15,28.920000076293945,10.619999885559082
1788674701124763600,20.028763671875,-15.059999465942383,28.31999969482422,11.579999923706055
1788674701148567300,20.0525673828125,-15.839999198913574,27.959999084472656,11.9399995803833
1788674701164467000,20.068467041015627,-15.479999542236328,28.799999237060547,11.9399995803833
1788674701180275000,20.08427490234375,-15.179999351501465,29.279998779296875,11.699999809265137
1788674701196113700,20.10011376953125,-15.119999885559082,29.099998474121094,11.880000114440918
1788674701211982800,20.11598291015625,-15.359999656677246,29.03999900817871,11.880000114440918
1788674701227882500,20.131882568359377,-16.079999923706055,28.85999870300293,11.75999927520752
1788674701243782100,20.1477822265625,-15.59999942779541,28.31999969482422,12.059999465942383
1788674701259590100,20.163590087890626,-15.119999885559082,28.920000076293945,12.359999656677246
1788674701275489800,20.17948974609375,-15.420000076293945,29.279998779296875,12.239999771118164
1788674701291328500,20.19532861328125,-15.59999942779541,29.099998474121094,12.239999771118164
1788674701307228200,20.211228271484377,-15.059999465942383,29.15999984741211,11.9399995803833
1788674701323127800,20.2271279296875,-14.460000038146973,28.979999542236328,11.34000015258789
1788674701338935800,20.242935791015626,-15.299999237060547,28.799999237060547,11.519999504089355
1788674701354805000,20.258804931640626,-15.359999656677246,29.15999984741211,11.819999694824219
1788674701370674200,20.274674072265626,-14.579999923706055,29.69999885559082,11.9399995803833
1788674701386573800,20.29057373046875,-15.059999465942383,29.639999389648438,12.779999732971191
1788674701402473500,20.306473388671876,-15,28.979999542236328,12.899999618530273
1788674701418312200,20.322312255859377,-14.880000114440918,28.619998931884766,12.179999351501465
1788674701434181400,20.338181396484377,-15.299999237060547,28.799999237060547,11.819999694824219
1788674701450050300,20.35405029296875,-15.420000076293945,29.15999984741211,12.65999984741211
1788674701465980700,20.369980712890627,-15.420000076293945,28.559999465942383,12.539999961853027
1788674701481880300,20.38588037109375,-15.119999885559082,28.559999465942383,11.75999927520752
1788674701497780000,20.401780029296877,-15,29.15999984741211,11.579999923706055
1788674701513649200,20.417649169921877,-14.819999694824219,29.219999313354492,11.699999809265137
1788674701529518000,20.43351806640625,-14.75999927520752,28.739999771118164,11.519999504089355
1788674701545417700,20.449417724609376,-15.239999771118164,28.68000030517578,11.399999618530273
1788674701561256400,20.46525634765625,-14.819999694824219,29.15999984741211,11.880000114440918
1788674701577125600,20.481125732421877,-14.460000038146973,28.85999870300293,11.519999504089355
1788674701593025300,20.497025390625,-15.059999465942383,29.15999984741211,11.699999809265137
1788674701608894500,20.51289453125,-15.239999771118164,29.34000015258789,11.639999389648438
1788674701624794000,20.528794189453127,-15.719999313354492,28.979999542236328,11.399999618530273
1788674701640693800,20.54469384765625,-15.899999618530273,29.03999900817871,11.09999942779541
1788674701656532200,20.5605322265625,-16.19999885559082,28.920000076293945,10.859999656677246
1788674701672371000,20.576370849609376,-16.5,28.68000030517578,12.059999465942383
1788674701688270600,20.5922705078125,-16.619998931884766,28.619998931884766,12
1788674701704170200,20.608170166015626,-16.19999885559082,28.799999237060547,11.460000038146973
1788674701720100400,20.624100341796876,-15.479999542236328,29.219999313354492,11.519999504089355
1788674701735969500,20.639969482421876,-15.839999198913574,28.68000030517578,10.679999351501465
1788674701751838700,20.655838623046876,-15.539999961853027,28.5,10.4399995803833
1788674701767677400,20.671677490234377,-15.179999351501465,28.920000076293945,10.800000190734863
1788674701783607600,20.687607666015627,-15.539999961853027,28.439998626708984,10.979999542236328
1788674701799476700,20.703476806640627,-15.65999984741211,28.559999465942383,10.920000076293945
1788674701815346000,20.719345947265627,-15.539999961853027,28.739999771118164,11.15999984741211
1788674701831245600,20.73524560546875,-15.539999961853027,29.03999900817871,11.399999618530273
1788674701847114500,20.751114501953126,-14.819999694824219,29.219999313354492,10.800000190734863
1788674701863014400,20.767014404296877,-14.399999618530273,29.219999313354492,10.5
1788674701878883300,20.78288330078125,-15.179999351501465,29.279998779296875,10.920000076293945
1788674701894722000,20.79872216796875,-15.59999942779541,28.920000076293945,11.34000015258789
1788674701910591200,20.81459130859375,-15.299999237060547,28.85999870300293,11.039999961853027
1788674701926491000,20.830490966796877,-14.880000114440918,29.34000015258789,10.380000114440918
1788674701942421000,20.8464208984375,-15.179999351501465,30.119998931884766,10.920000076293945
1788674701958351000,20.86235107421875,-15.839999198913574,29.760000228881836,12.179999351501465
1788674701974159400,20.878159423828127,-15.899999618530273,28.799999237060547,11.9399995803833
1788674701990059000,20.89405908203125,-15.539999961853027,27.899999618530273,11.219999313354492
1788674702005958700,20.909958740234377,-15.059999465942383,27.479999542236328,11.039999961853027
1788674702021888800,20.925888671875,-15.65999984741211,27.53999900817871,11.34000015258789
1788674702037788400,20.941788330078126,-16.799999237060547,27.899999618530273,12.059999465942383
1788674702053657600,20.95765771484375,-16.5,27.84000015258789,12.479999542236328
1788674702069557200,20.97355712890625,-16.19999885559082,27.299999237060547,12.239999771118164
1788674702085426400,20.989426513671877,-16.440000534057617,27,12.359999656677246
1788674702101326000,21.005326171875,-16.260000228881836,26.939998626708984,12.65999984741211
1788674702117225700,21.021225830078127,-16.5,27.420000076293945,12
1788674702133064400,21.037064453125,-16.260000228881836,27.65999984741211,12
1788674702148933400,21.052933349609376,-15.899999618530273,27.119998931884766,12
1788674702164802600,21.068802490234376,-15.779999732971191,27.299999237060547,12.179999351501465
1788674702180702200,21.0847021484375,-15.960000038146973,27.84000015258789,12.539999961853027
1788674702196601900,21.100601806640626,-16.5,27.059999465942383,12.300000190734863
1788674702212440600,21.116440673828127,-16.68000030517578,26.399999618530273,13.199999809265137
1788674702228340200,21.13234033203125,-16.079999923706055,27.18000030517578,14.15999984741211
1788674702244179000,21.148178955078127,-16.5,26.8799991607666,13.679999351501465
1788674702260048000,21.1640478515625,-17.219999313354492,26.34000015258789,13.25999927520752
1788674702275947500,21.179947509765626,-16.68000030517578,26.69999885559082,13.559999465942383
1788674702291816700,21.195816650390626,-16.619998931884766,27.18000030517578,13.920000076293945
1788674702307716400,21.21171630859375,-16.68000030517578,27.059999465942383,14.039999961853027
1788674702323585500,21.22758544921875,-15.839999198913574,26.579999923706055,13.799999237060547
1788674702339515600,21.243515625,-15.539999961853027,26.939998626708984,13.920000076293945
1788674702355384800,21.259384765625,-16.139999389648438,26.760000228881836,14.699999809265137
1788674702371254000,21.27525390625,-15.839999198913574,26.760000228881836,14.880000114440918
