time,seconds_elapsed,z,y,x
1788674681402338600,0.306338623046875,9.84495735168457,1.0319008827209473,-0.2992752194404602
1788674681418207500,0.32220751953125,9.945513725280762,1.0630255937576294,-0.272938996553421
1788674681434137900,0.338137939453125,9.876082420349121,1.048660397529602,-0.19871874153614044
1788674681450037500,0.35403759765625,9.732429504394531,0.9792284965515137,-0.20111294090747833
1788674681465967600,0.369967529296875,9.557653427124023,0.9433154463768005,-0.19393034279346466
1788674681481867300,0.3858671875,9.521739959716797,0.8786720037460327,-0.2777273952960968
1788674681497736400,0.401736328125,9.47146224975586,0.9241618514060974,-0.26575639843940735
1788674681513636000,0.417635986328125,9.545681953430176,0.9624691009521484,-0.05267243832349777
1788674681529505300,0.43350537109375,9.461885452270508,1.1037269830703735,0.16519992053508759
1788674681545405000,0.449405029296875,9.493009567260742,1.2090718746185303,0.4381389021873474
1788674681561243400,0.465243408203125,9.406818389892578,1.2473790645599365,0.6631938815116882
1788674681577143000,0.48114306640625,9.263166427612305,1.292868971824646,0.9983820915222168
1788674681593012200,0.49701220703125,9.069235801696777,1.4077905416488647,1.2880805730819702
1788674681608912000,0.512911865234375,9.050082206726074,1.50355863571167,1.3646949529647827
1788674681624781000,0.528781005859375,9.253589630126953,1.623268723487854,1.41257905960083
1788674681640680700,0.5446806640625,9.478644371032715,1.6927006244659424,1.6735470294952393
1788674681656580400,0.560580322265625,9.493009567260742,1.7621324062347412,1.9249382019042969
1788674681672480000,0.57647998046875,9.411606788635254,1.8100165128707886,1.8842366933822632
1788674681688410000,0.59241015625,9.696516990661621,1.7094600200653076,1.556231141090393
1788674681704309800,0.608309814453125,13.491326332092285,1.1851298809051514,3.265691041946411
1788674681720179000,0.624178955078125,11.30063247680664,2.0446481704711914,1.644816517829895
1788674681736048000,0.640048095703125,10.091560363769531,1.742978811264038,1.4891934394836426
1788674681751917300,0.655917236328125,8.5903959274292,1.7381904125213623,1.0582371950149536
1788674681767786500,0.671786376953125,7.943961143493652,2.0039467811584473,1.194706678390503
1788674681783686100,0.68768603515625,8.248024940490723,2.161964178085327,1.6328455209732056
1788674681799585800,0.703585693359375,9.493009567260742,1.9105730056762695,1.6950948238372803
1788674681815455000,0.719455078125,9.552865028381348,1.3215993642807007,0.5482721924781799
1788674681831354600,0.735354736328125,9.90241813659668,1.0797849893569946,-0.08619125932455063
1788674681847223800,0.751223876953125,9.68694019317627,0.7254431247711182,-0.4908113479614258
1788674681863092700,0.7670927734375,9.995792388916016,0.3519476354122162,-0.5578489899635315
1788674681878992400,0.782992431640625,10.558429718017578,0.2059013396501541,-0.05027823522686958
1788674681894861600,0.798861572265625,10.721235275268555,0.3471592366695404,0.009576806798577309
1788674681910761200,0.81476123046875,10.132261276245117,0.646434485912323,0.3495534360408783
1788674681926691600,0.830691650390625,9.136273384094238,1.0319008827209473,0.871489405632019
1788674681942591200,0.84659130859375,8.08282470703125,1.2689268589019775,0.40462008118629456
1788674681958460200,0.862460205078125,9.272743225097656,1.381454348564148,0.43095630407333374
1788674681974329300,0.878329345703125,10.630255699157715,1.5131354331970215,1.0558429956436157
1788674681990198500,0.894198486328125,10.338163375854492,1.8602946996688843,0.768538773059845
1788674682006128600,0.910128662109375,10.5344877243042,1.7405846118927002,1.0965443849563599
1788674682021997800,0.925997802734375,10.864887237548828,1.7980455160140991,-0.14604631066322327
1788674682037897500,0.9418974609375,10.11550235748291,2.4468741416931152,0.8164227604866028
1788674682053766700,0.9577666015625,8.576030731201172,1.4317326545715332,1.4532804489135742
1788674682069635800,0.9736357421875,8.999804496765137,0.7709329724311829,-1.7525556087493896
1788674682085566000,0.98956591796875,10.125079154968262,-0.17477671802043915,-1.522712230682373
1788674682101435100,1.00543505859375,11.528080940246582,-0.17238251864910126,-1.98958158493042
1788674682117304300,1.02130419921875,11.88002872467041,-0.21547815203666687,-1.6903064250946045
1788674682133204000,1.037203857421875,10.900800704956055,0.07182604819536209,-0.5889736413955688
1788674682149073200,1.0530732421875,9.9000244140625,0.45250412821769714,-0.1867477297782898
1788674682164972800,1.068972900390625,8.60236644744873,0.6129156351089478,-0.4357447028160095
1788674682180841700,1.084841796875,8.106766700744629,0.6224924325942993,-1.0630255937576294
1788674682196711000,1.1007109375,8.722076416015625,0.6033388376235962,-0.9888052940368652
1788674682212580000,1.116580078125,9.718064308166504,0.7374141216278076,-0.9481038451194763
1788674682228449300,1.13244921875,10.47702693939209,0.8978256583213806,-1.0199298858642578
1788674682244318500,1.148318359375,11.238382339477539,1.0079588890075684,-0.43335050344467163
1788674682268152600,1.172152587890625,10.563218116760254,1.115697979927063,-0.2561795711517334
1788674682284083000,1.1880830078125,9.399636268615723,1.381454348564148,-0.30885201692581177
1788674682299982600,1.203982666015625,8.81784439086914,1.7094600200653076,-0.1628057211637497
1788674682315851500,1.2198515625,8.650250434875488,1.8195933103561401,0.31364041566848755
1788674682339655400,1.243655517578125,9.124302864074707,1.644816517829895,0.7972691655158997
1788674682355585500,1.25958544921875,9.75637149810791,1.5729905366897583,0.9888052940368652
1788674682371424300,1.27542431640625,10.06043529510498,1.625662922859192,1.3503297567367554
1788674682387324000,1.291323974609375,9.727641105651855,1.7932571172714233,1.2449848651885986
1788674682411188500,1.3151884765625,9.023746490478516,1.8483237028121948,0.8379706144332886
1788674682427057700,1.3310576171875,6.603208065032959,1.4939818382263184,0.5650315880775452
1788674682450861300,1.354861328125,9.603142738342285,1.1324573755264282,0.9026140570640564
1788674682474695700,1.37869580078125,10.946290016174316,1.4963760375976562,1.6376339197158813
1788674682490534100,1.3945341796875,11.48259162902832,1.9321208000183105,1.5514427423477173
1788674682506403300,1.4104033203125,10.029311180114746,2.1140801906585693,0.5578489899635315
1788674682522272500,1.4262724609375,9.251194953918457,2.4133553504943848,1.5873557329177856
1788674682538172200,1.442172119140625,7.881711959838867,2.4133553504943848,0.9074024558067322
1788674682554011000,1.458010986328125,6.9024834632873535,2.31758713722229,0.29209262132644653
1788674682569910500,1.47391064453125,7.481880187988281,1.3742717504501343,-0.5506663918495178
1788674682585779700,1.48977978515625,9.411606788635254,0.5650315880775452,-1.7932571172714233
1788674682601679400,1.505679443359375,11.36048698425293,0.4429273009300232,-0.6344634294509888
1788674682617579000,1.5215791015625,11.973402976989746,0.48602294921875,0.44532153010368347
1788674682633448000,1.537447998046875,11.717223167419434,0.5722141861915588,0.08379705995321274
1788674682649347800,1.553347900390625,10.759542465209961,0.45250412821769714,-0.8092401623725891
1788674682665216800,1.569216796875,9.658209800720215,0.3734954595565796,-1.292868971824646
1788674682681147100,1.585147216796875,8.990227699279785,0.3064578175544739,-1.3982137441635132
1788674682696985600,1.600985595703125,8.815450668334961,0.26575639843940735,-1.1013327836990356
1788674682712824300,1.61682421875,9.229647636413574,0.33758243918418884,-0.7445967197418213
1788674682728693500,1.632693603515625,9.701305389404297,0.6344634294509888,-0.751779317855835
1788674682744562400,1.6485625,9.737217903137207,0.9265560507774353,-1.0223240852355957
1788674682768427300,1.67242724609375,8.951920509338379,-0.031124621629714966,-0.4620809257030487
1788674682784296400,1.68829638671875,10.079588890075684,-0.1149216815829277,0.2585737705230713
1788674682808130600,1.712130615234375,11.719616889953613,0.7230489253997803,-0.5650315880775452
1788674682824030200,1.7280302734375,10.711658477783203,1.036689281463623,-1.4245500564575195
1788674682847864600,1.751864501953125,8.719682693481445,0.8571242094039917,-0.7206547260284424
1788674682863794700,1.767794677734375,7.005434036254883,1.113303780555725,-0.2082955539226532
1788674682879663900,1.783663818359375,8.406042098999023,0.9074024558067322,-0.20350714027881622
1788674682895563500,1.7995634765625,9.959878921508789,0.6943184733390808,0.5410895943641663
1788674682911402200,1.81540234375,10.57040023803711,0.9720458984375,-0.45250412821769714
1788674682927271400,1.831271484375,9.126696586608887,1.479616641998291,-0.3711012601852417
1788674682943140400,1.847140380859375,9.57441234588623,1.1061211824417114,0.5841852426528931
1788674682959070700,1.86307080078125,11.042057991027832,1.316810965538025,0.6057330369949341
1788674682974939600,1.878939697265625,11.075576782226562,1.3718775510787964,-0.07182604819536209
1788674682990808800,1.894808837890625,10.304644584655762,0.3926490843296051,-0.10773907601833344
1788674683006708500,1.91070849609375,8.937555313110352,0.1173158809542656,-0.4357447028160095
1788674683022577700,1.92657763671875,9.856928825378418,-0.29209262132644653,-0.5674257874488831
1788674683038446800,1.94244677734375,10.862493515014648,0.035913024097681046,-0.8571242094039917
1788674683054346500,1.958346435546875,10.582371711730957,0.5027823448181152,-0.44532153010368347
1788674683070185200,1.974185302734375,9.619902610778809,0.9792284965515137,-0.43335050344467163
1788674683086054100,1.99005419921875,9.038111686706543,1.0630255937576294,-0.3519476354122162
1788674683101953800,2.005953857421875,8.882488250732422,1.0127472877502441,-0.3974374830722809
1788674683117823000,2.021822998046875,9.093177795410156,1.0654197931289673,-0.2753331959247589
1788674683133722600,2.03772265625,9.804255485534668,1.0582371950149536,0.44771572947502136
1788674683149622300,2.053622314453125,10.326191902160645,0.9193734526634216,0.9097966551780701
1788674683165461000,2.0694609375,10.63504409790039,0.49559974670410156,0.5267243981361389
1788674683181360600,2.085360595703125,11.05642318725586,0.07661445438861847,-0.028730420395731926
1788674683197229800,2.101229736328125,11.267112731933594,-0.11252748221158981,-0.0454898327589035
1788674683213129500,2.11712939453125,10.96544361114502,-0.2322375625371933,0.2298433631658554
1788674683229029000,2.133029052734375,10.228029251098633,0.48602294921875,0.11971008777618408
1788674683244867800,2.148867919921875,9.064447402954102,0.9864110946655273,-0.6584054827690125
1788674683260736800,2.16473681640625,8.987833023071289,0.950498104095459,-0.7565677165985107
1788674683276606000,2.18060595703125,9.081207275390625,0.727837324142456,-0.6847416758537292
1788674683292475100,2.19647509765625,8.96389102935791,1.036689281463623,0.14604631066322327
1788674683308405200,2.2124052734375,8.87291145324707,0.828393816947937,-0.1149216815829277
1788674683324305000,2.228304931640625,9.165003776550293,0.8212111592292786,-0.47405192255973816
1788674683340174000,2.244174072265625,9.301473617553711,1.2952631711959839,-0.9672574996948242
1788674683356043300,2.260043212890625,9.399636268615723,1.4844050407409668,-0.9648633003234863
1788674683371912400,2.275912353515625,9.229647636413574,1.2665326595306396,-0.2849099934101105
1788674683387842600,2.291842529296875,9.59596061706543,0.8523358106613159,-0.021547814831137657
1788674683403681300,2.307681396484375,10.225635528564453,0.7733271718025208,-0.11252748221158981
1788674683419550500,2.323550537109375,10.448296546936035,0.7613561153411865,-0.4381389021873474
1788674683435480600,2.33948046875,10.309432983398438,0.8954314589500427,-0.6488286852836609
1788674683451349800,2.355349853515625,9.976638793945312,0.9888052940368652,-0.42616790533065796
1788674683467249400,2.37124951171875,9.555258750915527,1.048660397529602,-0.2849099934101105
1788674683483149000,2.387149169921875,9.399636268615723,1.01753568649292,-0.33758243918418884
1788674683499018200,2.403018310546875,9.646238327026367,0.9720458984375,-0.47884035110473633
1788674683514948400,2.4189482421875,10.000580787658691,0.9265560507774353,-0.3734954595565796
1788674683530817500,2.434817626953125,10.077195167541504,0.7206547260284424,-0.026336219161748886
1788674683546717200,2.45071728515625,9.907206535339355,1.0797849893569946,-0.2537853717803955
1788674683562616800,2.466616943359375,9.876082420349121,1.3120225667953491,-0.5793967843055725
1788674683578516500,2.4825166015625,9.864110946655273,1.1444283723831177,-0.3495534360408783
1788674683594385700,2.4983857421875,9.732429504394531,0.7637503147125244,-0.10055647045373917
1788674683610315800,2.514315673828125,10.031704902648926,0.8810662031173706,-0.17956513166427612
1788674683626306800,2.530306884765625,10.24239444732666,1.0869675874710083,-0.2106897532939911
1788674683642206700,2.546206787109375,10.237606048583984,1.0414776802062988,0.37828385829925537
1788674683674006000,2.578006103515625,8.846575736999512,-0.10295066982507706,2.0231003761291504
1788674683689875000,2.593875,8.391676902770996,0.2346317619085312,2.274491548538208
1788674683705774600,2.609774658203125,8.382100105285645,0.47405192255973816,1.6424223184585571
1788674683721705000,2.625705078125,8.87291145324707,1.41257905960083,-0.9744400978088379
1788674683737574100,2.64157421875,10.345345497131348,2.58813214302063,-2.4229321479797363
1788674683761408300,2.665408203125,9.832986831665039,2.956839084625244,-4.122815132141113
1788674683777277400,2.68127734375,9.502586364746094,2.920926094055176,-2.942473888397217
1788674683793207600,2.69720751953125,8.920795440673828,2.6623523235321045,-1.161187767982483
1788674683809076700,2.71307666015625,8.633491516113281,2.516305923461914,-0.42377370595932007
1788674683824976400,2.728976318359375,8.674192428588867,2.9712042808532715,-1.889025092124939
1788674683840876000,2.7448759765625,9.10993766784668,3.9624037742614746,-3.670311212539673
1788674683856745200,2.7607451171875,7.936778545379639,3.6320040225982666,-2.9496564865112305
1788674683872705800,2.776705810546875,7.560888767242432,2.676717519760132,-1.2880805730819702
1788674683888575000,2.792574951171875,8.925583839416504,2.169146776199341,-0.8355764150619507
1788674683904444200,2.808444091796875,11.104307174682617,1.6328455209732056,-1.1061211824417114
1788674683920343800,2.82434375,11.44907283782959,1.0295066833496094,-0.8140285611152649
1788674683936213000,2.840212890625,11.456254959106445,0.5099649429321289,-0.9074024558067322
1788674683952112600,2.856112548828125,11.947066307067871,0.5482721924781799,0.05746084079146385
1788674683967981800,2.87198193359375,10.448296546936035,0.11013327538967133,-0.5315127968788147
1788674683983851000,2.88785107421875,9.921571731567383,0.10295066982507706,0.07661445438861847
1788674683999720000,2.903719970703125,9.502586364746094,0.3447650372982025,0.3280056416988373
1788674684015558700,2.91955859375,9.44752025604248,0.727837324142456,0.05985504388809204
1788674684031397400,2.9353974609375,8.216899871826172,1.3623007535934448,-0.38307225704193115
1788674684047297000,2.951297119140625,9.160215377807617,1.3694833517074585,-0.8690952062606812
1788674684063166000,2.967166015625,9.186552047729492,1.2689268589019775,-0.12210428714752197
1788674684079004700,2.983004638671875,9.593565940856934,1.3527239561080933,-0.3711012601852417
1788674684094904300,2.998904296875,10.38844108581543,1.6687586307525635,-0.9457096457481384
1788674684110834400,3.01483447265625,10.405200958251953,1.7381904125213623,-0.9648633003234863
1788674684126703600,3.03070361328125,9.516951560974121,1.2665326595306396,-0.2801215946674347
1788674684142603300,3.046603271484375,9.100360870361328,0.9433154463768005,0.05746084079146385
1788674684158503000,3.0625029296875,9.258378028869629,0.9672574996948242,0.026336219161748886
1788674684174372000,3.0783720703125,9.600749015808105,1.1444283723831177,-0.3902548849582672
1788674684190241300,3.0942412109375,9.837775230407715,1.2449848651885986,-0.7661445140838623
1788674684206110500,3.1101103515625,9.59835433959961,1.2186486721038818,-0.7493851184844971
1788674684221979600,3.125979736328125,9.418789863586426,1.1492167711257935,-0.6009446382522583
1788674684237879300,3.14187939453125,9.660603523254395,1.1348515748977661,-0.6584054827690125
1788674684253748200,3.157748291015625,9.667786598205566,1.1252747774124146,-0.3687070608139038
1788674684277582600,3.18158251953125,9.849745750427246,1.0127472877502441,0.1412578970193863
1788674684293451800,3.19745166015625,9.93593692779541,1.1013327836990356,0.011971008032560349
1788674684309321000,3.213321044921875,10.005369186401367,1.0462661981582642,-0.09576806426048279
1788674684325220600,3.229220703125,10.113107681274414,1.1109095811843872,-0.19632454216480255
1788674684341059000,3.24505908203125,9.677363395690918,1.0558429956436157,-0.2298433631658554
1788674684356897800,3.260897705078125,9.84495735168457,1.0773907899856567,-0.031124621629714966
1788674684372736500,3.276736572265625,9.619902610778809,0.6799532771110535,0.3974374830722809
1788674684388636200,3.29263623046875,9.435548782348633,0.8858546018600464,0.21547815203666687
1788674684404505000,3.308505126953125,9.126696586608887,1.3407529592514038,-0.44532153010368347
1788674684420435500,3.324435546875,9.246406555175781,1.7956513166427612,-0.6344634294509888
1788674684436335000,3.340335205078125,9.435548782348633,2.140416383743286,-1.359906554222107
1788674684452234800,3.35623486328125,9.907206535339355,2.7676970958709717,-2.3702597618103027
1788674684468134400,3.372134521484375,9.684545516967773,3.1651346683502197,-3.071760892868042
1788674684484003600,3.388003662109375,8.856152534484863,2.6192567348480225,-1.9776105880737305
1788674684499903200,3.4039033203125,8.89685344696045,2.4181437492370605,-1.37906014919281
1788674684515741700,3.41974169921875,8.267178535461426,2.2673089504241943,-1.558625340461731
1788674684531641300,3.435641357421875,9.339780807495117,2.4444799423217773,-2.161964178085327
1788674684547510500,3.451510498046875,10.371682167053223,2.63362193107605,-2.188300371170044
1788674684563471400,3.467471435546875,11.63342571258545,2.786850690841675,-2.0877439975738525
1788674684579340300,3.48334033203125,11.899182319641113,2.2002713680267334,-1.0558429956436157
1788674684595209500,3.49920947265625,10.498574256896973,1.5490485429763794,-0.7374141216278076
1788674684611078700,3.51507861328125,7.795520782470703,1.8339585065841675,-1.381454348564148
1788674684626947800,3.53094775390625,6.9455790519714355,1.436521053314209,-0.009576806798577309
1788674684650721000,3.554720947265625,9.14585018157959,-0.2537853717803955,2.1308395862579346
1788674684666620700,3.57062060546875,11.60948371887207,0.019153613597154617,2.212242364883423
1788674684682459400,3.58645947265625,11.403582572937012,0.9744400978088379,-0.38307225704193115
1788674684698328300,3.602328369140625,11.008539199829102,1.659181833267212,-1.745373010635376
1788674684714228000,3.61822802734375,9.749189376831055,1.9177556037902832,-0.3256114423274994
1788674684730097200,3.63409716796875,9.332598686218262,1.8195933103561401,0.7709329724311829
1788674684745996800,3.649996826171875,8.80587387084961,1.7190368175506592,0.26575639843940735
1788674684761866000,3.665865966796875,8.650250434875488,1.944091796875,-0.16998831927776337
1788674684777735200,3.681735107421875,8.343792915344238,2.229001760482788,-0.6727706789970398
1788674684793634800,3.697634765625,9.952696800231934,3.19865345954895,-2.9927520751953125
1788674684809534500,3.713534423828125,10.27591323852539,4.1180267333984375,-3.7684733867645264
1788674684833338000,3.737338134765625,6.840234279632568,3.8762125968933105,-2.209848165512085
1788674684849207300,3.753207275390625,6.53377628326416,3.3638534545898438,-0.5339069962501526
1788674684865137400,3.769137451171875,8.097189903259277,1.8052281141281128,0.31124621629714966
1788674684881006600,3.785006591796875,9.859322547912598,0.6751648783683777,1.1444283723831177
1788674684896906200,3.80090625,11.805809020996094,0.6057330369949341,1.314416766166687
1788674684912806000,3.816805908203125,13.350069046020508,1.0055646896362305,0.5123591423034668
1788674684928644600,3.83264453125,11.808202743530273,1.5059528350830078,-0.9433154463768005
1788674684944544300,3.848544189453125,9.500192642211914,2.03507137298584,-1.4437036514282227
1788674684968348000,3.872347900390625,7.060500621795654,2.676717519760132,-1.0414776802062988
1788674684992182300,3.896182373046875,6.696582317352295,3.026270866394043,-1.2880805730819702
1788674685008051200,3.91205126953125,7.357381820678711,3.268085241317749,-1.766920804977417
1788674685023951000,3.927951171875,8.779537200927734,3.4787750244140625,-2.5761611461639404
1788674685039881200,3.943881103515625,8.856152534484863,3.361459255218506,-3.1028854846954346
1788674685055689200,3.959689208984375,8.901641845703125,3.6607344150543213,-2.691082715988159
1788674685071588900,3.9755888671875,12.231976509094238,3.641580820083618,-4.350264549255371
1788674685087488500,3.991488525390625,10.105925559997559,3.751713991165161,-3.315969467163086
1788674685103388200,4.00738818359375,9.287108421325684,4.369418144226074,-3.1220390796661377
1788674685119257300,4.02325732421875,9.277531623840332,3.0310592651367188,-1.6160861253738403
1788674685135126500,4.03912646484375,9.765948295593262,2.1595699787139893,-0.14844051003456116
1788674685166895400,4.070895263671875,10.673351287841797,0.17477671802043915,1.4413094520568848
1788674685182764500,4.0867646484375,10.132261276245117,-0.20111294090747833,1.4987702369689941
1788674685198633700,4.1026337890625,12.083536148071289,1.036689281463623,-0.2585737705230713
1788674685214502700,4.118502685546875,13.072340965270996,2.9975404739379883,-1.0749965906143188
1788674685238337000,4.1423369140625,8.307879447937012,3.5386300086975098,-2.3104045391082764
1788674685254236700,4.158236572265625,6.904877662658691,2.82515811920166,-0.608127236366272
1788674685270105900,4.17410595703125,6.428431510925293,2.5522189140319824,0.8762778043746948
1788674685285975000,4.18997509765625,7.86734676361084,1.6376339197158813,1.091755986213684
1788674685301874700,4.205874755859375,9.32541561126709,1.0606313943862915,1.8579005002975464
1788674685317774300,4.2217744140625,10.357316970825195,1.1300631761550903,1.5203180313110352
1788674685333612800,4.23761279296875,10.81460952758789,1.3431471586227417,0.5291185975074768
1788674685349512400,4.253512451171875,11.101913452148438,1.3910311460494995,0
1788674685365381600,4.269381591796875,10.493785858154297,2.1978771686553955,-1.0199298858642578
1788674685381342500,4.285342529296875,9.610325813293457,2.738966703414917,-1.4532804489135742
1788674685405085000,4.3090849609375,8.473079681396484,2.5737667083740234,-0.6871358752250671
1788674685421015300,4.325015380859375,7.560888767242432,2.279279947280884,-0.08858546614646912
1788674685436884200,4.34088427734375,7.424419403076172,1.7884687185287476,0.7805097699165344
1788674685452753400,4.35675341796875,8.123526573181152,1.2497732639312744,1.2234370708465576
1788674685468622600,4.37262255859375,9.758766174316406,1.3120225667953491,0.751779317855835
1788674685484461300,4.38846142578125,10.680533409118652,1.436521053314209,0.08858546614646912
1788674685500361000,4.40436083984375,10.579977035522461,1.7262194156646729,-0.12210428714752197
1788674685516230100,4.420230224609375,9.765948295593262,2.0805611610412598,-0.31364041566848755
1788674685540033800,4.44403369140625,8.456320762634277,2.097320795059204,0.019153613597154617
1788674685555964000,4.4599638671875,9.040505409240723,1.9776105880737305,0.21308395266532898
1788674685571863600,4.475863525390625,9.914389610290527,2.011129379272461,0.17956513166427612
1788674685587732700,4.491732666015625,9.617507934570312,2.3702597618103027,-0.9457096457481384
1788674685603632400,4.50763232421875,9.840168952941895,3.177105665206909,-1.6376339197158813
1788674685619471000,4.52347119140625,9.07641887664795,3.555389642715454,-1.7405846118927002
1788674685635309600,4.5393095703125,8.403648376464844,3.5625722408294678,-1.7908629179000854
1788674685651178800,4.5551787109375,6.528987884521484,3.19865345954895,-1.5825673341751099
1788674685667017500,4.571017578125,9.497797966003418,2.719813108444214,-0.26575639843940735
1788674685682886700,4.58688671875,10.390835762023926,2.3271639347076416,-1.4939818382263184
1788674685698755600,4.602755615234375,10.414777755737305,2.0374655723571777,-1.1779472827911377
1788674685714624800,4.618624755859375,10.338163375854492,1.900996208190918,-1.5179238319396973
1788674685738489600,4.642489501953125,10.493785858154297,2.3271639347076416,-1.3000515699386597
1788674685754358800,4.65835888671875,10.165780067443848,2.188300371170044,-0.13168109953403473
1788674685770197200,4.674197265625,9.813833236694336,1.8555063009262085,-0.5602431893348694
1788674685786066400,4.69006640625,8.949525833129883,1.3766659498214722,-0.871489405632019
1788674685801996500,4.70599658203125,10.271124839782715,1.4077905416488647,-0.6512228846549988
1788674685817957400,4.721957275390625,10.623072624206543,1.0797849893569946,-0.1149216815829277
1788674685833826600,4.73782666015625,9.825803756713867,1.2521674633026123,0.667982280254364
1788674685849695500,4.753695556640625,9.708487510681152,0.9026140570640564,0.272938996553421
1788674685865564700,4.769564697265625,9.5624418258667,1.0797849893569946,0.8667010068893433
1788674685881433900,4.785433837890625,9.275136947631836,1.2473790645599365,0.23942017555236816
1788674685897364000,4.801364013671875,9.806650161743164,1.278503656387329,-0.08379705995321274
1788674685913233200,4.817233154296875,10.405200958251953,0.9959878921508789,0.1412578970193863
1788674685929132800,4.8331328125,10.54406452178955,0.6799532771110535,0.6560112833976746
1788674685945063200,4.849063232421875,9.5408935546875,0.9002198576927185,0.6703764796257019
1788674685960962800,4.864962890625,9.050082206726074,0.9193734526634216,0.29209262132644653
1788674685976893000,4.880892822265625,9.148244857788086,0.4572925269603729,0.4165911078453064
1788674685992762000,4.89676220703125,9.428366661071777,0.035913024097681046,0.8523358106613159
1788674686008631000,4.912631103515625,9.129091262817383,0.44771572947502136,1.0773907899856567
1788674686024500200,4.928500244140625,9.045293807983398,0.3974374830722809,0.26815059781074524
1788674686040430600,4.9444306640625,9.39245319366455,0.3256114423274994,0.1843535304069519
1788674686056238600,4.960238525390625,9.452308654785156,0.38546648621559143,0.30885201692581177
1788674686072107800,4.976107666015625,9.495404243469238,0.5171475410461426,-0.14604631066322327
1788674686087977000,4.99197705078125,9.80904483795166,0.5985504388809204,-0.40701428055763245
1788674686103846000,5.007845947265625,10.012551307678223,0.8595184087753296,-0.4572925269603729
1788674686119715000,5.023715087890625,10.070012092590332,1.2952631711959839,-1.072602391242981
1788674686135523300,5.0395234375,9.813833236694336,1.558625340461731,-1.2401964664459229
1788674686151392500,5.055392578125,10.050858497619629,1.5418659448623657,-0.6751648783683777
1788674686167261400,5.071261474609375,10.244789123535156,1.259350061416626,-0.43095630407333374
1788674686183130600,5.087130615234375,10.24239444732666,1.1659762859344482,-0.6631938815116882
1788674686206934300,5.110934326171875,9.888052940368652,0.8954314589500427,-0.26575639843940735
1788674686222773000,5.12677294921875,9.773131370544434,0.6919242739677429,-0.13168109953403473
1788674686238672600,5.142672607421875,9.588777542114258,0.6823474764823914,-0.2777273952960968
1788674686254541800,5.158541748046875,9.801861763000488,0.8523358106613159,-0.6488286852836609
1788674686270411000,5.174410888671875,10.426748275756836,0.7445967197418213,-0.5267243981361389
1788674686286249500,5.19024951171875,10.54406452178955,0.6775590777397156,-0.33758243918418884
1788674686302118700,5.20611865234375,9.828198432922363,0.7876923680305481,-0.38307225704193115
1788674686318018300,5.222018310546875,9.141061782836914,0.768538773059845,-0.2537853717803955
1788674686333887500,5.237887451171875,8.851364135742188,0.6200982332229614,-0.3064578175544739
1788674686349756700,5.253756591796875,9.215282440185547,0.6368576288223267,-0.21308395266532898
1788674686365595400,5.269595458984375,9.390059471130371,0.6919242739677429,-0.14365209639072418
1788674686381433900,5.285433837890625,9.646238327026367,0.6943184733390808,-0.17717093229293823
1788674686397333500,5.30133349609375,9.672574996948242,0.6703764796257019,-0.15801730751991272
1788674686413263600,5.317263671875,9.667786598205566,0.5363011956214905,-0.11971008777618408
1788674686429132800,5.3331328125,9.607931137084961,0.5937620401382446,-0.19393034279346466
1788674686445063200,5.349063232421875,9.62947940826416,0.6416460275650024,-0.14844051003456116
1788674686460932000,5.36493212890625,9.624691009521484,0.6440402865409851,-0.13407529890537262
1788674686476801300,5.38080126953125,9.461885452270508,0.7852981686592102,0.0933738648891449
1788674686492731400,5.3967314453125,9.21288776397705,0.9696516990661621,-0.026336219161748886
1788674686508600600,5.4126005859375,9.165003776550293,1.0654197931289673,-0.05746084079146385
1788674686524531000,5.428531005859375,9.370905876159668,1.0965443849563599,0.24899697303771973
1788674686540399900,5.44439990234375,9.782708168029785,1.161187767982483,0.3711012601852417
1788674686556238600,5.460238525390625,10.06043529510498,1.1444283723831177,0.11013327538967133
1788674686572077300,5.476077392578125,10.074800491333008,1.1085153818130493,-0.1364694982767105
1788674686587977000,5.49197705078125,10.072406768798828,1.1013327836990356,-0.06464344263076782
1788674686603846000,5.507845947265625,9.93593692779541,1.2425906658172607,0.1173158809542656
1788674686619715000,5.523715087890625,9.758766174316406,1.3527239561080933,0.2082955539226532
1788674686635489500,5.539489501953125,9.727641105651855,1.4867992401123047,0.15801730751991272
1788674686651389200,5.55538916015625,9.86889934539795,1.5131354331970215,0.14604631066322327
1788674686667258000,5.571258056640625,9.892841339111328,1.4484920501708984,0.11013327538967133
1788674686683188500,5.5871884765625,9.883264541625977,1.4389152526855469,0.12449848651885986
1788674686699057700,5.6030576171875,9.720458984375,1.501164436340332,0.29209262132644653
1788674686714926600,5.618926513671875,9.351752281188965,1.6280571222305298,0.35913026332855225
1788674686730795800,5.634795654296875,9.028534889221191,1.6615760326385498,0.3064578175544739
1788674686746665000,5.6506650390625,8.453926086425781,1.659181833267212,0.4165911078453064
1788674686762503700,5.666503662109375,8.209717750549316,1.659181833267212,0.42616790533065796
1788674686778372600,5.68237255859375,8.365341186523438,1.6879122257232666,0.3423708379268646
1788674686794241800,5.69824169921875,8.798690795898438,1.625662922859192,0.17477671802043915
1788674686810172200,5.714172119140625,9.210494041442871,1.5514427423477173,0.05985504388809204
1788674686826041000,5.730041015625,9.47146224975586,1.5442601442337036,0.07422025501728058
1788674686841940700,5.745940673828125,9.442731857299805,1.6112977266311646,0.004788403399288654
1788674686857810000,5.761809814453125,9.373299598693848,1.7477672100067139,0.033518824726343155
1788674686873618200,5.7776181640625,9.586383819580078,1.766920804977417,-0.14844051003456116
1788674686889548300,5.79354833984375,10.235212326049805,1.7190368175506592,-0.11252748221158981
1788674686905448000,5.809447998046875,10.864887237548828,1.702277421951294,-0.08140286058187485
1788674686921347600,5.82534765625,11.063606262207031,1.8100165128707886,-0.17238251864910126
1788674686937216800,5.841216796875,10.797849655151367,1.9273324012756348,-0.15322890877723694
1788674686953116400,5.857116455078125,10.441113471984863,2.008735179901123,-0.07422025501728058
1788674686969046500,5.873046630859375,10.000580787658691,2.123656988143921,0.12449848651885986
1788674686984915700,5.888915771484375,9.667786598205566,2.0877439975738525,0.1628057211637497
1788674687000845800,5.904845703125,9.758766174316406,1.9919757843017578,0.16519992053508759
1788674687016715000,5.920715087890625,10.302249908447266,1.7956513166427612,0.28730419278144836
1788674687032553700,5.9365537109375,10.8505220413208,1.4867992401123047,0.35673606395721436
1788674687048361700,5.95236181640625,11.465831756591797,1.2761094570159912,0.2346317619085312
1788674687064231000,5.96823095703125,11.690886497497559,1.1683704853057861,0.2322375625371933
1788674687080161000,5.9841611328125,11.461043357849121,1.05105459690094,0.14604631066322327
1788674687096030200,6.0000302734375,11.202469825744629,1.0678139925003052,-0.07182604819536209
1788674687111899400,6.0158994140625,10.912771224975586,1.1827356815338135,-0.4908113479614258
1788674687127737900,6.03173779296875,10.867281913757324,1.2880805730819702,-0.49320554733276367
1788674687143637500,6.047637451171875,10.893617630004883,1.1899182796478271,-0.4213795065879822
1788674687159506700,6.063506591796875,10.979808807373047,0.8403648138046265,-0.28969839215278625
1788674687175345400,6.079345458984375,11.063606262207031,0.13407529890537262,-0.1173158809542656
1788674687191214600,6.095214599609375,11.42752456665039,-0.6392518281936646,0.2322375625371933
1788674687207083800,6.111083740234375,11.63103199005127,-0.8906430602073669,0.0454898327589035
1788674687222952700,6.12695263671875,11.379640579223633,-0.8690952062606812,-0.2585737705230713
1788674687238791400,6.14279150390625,10.76193618774414,-0.768538773059845,-0.5650315880775452
1788674687254660600,6.15866064453125,10.02691650390625,-0.40940847992897034,-0.9528923034667969
1788674687270529800,6.17452978515625,8.983044624328613,-0.05985504388809204,-1.4197616577148438
1788674687286429400,6.190429443359375,8.08282470703125,0.4596867263317108,-1.6927006244659424
1788674687302359600,6.206359619140625,7.6782050132751465,0.7876923680305481,-1.6663644313812256
1788674687318228700,6.222228759765625,7.515398979187012,0.8523358106613159,-1.2713210582733154
1788674687334128400,6.23812841796875,7.4100542068481445,0.6967126727104187,-0.8523358106613159
1788674687349966800,6.253966796875,7.347805023193359,0.8331822156906128,-0.6392518281936646
1788674687365897200,6.269897216796875,7.630321025848389,0.8044517636299133,-1.1875240802764893
1788674687381796900,6.285796875,8.10437297821045,1.0007762908935547,0.040701430290937424
1788674687397635300,6.30163525390625,8.59997272491455,1.0031704902648926,0.43335050344467163
1788674687413504500,6.31750439453125,8.674192428588867,0.7829039692878723,0.10534487664699554
1788674687429373700,6.333373779296875,8.564059257507324,0.5386953949928284,0.4405331015586853
1788674687445243000,6.349242919921875,8.89445972442627,0.6033388376235962,-0.10534487664699554
1788674687461142500,6.365142578125,9.497797966003418,0.8643068075180054,0.44771572947502136
1788674687477011700,6.38101171875,9.591172218322754,1.0989385843276978,0.8547300100326538
1788674687492911400,6.396911376953125,8.868123054504395,1.525106430053711,0.6943184733390808
1788674687508780500,6.412780517578125,8.406042098999023,2.006340980529785,0.17477671802043915
1788674687524680200,6.42868017578125,8.367734909057617,2.248155355453491,-0.08619125932455063
1788674687540579800,6.444579833984375,8.669404029846191,2.3511061668395996,-0.4429273009300232
1788674687556448800,6.46044873046875,9.069235801696777,2.255337953567505,-0.27054479718208313
1788674687572348700,6.4763486328125,9.744400978088379,2.008735179901123,0.009576806798577309
1788674687588217600,6.492217529296875,10.110713958740234,1.745373010635376,0.4405331015586853
1788674687604117200,6.5081171875,10.27591323852539,1.7381904125213623,0.4141969084739685
1788674687619956000,6.5239560546875,10.65898609161377,1.8626888990402222,-0.0933738648891449
1788674687635916500,6.53991650390625,10.92953109741211,1.8794482946395874,-0.33997663855552673
1788674687651785700,6.55578564453125,10.74996566772461,1.9177556037902832,0.2059013396501541
1788674687667655000,6.571655029296875,10.271124839782715,1.6376339197158813,0.6129156351089478
1788674687683585000,6.5875849609375,10.505757331848145,1.1492167711257935,0.9457096457481384
1788674687699484700,6.603484619140625,11.317391395568848,0.507570743560791,1.501164436340332
1788674687715323400,6.619323486328125,11.990161895751953,0.3519476354122162,1.9393033981323242
1788674687731192600,6.635192626953125,12.919112205505371,0.004788403399288654,1.9249382019042969
1788674687747061800,6.651061767578125,12.210428237915039,0.016759412363171577,0.45489832758903503
1788674687762961400,6.66696142578125,11.805809020996094,0.912190854549408,0.667982280254364
1788674687778799900,6.6827998046875,10.81700325012207,0.9792284965515137,0.545877993106842
1788674687794730200,6.698730224609375,10.35252857208252,0.4572925269603729,-0.3280056416988373
1788674687810599200,6.71459912109375,10.141838073730469,-0.1173158809542656,-0.4812345504760742
1788674687826438000,6.73043798828125,9.974244117736816,-0.7230489253997803,0.05027823522686958
1788674687842276600,6.746276611328125,9.497797966003418,-1.2473790645599365,1.2545616626739502
1788674687858115000,6.762114990234375,8.650250434875488,-0.9816226959228516,1.9823989868164062
1788674687873953800,6.777953857421875,7.82185697555542,-0.27054479718208313,1.6089035272598267
1788674687889823000,6.793822998046875,7.819462776184082,0.38307225704193115,0.5003881454467773
1788674687905722600,6.80972265625,8.542511940002441,0.8786720037460327,-0.35673606395721436
1788674687921561000,6.82556103515625,9.497797966003418,1.05105459690094,-0.8858546018600464
1788674687937460700,6.841460693359375,9.787496566772461,1.0965443849563599,-1.1420341730117798
1788674687953330000,6.857329833984375,9.660603523254395,1.048660397529602,-1.0654197931289673
1788674687969168600,6.873168701171875,9.421183586120605,0.8882488012313843,-0.6368576288223267
1788674687985068300,6.889068359375,9.263166427612305,0.5291185975074768,-0.08858546614646912
1788674688000998400,6.904998291015625,8.944737434387207,0.2585737705230713,0.7015010714530945
1788674688016867600,6.92086767578125,8.367734909057617,0.33279404044151306,1.192312479019165
1788674688032797700,6.936797607421875,7.8529815673828125,0.5554547905921936,1.0630255937576294
1788674688048636400,6.952636474609375,8.147468566894531,1.0319008827209473,0.7158663272857666
1788674688064505600,6.968505615234375,8.858546257019043,1.3503297567367554,0.23942017555236816
1788674688080405200,6.9844052734375,9.222464561462402,1.4939818382263184,0.20111294090747833
1788674688096274400,7.0002744140625,9.0859956741333,1.6328455209732056,0.3663128614425659
1788674688112143400,7.016143310546875,8.561665534973145,1.50355863571167,0.3447650372982025
1788674688128043000,7.03204296875,8.394071578979492,1.4724340438842773,0.45489832758903503
1788674688143912200,7.047912109375,8.456320762634277,1.4987702369689941,0.7374141216278076
1788674688159842600,7.063842529296875,9.332598686218262,1.7956513166427612,-0.13407529890537262
1788674688175742200,7.0797421875,9.244012832641602,1.1180921792984009,0.3519476354122162
1788674688191641900,7.095641845703125,9.706093788146973,1.2473790645599365,1.1109095811843872
1788674688207541500,7.11154150390625,10.070012092590332,1.2545616626739502,0.7350199222564697
1788674688223410700,7.12741064453125,10.29746150970459,0.9265560507774353,0.3447650372982025
1788674688239340800,7.1433408203125,11.101913452148438,0.8667010068893433,0.569819986820221
1788674688255210000,7.1592099609375,11.903970718383789,0.7829039692878723,0.7445967197418213
1788674688271109600,7.175109619140625,12.18409252166748,0.6488286852836609,0.38067805767059326
1788674688287009300,7.19100927734375,11.961431503295898,0.4405331015586853,0.12449848651885986
1788674688302878500,7.20687841796875,11.561599731445312,0.2585737705230713,0.29209262132644653
1788674688318808600,7.22280859375,10.939107894897461,0.363918662071228,0.7015010714530945
1788674688334708200,7.238708251953125,10.302249908447266,0.5147533416748047,0.8092401623725891
1788674688350608000,7.25460791015625,10.005369186401367,0.49799394607543945,0.36152446269989014
1788674688366507500,7.270507568359375,10.237606048583984,0.29209262132644653,0.014365210197865963
1788674688382407200,7.2864072265625,11.05402946472168,0.16519992053508759,0.040701430290937424
1788674688398306800,7.302306884765625,11.554417610168457,0.019153613597154617,-0.40940847992897034
1788674688414206500,7.31820654296875,11.171344757080078,0.047884032130241394,-1.094150185585022
1788674688430075600,7.33407568359375,10.204087257385254,0.181959331035614,-1.3838485479354858
1788674688445944800,7.34994482421875,9.17697525024414,0.31603461503982544,-1.0654197931289673
1788674688461813800,7.365813720703125,8.451532363891602,0.08379705995321274,-0.2513911724090576
1788674688477744000,7.381744140625,7.845798969268799,-0.014365210197865963,0.6224924325942993
1788674688493613300,7.39761328125,7.680599212646484,0.17717093229293823,0.6703764796257019
1788674688509482200,7.413482177734375,7.682993412017822,0.507570743560791,0.09576806426048279
1788674688525351400,7.429351318359375,7.735665798187256,0.9289502501487732,-0.6847416758537292
1788674688541251000,7.4452509765625,7.807491779327393,1.4173674583435059,-1.048660397529602
1788674688557120300,7.461120361328125,8.216899871826172,1.6208745241165161,-0.8978256583213806
1788674688573050400,7.47705029296875,8.520963668823242,1.5873557329177856,-0.667982280254364
1788674688588950000,7.492949951171875,8.655038833618164,1.50355863571167,-0.3663128614425659
1788674688604819200,7.508819091796875,8.652645111083984,1.623268723487854,-0.2298433631658554
1788674688620718800,7.52471875,8.523358345031738,1.6328455209732056,-0.004788403399288654
1788674688636618500,7.540618408203125,8.092401504516602,1.9273324012756348,0.14604631066322327
1788674688652518100,7.55651806640625,8.101978302001953,2.212242364883423,-0.033518824726343155
1788674688668387300,7.57238720703125,8.662221908569336,2.250549554824829,-0.1604115068912506
1788674688684287000,7.588286865234375,9.402029991149902,1.9800047874450684,0.10534487664699554
1788674688700156200,7.60415625,10.17296314239502,1.7597382068634033,0.23702596127986908
1788674688716025300,7.620025390625,10.946290016174316,1.6208745241165161,0.0071826050989329815
1788674688731925000,7.635925048828125,11.226411819458008,1.414973258972168,-0.17477671802043915
1788674688747855000,7.651855224609375,11.283872604370117,1.3263877630233765,-0.15562310814857483
1788674688763754800,7.667754638671875,11.458649635314941,1.170764684677124,0.07422025501728058
1788674688779624000,7.6836240234375,11.72201156616211,1.0079588890075684,0.5434837937355042
1788674688795523600,7.699523681640625,11.714828491210938,0.8834604024887085,0.9289502501487732
1788674688811392800,7.715392822265625,12.071564674377441,0.5315127968788147,1.3742717504501343
1788674688827262000,7.731261962890625,12.205639839172363,0.26815059781074524,1.8962076902389526
1788674688843161600,7.74716162109375,11.827356338500977,0.37828385829925537,2.2673089504241943
1788674688859030800,7.76303076171875,10.836156845092773,0.8882488012313843,1.678335428237915
1788674688874961000,7.7789609375,9.533711433410645,1.4197616577148438,0.5123591423034668
1788674688890830000,7.794830078125,9.002198219299316,1.7142484188079834,-0.090979665517807
1788674688906729700,7.810729736328125,9.497797966003418,1.3527239561080933,-0.019153613597154617
1788674688922568200,7.826568115234375,10.532093048095703,0.6344634294509888,0.33279404044151306
1788674688938467800,7.8424677734375,11.173739433288574,0.043095629662275314,0.7565677165985107
1788674688954337000,7.8583369140625,11.049241065979004,-0.12449848651885986,0.7565677165985107
1788674688970206200,7.874206298828125,9.782708168029785,0.07422025501728058,0.4668693244457245
1788674688986075400,7.890075439453125,8.537723541259766,0.3711012601852417,0.4620809257030487
1788674689001975000,7.90597509765625,7.982268333435059,0.6129156351089478,0.5961562395095825
1788674689017905200,7.9219052734375,7.905653953552246,0.6751648783683777,0.5291185975074768
1788674689033804800,7.9378046875,8.073247909545898,0.6847416758537292,0.31124621629714966
1788674689049674000,7.953674072265625,8.135497093200684,0.727837324142456,0.15322890877723694
1788674689065604000,7.96960400390625,7.903259754180908,0.6727706789970398,0.10534487664699554
1788674689081473300,7.985473388671875,8.022970199584961,0.5003881454467773,0.44771572947502136
1788674689097342500,8.001342529296876,8.20492935180664,0.3423708379268646,0.6536170840263367
1788674689113211600,8.017211669921876,8.200140953063965,0.395043283700943,0.7206547260284424
1788674689129050000,8.033050048828125,8.015787124633789,0.6967126727104187,0.6799532771110535
1788674689144919300,8.048919189453125,7.812280178070068,0.8906430602073669,0.5339069962501526
1788674689160788500,8.06478857421875,7.63989782333374,0.9720458984375,0.6200982332229614
1788674689176657700,8.08065771484375,7.7763671875,1.0271124839782715,0.9744400978088379
1788674689192496400,8.096496337890626,8.034940719604492,1.1851298809051514,1.0869675874710083
1788674689208365300,8.112365234375,8.08043098449707,1.5969325304031372,0.7876923680305481
1788674689224265000,8.128264892578125,7.965508937835693,1.9249382019042969,0.31124621629714966
1788674689240164600,8.14416455078125,8.372523307800293,2.0877439975738525,-0.15562310814857483
1788674689256064300,8.160064208984375,9.339780807495117,2.0231003761291504,-0.07422025501728058
1788674689271964000,8.1759638671875,10.228029251098633,1.702277421951294,0.3926490843296051
1788674689287863800,8.19186376953125,10.69489860534668,1.436521053314209,0.5386953949928284
1788674689303732700,8.207732666015625,10.939107894897461,1.2234370708465576,0.4884171485900879
1788674689319632400,8.22363232421875,11.465831756591797,1.0462661981582642,0.8882488012313843
1788674689335532000,8.239531982421875,12.282255172729492,0.689530074596405,1.3072341680526733
1788674689351431700,8.255431640625,13.168108940124512,0.3878606855869293,1.6136919260025024
1788674689367331600,8.27133154296875,12.878411293029785,0.545877993106842,1.2689268589019775
1788674689383200500,8.287200439453125,11.808202743530273,0.9552865028381348,0.2825157940387726
1788674689399100200,8.30310009765625,10.881647109985352,1.070208191871643,-0.5554547905921936
1788674689414969300,8.31896923828125,11.571176528930664,0.5051765441894531,-0.6248866319656372
1788674689430869000,8.334868896484375,13.606247901916504,-0.5937620401382446,-0.15801730751991272
1788674689446738200,8.35073828125,15.267824172973633,-1.6328455209732056,0.4405331015586853
1788674689462607400,8.366607421875,15.593435287475586,-1.9919757843017578,1.0271124839782715
1788674689478476500,8.3824765625,13.555970191955566,-1.7357962131500244,0.3687070608139038
1788674689494345700,8.398345703125,10.51054573059082,-1.194706678390503,-0.35913026332855225
1788674689510245400,8.414245361328126,7.836222171783447,-0.5626373887062073,-0.6631938815116882
1788674689526145000,8.43014501953125,5.954379558563232,0.07422025501728058,-0.4357447028160095
1788674689542014000,8.446013916015625,5.147533416748047,0.7206547260284424,-0.040701430290937424
1788674689557913900,8.461913818359376,5.616796970367432,0.8667010068893433,-0.019153613597154617
1788674689573782800,8.47778271484375,6.8593878746032715,0.5147533416748047,-0.31603461503982544
1788674689589682400,8.493682373046875,8.252813339233398,0.29209262132644653,-0.5386953949928284
1788674689605551600,8.509551513671875,9.284713745117188,0.30885201692581177,-0.6344634294509888
1788674689621481700,8.525481689453125,9.610325813293457,0.35434186458587646,-1.2090718746185303
1788674689637351000,8.541350830078125,9.368511199951172,0.5770025849342346,-1.6519991159439087
1788674689653220000,8.55722021484375,8.724471092224121,0.7661445140838623,-1.5466543436050415
1788674689669058800,8.573058837890626,8.377311706542969,0.849941611289978,-0.9552865028381348
1788674689684958500,8.58895849609375,8.147468566894531,0.7445967197418213,-0.10055647045373917
1788674689700827600,8.60482763671875,8.243236541748047,0.6991068720817566,0.5793967843055725
1788674689716696600,8.620696533203125,8.339004516601562,0.8379706144332886,0.667982280254364
1788674689732565800,8.636565673828125,8.245630264282227,1.2306196689605713,0.24420857429504395
1788674689748435000,8.65243505859375,8.303091049194336,1.7717092037200928,-0.19871874153614044
1788674689764304100,8.66830419921875,8.908824920654297,2.1523873805999756,-0.4836287498474121
1788674689780142800,8.684142822265626,9.560047149658203,2.140416383743286,-0.5841852426528931
1788674689796011800,8.70001171875,10.20887565612793,1.98958158493042,-0.24420857429504395
1788674689811911400,8.715911376953125,10.505757331848145,1.745373010635376,-0.10773907601833344
1788674689827811000,8.73181103515625,10.769119262695312,1.3239935636520386,-0.17238251864910126
1788674689843680300,8.74768017578125,12.064382553100586,0.9911994934082031,-0.14365209639072418
1788674689859580000,8.763579833984375,13.555970191955566,0.6009446382522583,0.05267243832349777
1788674689875418600,8.779418701171876,14.736311912536621,0.28969839215278625,0.5219359993934631
1788674689891287800,8.795287841796876,14.985308647155762,0.2513911724090576,1.4532804489135742
1788674689907157000,8.811156982421876,13.656526565551758,0.35673606395721436,2.056619167327881
1788674689923026000,8.82702587890625,10.886435508728027,0.6153098344802856,1.7812861204147339
1788674689938925800,8.84292578125,8.281543731689453,1.1228805780410767,1.5131354331970215
1788674689954764300,8.858764404296876,7.1251444816589355,1.3527239561080933,1.6112977266311646
1788674689970633500,8.874633544921876,7.769184589385986,0.8762778043746948,1.9632453918457031
1788674689986533000,8.890533203125,9.59835433959961,-0.23942017555236816,1.558625340461731
1788674690002432800,8.906432861328126,11.537657737731934,-1.039083480834961,1.2761094570159912
1788674690018363000,8.92236279296875,12.483367919921875,-1.280897855758667,1.1779472827911377
1788674690034201600,8.93820166015625,11.906365394592285,-1.0989385843276978,0.7996633648872375
1788674690050101200,8.954101318359376,10.278307914733887,-0.569819986820221,0.4572925269603729
1788674690066001000,8.9700009765625,8.585607528686523,0.1364694982767105,0.30885201692581177
1788674690081900500,8.985900634765626,7.33583402633667,0.8044517636299133,0.031124621629714966
1788674690097769700,9.001769775390626,6.766014099121094,1.3287819623947144,-0.2753331959247589
1788674690113669400,9.01766943359375,6.440402507781982,1.5705963373184204,-0.8451532125473022
1788674690129569000,9.033569091796876,6.57926607131958,1.5682021379470825,-1.3479355573654175
1788674690145468700,9.04946875,7.228095054626465,1.4293384552001953,-1.2282254695892334
1788674690161307400,9.065307373046876,7.888894557952881,1.1563993692398071,-0.8738836050033569
1788674690177207000,9.08120703125,8.034940719604492,0.8259995579719543,-0.45489832758903503
1788674690193106700,9.097106689453126,7.9176249504089355,0.6703764796257019,-0.026336219161748886
1788674690208945200,9.112945068359375,8.063671112060547,0.4692635238170624,0.4429273009300232
1788674690224784000,9.128783935546876,8.17141056060791,0.3687070608139038,0.790086567401886
1788674690240653000,9.144653076171876,8.415618896484375,0.5003881454467773,1.0606313943862915
1788674690256522200,9.160522216796876,8.604761123657227,0.7781155705451965,0.9241618514060974
1788674690272422000,9.176421875,9.004592895507812,1.1037269830703735,0.5722141861915588
1788674690288290800,9.192290771484375,9.344569206237793,1.3192051649093628,-0.12928688526153564
1788674690304160000,9.208159912109375,9.832986831665039,1.3910311460494995,-0.44771572947502136
1788674690320059600,9.2240595703125,10.472238540649414,1.290474772453308,-0.33758243918418884
1788674690335928800,9.2399287109375,10.934319496154785,0.9864110946655273,0.023942016065120697
1788674690351828500,9.255828369140625,11.154585838317871,0.5219359993934631,0.4141969084739685
1788674690367697700,9.27169775390625,11.33654499053955,0.19393034279346466,1.015141487121582
1788674690383566800,9.28756689453125,11.192893028259277,0.08858546614646912,1.3311761617660522
1788674690399466500,9.303466552734376,11.068394660949707,0.2082955539226532,1.1803414821624756
1788674690415335700,9.319335693359376,11.530475616455078,0.3064578175544739,0.7445967197418213
1788674690431174100,9.335174072265625,12.51209831237793,0.08858546614646912,0.7422025203704834
1788674690447043300,9.351043212890625,12.749124526977539,-0.05027823522686958,0.8954314589500427
1788674690470816500,9.37481640625,12.066776275634766,0.028730420395731926,1.0127472877502441
1788674690486716200,9.390716064453125,11.547234535217285,0.15322890877723694,0.7996633648872375
1788674690502615800,9.40661572265625,11.291055679321289,0.26096799969673157,0.17477671802043915
1788674690518424000,9.422424072265626,11.276689529418945,0.304063618183136,-0.5817909836769104
1788674690534293200,9.438293212890626,10.896012306213379,0.31124621629714966,-0.8619126081466675
1788674690550193000,9.45419287109375,9.952696800231934,0.181959331035614,-0.8020575642585754
1788674690566061800,9.470061767578125,8.96149730682373,0.1628057211637497,-0.9361328482627869
1788674690581961500,9.48596142578125,8.446743965148926,0.043095629662275314,-1.0199298858642578
1788674690597830700,9.50183056640625,8.128314971923828,-0.1173158809542656,-0.545877993106842
1788674690613730300,9.517730224609375,8.070854187011719,-0.0933738648891449,0.2298433631658554
1788674690629599500,9.533599609375,7.927201747894287,0.05985504388809204,0.08379705995321274
1788674690645499100,9.5494990234375,8.161833763122559,0.2106897532939911,-0.1412578970193863
1788674690661398800,9.565398681640625,8.7484130859375,0.17238251864910126,-0.043095629662275314
1788674690677268000,9.58126806640625,9.165003776550293,0.2513911724090576,-0.13168109953403473
1788674690693167600,9.597167724609376,10.357316970825195,0.6368576288223267,0.933738648891449
1788674690709036800,9.613036865234376,9.531316757202148,0.6057330369949341,-0.05267243832349777
1788674690724906000,9.628906005859376,9.069235801696777,0.9193734526634216,-0.4429273009300232
1788674690740805600,9.6448056640625,8.798690795898438,1.656787633895874,-0.608127236366272
1788674690756705300,9.660705322265626,8.032546997070312,2.0231003761291504,-0.7110779285430908
1788674690772574500,9.676574462890626,7.783549785614014,2.2242133617401123,-0.0071826050989329815
1788674690788443600,9.692443603515626,8.125920295715332,2.2409727573394775,0.5291185975074768
1788674690804343300,9.70834326171875,8.695740699768066,1.965639591217041,0.47405192255973816
1788674690820243000,9.724242919921876,9.497797966003418,1.525106430053711,0.6751648783683777
1788674690836081400,9.740081298828125,9.667786598205566,1.2066776752471924,0.5363011956214905
1788674690851950600,9.75595068359375,9.744400978088379,0.9911994934082031,0.3687070608139038
1788674690867850200,9.771850341796876,10.615890502929688,0.5961562395095825,0.09816227108240128
1788674690883719400,9.787719482421876,11.30063247680664,0.35434186458587646,-0.2106897532939911
1788674690899588600,9.803588623046876,12.265495300292969,0.002394201699644327,-0.2346317619085312
1788674690915457800,9.819457763671876,12.957419395446777,-0.181959331035614,0.3902548849582672
1788674690931418400,9.83541845703125,12.919112205505371,-0.2537853717803955,0.8595184087753296
1788674690947348500,9.851348388671875,12.018892288208008,0.06703764945268631,0.8619126081466675
1788674690963248000,9.867248046875,10.273519515991211,0.5626373887062073,0.6584054827690125
1788674690979178500,9.883178466796876,8.628703117370605,1.1037269830703735,0.31124621629714966
1788674690995017000,9.899016845703125,7.781155586242676,1.4508862495422363,-0.4668693244457245
1788674691010855700,9.914855712890626,8.528146743774414,1.091755986213684,-1.3431471586227417
1788674691026724900,9.930724853515626,11.061211585998535,0.12210428714752197,-1.1659762859344482
1788674691042624500,9.94662451171875,13.601459503173828,-1.0893617868423462,-0.6775590777397156
1788674691058524200,9.962524169921876,14.269442558288574,-1.7525556087493896,-0.19632454216480255
1788674691074423800,9.978423828125,12.70602798461914,-1.601720929145813,-0.26815059781074524
1788674691090262300,9.99426220703125,9.955090522766113,-0.7086837291717529,-0.8475474119186401
1788674691114066200,10.018066162109376,6.979097843170166,0.16759411990642548,-1.01753568649292
1788674691129935000,10.03393505859375,6.507440090179443,0.2561795711517334,-0.15562310814857483
1788674691145835000,10.0498349609375,6.519411087036133,0.42856210470199585,0.6368576288223267
1788674691161734700,10.065734619140626,6.746860504150391,0.49559974670410156,-0.37828385829925537
1788674691177634300,10.08163427734375,7.2137298583984375,0.9888052940368652,-2.0398597717285156
1788674691193503200,10.097503173828125,8.255207061767578,0.629675030708313,-2.3511061668395996
1788674691209372400,10.113372314453125,9.327810287475586,0.13407529890537262,-0.9002198576927185
1788674691225241600,10.12924169921875,9.68933391571045,0.011971008032560349,0.33997663855552673
1788674691241141200,10.145141357421876,8.875306129455566,0.12449848651885986,0.26096799969673157
1788674691257071400,10.1610712890625,8.219294548034668,0.4644751250743866,0.090979665517807
1788674691272940500,10.1769404296875,8.111555099487305,0.751779317855835,0.20111294090747833
1788674691288870700,10.19287060546875,8.406042098999023,0.7948749661445618,0.6631938815116882
1788674691304739800,10.20873974609375,8.540117263793945,0.8068459630012512,0.7637503147125244
1788674691320639500,10.224639404296875,8.820239067077637,0.9624691009521484,0.6967126727104187
1788674691336478200,10.240478271484376,9.119514465332031,1.0438719987869263,0.7086837291717529
1788674691352377900,10.2563779296875,9.861717224121094,1.0342950820922852,0.524330198764801
1788674691368308000,10.272307861328125,10.881647109985352,0.8355764150619507,0.3495534360408783
1788674691384207600,10.28820751953125,11.365275382995605,0.7182605266571045,0.6631938815116882
1788674691400107300,10.304107177734375,11.168951034545898,0.5722141861915588,0.8331822156906128
1788674691416007000,10.3200068359375,10.886435508728027,0.6631938815116882,0.6607996821403503
1788674691431876000,10.3358759765625,11.348516464233398,0.7398083209991455,0.7493851184844971
1788674691447745300,10.351745361328126,12.021286964416504,0.5123591423034668,1.1899182796478271
1788674691463614500,10.367614501953126,13.074735641479492,0.2346317619085312,1.414973258972168
1788674691479483600,10.383483642578126,13.237541198730469,0.26336219906806946,0.7350199222564697
1788674691495383300,10.39938330078125,12.598289489746094,0.7541735172271729,0.35434186458587646
1788674691511252500,10.41525244140625,11.736376762390137,1.278503656387329,0.2082955539226532
1788674691527152000,10.431152099609376,10.558429718017578,1.213860273361206,-0.2825157940387726
1788674691543051800,10.4470517578125,9.528923034667969,0.8858546018600464,-0.9217676520347595
1788674691558920700,10.462920654296875,9.835380554199219,0.4668693244457245,-1.2880805730819702
1788674691574759400,10.478759521484376,10.647014617919922,-0.19393034279346466,-1.1899182796478271
1788674691590628600,10.494628662109376,10.78587818145752,-0.35913026332855225,-0.6105214357376099
1788674691606497800,10.510497802734376,10.091560363769531,-0.9840168952941895,-1.0031704902648926
1788674691622367000,10.526366943359376,8.916007041931152,-0.6512228846549988,-0.5746083855628967
1788674691638236000,10.54223583984375,8.738836288452148,-0.35913026332855225,0.1412578970193863
1788674691654074600,10.55807470703125,9.516951560974121,0.24420857429504395,-0.2298433631658554
1788674691669974300,10.573974365234376,9.241618156433105,0.5746083855628967,-0.4836287498474121
1788674691685843500,10.589843505859376,8.516175270080566,1.0630255937576294,-0.912190854549408
1788674691701712600,10.605712646484376,8.159439086914062,1.2306196689605713,-0.9816226959228516
1788674691717581800,10.621581787109376,8.152256965637207,1.1061211824417114,-0.811634361743927
1788674691733542400,10.63754248046875,7.819462776184082,0.8427590131759644,0.07661445438861847
1788674691749442000,10.653442138671876,7.568071365356445,0.790086567401886,0.2298433631658554
1788674691765341700,10.669341796875,7.735665798187256,1.0773907899856567,-0.6631938815116882
1788674691781211000,10.6852109375,8.461109161376953,1.3623007535934448,-0.2082955539226532
1788674691797110500,10.701110595703126,9.35893440246582,1.1827356815338135,0.3758896589279175
1788674691813010200,10.71701025390625,9.873687744140625,0.9457096457481384,0.569819986820221
1788674691828909800,10.732909912109376,9.713275909423828,1.2473790645599365,0.6009446382522583
1788674691844748500,10.74874853515625,8.767566680908203,1.2521674633026123,0.19153612852096558
1788674691860648200,10.764648193359376,7.989450931549072,1.2018892765045166,0.3495534360408783
1788674691876517400,10.780517333984376,7.738059997558594,1.3527239561080933,0.8068459630012512
1788674691892386300,10.79638623046875,7.982268333435059,1.522712230682373,0.586579442024231
1788674691908286000,10.812285888671875,9.11233139038086,1.5442601442337036,0.12689268589019775
1788674691924155100,10.828155029296875,9.971850395202637,1.3431471586227417,0.019153613597154617
1788674691940054800,10.8440546875,10.623072624206543,1.1109095811843872,0.24181437492370605
1788674691955924000,10.859924072265626,11.765107154846191,0.7350199222564697,0.33039984107017517
1788674691971823600,10.87582373046875,13.69962215423584,0.5267243981361389,0.7948749661445618
1788674691987723300,10.89172314453125,14.192827224731445,0.6967126727104187,1.436521053314209
1788674692003653400,10.9076533203125,12.435483932495117,0.7924807667732239,1.3886369466781616
1788674692019522600,10.9235224609375,10.254365921020508,0.9696516990661621,1.237802267074585
1788674692035422200,10.939422119140625,8.662221908569336,0.6703764796257019,1.3958195447921753
1788674692051261000,10.955260986328126,8.552088737487793,-0.40462008118629456,0.6344634294509888
1788674692067160600,10.97116064453125,11.085153579711914,-1.5155296325683594,0.7230489253997803
1788674692083029800,10.98702978515625,13.560758590698242,-1.9297266006469727,1.2114660739898682
1788674692098929400,11.002929443359376,13.876792907714844,-1.7717092037200928,0.8068459630012512
1788674692114829000,11.0188291015625,11.736376762390137,-1.50355863571167,0.6320692300796509
1788674692130728700,11.034728759765626,8.791508674621582,-1.1324573755264282,0.7374141216278076
1788674692146598000,11.050597900390626,7.122750282287598,-0.08140286058187485,1.1540051698684692
1788674692162467000,11.066467041015626,6.349422931671143,0.15801730751991272,0.26096799969673157
1788674692178366700,11.08236669921875,6.821080684661865,-0.11971008777618408,0.8140285611152649
1788674692194266400,11.098266357421876,7.182605266571045,-0.15801730751991272,0.7230489253997803
1788674692210135300,11.11413525390625,8.406042098999023,-0.028730420395731926,-0.2106897532939911
1788674692226035200,11.13003515625,9.988609313964844,0.5195417404174805,-1.1827356815338135
1788674692241904000,11.145904052734375,11.312602996826172,0.7972691655158997,-1.7094600200653076
1788674692257742800,11.161742919921876,10.852916717529297,0.7254431247711182,-1.094150185585022
1788674692273642500,11.177642578125,9.253589630126953,0.9792284965515137,-1.1109095811843872
1788674692289542100,11.193542236328126,7.29034423828125,0.8930372595787048,-0.5674257874488831
1788674692305441800,11.20944189453125,6.138733386993408,1.0079588890075684,0.08379705995321274
1788674692321311000,11.22531103515625,5.875370979309082,1.41257905960083,0.4692635238170624
1788674692337210600,11.241210693359376,6.3518171310424805,1.8602946996688843,0.3663128614425659
1788674692353110300,11.2571103515625,7.568071365356445,2.0614075660705566,-0.021547814831137657
1788674692368949000,11.272948974609376,8.865729331970215,1.9608511924743652,-0.12449848651885986
1788674692384818000,11.28881787109375,9.806650161743164,1.6687586307525635,0.040701430290937424
1788674692400717600,11.304717529296875,10.57040023803711,1.3287819623947144,0.2059013396501541
1788674692416586800,11.320586669921875,10.805032730102539,1.216254472732544,0.31364041566848755
1788674692432456000,11.3364560546875,11.137825965881348,1.161187767982483,0.2849099934101105
1788674692448325000,11.3523251953125,11.6430025100708,1.139639973640442,0.14844051003456116
1788674692464224800,11.368224853515626,12.356474876403809,0.933738648891449,-0.21787235140800476
1788674692480124400,11.38412451171875,13.132196426391602,0.6440402865409851,0.040701430290937424
1788674692496024000,11.400024169921876,13.687650680541992,0.48602294921875,0.3974374830722809
1788674692511893200,11.415893310546876,13.208810806274414,0.7972691655158997,0.45489832758903503
1788674692527793000,11.43179296875,12.15296745300293,1.2330138683319092,-0.15083470940589905
1788674692543692500,11.447692626953126,11.05402946472168,1.699883222579956,-0.7972691655158997
1788674692559592200,11.46359228515625,10.034099578857422,1.4460978507995605,-0.3902548849582672
1788674692575461400,11.47946142578125,9.9000244140625,0.10773907601833344,0.07661445438861847
1788674692591330600,11.49533056640625,12.066776275634766,-1.2258312702178955,0.363918662071228
1788674692607230200,11.511230224609376,14.216769218444824,-1.8962076902389526,0.6368576288223267
1788674692623099400,11.527099365234376,13.953407287597656,-2.0231003761291504,0.3902548849582672
1788674692638999000,11.5429990234375,11.140220642089844,-1.8507179021835327,-0.21547815203666687
1788674692654898700,11.558898681640626,7.814674377441406,-1.434126853942871,-0.5554547905921936
1788674692670767600,11.574767578125,5.504269599914551,-0.8786720037460327,-0.2322375625371933
1788674692686636800,11.59063671875,5.434837818145752,-0.3256114423274994,0.2777273952960968
1788674692702567200,11.606567138671876,6.732495307922363,0.07422025501728058,0.4405331015586853
1788674692718405600,11.622405517578125,7.522581577301025,0.4596867263317108,0.0694318488240242
1788674692734274800,11.63827490234375,7.352593421936035,0.6799532771110535,-0.3471592366695404
1788674692750144000,11.65414404296875,6.588842868804932,0.304063618183136,0.10773907601833344
1788674692766043600,11.670043701171876,6.308721542358398,-0.3256114423274994,0.9983820915222168
1788674692781912800,11.685912841796876,7.5632829666137695,-0.44532153010368347,1.4269442558288574
1788674692797782000,11.701781982421876,9.030928611755371,-0.05985504388809204,1.0678139925003052
1788674692813681700,11.717681640625,9.670180320739746,0.47884035110473633,0.42377370595932007
1788674692829550600,11.733550537109375,9.57441234588623,0.7852981686592102,0.15562310814857483
1788674692845419800,11.749419677734375,9.038111686706543,0.8834604024887085,0.2944868206977844
1788674692861319400,11.7653193359375,8.434772491455078,1.194706678390503,0.40701428055763245
1788674692877188600,11.781188720703126,8.190564155578613,1.460463047027588,0.5123591423034668
1788674692893088300,11.797088134765625,7.850587368011475,1.2449848651885986,1.1109095811843872
1788674692908988000,11.81298779296875,7.965508937835693,1.742978811264038,0.4572925269603729
1788674692924918000,11.82891796875,8.834604263305664,2.049436569213867,-0.4692635238170624
1788674692940817700,11.844817626953125,10.63504409790039,2.3702597618103027,-0.9552865028381348
1788674692956686800,11.860686767578125,12.306197166442871,2.3032219409942627,-1.0654197931289673
1788674692972586500,11.87658642578125,13.055582046508789,2.011129379272461,-0.7613561153411865
1788674692988486100,11.892486083984375,12.931083679199219,1.6304513216018677,-0.17477671802043915
1788674693004385800,11.9083857421875,12.878411293029785,1.1061211824417114,0.004788403399288654
1788674693020285400,11.924285400390625,13.402741432189941,0.7254431247711182,-0.028730420395731926
1788674693036154600,11.940154541015625,13.919888496398926,1.1085153818130493,0.4189853072166443
1788674693052085000,11.9560849609375,13.177685737609863,1.5729905366897583,0.5937620401382446
1788674693067954000,11.971953857421875,11.250353813171387,1.6735470294952393,0.569819986820221
1788674693083853600,11.987853515625,10.122684478759766,1.4173674583435059,0.29209262132644653
1788674693099722800,12.00372265625,10.613495826721191,0.3471592366695404,-0.07182604819536209
1788674693115622400,12.019622314453125,13.227964401245117,-1.1300631761550903,-0.26575639843940735
1788674693131491600,12.03549169921875,15.5311861038208,-1.8818424940109253,0.1604115068912506
1788674693147360800,12.05136083984375,15.31570816040039,-2.011129379272461,0.47884035110473633
1788674693163230000,12.06722998046875,12.957419395446777,-1.8387469053268433,0.6751648783683777
1788674693179129600,12.083129638671876,9.411606788635254,-1.3120225667953491,0.950498104095459
1788674693194998800,12.098998779296876,6.287173748016357,-0.6416460275650024,0.7637503147125244
1788674693210898400,12.1148984375,4.637568473815918,0.009576806798577309,0.9361328482627869
1788674693226798000,12.130798095703126,4.8602294921875,0.2537853717803955,1.0031704902648926
1788674693242697700,12.14669775390625,6.375759124755859,-0.014365210197865963,0.40222588181495667
1788674693258567000,12.16256689453125,7.785943984985352,0.2585737705230713,-0.6105214357376099
1788674693274466600,12.178466552734376,8.810662269592285,0.6919242739677429,-1.0247182846069336
1788674693290335500,12.19433544921875,8.971074104309082,0.6727706789970398,-0.8786720037460327
1788674693306235400,12.2102353515625,8.506598472595215,0.5386953949928284,-0.7493851184844971
1788674693322165500,12.22616552734375,7.879317760467529,0.48602294921875,-0.7398083209991455
1788674693338065200,12.242065185546876,7.362170219421387,0.43095630407333374,-0.37828385829925537
1788674693353903600,12.257903564453125,6.9455790519714355,0.545877993106842,-0.014365210197865963
1788674693369772800,12.273772705078125,6.988674640655518,1.01753568649292,0.3064578175544739
1788674693385672400,12.28967236328125,7.173028469085693,1.558625340461731,0.26336219906806946
1788674693401541600,12.305541748046876,7.398083209991455,1.8531121015548706,0.08619125932455063
1788674693417441300,12.321441162109375,7.819462776184082,1.8698714971542358,0.12928688526153564
1788674693433310500,12.337310546875,8.31985092163086,1.7046716213226318,0.10055647045373917
1788674693449179600,12.3531796875,8.932766914367676,1.2880805730819702,0.05506663769483566
1788674693465079300,12.369079345703126,9.971850395202637,0.9385270476341248,0.15801730751991272
1788674693480918000,12.38491796875,10.90798282623291,0.8355764150619507,0.07182604819536209
1788674693496817700,12.400817626953126,11.63103199005127,0.993593692779541,-0.3711012601852417
1788674693512717300,12.41671728515625,12.109871864318848,0.9720458984375,-0.7350199222564697
1788674693528586200,12.432586181640625,12.404358863830566,0.7805097699165344,-0.3423708379268646
1788674693544425000,12.448425048828126,12.830527305603027,0.47884035110473633,0.24660277366638184
1788674693560355000,12.46435498046875,12.945448875427246,0.5482721924781799,0.3663128614425659
1788674693576224300,12.480224365234376,12.428300857543945,1.048660397529602,-0.20350714027881622
1788674693592154400,12.496154296875,11.283872604370117,1.5849615335464478,-1.2545616626739502
1788674693608023600,12.5120234375,10.3549222946167,2.3989901542663574,-1.558625340461731
1788674693623862300,12.5278623046875,10.201693534851074,2.1045033931732178,-1.2018892765045166
1788674693639792400,12.54379248046875,11.046846389770508,0.2944868206977844,-0.2106897532939911
1788674693655661600,12.55966162109375,12.401965141296387,-1.0582371950149536,0.24420857429504395
1788674693671561200,12.575561279296876,13.043610572814941,-1.072602391242981,-0.11013327538967133
1788674693687430400,12.591430419921876,11.84650993347168,-0.7015010714530945,-0.7733271718025208
1788674693703330000,12.607330078125,9.129091262817383,-0.3687070608139038,-1.0989385843276978
1788674693719229700,12.623229736328126,6.718130111694336,-0.0933738648891449,-1.0319008827209473
1788674693735099000,12.639098876953126,5.65031623840332,0.18914192914962769,-0.790086567401886
1788674693750937300,12.654937255859375,5.978321552276611,0.5051765441894531,-0.6823474764823914
1788674693766837000,12.6708369140625,6.610390663146973,0.5099649429321289,-0.7086837291717529
1788674693782706200,12.6867060546875,6.931213855743408,0.22744916379451752,-0.3998316824436188
1788674693798605800,12.702605712890625,7.113173484802246,-0.038307227194309235,0.014365210197865963
1788674693814475000,12.71847509765625,7.675810813903809,-0.090979665517807,0.3256114423274994
1788674693830374700,12.734374755859376,8.583212852478027,-0.021547814831137657,0.22744916379451752
1788674693846274300,12.7502744140625,9.751583099365234,0.10055647045373917,0.2059013396501541
1788674693862204400,12.766204345703125,10.27591323852539,0.33279404044151306,0.3447650372982025
1788674693878073600,12.782073486328125,9.998186111450195,0.6392518281936646,0.3519476354122162
1788674693894003700,12.798003662109375,9.071630477905273,1.0271124839782715,0.5291185975074768
1788674693909903400,12.8139033203125,8.339004516601562,1.4413094520568848,0.6775590777397156
1788674693925772500,12.8297724609375,7.862558364868164,1.824381709098816,0.7326257228851318
1788674693941672200,12.845672119140625,7.886500358581543,2.049436569213867,0.8690952062606812
1788674693957571800,12.86157177734375,8.51138687133789,2.0470423698425293,0.8307880163192749
1788674693973441000,12.87744091796875,9.215282440185547,2.1068975925445557,0.5363011956214905
1788674693989340700,12.893340576171875,10.424354553222656,2.1715409755706787,0.49799394607543945
1788674694005240300,12.909240234375,11.599906921386719,1.9943699836730957,0.45489832758903503
1788674694021140000,12.925139892578125,12.322956085205078,1.6089035272598267,0.26336219906806946
1788674694037039600,12.94103955078125,13.110648155212402,1.280897855758667,0.363918662071228
1788674694052908800,12.95690869140625,13.606247901916504,0.6488286852836609,0.7493851184844971
1788674694068808400,12.972808349609375,13.828908920288086,0.29209262132644653,0.6943184733390808
1788674694084677600,12.988677734375,13.953407287597656,0.7015010714530945,0.3064578175544739
1788674694100546800,13.004546875,13.273454666137695,1.357512354850769,0.3280056416988373
1788674694116416000,13.020416015625,11.932701110839844,1.2497732639312744,0.7493851184844971
1788674694132285200,13.03628515625,10.153809547424316,1.115697979927063,0.6416460275650024
1788674694148184800,13.052184814453126,9.224859237670898,0.9864110946655273,0.05985504388809204
1788674694164084500,13.06808447265625,10.484209060668945,0.07661445438861847,0.043095629662275314
1788674694179953400,13.083953369140625,12.828132629394531,-1.1755530834197998,0.37828385829925537
1788674694195853300,13.099853271484376,13.816938400268555,-1.745373010635376,0.5722141861915588
1788674694211722200,13.11572216796875,12.401965141296387,-1.5849615335464478,0.5410895943641663
1788674694227652600,13.131652587890626,9.986215591430664,-1.3479355573654175,0.9720458984375
1788674694243552300,13.14755224609375,7.443572998046875,-1.015141487121582,1.05105459690094
1788674694259452000,13.163451904296876,5.9974751472473145,-0.5674257874488831,1.1803414821624756
1788674694283255600,13.187255615234376,6.303933143615723,-0.31124621629714966,0.849941611289978
1788674694299155200,13.2031552734375,7.062894821166992,-0.3447650372982025,0.38067805767059326
1788674694315024400,13.2190244140625,7.692570209503174,-0.2322375625371933,0.05985504388809204
1788674694330924000,13.234924072265626,8.180987358093262,-0.12928688526153564,-0.12210428714752197
1788674694346823700,13.25082373046875,8.561665534973145,-0.011971008032560349,-0.17238251864910126
1788674694362723300,13.266723388671876,8.492233276367188,0.2322375625371933,-0.28730419278144836
1788674694378592500,13.282592529296876,7.936778545379639,0.45010992884635925,-0.4165911078453064
1788674694394431000,13.298430908203125,7.3693528175354,0.5554547905921936,-0.33279404044151306
1788674694410330600,13.31433056640625,7.151480674743652,0.6703764796257019,-0.2298433631658554
1788674694426261000,13.330260986328126,7.299921035766602,1.094150185585022,0.016759412363171577
1788674694442130000,13.3461298828125,7.599195957183838,1.5658079385757446,0.14365209639072418
1788674694458060300,13.362060302734376,7.924807548522949,1.843535304069519,0.26336219906806946
1788674694473960000,13.3779599609375,8.607154846191406,1.9321208000183105,0.0694318488240242
1788674694489798400,13.39379833984375,9.342175483703613,1.8722656965255737,-0.1843535304069519
1788674694505667600,13.40966748046875,10.02691650390625,1.7597382068634033,-0.13407529890537262
1788674694521506300,13.42550634765625,10.87446403503418,1.4867992401123047,0
1788674694537406000,13.441406005859376,12.014103889465332,1.3263877630233765,0.181959331035614
1788674694553275100,13.457275146484376,12.768278121948242,1.4269442558288574,0.2537853717803955
1788674694569174800,13.4731748046875,12.864046096801758,1.3120225667953491,0.009576806798577309
1788674694585105000,13.48910498046875,12.63899040222168,0.8523358106613159,0.1628057211637497
1788674694601004500,13.505004638671876,13.218387603759766,0.49559974670410156,0.6512228846549988
1788674694616904200,13.520904296875,13.67807388305664,0.5123591423034668,0.3208230137825012
1788674694632803800,13.536803955078126,13.323732376098633,0.7541735172271729,-0.24420857429504395
1788674694648703500,13.552703369140625,12.591106414794922,1.3407529592514038,-0.7972691655158997
1788674694664603100,13.56860302734375,11.894393920898438,1.6136919260025024,-0.9672574996948242
1788674694680472300,13.584472412109376,11.379640579223633,0.5674257874488831,-0.395043283700943
1788674694696341500,13.600341552734376,11.834539413452148,-1.0223240852355957,0.14844051003456116
1788674694712241200,13.6162412109375,12.469002723693848,-1.702277421951294,0.0454898327589035
1788674694728140800,13.632140869140626,12.09550666809082,-1.6280571222305298,-0.3423708379268646
1788674694744010000,13.648010009765626,10.251971244812012,-1.4077905416488647,-0.8547300100326538
1788674694759879200,13.663879150390626,7.647080421447754,-0.7613561153411865,-0.507570743560791
1788674694775717600,13.679717529296875,6.57926607131958,-0.7350199222564697,-0.272938996553421
1788674694791617300,13.6956171875,7.184999465942383,0.2082955539226532,-0.6847416758537292
1788674694807517000,13.711516845703125,7.113173484802246,0.44771572947502136,-0.4884171485900879
1788674694823386000,13.72738623046875,6.737283706665039,0.181959331035614,-0.07661445438861847
1788674694839285800,13.74328564453125,5.796362400054932,-0.07900865375995636,0.31842881441116333
1788674694855185400,13.759185302734375,5.975927352905273,0,0.5219359993934631
1788674694871054600,13.7750546875,6.9910688400268555,0.2346317619085312,0.42616790533065796
1788674694886923800,13.790923828125,8.446743965148926,0.5746083855628967,0.507570743560791
1788674694902854000,13.80685400390625,9.361329078674316,0.9457096457481384,0.2992752194404602
1788674694918723000,13.82272314453125,9.047688484191895,1.173158884048462,-0.028730420395731926
1788674694934561800,13.838561767578126,8.094796180725098,1.2665326595306396,-0.047884032130241394
1788674694950430700,13.8544306640625,7.493851184844971,1.4437036514282227,0.11971008777618408
1788674694966330400,13.870330322265625,7.838616371154785,1.7142484188079834,0.15083470940589905
1788674694982126000,13.8861259765625,8.528146743774414,1.8794482946395874,0.10055647045373917
1788674694997995300,13.901995361328124,9.246406555175781,1.9823989868164062,0.24660277366638184
1788674695013895000,13.91789501953125,9.979032516479492,1.9081788063049316,0.24899697303771973
1788674695029733400,13.9337333984375,10.766724586486816,1.6855180263519287,0.26336219906806946
1788674695045663700,13.949663818359374,11.386823654174805,1.3527239561080933,0.5051765441894531
1788674695061471700,13.9654716796875,12.179304122924805,1.0127472877502441,0.9983820915222168
1788674695077371400,13.981371337890625,12.938265800476074,0.7757213711738586,1.2186486721038818
1788674695093240600,13.997240478515625,13.737929344177246,0.5650315880775452,0.730231523513794
1788674695109140200,14.01314013671875,14.223952293395996,0.5291185975074768,0.23702596127986908
1788674695125039900,14.029039794921875,13.994109153747559,1.0271124839782715,0.16998831927776337
1788674695140970000,14.044969970703125,12.722787857055664,1.4053963422775269,0.8954314589500427
1788674695156839200,14.060839111328125,10.819397926330566,1.1803414821624756,1.482010841369629
1788674695172708400,14.076708251953125,9.334992408752441,1.6424223184585571,1.2330138683319092
1788674695188608000,14.09260791015625,8.798690795898438,1.6352397203445435,0.42616790533065796
1788674695204477200,14.108477294921874,9.86889934539795,-0.0694318488240242,0.019153613597154617
1788674695220407300,14.1244072265625,12.569559097290039,-1.5897499322891235,0.21787235140800476
1788674695236246000,14.14024609375,14.774619102478027,-1.8914192914962769,0.4405331015586853
1788674695252115000,14.156114990234375,14.0635404586792,-1.4867992401123047,0.2753331959247589
1788674695268014600,14.1720146484375,11.109095573425293,-1.0797849893569946,0.2298433631658554
1788674695283883800,14.1878837890625,7.927201747894287,-0.6991068720817566,0.31603461503982544
1788674695299753000,14.2037529296875,5.657498836517334,-0.38307225704193115,0.5817909836769104
1788674695315622100,14.2196220703125,6.078877925872803,0.0933738648891449,0.667982280254364
1788674695331491300,14.2354912109375,7.110779285430908,0.4812345504760742,0.026336219161748886
1788674695347360500,14.251360595703124,8.006210327148438,0.8403648138046265,-0.4429273009300232
1788674695363260200,14.26726025390625,7.735665798187256,1.0055646896362305,-0.5027823448181152
1788674695379129000,14.283129150390625,7.046135425567627,0.9097966551780701,-0.26575639843940735
1788674695395059500,14.2990595703125,6.593631267547607,0.9840168952941895,-0.20111294090747833
1788674695410928600,14.3149287109375,6.631938934326172,1.0893617868423462,-0.07900865375995636
1788674695426828300,14.330828369140624,7.113173484802246,1.158793568611145,0.043095629662275314
1788674695442728000,14.34672802734375,7.527369976043701,1.280897855758667,0.06464344263076782
1788674695458596900,14.362596923828125,8.01339340209961,1.3742717504501343,0.08858546614646912
1788674695474496500,14.37849658203125,8.78193187713623,1.4221558570861816,0.05267243832349777
1788674695490365700,14.39436572265625,9.35893440246582,1.558625340461731,-0.1149216815829277
1788674695506296000,14.410296142578124,9.351752281188965,1.5682021379470825,-0.4908113479614258
1788674695522165000,14.4261650390625,9.366117477416992,1.5083470344543457,-0.4213795065879822
1788674695538095400,14.442095458984374,9.488221168518066,1.558625340461731,-0.3878606855869293
1788674695553964300,14.45796435546875,10.055646896362305,1.4269442558288574,-0.4213795065879822
1788674695569864200,14.4738642578125,10.72841739654541,1.1516109704971313,-0.5171475410461426
1788674695585733000,14.489733154296875,11.54244613647461,1.0438719987869263,-0.5147533416748047
1788674695601632800,14.5056328125,12.500126838684082,0.9624691009521484,-0.3280056416988373
1788674695617502000,14.521501953125,12.895170211791992,0.545877993106842,0.009576806798577309
1788674695633371100,14.53737109375,12.732364654541016,0.3663128614425659,0.1173158809542656
1788674695649209900,14.5532099609375,12.069170951843262,0.7948749661445618,-0.2561795711517334
1788674695665078800,14.569078857421875,10.939107894897461,1.1971008777618408,-0.5363011956214905
1788674695680978700,14.584978759765624,9.749189376831055,2.161964178085327,-0.768538773059845
1788674695696847600,14.60084765625,9.047688484191895,3.064578056335449,-1.1803414821624756
1788674695712747300,14.616747314453125,9.093177795410156,1.9033904075622559,-0.8451532125473022
1788674695728647000,14.63264697265625,10.60152530670166,-0.0933738648891449,-0.4405331015586853
1788674695744485600,14.648485595703125,12.552799224853516,-1.015141487121582,-0.5626373887062073
1788674695760354800,14.664354736328125,13.225569725036621,-0.7398083209991455,-1.139639973640442
1788674695776254500,14.68025439453125,12.078747749328613,-0.47165772318840027,-1.5203180313110352
1788674695792123600,14.69612353515625,10.144232749938965,-0.4572925269603729,-1.1899182796478271
1788674695807992800,14.711992919921874,8.324639320373535,-0.06703764945268631,-0.5913678407669067
1788674695823861800,14.72786181640625,7.2783732414245605,0.33997663855552673,-0.26096799969673157
1788674695839761400,14.743761474609375,6.7277069091796875,0.38067805767059326,-0.42616790533065796
1788674695855661300,14.759661376953124,6.524199485778809,0.26575639843940735,-0.3878606855869293
1788674695871530200,14.7755302734375,6.730101108551025,0.20111294090747833,0.1149216815829277
1788674695887399400,14.7913994140625,7.436390399932861,0.5147533416748047,0.6751648783683777
1788674695903268600,14.8072685546875,7.862558364868164,0.9241618514060974,0.6320692300796509
1788674695919168300,14.823168212890625,7.845798969268799,1.2186486721038818,0.6177040338516235
1788674695935037400,14.839037353515625,7.230489253997803,1.2737152576446533,0.6105214357376099
1788674695950937000,14.85493701171875,6.993463039398193,1.381454348564148,0.6512228846549988
1788674695966836700,14.870836669921875,7.539340972900391,1.745373010635376,0.5626373887062073
1788674695982736400,14.886736328125,8.401253700256348,1.9608511924743652,0.19153612852096558
1788674695998636000,14.902635986328125,9.160215377807617,1.98958158493042,0.033518824726343155
1788674696014535700,14.91853564453125,9.634267807006836,1.8076223134994507,-0.1364694982767105
1788674696030374400,14.93437451171875,10.29746150970459,1.5203180313110352,-0.090979665517807
1788674696046243600,14.95024365234375,10.465055465698242,1.436521053314209,0.1412578970193863
1788674696062112500,14.966112548828125,10.498574256896973,1.278503656387329,-0.2537853717803955
1788674696078012200,14.98201220703125,11.425130844116211,1.1755530834197998,-0.6416460275650024
1788674696093881300,14.99788134765625,12.955025672912598,1.0079588890075684,-0.646434485912323
1788674696109781000,15.013781005859375,14.369998931884766,0.7613561153411865,-0.6560112833976746
1788674696125680600,15.0296806640625,14.882357597351074,0.31842881441116333,-0.6943184733390808
1788674696141580300,15.045580322265625,14.221558570861816,0.5482721924781799,-0.5051765441894531
1788674696157480000,15.06147998046875,12.11705493927002,1.3527239561080933,-0.033518824726343155
1788674696173349000,15.07734912109375,9.708487510681152,1.280897855758667,0.3208230137825012
1788674696189248800,15.093248779296875,8.339004516601562,1.2952631711959839,0.40940847992897034
1788674696205118000,15.109117919921875,8.808267593383789,0.768538773059845,0.5219359993934631
1788674696220987100,15.124987060546875,10.797849655151367,-1.113303780555725,0.40222588181495667
1788674696236856300,15.140856201171875,14.195221900939941,-2.4684219360351562,0.33039984107017517
1788674696252725500,15.1567255859375,15.971719741821289,-2.451662540435791,0.2825157940387726
1788674696268625200,15.172625244140624,14.092270851135254,-1.941697597503662,0.019153613597154617
1788674696284494000,15.188494140625,10.225635528564453,-1.5945383310317993,0.2561795711517334
1788674696300393700,15.204393798828125,6.739677906036377,-1.0797849893569946,0.5482721924781799
1788674696316263000,15.220262939453125,5.106832027435303,-0.395043283700943,0.6799532771110535
1788674696332132000,15.236132080078125,5.51624059677124,0.40222588181495667,0.21787235140800476
1788674696348031700,15.25203173828125,7.266402244567871,0.8403648138046265,-0.667982280254364
1788674696363931400,15.267931396484375,8.494627952575684,0.9624691009521484,-0.9002198576927185
1788674696379831000,15.2838310546875,8.583212852478027,0.828393816947937,-0.7038952708244324
1788674696395730700,15.299730712890625,7.927201747894287,0.5746083855628967,-0.5602431893348694
1788674696411600000,15.315599853515625,7.5632829666137695,0.2968810200691223,-0.8475474119186401
1788674696427469000,15.331468994140625,7.773972988128662,0.38067805767059326,-0.7924807667732239
1788674696443338200,15.347338134765625,8.051700592041016,0.8140285611152649,-0.7493851184844971
1788674696459207400,15.36320751953125,7.807491779327393,1.3192051649093628,-0.8451532125473022
1788674696475107000,15.379107177734374,7.108384609222412,1.6065093278884888,-0.6392518281936646
1788674696490976000,15.39497607421875,6.574477672576904,1.7717092037200928,-0.4141969084739685
1788674696506906400,15.41090625,6.916848659515381,1.7956513166427612,-0.524330198764801
1788674696522775600,15.426775634765624,8.159439086914062,1.7573440074920654,-0.5363011956214905
1788674696538614000,15.442614013671875,9.569623947143555,1.7717092037200928,-0.48602294921875
1788674696554483200,15.458483154296875,10.623072624206543,1.7525556087493896,-0.40940847992897034
1788674696570443800,15.47444384765625,11.200075149536133,1.3910311460494995,-0.17717093229293823
1788674696586313000,15.49031298828125,11.599906921386719,0.6392518281936646,0.06224924325942993
1788674696602212600,15.506212646484375,12.631808280944824,0.1843535304069519,0.15322890877723694
1788674696618112300,15.5221123046875,13.362039566040039,0.47884035110473633,0.07182604819536209
1788674696633981400,15.5379814453125,13.362039566040039,0.5554547905921936,0.17238251864910126
1788674696649850600,15.5538505859375,12.892776489257812,0.1173158809542656,0.24660277366638184
1788674696665750300,15.569750244140625,12.715604782104492,0.040701430290937424,0.2777273952960968
1788674696681650000,15.58564990234375,12.303802490234375,0.2992752194404602,-0.19153612852096558
1788674696697549600,15.601549560546875,11.774683952331543,0.6943184733390808,-0.706289529800415
1788674696713418800,15.617418701171875,11.480196952819824,1.1300631761550903,-1.0630255937576294
1788674696729257500,15.633257568359374,11.310209274291992,0.5027823448181152,-0.8427590131759644
1788674696745096000,15.649095947265625,11.635820388793945,-1.0797849893569946,-0.2849099934101105
1788674696760995600,15.66499560546875,12.277466773986816,-1.9752163887023926,-0.38307225704193115
1788674696776895200,15.680895263671875,12.193669319152832,-2.1116859912872314,-0.8643068075180054
1788674696792795000,15.696794921875,10.503362655639648,-1.4484920501708984,-1.3072341680526733
1788674696808664000,15.7126640625,8.111555099487305,-1.1444283723831177,-1.0821791887283325
1788674696824533200,15.728533203125,6.378153324127197,-0.7924807667732239,-0.7086837291717529
1788674696840372000,15.7443720703125,6.382941722869873,-0.31603461503982544,-0.45250412821769714
1788674696856241000,15.760240966796875,7.630321025848389,-0.07422025501728058,-0.42616790533065796
1788674696872110000,15.776110107421875,8.571242332458496,-0.05267243832349777,-0.4908113479614258
1788674696888071000,15.79207080078125,8.65743350982666,-0.028730420395731926,-0.42377370595932007
1788674696903940000,15.807940185546874,8.382100105285645,0.05985504388809204,0.3758896589279175
1788674696919809000,15.82380908203125,8.020575523376465,0.181959331035614,0.6751648783683777
1788674696935708700,15.839708740234375,7.99184513092041,0.22026655077934265,0.6200982332229614
1788674696951577900,15.855577880859375,8.216899871826172,0.3711012601852417,0.5985504388809204
1788674696967538700,15.87153857421875,8.312667846679688,0.7661445140838623,0.4692635238170624
1788674696983407900,15.887407958984374,8.109161376953125,1.0845733880996704,0.26096799969673157
1788674696999276800,15.90327685546875,8.034940719604492,1.4437036514282227,0.043095629662275314
1788674697015207200,15.919207275390624,8.085219383239746,1.7286136150360107,0.20350714027881622
1788674697031076400,15.935076416015624,8.032546997070312,1.8339585065841675,0.18914192914962769
1788674697046976000,15.95097607421875,8.085219383239746,1.7573440074920654,0.09576806426048279
1788674697062875600,15.966875732421874,8.62391471862793,1.4844050407409668,-0.07182604819536209
1788674697078744600,15.98274462890625,9.461885452270508,1.0797849893569946,-0.2106897532939911
1788674697094644200,15.998644287109375,10.721235275268555,0.8020575642585754,-0.5722141861915588
1788674697110513400,16.014513427734375,12.459425926208496,0.6655880808830261,-0.4692635238170624
1788674697126413000,16.0304130859375,13.46259593963623,0.49799394607543945,0.2298433631658554
1788674697142282200,16.0462822265625,13.572729110717773,0.21787235140800476,0.524330198764801
1788674697158182000,16.062181884765625,13.148955345153809,-0.10534487664699554,-0.07661445438861847
1788674697174051000,16.078051025390625,13.086706161499023,0.031124621629714966,-0.26815059781074524
1788674697189950700,16.09395068359375,12.322956085205078,1.0127472877502441,-0.2298433631658554
1788674697205850400,16.109850341796875,10.213664054870605,1.4939818382263184,0.5482721924781799
1788674697221750000,16.12575,8.248024940490723,1.1827356815338135,1.1971008777618408
1788674697237649700,16.141649658203125,8.29830265045166,0.8020575642585754,1.0031704902648926
1788674697253488400,16.15748828125,11.374852180480957,-0.912190854549408,0.15562310814857483
1788674697269357600,16.173357666015626,15.576676368713379,-2.5115175247192383,-0.26815059781074524
1788674697285287700,16.18928759765625,17.42739486694336,-2.557007312774658,-0.5171475410461426
1788674697301187300,16.205187255859375,14.769830703735352,-2.2194249629974365,-0.10055647045373917
1788674697317056500,16.221056396484375,10.247182846069336,-1.7357962131500244,0.40462008118629456
1788674697332925700,16.23692578125,6.378153324127197,-1.216254472732544,0.2082955539226532
1788674697348825300,16.252825439453126,4.994304656982422,-0.43095630407333374,0.24420857429504395
1788674697364725000,16.26872509765625,5.781997203826904,-0.08858546614646912,0.13168109953403473
1788674697380594000,16.284593994140625,7.038952827453613,0.040701430290937424,-0.11252748221158981
1788674697396463000,16.300463134765625,7.795520782470703,0.16998831927776337,0.08140286058187485
1788674697412332300,16.316332275390625,8.1139497756958,0.05746084079146385,0.16519992053508759
1788674697428232000,16.33223193359375,8.358158111572266,-0.047884032130241394,-0.17238251864910126
1788674697444101000,16.34810107421875,8.880094528198242,0.10773907601833344,-0.395043283700943
1788674697460000800,16.364000732421875,8.851364135742188,0.20111294090747833,-0.5219359993934631
1788674697475870000,16.379869873046875,8.482656478881836,0.3974374830722809,-0.7038952708244324
1788674697491769600,16.39576953125,8.001421928405762,0.6105214357376099,-0.4165911078453064
1788674697507669200,16.411669189453125,7.735665798187256,0.8020575642585754,-0.16759411990642548
1788674697523508000,16.427508056640626,7.819462776184082,1.0678139925003052,-0.040701430290937424
1788674697539377000,16.443376953125,8.130708694458008,1.2832920551300049,-0.038307227194309235
1788674697555276500,16.459276611328125,8.418013572692871,1.3215993642807007,-0.33997663855552673
1788674697571207000,16.47520703125,8.954314231872559,1.2282254695892334,-0.2753331959247589
1788674697587106600,16.4911064453125,9.677363395690918,0.8810662031173706,-0.2322375625371933
1788674697610879700,16.514879638671875,11.010933876037598,0.7086837291717529,0.026336219161748886
1788674697626779400,16.530779296875,11.1474027633667,0.6991068720817566,0.304063618183136
1788674697642648600,16.546648681640626,10.94150161743164,0.5626373887062073,0.45250412821769714
1788674697658548200,16.56254833984375,11.434707641601562,0.569819986820221,0.22505496442317963
1788674697674417400,16.57841748046875,12.45703125,0.4118026793003082,-0.10295066982507706
1788674697690317000,16.594317138671876,13.230358123779297,0.10534487664699554,0.06703764945268631
1788674697706186000,16.61018603515625,13.055582046508789,0.26815059781074524,0.4405331015586853
1788674697722085600,16.626085693359375,12.052411079406738,0.8906430602073669,0.1604115068912506
1788674697737954800,16.641954833984375,10.690110206604004,1.0654197931289673,-0.181959331035614
1788674697753854500,16.6578544921875,9.725247383117676,1.0989385843276978,-0.42377370595932007
1788674697769754000,16.673754150390625,9.639056205749512,0.8212111592292786,-0.7661445140838623
1788674697785684500,16.6896845703125,10.910377502441406,-0.26575639843940735,-0.5386953949928284
1788674697801553400,16.705553466796875,12.84968090057373,-1.1109095811843872,-0.24420857429504395
1788674697817453000,16.721453125,13.589488983154297,-1.216254472732544,-0.3064578175544739
1788674697833353000,16.73735302734375,12.12902545928955,-0.9193734526634216,-0.6775590777397156
1788674697849222000,16.753221923828125,9.366117477416992,-0.6009446382522583,-1.0319008827209473
1788674697865091000,16.769091064453125,7.134721279144287,-0.35434186458587646,-0.9840168952941895
1788674697880990700,16.78499072265625,6.356605529785156,-0.09816227108240128,-0.3902548849582672
1788674697896890400,16.800890380859375,7.371747016906738,0.06464344263076782,-0.1388636976480484
1788674697912759600,16.816759521484375,9.093177795410156,-0.07422025501728058,-0.1173158809542656
1788674697928659200,16.8326591796875,9.86650562286377,0.004788403399288654,-0.2537853717803955
1788674697944558800,16.848558837890625,9.634267807006836,-0.009576806798577309,-0.2585737705230713
1788674697960428000,16.864427978515625,8.695740699768066,0.09816227108240128,0.2322375625371933
1788674697976297200,16.880297119140625,7.790732383728027,0.12449848651885986,0.40222588181495667
1788674697992196900,16.89619677734375,7.568071365356445,0.304063618183136,0.19153612852096558
1788674698008096500,16.912096435546875,7.955932140350342,0.5554547905921936,-0.09816227108240128
1788674698023965700,16.927965576171875,8.250418663024902,0.8164227604866028,-0.5147533416748047
1788674698039835000,16.9438349609375,8.439560890197754,1.0749965906143188,-0.5746083855628967
1788674698055703800,16.959703857421875,8.180987358093262,1.2689268589019775,-0.5003881454467773
1788674698071603500,16.975603515625,8.305485725402832,1.3646949529647827,-0.30885201692581177
1788674698087472600,16.99147265625,8.508993148803711,1.3048399686813354,-0.2968810200691223
1788674698103372300,17.007372314453125,9.023746490478516,1.0678139925003052,-0.5147533416748047
1788674698119241500,17.023241455078125,9.938331604003906,0.9648633003234863,-0.4884171485900879
1788674698135110700,17.039110595703125,10.716446876525879,0.912190854549408,-0.3974374830722809
1788674698150979800,17.054979736328125,11.003750801086426,0.8762778043746948,-0.47405192255973816
1788674698166879500,17.07087939453125,11.128249168395996,0.730231523513794,-0.40701428055763245
1788674698182779100,17.086779052734375,11.54005241394043,0.40462008118629456,-0.011971008032560349
1788674698198648300,17.1026484375,12.167332649230957,0.4118026793003082,0.12928688526153564
1788674698214548000,17.1185478515625,12.588712692260742,0.17477671802043915,-0.10773907601833344
1788674698230447600,17.134447509765625,13.079524040222168,0.19871874153614044,-0.2298433631658554
1788674698246316800,17.15031689453125,12.631808280944824,1.0845733880996704,-0.17717093229293823
1788674698262185700,17.166185791015625,10.958261489868164,1.3120225667953491,0.4429273009300232
1788674698278116000,17.1821162109375,9.165003776550293,1.192312479019165,0.667982280254364
1788674698293985300,17.1979853515625,8.69095230102539,1.4245500564575195,0.3926490843296051
1788674698309854200,17.213854248046875,9.533711433410645,0.6224924325942993,0.38067805767059326
1788674698325784600,17.22978466796875,11.23598861694336,-0.4884171485900879,0.272938996553421
1788674698341684200,17.245684326171876,13.347674369812012,-1.1085153818130493,0.11971008777618408
1788674698357553200,17.26155322265625,14.046781539916992,-1.1683704853057861,0.4812345504760742
1788674698373422300,17.27742236328125,12.342109680175781,-1.1252747774124146,0.7206547260284424
1788674698389322000,17.293322021484375,9.560047149658203,-0.8403648138046265,0.47644615173339844
1788674698405191200,17.309191162109375,7.4100542068481445,-0.36152446269989014,0.0694318488240242
1788674698421060400,17.325060302734375,6.646304130554199,0.0454898327589035,0.2777273952960968
1788674698436929500,17.340929443359375,7.220912456512451,0.33997663855552673,-0.13168109953403473
1788674698452829200,17.3568291015625,8.068459510803223,0.40701428055763245,-0.7206547260284424
1788674698468728800,17.372728759765625,8.674192428588867,0.3663128614425659,-0.4812345504760742
1788674698484598000,17.388597900390625,8.671798706054688,0.4118026793003082,-0.3758896589279175
1788674698500467200,17.40446728515625,8.142680168151855,0.44532153010368347,-0.6967126727104187
1788674698516336000,17.420336181640625,7.582436561584473,0.6248866319656372,-0.7038952708244324
1788674698532235800,17.43623583984375,7.196970462799072,0.7398083209991455,-0.6560112833976746
1788674698548135400,17.452135498046875,7.206547260284424,0.8547300100326538,-0.40462008118629456
1788674698564035300,17.468035400390626,7.216124057769775,1.1851298809051514,0.023942016065120697
1788674698579873800,17.483873779296875,7.096413612365723,1.4915876388549805,0.28969839215278625
1788674698595712500,17.49971240234375,7.287950038909912,1.6927006244659424,0.31603461503982544
1788674698611612200,17.515612060546875,7.934384346008301,1.7836803197860718,0.3447650372982025
1788674698627481300,17.5314814453125,8.71489429473877,1.6496049165725708,-0.09816227108240128
1788674698643381000,17.547381103515626,9.763554573059082,1.4077905416488647,-0.4596867263317108
1788674698659280600,17.56328076171875,10.951078414916992,1.2186486721038818,-0.33997663855552673
1788674698675119000,17.579119140625,11.717223167419434,1.194706678390503,-0.2106897532939911
1788674698690988300,17.59498828125,11.896788597106934,1.1827356815338135,-0.19871874153614044
1788674698706857500,17.610857421875,11.662156105041504,1.0007762908935547,-0.1628057211637497
1788674698722726700,17.6267265625,11.434707641601562,0.8571242094039917,0.004788403399288654
1788674698738626300,17.642626220703125,11.743558883666992,0.6703764796257019,0.16998831927776337
1788674698754495500,17.65849560546875,12.835315704345703,0.40222588181495667,0.6536170840263367
1788674698770364700,17.67436474609375,13.75468921661377,0.37828385829925537,0.7445967197418213
1788674698786233600,17.690233642578125,13.716381072998047,0.7086837291717529,0.4596867263317108
1788674698802102800,17.706102783203125,12.100295066833496,0.768538773059845,-0.12210428714752197
1788674698818002400,17.72200244140625,10.299856185913086,1.2258312702178955,-0.22505496442317963
1788674698833841200,17.737841064453125,9.318233489990234,1.6065093278884888,-0.3926490843296051
1788674698849740800,17.75374072265625,9.895236015319824,1.194706678390503,-0.3663128614425659
1788674698865640400,17.769640380859375,11.511322021484375,0.026336219161748886,0.21308395266532898
1788674698881540000,17.7855400390625,12.646173477172852,-0.8164227604866028,0.040701430290937424
1788674698897409300,17.8014091796875,12.136208534240723,-0.9313444495201111,-0.31124621629714966
1788674698913247700,17.817247802734375,10.247182846069336,-0.7565677165985107,-0.5386953949928284
1788674698929178000,17.83317822265625,8.259995460510254,-0.33039984107017517,-1.0342950820922852
1788674698945047300,17.84904736328125,7.328651428222656,0.2346317619085312,-0.9169792532920837
1788674698960947000,17.864947021484376,7.558494567871094,0.5219359993934631,-0.47644615173339844
1788674698976846600,17.8808466796875,8.329427719116211,0.3926490843296051,0.009576806798577309
1788674698992715500,17.896715576171875,8.87291145324707,0.2801215946674347,0.014365210197865963
1788674699008584700,17.912584716796875,9.078812599182129,0.2849099934101105,-0.21787235140800476
1788674699024484400,17.928484375,8.877699851989746,0.3064578175544739,0.038307227194309235
1788674699040384000,17.944384033203125,8.243236541748047,0.5386953949928284,0.17717093229293823
1788674699056253200,17.960253173828125,7.580042362213135,0.8906430602073669,0.19393034279346466
1788674699072092000,17.976091796875,6.964732646942139,1.0342950820922852,0.35673606395721436
1788674699087991600,17.991991455078125,6.931213855743408,1.0438719987869263,0.5123591423034668
1788674699103891200,18.00789111328125,7.73087739944458,1.1851298809051514,0.1388636976480484
1788674699119790800,18.023790771484375,8.882488250732422,1.2186486721038818,-0.08140286058187485
1788674699135660000,18.039659912109375,9.567230224609375,1.278503656387329,0.10773907601833344
1788674699151529200,18.055529296875,9.521739959716797,1.3503297567367554,0.06703764945268631
1788674699167428900,18.071428955078126,9.08838939666748,1.45806884765625,0
1788674699183297800,18.0872978515625,8.695740699768066,1.3503297567367554,-0.0454898327589035
1788674699199167000,18.1031669921875,9.198522567749023,1.460463047027588,0.19632454216480255
1788674699215066600,18.119066650390625,9.988609313964844,1.4844050407409668,0.031124621629714966
1788674699230997000,18.1349970703125,10.833763122558594,1.2952631711959839,-0.16519992053508759
1788674699246835500,18.15083544921875,11.35809326171875,1.0845733880996704,-0.4836287498474121
1788674699262674200,18.166674072265625,11.808202743530273,1.0534487962722778,-0.6536170840263367
1788674699278543400,18.18254345703125,12.071564674377441,0.9289502501487732,-0.608127236366272
1788674699294412300,18.198412353515625,11.994950294494629,0.7829039692878723,-0.4381389021873474
1788674699310281500,18.214281494140625,11.820174217224121,1.1252747774124146,-0.45250412821769714
1788674699326181000,18.23018115234375,11.420342445373535,1.745373010635376,-0.26815059781074524
1788674699342019800,18.246019775390625,10.539276123046875,1.7357962131500244,0.27054479718208313
1788674699357919500,18.26191943359375,9.41400146484375,1.9321208000183105,0.6536170840263367
1788674699373849600,18.277849609375,9.100360870361328,1.3718775510787964,0.5626373887062073
1788674699389718800,18.29371875,9.962273597717285,-0.2753331959247589,0.5482721924781799
1788674699405588000,18.309587890625,12.191274642944336,-1.4053963422775269,0.6536170840263367
1788674699421426700,18.3254267578125,14.161703109741211,-1.5131354331970215,0.7350199222564697
1788674699437326300,18.341326416015626,13.67807388305664,-1.37906014919281,0.33758243918418884
1788674699453195300,18.3571953125,11.556811332702637,-1.1659762859344482,0.5291185975074768
1788674699469064400,18.373064453125,9.004592895507812,-0.7182605266571045,0.5291185975074768
1788674699484964000,18.388964111328125,6.9695210456848145,0.011971008032560349,0.38546648621559143
1788674699500863700,18.40486376953125,6.14831018447876,0.47644615173339844,0.40701428055763245
1788674699516733000,18.42073291015625,6.53377628326416,0.6655880808830261,0.45489832758903503
1788674699532602000,18.43660205078125,7.496245384216309,0.586579442024231,0.1149216815829277
1788674699548501800,18.452501708984375,8.429984092712402,0.586579442024231,-0.090979665517807
1788674699564371000,18.468370849609375,9.126696586608887,0.5339069962501526,-0.2777273952960968
1788674699580240100,18.484240234375,9.493009567260742,0.44771572947502136,-0.40940847992897034
1788674699596170200,18.500170166015625,9.306262016296387,0.4836287498474121,-0.3280056416988373
1788674699612070000,18.51606982421875,8.868123054504395,0.6919242739677429,-0.15801730751991272
1788674699627908600,18.53190869140625,8.226476669311523,0.9409212470054626,-0.17717093229293823
1788674699643777500,18.547777587890625,7.848193168640137,1.2521674633026123,0.009576806798577309
1788674699659677200,18.56367724609375,7.960720539093018,1.3670891523361206,0.17717093229293823
1788674699675576800,18.579576904296875,8.197746276855469,1.5969325304031372,0.035913024097681046
1788674699691476700,18.595476806640626,8.492233276367188,1.6519991159439087,-0.2561795711517334
1788674699707315200,18.611315185546875,8.889671325683594,1.6112977266311646,-0.4668693244457245
1788674699723154000,18.62715380859375,9.351752281188965,1.5083470344543457,-0.49320554733276367
1788674699739053600,18.643053466796875,9.892841339111328,1.3096283674240112,-0.47884035110473633
1788674699754892000,18.65889208984375,10.656591415405273,1.0462661981582642,-0.4644751250743866
1788674699770822400,18.674822509765626,11.48259162902832,0.933738648891449,-0.05985504388809204
1788674699786691600,18.690691650390626,11.856086730957031,0.9313444495201111,0.16519992053508759
1788674699802560500,18.706560546875,11.702857971191406,0.9193734526634216,0.17238251864910126
1788674699818429700,18.7224296875,11.676521301269531,0.8379706144332886,0.22744916379451752
1788674699834329300,18.738329345703125,12.289437294006348,0.5027823448181152,0.5171475410461426
1788674699850229000,18.75422900390625,12.904747009277344,0.42856210470199585,0.4596867263317108
1788674699866098200,18.77009814453125,12.952630996704102,0.8571242094039917,0.1149216815829277
1788674699881967400,18.78596728515625,11.860875129699707,0.7996633648872375,-0.21787235140800476
1788674699897836500,18.80183642578125,10.857705116271973,1.0342950820922852,-0.47165772318840027
1788674699913736200,18.817736083984375,10.163386344909668,1.6112977266311646,-0.6392518281936646
1788674699937570300,18.8415703125,9.955090522766113,0.727837324142456,-0.3519476354122162
1788674699953409000,18.857408935546875,10.673351287841797,0.028730420395731926,-0.4213795065879822
1788674699969308700,18.87330859375,11.32457447052002,-0.43335050344467163,-1.0223240852355957
1788674699985177900,18.889177734375,11.245565414428711,-0.6655880808830261,-1.4317326545715332
1788674700001047000,18.905047119140626,10.383652687072754,-0.6129156351089478,-1.1899182796478271
1788674700016885500,18.920885498046875,9.174580574035645,-0.181959331035614,-0.8355764150619507
1788674700032785200,18.93678515625,8.197746276855469,0.3256114423274994,-0.5291185975074768
1788674700048623900,18.952623779296875,8.078036308288574,0.5410895943641663,-0.31124621629714966
1788674700064493000,18.9684931640625,8.180987358093262,0.3687070608139038,-0.08140286058187485
1788674700080392700,18.984392822265626,8.494627952575684,0.3495534360408783,-0.05985504388809204
1788674700096292400,19.000292236328125,8.494627952575684,0.6512228846549988,-0.05506663769483566
1788674700112130800,19.016130859375,8.075642585754395,0.8403648138046265,0.21787235140800476
1788674700128030500,19.032030517578125,7.429207801818848,1.1827356815338135,0.26096799969673157
1788674700143869200,19.047869140625,7.091625213623047,1.357512354850769,0.5817909836769104
1788674700159768800,19.063768798828125,7.024587631225586,1.314416766166687,0.6177040338516235
1788674700175668500,19.07966845703125,7.594407558441162,1.501164436340332,0.2849099934101105
1788674700191537700,19.09553759765625,8.17141056060791,1.821987509727478,-0.0933738648891449
1788674700207437300,19.111437255859375,8.434772491455078,1.944091796875,-0.2322375625371933
1788674700223306500,19.127306396484375,8.652645111083984,1.920149803161621,-0.06464344263076782
1788674700239206100,19.1432060546875,9.016563415527344,1.7956513166427612,0.1388636976480484
1788674700255075300,19.159075439453126,9.536105155944824,1.4867992401123047,0.06224924325942993
1788674700270913800,19.174913818359375,10.342951774597168,1.3407529592514038,-0.24181437492370605
1788674700286813400,19.1908134765625,10.809821128845215,1.3670891523361206,-0.2346317619085312
1788674700302652200,19.206652099609375,10.946290016174316,1.335964560508728,-0.22505496442317963
1788674700318491000,19.222490966796876,10.939107894897461,1.3335703611373901,-0.3447650372982025
1788674700334390500,19.238390625,11.106701850891113,1.1803414821624756,-0.3016694188117981
1788674700350290200,19.254290283203126,11.317391395568848,0.9002198576927185,0.019153613597154617
1788674700366159000,19.2701591796875,12.071564674377441,0.6751648783683777,0.2106897532939911
1788674700381996300,19.285996337890627,12.6365966796875,1.05105459690094,0.028730420395731926
1788674700397896000,19.30189599609375,11.60948371887207,1.6280571222305298,0.16759411990642548
1788674700413795600,19.317795654296877,9.710882186889648,1.5658079385757446,0.5434837937355042
1788674700429664800,19.333664794921877,8.667010307312012,1.522712230682373,0.811634361743927
1788674700445564400,19.349564453125,9.528923034667969,1.0797849893569946,0.9600749015808105
1788674700461433300,19.365433349609376,11.57596492767334,-0.2777273952960968,0.8571242094039917
1788674700477302500,19.381302490234376,14.21916389465332,-1.3048399686813354,0.2513911724090576
1788674700493171700,19.397171630859376,15.804125785827637,-1.5298948287963867,0.22505496442317963
1788674700509071400,19.4130712890625,14.068328857421875,-1.5298948287963867,0.5506663918495178
1788674700524910000,19.42891015625,10.673351287841797,-1.381454348564148,0.7206547260284424
1788674700540840200,19.444840087890626,7.785943984985352,-0.8547300100326538,0.8475474119186401
1788674700556709400,19.46070947265625,6.208165168762207,-0.12928688526153564,0.727837324142456
1788674700572578600,19.47657861328125,6.0597243309021,0.40462008118629456,0.5674257874488831
1788674700596443100,19.500443115234376,7.331045627593994,0.4908113479614258,0.05985504388809204
1788674700612342800,19.5163427734375,8.300697326660156,0.20350714027881622,-0.13407529890537262
1788674700628242400,19.532242431640626,9.184157371520996,0.21787235140800476,-0.3687070608139038
1788674700644081200,19.5480810546875,9.469067573547363,0.31364041566848755,-0.667982280254364
1788674700659950300,19.563950439453127,9.184157371520996,0.569819986820221,-0.6560112833976746
1788674700675789000,19.5797890625,8.547300338745117,0.8092401623725891,-0.26575639843940735
1788674700691688700,19.595688720703127,7.687781810760498,0.9145850539207458,-0.16998831927776337
1788674700707588400,19.61158837890625,7.297526836395264,1.05105459690094,-0.10295066982507706
1788674700723488000,19.627488037109377,7.467514991760254,1.3455413579940796,-0.19393034279346466
1788674700739357000,19.64335693359375,8.068459510803223,1.6136919260025024,-0.2944868206977844
1788674700755226000,19.65922607421875,8.650250434875488,1.7190368175506592,-0.5195417404174805
1788674700771125800,19.675125732421876,8.786720275878906,1.7980455160140991,-0.3687070608139038
1788674700787025400,19.691025390625,8.755595207214355,1.6328455209732056,-0.3280056416988373
1788674700802894600,19.70689453125,9.277531623840332,1.3646949529647827,-0.5267243981361389
1788674700818794200,19.722794189453126,10.474632263183594,1.2282254695892334,-0.5746083855628967
1788674700834694000,19.73869384765625,11.532869338989258,1.2186486721038818,-0.524330198764801
1788674700850563000,19.75456298828125,11.889605522155762,1.139639973640442,-0.40701428055763245
1788674700866462700,19.770462646484376,11.441889762878418,0.9983820915222168,-0.3256114423274994
1788674700882362400,19.7863623046875,11.245565414428711,0.8858546018600464,-0.043095629662275314
1788674700898262000,19.802261962890626,11.784260749816895,0.7781155705451965,-0.021547814831137657
1788674700914161700,19.81816162109375,12.653355598449707,0.6703764796257019,-0.06464344263076782
1788674700930061300,19.834061279296876,13.105859756469727,0.7637503147125244,-0.023942016065120697
1788674700945930500,19.849930419921876,12.483367919921875,0.8068459630012512,-0.016759412363171577
1788674700969764900,19.873764892578127,11.065999984741211,0.790086567401886,-0.10534487664699554
1788674700985633800,19.8896337890625,10.78348445892334,0.9888052940368652,-0.2585737705230713
1788674701001533400,19.905533447265626,10.919954299926758,0.6057330369949341,-0.49320554733276367
1788674701017402600,19.921402587890626,11.310209274291992,-0.047884032130241394,-0.17477671802043915
1788674701033302300,19.93730224609375,11.458649635314941,-0.5626373887062073,-0.2082955539226532
1788674701049171500,19.95317138671875,11.197681427001953,-0.7948749661445618,-0.6177040338516235
1788674701065101600,19.9691015625,10.101137161254883,-0.7206547260284424,-0.933738648891449
1788674701081001200,19.985001220703126,9.078812599182129,-0.5099649429321289,-0.9002198576927185
1788674701096870400,20.000870361328126,8.712499618530273,-0.19393034279346466,-0.5626373887062073
1788674701120643600,20.0246435546875,8.777143478393555,0.1628057211637497,-0.395043283700943
1788674701144478000,20.04847802734375,8.734047889709473,0.06464344263076782,-0.3016694188117981
1788674701160377600,20.064377685546877,8.439560890197754,0.06703764945268631,-0.3256114423274994
1788674701176216000,20.080216064453126,8.257601737976074,0.12928688526153564,-0.22266076505184174
1788674701192054800,20.0960546875,8.226476669311523,0.42616790533065796,0.07900865375995636
1788674701207924000,20.111924072265627,7.876923561096191,0.7781155705451965,-0.033518824726343155
1788674701223762700,20.1277626953125,7.544129371643066,0.9481038451194763,-0.1628057211637497
1788674701239662300,20.143662353515627,7.376535415649414,1.0965443849563599,-0.3280056416988373
1788674701255562000,20.15956201171875,8.003816604614258,1.1013327836990356,-0.3663128614425659
1788674701271400400,20.175400390625,8.762778282165527,1.1683704853057861,-0.33279404044151306
1788674701287239200,20.1912392578125,9.198522567749023,1.436521053314209,-0.090979665517807
1788674701303138800,20.207138916015627,8.822632789611816,1.6136919260025024,0.0071826050989329815
1788674701319038500,20.22303857421875,8.027758598327637,1.6496049165725708,0.0454898327589035
1788674701334877200,20.238877197265627,7.807491779327393,1.656787633895874,-0.12210428714752197
1788674701350746000,20.25474609375,8.621520042419434,1.5322890281677246,-0.36152446269989014
1788674701366615300,20.270615234375,9.837775230407715,1.4460978507995605,-0.7086837291717529
1788674701382515000,20.286514892578126,10.802638053894043,1.4867992401123047,-0.8475474119186401
1788674701398384000,20.302384033203126,11.319786071777344,1.3958195447921753,-0.8355764150619507
1788674701414253300,20.31825341796875,11.547234535217285,1.2210428714752197,-0.7613561153411865
1788674701430092000,20.334092041015627,11.748347282409668,0.849941611289978,-0.5674257874488831
1788674701445991700,20.34999169921875,12.191274642944336,0.47644615173339844,-0.4692635238170624
1788674701461891300,20.365891357421877,12.799402236938477,0.7852981686592102,-0.646434485912323
1788674701477791000,20.381791015625,12.67011547088623,1.1563993692398071,-0.47884035110473633
1788674701493721000,20.39772119140625,11.45146656036377,1.0845733880996704,-0.023942016065120697
1788674701509590300,20.41359033203125,10.524910926818848,1.1444283723831177,0.026336219161748886
1788674701525459500,20.42945947265625,10.381258964538574,0.993593692779541,0.07182604819536209
1788674701541328400,20.445328369140626,11.154585838317871,0.20111294090747833,-0.08379705995321274
1788674701557167000,20.4611669921875,12.411541938781738,-0.47165772318840027,-0.3926490843296051
1788674701573036300,20.477036376953127,13.28063678741455,-0.6991068720817566,-0.22026655077934265
1788674701588936000,20.49293603515625,12.27507209777832,-0.8643068075180054,0.038307227194309235
1788674701604835600,20.508835693359377,10.132261276245117,-0.8140285611152649,0.4405331015586853
1788674701620704800,20.524704833984377,8.382100105285645,-0.5410895943641663,0.6153098344802856
1788674701636574000,20.540573974609377,7.560888767242432,-0.10534487664699554,0.5913678407669067
1788674701652473600,20.5564736328125,7.378929615020752,0.3926490843296051,0.5578489899635315
1788674701668342500,20.572342529296876,7.438784599304199,0.5099649429321289,0.42377370595932007
1788674701684211700,20.588211669921876,7.716512203216553,0.47165772318840027,0.22744916379451752
1788674701700081000,20.604080810546876,8.1139497756958,0.4357447028160095,0.10295066982507706
1788674701715980500,20.61998046875,8.65743350982666,0.33997663855552673,-0.023942016065120697
1788674701731880200,20.635880126953126,9.153033256530762,0.33039984107017517,-0.2561795711517334
1788674701747749400,20.651749267578126,9.409213066101074,0.42856210470199585,-0.5003881454467773
1788674701763649000,20.66764892578125,9.346963882446289,0.667982280254364,-0.45010992884635925
