time,seconds_elapsed,z,y,x
1788675189873775000,0.230775146484375,0.11759090423583984,0.3583357334136963,0.3237128257751465
1788675189889634800,0.246634765625,-0.13148880004882812,0.3487197160720825,0.5366191267967224
1788675189905759000,0.262759033203125,-0.4341564178466797,0.3281608819961548,0.6196012496948242
1788675189922018000,0.27901806640625,-0.5827713012695312,0.422313928604126,0.4852169156074524
1788675189938171000,0.2951708984375,-0.6202926635742188,0.5154860019683838,0.2961113154888153
1788675189954318600,0.311318603515625,-0.693293571472168,0.5323351621627808,0.10153865814208984
1788675189970521000,0.32752099609375,-0.5613985061645508,0.5235176086425781,-0.12564951181411743
1788675189986645500,0.3436455078125,-0.32406044006347656,0.47506284713745117,-0.16962285339832306
1788675190002908700,0.35990869140625,-0.1558685302734375,0.41669130325317383,-0.26832979917526245
1788675190019064000,0.37606396484375,-0.12995529174804688,0.43176841735839844,-0.3273144066333771
1788675190035210800,0.392210693359375,0.00373077392578125,0.44896018505096436,-0.41165590286254883
1788675190051373000,0.408373046875,0.10937976837158203,0.44531726837158203,-0.3439115583896637
1788675190067496000,0.424495849609375,0.01629161834716797,0.3761948347091675,-0.23936326801776886
1788675190083773400,0.4407734375,-0.03491783142089844,0.35963475704193115,-0.1695995032787323
1788675190099960300,0.456960205078125,-0.038277626037597656,0.4201076030731201,-0.06260263919830322
1788675190116100900,0.473100830078125,-0.010031700134277344,0.4957970380783081,-0.09215579926967621
1788675190132281000,0.489281005859375,-0.012028694152832031,0.608031153678894,-0.13645373284816742
1788675190148433700,0.50543359375,0.18020057678222656,0.6197550296783447,-0.35406559705734253
1788675190164671500,0.52167138671875,0.44462108612060547,0.6248487234115601,-0.291378915309906
1788675190180857600,0.537857666015625,0.4987678527832031,0.47503602504730225,-0.16148659586906433
1788675190196999700,0.553999755859375,0.45034122467041016,0.455541729927063,-0.09504389762878418
1788675190213187800,0.570187744140625,0.2943840026855469,0.533828854560852,-0.17476649582386017
1788675190229354000,0.58635400390625,0.09067249298095703,0.566487193107605,-0.1532467007637024
1788675190245607200,0.602607177734375,-0.024793624877929688,0.41727304458618164,-0.014603236690163612
1788675190261758500,0.618758544921875,0.057781219482421875,0.3823899030685425,-0.035669974982738495
1788675190277901800,0.63490185546875,0.1209268569946289,0.351773738861084,0.021026823669672012
1788675190294102300,0.651102294921875,0.15543174743652344,0.31157004833221436,-0.0023884475231170654
1788675190310224000,0.667223876953125,0.1400775909423828,0.3343963623046875,-0.011319614946842194
1788675190326482000,0.68348193359375,0.1490917205810547,0.31052279472351074,-0.08378338068723679
1788675190342631700,0.699631591796875,0.3833017349243164,0.2949402332305908,-0.1423613727092743
1788675190358773200,0.715773193359375,0.7804355621337891,0.25728893280029297,-0.26826757192611694
1788675190374977000,0.73197705078125,1.2426376342773438,0.22933006286621094,-0.5262049436569214
1788675190391093800,0.74809375,1.9886531829833984,0.16127753257751465,-0.7892389297485352
1788675190407332000,0.76433203125,2.5050582885742188,-0.08750581741333008,-0.7643445730209351
1788675190423464000,0.7804638671875,2.4516983032226562,-0.2298140525817871,-0.7163951396942139
1788675190439608000,0.796608154296875,2.1128177642822266,-0.405983567237854,-0.6004104018211365
1788675190455770400,0.812770263671875,-6.7972412109375,0.5830273628234863,-2.149181842803955
1788675190471877000,0.828877197265625,-0.22758102416992188,-0.848273754119873,0.645175576210022
1788675190488141000,0.84514111328125,1.712479591369629,-1.7186329364776611,0.833012580871582
1788675190504270800,0.861270751953125,1.0951957702636719,-0.9967328906059265,0.3329543471336365
1788675190520465200,0.877465087890625,-0.008924484252929688,-0.620640754699707,-0.7867904305458069
1788675190536637000,0.893636962890625,0.35915088653564453,-1.1572526693344116,-0.7560832500457764
1788675190552759300,0.90975927734375,0.3635435104370117,-1.1535406112670898,-0.4130709171295166
1788675190568949500,0.925949462890625,0.06604957580566406,-0.9840958118438721,-0.8895777463912964
1788675190585104600,0.942104736328125,-0.11586380004882812,-0.8913519978523254,-0.7326849699020386
1788675190601250300,0.958250244140625,-0.03752613067626953,-0.949923574924469,-0.6851718425750732
1788675190617428700,0.9744287109375,0.6786270141601562,-0.964017391204834,-0.6906147599220276
1788675190633551000,0.990551025390625,1.199873924255371,-0.8772829174995422,-0.7013530731201172
1788675190649790700,1.006790771484375,1.5218324661254883,-0.8540838360786438,-0.5718978643417358
1788675190665942000,1.02294189453125,1.016514778137207,-0.8952323794364929,-0.20429188013076782
1788675190682091000,1.039091064453125,-0.006930351257324219,-1.021608591079712,0.3492892384529114
1788675190698252800,1.055252685546875,-0.4490966796875,-0.9155392646789551,0.46984606981277466
1788675190714363100,1.071363037109375,-0.4624671936035156,-0.6304208040237427,0.24284180998802185
1788675190730613000,1.087613037109375,-0.4156208038330078,-0.2515050172805786,-0.14132577180862427
1788675190746766000,1.10376611328125,-0.5348939895629883,0.017898082733154297,-0.4184993505477905
1788675190762915300,1.119915283203125,-0.8663825988769531,0.16709113121032715,-0.5498228669166565
1788675190779106800,1.13610693359375,-1.2362785339355469,0.23842096328735352,-0.501753568649292
1788675190795229000,1.15222900390625,-1.3179607391357422,0.3081918954849243,-0.4119488000869751
1788675190811437300,1.168437255859375,-1.185734748840332,0.23771262168884277,-0.3175651431083679
1788675190827593200,1.18459326171875,-0.9637947082519531,0.11852335929870605,-0.10525864362716675
1788675190843740400,1.200740478515625,-0.6121654510498047,0.014729499816894531,-0.03427010774612427
1788675190859943700,1.216943603515625,-0.19394969940185547,0.027249813079833984,0.0026743412017822266
1788675190876064800,1.233064697265625,0.1706085205078125,-0.004081249237060547,0.01805424690246582
1788675190892330000,1.249330078125,0.18141651153564453,-0.06514215469360352,0.17610931396484375
1788675190908482600,1.265482666015625,0.07143020629882812,-0.08803486824035645,0.1813938021659851
1788675190924627500,1.28162744140625,0.13576221466064453,0.09869754314422607,-0.010496020317077637
1788675190940791600,1.29779150390625,0.2611732482910156,0.21819734573364258,-0.18198448419570923
1788675190956909000,1.313908935546875,0.40984439849853516,0.18591535091400146,-0.17354124784469604
1788675190973175600,1.330175537109375,0.6353063583374023,0.24119853973388672,-0.13766849040985107
1788675190989326800,1.346326904296875,0.8618917465209961,0.20915555953979492,-0.1965479850769043
1788675191005474600,1.362474609375,1.1380128860473633,0.2462472915649414,-0.35581499338150024
1788675191021661000,1.378660888671875,1.5907468795776367,0.2333540916442871,-0.59345543384552
1788675191037777700,1.394777587890625,1.794647216796875,0.004187941551208496,-0.5895981788635254
1788675191054007300,1.41100732421875,1.499588966369629,-0.3489041328430176,-0.25624412298202515
1788675191070192400,1.4271923828125,1.2490596771240234,-0.5442434549331665,-0.1129792332649231
1788675191086336000,1.4433359375,1.3288803100585938,-0.43118560314178467,-0.0997544527053833
1788675191102517800,1.459517822265625,1.1559324264526367,-0.34085774421691895,-0.19971099495887756
1788675191118673700,1.475673583984375,0.8418130874633789,-0.23360812664031982,-0.12059938907623291
1788675191134915800,1.491915771484375,0.6522283554077148,-0.2051471471786499,-0.04582875967025757
1788675191151104000,1.50810400390625,0.5744419097900391,-0.38869571685791016,-0.148244708776474
1788675191167249200,1.524249267578125,0.6322450637817383,-0.7443257570266724,-0.06309475004673004
1788675191183439400,1.540439453125,0.8373680114746094,-0.8871828317642212,0.23262736201286316
1788675191199607300,1.556607177734375,0.6392154693603516,-0.9522008895874023,0.44405460357666016
1788675191215857000,1.57285693359375,0.1315011978149414,-1.0218441486358643,0.7233016490936279
1788675191232056300,1.589056396484375,0.037520408630371094,-1.1406058073043823,0.9450168609619141
1788675191248199200,1.60519921875,0.37811851501464844,-1.3636113405227661,1.0687934160232544
1788675191264400600,1.621400634765625,1.0145492553710938,-1.3074620962142944,0.816483736038208
1788675191280521000,1.63752099609375,0.7357263565063477,-1.2611231803894043,0.35899099707603455
1788675191296784100,1.6537841796875,-0.22778701782226562,-1.0366934537887573,-0.1748858392238617
1788675191312939300,1.669939208984375,-0.9599523544311523,-0.7736153602600098,-0.6588357090950012
1788675191329083400,1.68608349609375,-0.9501066207885742,-0.7068623304367065,-0.5266507863998413
1788675191345293300,1.702293212890625,-0.5211753845214844,-0.8866361379623413,0.01528233289718628
1788675191361414700,1.71841455078125,-0.6399736404418945,-1.0514600276947021,0.600923478603363
1788675191377683200,1.73468310546875,-1.2892351150512695,-1.0365450382232666,0.7101585268974304
1788675191393836300,1.750836181640625,-1.235520362854004,-0.6662911176681519,0.34444501996040344
1788675191409980000,1.76697998046875,-0.6243181228637695,-0.24190258979797363,-0.25343894958496094
1788675191426143500,1.7831435546875,-0.12466907501220703,0.01607370376586914,-0.6439779996871948
1788675191442263600,1.799263671875,0.12699127197265625,-0.0005209445953369141,-0.6823208332061768
1788675191458529000,1.815529052734375,0.06690311431884766,-0.07433962821960449,-0.4427338242530823
1788675191474676700,1.8316767578125,0.042354583740234375,-0.04905390739440918,-0.32398027181625366
1788675191490822000,1.84782177734375,0.15642833709716797,0.02457571029663086,-0.4221366047859192
1788675191506991000,1.8639912109375,-0.3859996795654297,0.3148970603942871,-0.7235142588615417
1788675191523113500,1.880113525390625,-5.187698841094971,1.6842200756072998,-2.875236749649048
1788675191539380700,1.896380615234375,-0.053648948669433594,-1.1879403591156006,0.8784417510032654
1788675191555515100,1.91251513671875,-0.40236854553222656,-0.10755741596221924,0.3981371223926544
1788675191571660800,1.928660888671875,0.2895832061767578,-0.05063629150390625,-0.08079558610916138
1788675191587823000,1.944822998046875,0.5766992568969727,-0.06689858436584473,0.3091787099838257
1788675191603938000,1.96093798828125,0.9145879745483398,-0.0499110221862793,0.09375390410423279
1788675191620181500,1.977181396484375,1.4884271621704102,0.18085849285125732,-0.3472289443016052
1788675191636332800,1.993332763671875,2.0065975189208984,0.10725641250610352,-0.4974050521850586
1788675191652477200,2.009477294921875,0.9709911346435547,-0.36436033248901367,-0.3393707871437073
1788675191668665900,2.025665771484375,0.3780813217163086,-0.5505803823471069,0.14292144775390625
1788675191684801000,2.041801025390625,1.6311416625976562,-0.6025991439819336,0.1242629885673523
1788675191701047600,2.058047607421875,2.926175117492676,-0.32274043560028076,0.056509554386138916
1788675191717180400,2.074180419921875,2.7649106979370117,-0.5011452436447144,-0.524036169052124
1788675191733324800,2.09032470703125,1.943455696105957,-0.4876086711883545,-0.44061070680618286
1788675191749522700,2.106522705078125,0.9815988540649414,-0.5262079238891602,-0.7156823873519897
1788675191765645000,2.12264501953125,-0.08037471771240234,-0.7116924524307251,-0.7469974756240845
1788675191781849900,2.138849853515625,-0.6125497817993164,-0.9635988473892212,-0.4278419613838196
1788675191797992200,2.1549921875,0.05532646179199219,-0.9963092803955078,-0.34599047899246216
1788675191814137900,2.171137939453125,0.8128166198730469,-0.9082622528076172,-0.5450692772865295
1788675191830335500,2.18733544921875,1.3932247161865234,-0.9253600835800171,-0.6094431281089783
1788675191846457300,2.203457275390625,1.4510202407836914,-0.9606975317001343,-0.34251123666763306
1788675191862720000,2.219719970703125,0.8445215225219727,-1.2151505947113037,-0.2299128770828247
1788675191878876200,2.235876220703125,0.6431903839111328,-1.252823829650879,0.18468305468559265
1788675191895022300,2.252022216796875,0.44419288635253906,-1.3448030948638916,0.528223991394043
1788675191911227400,2.268227294921875,0.4635496139526367,-1.1678544282913208,0.42725706100463867
1788675191927347200,2.28434716796875,0.6676197052001953,-0.8756567239761353,0.10306614637374878
1788675191943612000,2.30061181640625,0.42165660858154297,-0.7500820159912109,-0.04372483491897583
1788675191959764000,2.316763916015625,-0.04319286346435547,-0.6050924062728882,0.016330480575561523
1788675191975904800,2.33290478515625,-0.584019660949707,-0.6329773664474487,0.05417364835739136
1788675191992076000,2.349075927734375,-1.2797746658325195,-0.6716896295547485,0.26229703426361084
1788675192008229600,2.365229736328125,-1.6071982383728027,-0.6749588251113892,0.31900709867477417
1788675192024469000,2.381468994140625,-0.9816389083862305,-0.5752513408660889,0.0371241569519043
1788675192040593200,2.39759326171875,-0.17656803131103516,-0.36461782455444336,-0.10484248399734497
1788675192056688000,2.413688232421875,-8.646767616271973,0.7913072109222412,-2.7262086868286133
1788675192072876500,2.42987646484375,-3.196450710296631,0.44817328453063965,-1.2821184396743774
1788675192089023500,2.4460234375,-1.144622802734375,-0.6317795515060425,-0.7170194387435913
1788675192105297000,2.462296875,1.0706205368041992,-0.8080339431762695,-0.12834107875823975
1788675192121432000,2.47843212890625,1.8392162322998047,-1.2092572450637817,0.46793681383132935
1788675192137495600,2.49449560546875,0.7086563110351562,-0.47657907009124756,-0.32992231845855713
1788675192153664800,2.510664794921875,-0.3407297134399414,-0.08148181438446045,-0.9427534341812134
1788675192169825800,2.52682568359375,-0.29401302337646484,0.08994674682617188,-0.7985222339630127
1788675192186028000,2.543028076171875,2.053844451904297,-0.3961312770843506,1.371846079826355
1788675192202190300,2.5591904296875,4.555564880371094,-1.4724111557006836,2.215040445327759
1788675192218350300,2.575350341796875,2.5120983123779297,-0.7552694082260132,0.7698498964309692
1788675192234550500,2.591550537109375,0.06890869140625,-0.09133315086364746,-0.21351563930511475
1788675192250645200,2.607645263671875,-0.8535699844360352,-0.05093050003051758,-1.174930214881897
1788675192266892000,2.62389208984375,-0.30573177337646484,0.1305372714996338,-1.7346934080123901
1788675192283041000,2.640041015625,0.6685848236083984,0.31673645973205566,-2.200735569000244
1788675192299181800,2.656181884765625,0.9632043838500977,0.40830206871032715,-2.0932111740112305
1788675192315390200,2.67239013671875,0.9914751052856445,0.27860569953918457,-1.4327882528305054
1788675192331530000,2.688530029296875,0.9779739379882812,0.028801918029785156,-0.7647806406021118
1788675192347793200,2.704793212890625,0.7151813507080078,-0.29143500328063965,-0.19516241550445557
1788675192363933700,2.72093359375,0.4236316680908203,-0.7022768259048462,0.21247202157974243
1788675192380077000,2.7370771484375,0.8708391189575195,-0.9722617864608765,0.7323085069656372
1788675192396237300,2.7532373046875,1.427912712097168,-1.1347495317459106,0.5611787438392639
1788675192412351700,2.769351806640625,1.8777313232421875,-0.9720029830932617,0.2265530228614807
1788675192428589300,2.78558935546875,1.8675594329833984,-0.641573429107666,-0.13031631708145142
1788675192444743000,2.801742919921875,1.4196147918701172,-0.4448450803756714,-0.44522666931152344
1788675192460888300,2.817888427734375,0.8663673400878906,-0.43947064876556396,-0.412780225276947
1788675192477054700,2.8340546875,-0.0065784454345703125,-0.5799412727355957,-0.13690054416656494
1788675192493180000,2.850179931640625,-0.36797046661376953,-0.7992076873779297,0.13988018035888672
1788675192509459700,2.866459716796875,-0.45354175567626953,-0.941830039024353,0.2974225580692291
1788675192525612000,2.882612060546875,-0.3266334533691406,-0.8924089670181274,0.2991200387477875
1788675192541758500,2.898758544921875,-0.37934112548828125,-0.8046754598617554,0.4434242844581604
1788675192557929000,2.914928955078125,-1.2258119583129883,-0.4087938070297241,0.08314180374145508
1788675192574049800,2.9310498046875,-1.8937945365905762,-0.19708776473999023,0.09387290477752686
1788675192590242800,2.947242919921875,-2.1509270668029785,0.0344388484954834,0.108146071434021
1788675192606377200,2.963377197265625,-1.901390552520752,0.251733660697937,0.09228971600532532
1788675192622521600,2.979521484375,-0.946284294128418,0.2709348201751709,0.22852283716201782
1788675192638703900,2.995703857421875,-0.34542083740234375,0.027936935424804688,0.48366662859916687
1788675192654824700,3.01182470703125,-0.35062408447265625,-0.0708761215209961,0.44092708826065063
1788675192671073500,3.028073486328125,-0.6081418991088867,0.15135347843170166,-0.10898202657699585
1788675192687148300,3.044148193359375,-0.5323867797851562,0.31462788581848145,-0.35692155361175537
1788675192703296000,3.0602958984375,-0.052084922790527344,0.3995096683502197,-0.40149444341659546
1788675192719495700,3.07649560546875,0.4589958190917969,0.2712453603744507,-0.17619997262954712
1788675192735620600,3.09262060546875,0.6111087799072266,0.16974890232086182,0.027394473552703857
1788675192751829200,3.108829345703125,0.27767276763916016,0.1205517053604126,0.050547003746032715
1788675192767983600,3.124983642578125,-0.2137889862060547,0.06500816345214844,0.14694860577583313
1788675192784141800,3.141141845703125,-0.4347391128540039,0.04120182991027832,0.4093177318572998
1788675192800301300,3.15730126953125,-0.5784168243408203,-0.1553971767425537,0.5386180877685547
1788675192816425700,3.17342578125,-0.34539127349853516,-0.27537620067596436,0.6149066686630249
1788675192832692000,3.18969189453125,0.10330390930175781,-0.4814244508743286,0.31248044967651367
1788675192848844300,3.20584423828125,0.6146392822265625,-0.5004159212112427,-0.08129251003265381
1788675192864990700,3.22199072265625,1.4579944610595703,-0.33919739723205566,-0.1983843445777893
1788675192881152300,3.23815234375,2.134593963623047,-0.3133871555328369,0.2193610668182373
1788675192897258500,3.254258544921875,1.799637794494629,-0.7247008085250854,0.6085923910140991
1788675192913539600,3.27053955078125,0.8280963897705078,-0.8123037815093994,0.9159685373306274
1788675192929693700,3.286693603515625,0.073211669921875,-0.7896530628204346,0.21228522062301636
1788675192945828900,3.302828857421875,0.23180294036865234,-0.839256763458252,-0.4722605347633362
1788675192962012200,3.31901220703125,1.4315900802612305,-0.9497479200363159,-0.8676008582115173
1788675192978147800,3.33514794921875,2.883173942565918,-0.7620733976364136,-1.175600290298462
1788675192994418000,3.35141796875,3.3587121963500977,-0.8547617197036743,-1.220279335975647
1788675193010555600,3.3675556640625,2.6279029846191406,-0.984667181968689,-0.7286518216133118
1788675193026690800,3.38369091796875,0.9914417266845703,-1.167367696762085,-0.046295881271362305
1788675193042876000,3.3998759765625,-0.4040660858154297,-1.1770460605621338,0.2580631375312805
1788675193059014400,3.416014404296875,-0.9295873641967773,-0.9777933359146118,0.14955812692642212
1788675193075294000,3.4322939453125,-1.0514516830444336,-0.8287664651870728,-0.043693602085113525
1788675193091480600,3.44848046875,-0.7251873016357422,-0.9785470962524414,0.2615218162536621
1788675193107629600,3.464629638671875,-0.047036170959472656,-1.0685136318206787,0.6720076203346252
1788675193123820000,3.480820068359375,0.5680198669433594,-1.1367014646530151,0.795637845993042
1788675193139990500,3.496990478515625,0.9273147583007812,-0.9614545106887817,0.789408802986145
1788675193156194600,3.513194580078125,0.45378875732421875,-0.6033535003662109,0.19944354891777039
1788675193172386000,3.529385986328125,-0.5670499801635742,-0.23746240139007568,-0.3066575527191162
1788675193188532500,3.545532470703125,-10.8955078125,0.7462178468704224,-3.5128278732299805
1788675193204729900,3.561729736328125,-7.628378868103027,1.1029934883117676,-0.9605885744094849
1788675193220834300,3.577834228515625,-0.7030458450317383,-0.5019619464874268,0.008224517107009888
1788675193237078300,3.594078369140625,3.4620437622070312,-0.11153841018676758,-0.23655113577842712
1788675193253213400,3.61021337890625,3.1091251373291016,0.03731417655944824,-0.6727465391159058
1788675193269360400,3.6263603515625,1.5217533111572266,0.2692323923110962,-0.8491694331169128
1788675193285567200,3.642567138671875,0.08378028869628906,0.04549074172973633,-0.556892454624176
1788675193301674200,3.65867431640625,-1.021407127380371,0.0014466047286987305,-0.557939887046814
1788675193317910800,3.674910888671875,-1.1865119934082031,0.20122957229614258,-0.3991333246231079
1788675193334046500,3.69104638671875,-0.33678245544433594,0.4095550775527954,-0.3926039934158325
1788675193350192000,3.707192138671875,0.7090320587158203,0.47194695472717285,-0.4097002148628235
1788675193366363600,3.72336376953125,1.7527265548706055,0.5964257717132568,-0.4678301215171814
1788675193382498800,3.739498779296875,2.235563278198242,0.67653489112854,-0.5707994103431702
1788675193398754000,3.755754150390625,2.218515396118164,0.7614103555679321,-0.6265060305595398
1788675193414892500,3.771892578125,1.587656021118164,0.7086746692657471,-0.710282564163208
1788675193431036200,3.7880361328125,1.0783443450927734,0.5778728723526001,-0.6094256043434143
1788675193447207000,3.80420703125,0.9232406616210938,0.3029118776321411,-0.4924156665802002
1788675193463324200,3.82032421875,1.4095001220703125,0.16452562808990479,-0.3885893225669861
1788675193479557400,3.836557373046875,1.7387104034423828,0.3609001636505127,-0.5330290794372559
1788675193495709200,3.852709228515625,1.4971075057983398,0.48271405696868896,-0.9412838220596313
1788675193511855600,3.868855712890625,1.2212333679199219,0.4274172782897949,-0.7176358699798584
1788675193528035000,3.88503515625,0.6237268447875977,-0.009726881980895996,-0.33664801716804504
1788675193544158500,3.901158447265625,-0.20086002349853516,-0.6108911037445068,0.04810291528701782
1788675193560402200,3.917402099609375,-0.3220958709716797,-0.8293493986129761,0.41780978441238403
1788675193576553500,3.933553466796875,0.5025310516357422,-0.9040077924728394,0.5167423486709595
1788675193592699400,3.949699462890625,1.0999536514282227,-0.8251363039016724,0.42505085468292236
1788675193608888300,3.965888427734375,1.39764404296875,-0.8040133714675903,0.4552343487739563
1788675193624994600,3.98199462890625,1.0695438385009766,-0.6284776926040649,0.5280829071998596
1788675193641244000,3.998243896484375,0.19854164123535156,-0.5738565921783447,0.49377772212028503
1788675193657397000,4.01439697265625,-0.6310272216796875,-0.6820743083953857,0.7218446731567383
1788675193673543200,4.030543212890625,-1.0643930435180664,-0.8700928688049316,0.7396318912506104
1788675193689744100,4.046744140625,-1.0171403884887695,-0.8906459808349609,0.5814571380615234
1788675193705835500,4.06283544921875,-0.9378652572631836,-0.808963418006897,0.45402389764785767
1788675193722098400,4.079098388671875,-0.6429262161254883,-0.5920993089675903,0.2048831284046173
1788675193738252800,4.095252685546875,-0.6273937225341797,-0.3700069189071655,0.11807508021593094
1788675193754398200,4.111398193359375,-0.6731901168823242,-0.16986143589019775,0.14500923454761505
1788675193770606300,4.1276064453125,-0.9853506088256836,-0.1735372543334961,0.5263140201568604
1788675193786730500,4.14373046875,-1.6265687942504883,-0.20993542671203613,0.6054391264915466
1788675193802999000,4.1599990234375,-2.0028281211853027,-0.19763422012329102,0.5609190464019775
1788675193819152400,4.17615234375,-1.9669451713562012,-0.13055527210235596,0.5902289748191833
1788675193835297800,4.1922978515625,-1.1112117767333984,0.15450584888458252,-0.8432052135467529
1788675193851460400,4.20846044921875,-1.5625982284545898,0.8863513469696045,-0.7274654507637024
1788675193867489500,4.224489501953125,-1.1499176025390625,0.7182536125183105,-1.179330587387085
1788675193883765800,4.240765869140625,-0.2401723861694336,0.9433060884475708,-1.2325191497802734
1788675193899906800,4.25690673828125,-0.1603860855102539,0.8075745105743408,-1.032941460609436
1788675193916051200,4.27305126953125,-0.34974002838134766,0.2826881408691406,-0.3315189480781555
1788675193932235000,4.289235107421875,-0.5037240982055664,-0.05023825168609619,0.5353327393531799
1788675193948391400,4.305391357421875,-0.15241050720214844,-0.23786652088165283,1.0025137662887573
1788675193964618800,4.32161865234375,0.5997514724731445,-0.12248039245605469,1.0202699899673462
1788675193980765200,4.33776513671875,0.8945293426513672,-0.17147612571716309,0.720079779624939
1788675193996927700,4.353927734375,0.22592639923095703,0.6282916069030762,0.3761667013168335
1788675194013115100,4.370115234375,0.6102104187011719,0.3880321979522705,-1.3792800903320312
1788675194029282000,4.386281982421875,1.8590984344482422,-0.20287621021270752,-0.650502622127533
1788675194045529600,4.402529541015625,2.747028350830078,-1.1908156871795654,-0.044638484716415405
1788675194061714200,4.418714111328125,2.1734752655029297,-1.428617000579834,1.1472764015197754
1788675194077863400,4.434863525390625,1.4206457138061523,-0.48529112339019775,0.011317001655697823
1788675194094061300,4.451061279296875,1.50482177734375,0.17151033878326416,-1.562652826309204
1788675194110173700,4.467173583984375,1.9541501998901367,-0.6147425174713135,-1.797833800315857
1788675194126365200,4.483365234375,2.050898551940918,-1.093336582183838,-0.8784170746803284
1788675194142509000,4.499509033203125,1.2294559478759766,-0.016506433486938477,2.082669496536255
1788675194158658600,4.515658447265625,0.3428001403808594,-0.4922294616699219,2.295616626739502
1788675194174869200,4.531869140625,0.10563087463378906,-0.10049629211425781,1.1296255588531494
1788675194190968300,4.54796826171875,-0.08908653259277344,0.20413458347320557,0.004204869270324707
1788675194207101700,4.564101806640625,-0.6919651031494141,-0.1300795078277588,-0.1968711018562317
1788675194223251200,4.580251220703125,-0.6273345947265625,-0.44274771213531494,-0.4069613814353943
1788675194239402800,4.59640283203125,0.10724353790283203,-0.5473892092704773,-0.5731501579284668
1788675194255616500,4.612616455078125,0.5843715667724609,-0.7171152234077454,-0.5729308724403381
1788675194271740000,4.628739990234375,0.6376066207885742,-0.7734788060188293,-0.1345091164112091
1788675194287983600,4.644983642578125,0.3743457794189453,-0.5100599527359009,0.14118769764900208
1788675194304113000,4.66111279296875,-0.21964550018310547,-0.4540265202522278,0.19044294953346252
1788675194320260900,4.6772607421875,-0.8334293365478516,-0.407282292842865,-0.1897939145565033
1788675194336428800,4.6934287109375,-1.053095817565918,-0.11762070655822754,-0.6976325511932373
1788675194352551000,4.709551025390625,-1.32232666015625,0.04125070571899414,-0.7804431915283203
1788675194368816000,4.725816162109375,-1.6069660186767578,0.06950068473815918,-0.5955675840377808
1788675194384970500,4.741970458984375,-1.6703805923461914,0.1393669843673706,-0.39541518688201904
1788675194401118700,4.75811865234375,-1.5321874618530273,0.22353267669677734,-0.3485527038574219
1788675194417293600,4.77429345703125,-1.080153465270996,0.2736896276473999,-0.29075491428375244
1788675194433414100,4.7904140625,-0.4408750534057617,0.20399582386016846,-0.08743858337402344
1788675194449654000,4.806654052734375,-0.027791976928710938,0.10932719707489014,0.22476881742477417
1788675194465808000,4.822807861328125,0.05357170104980469,0.09071004390716553,0.32155781984329224
1788675194481955300,4.838955322265625,-0.009127616882324219,0.11322557926177979,0.1493280529975891
1788675194498128400,4.85512841796875,-0.1311931610107422,0.04664170742034912,-0.11864721775054932
1788675194514249700,4.871249755859375,-0.049431800842285156,0.18066871166229248,-0.4296424388885498
1788675194530495200,4.8874951171875,0.4027547836303711,0.3223264217376709,-0.7235291004180908
1788675194546647600,4.9036474609375,0.9850187301635742,0.29891037940979004,-0.8758801221847534
1788675194562791200,4.919791259765625,1.633382797241211,0.13851070404052734,-0.705717146396637
1788675194578996200,4.935996337890625,1.960165023803711,0.007261753082275391,-0.30933141708374023
1788675194595117600,4.95211767578125,2.298102378845215,-0.24229979515075684,0.14313867688179016
1788675194611306200,4.96830615234375,2.7451400756835938,-0.4473416805267334,0.30843305587768555
1788675194627441200,4.984441162109375,2.448455810546875,-0.5502880811691284,0.06093627214431763
1788675194643586300,5.00058642578125,1.916703224182129,-0.5863680839538574,-0.250570148229599
1788675194659783200,5.016783203125,1.5429821014404297,-0.612836480140686,-0.16399669647216797
1788675194675902500,5.03290234375,1.5821733474731445,-0.861851692199707,0.19728922843933105
1788675194692158700,5.04915869140625,2.1014604568481445,-1.0909701585769653,0.36296677589416504
1788675194708295400,5.06529541015625,2.4804420471191406,-1.098461627960205,0.38845396041870117
1788675194724444000,5.08144384765625,2.000528335571289,-1.0545589923858643,0.13620084524154663
1788675194740621600,5.09762158203125,0.9839572906494141,-0.8435607552528381,-0.3510587811470032
1788675194756744200,5.113744140625,-0.16836261749267578,-0.6610777378082275,-0.5050703287124634
1788675194773000400,5.13000048828125,-1.023672103881836,-0.5227649211883545,-0.3553104102611542
1788675194789147600,5.146147705078125,-1.3832788467407227,-0.34949004650115967,-0.11355915665626526
1788675194805291500,5.16229150390625,-1.2865571975708008,-0.29810571670532227,0.24190998077392578
1788675194821454800,5.178454833984375,-1.044663429260254,-0.2932250499725342,0.5811930894851685
1788675194837576700,5.19457666015625,-0.8160562515258789,-0.27032649517059326,0.5953318476676941
1788675194853850600,5.2108505859375,-0.8482170104980469,-0.312494158744812,0.3345538377761841
1788675194870032100,5.2270322265625,-1.0196332931518555,-0.316312313079834,-0.12750673294067383
1788675194886179800,5.243179931640625,-1.2218875885009766,-0.22314846515655518,-0.28879401087760925
1788675194902358000,5.25935791015625,-1.4529094696044922,-0.03456425666809082,-0.4034634828567505
1788675194918510000,5.275510009765625,-1.5462045669555664,0.11599993705749512,-0.5598747134208679
1788675194934743800,5.291743896484375,-1.3549747467041016,0.17350947856903076,-0.7741041779518127
1788675194950894800,5.307894775390625,-1.0609006881713867,0.2577502727508545,-0.6232832670211792
1788675194967039500,5.32403955078125,-0.9466104507446289,0.32312464714050293,-0.2560655176639557
1788675194983224300,5.340224365234375,-1.003326416015625,0.40604639053344727,-0.012893080711364746
1788675194999345700,5.356345703125,-0.9810018539428711,0.503914475440979,0.1660115122795105
1788675195015588400,5.37258837890625,-0.8224163055419922,0.5358343124389648,0.2997792363166809
1788675195031783200,5.388783203125,-0.6130475997924805,0.5311826467514038,0.3682295083999634
1788675195047927800,5.404927734375,-0.48201656341552734,0.5816183090209961,0.28118616342544556
1788675195064128800,5.421128662109375,-0.25664520263671875,0.6225663423538208,0.09353989362716675
1788675195080248000,5.437248046875,0.04140472412109375,0.6075047254562378,-0.03753089904785156
1788675195096455000,5.453454833984375,0.3195381164550781,0.6683275699615479,0.05149340629577637
1788675195112605700,5.469605712890625,0.5793247222900391,0.7543900012969971,0.11742115020751953
1788675195128750300,5.485750244140625,0.6740760803222656,0.7076326608657837,0.03978639841079712
1788675195144926200,5.50192626953125,0.9172182083129883,0.4319608211517334,-0.1498977541923523
1788675195161046300,5.51804638671875,1.1788921356201172,0.15143918991088867,-0.019186794757843018
1788675195177260300,5.53426025390625,1.4401235580444336,-0.08539223670959473,0.4366045594215393
1788675195193413000,5.5504130859375,1.6858673095703125,-0.23012638092041016,0.6797993183135986
1788675195209559000,5.56655908203125,1.6970205307006836,-0.2647331953048706,0.4589301347732544
1788675195225766400,5.582766357421875,1.7160024642944336,-0.44705867767333984,-0.011295169591903687
1788675195241886200,5.59888623046875,1.9025630950927734,-0.5803253650665283,-0.32000666856765747
1788675195258147300,5.615147216796875,2.145061492919922,-0.8447812795639038,-0.025456249713897705
1788675195274281000,5.631281005859375,2.6015682220458984,-1.21970534324646,0.31960245966911316
1788675195290424300,5.64742431640625,2.935138702392578,-1.3060765266418457,0.10841748118400574
1788675195306587600,5.663587646484375,2.6608266830444336,-1.2250871658325195,-0.31108471751213074
1788675195322691800,5.67969189453125,1.7527294158935547,-1.078537940979004,-0.6078557372093201
1788675195338963200,5.695963134765625,0.6392593383789062,-0.888507604598999,-0.7379099130630493
1788675195355096300,5.712096435546875,-0.18915081024169922,-0.7455751895904541,-0.7034753561019897
1788675195371239400,5.728239501953125,-0.5430574417114258,-0.6723926067352295,-0.5430710315704346
1788675195387410400,5.744410400390625,-0.6196012496948242,-0.5828626155853271,-0.2734893560409546
1788675195403532500,5.760532470703125,-0.44579315185546875,-0.49232280254364014,0.13305187225341797
1788675195419765800,5.776765869140625,-0.25281524658203125,-0.4219561815261841,0.46657589077949524
1788675195435915800,5.792915771484375,-0.6302871704101562,-0.49024271965026855,0.3980361223220825
1788675195452061700,5.809061767578125,-1.198317527770996,-0.5292220115661621,-0.11665305495262146
1788675195468243000,5.825242919921875,-1.608602523803711,-0.5155225992202759,-0.5861559510231018
1788675195484366000,5.841365966796875,-1.8732624053955078,-0.44370973110198975,-0.8233376145362854
1788675195500562400,5.8575625,-1.8692007064819336,-0.28793835639953613,-0.8116592168807983
1788675195516718800,5.87371875,-1.6727180480957031,-0.13277053833007812,-0.6642429828643799
1788675195532866300,5.8898662109375,-1.1493043899536133,-0.142051100730896,-0.5532290935516357
1788675195549052200,5.90605224609375,-0.7581853866577148,-0.16880714893341064,-0.5551795363426208
1788675195565172200,5.922172119140625,-0.5833263397216797,-0.1211552619934082,-0.43579450249671936
1788675195581414100,5.9384140625,-0.39129066467285156,-0.04810893535614014,-0.26821595430374146
1788675195597554400,5.954554443359375,-0.18785762786865234,-0.029584050178527832,-0.17600670456886292
1788675195613672400,5.97067236328125,0.008676528930664062,-0.05758190155029297,-0.19336628913879395
1788675195629863700,5.98686376953125,-0.11175823211669922,-0.042295098304748535,-0.1634114682674408
1788675195645985300,6.0029853515625,-0.44222450256347656,0.06771743297576904,-0.12990733981132507
1788675195662235600,6.019235595703125,-0.635035514831543,0.3064838647842407,-0.20588696002960205
1788675195678387500,6.035387451171875,-0.4291801452636719,0.4548072814941406,-0.3810092806816101
1788675195694528800,6.05152880859375,0.09473037719726562,0.3769702911376953,-0.41703489422798157
1788675195710705700,6.06770556640625,0.9167137145996094,0.17689454555511475,-0.24018599092960358
1788675195726824000,6.083823974609375,1.2117042541503906,-0.25249361991882324,-0.30648475885391235
1788675195743089000,6.1000888671875,2.420146942138672,-0.36682868003845215,-0.10704758763313293
1788675195759222800,6.116222900390625,2.637765884399414,-0.6168445348739624,0.0008850693702697754
1788675195775369000,6.132368896484375,2.8590593338012695,-0.6288042068481445,-0.22867262363433838
1788675195791534000,6.1485341796875,2.4506301879882812,-0.45851945877075195,-0.4307660460472107
1788675195807640300,6.164640380859375,1.7279376983642578,-0.49960458278656006,-0.33439821004867554
1788675195823908600,6.18090869140625,1.1231889724731445,-0.5438072681427002,-0.05238461494445801
1788675195840072700,6.19707275390625,1.014643669128418,-0.6659930944442749,0.30180448293685913
1788675195856221000,6.213220947265625,1.264460563659668,-0.7741994857788086,0.547125518321991
1788675195872403200,6.2294033203125,1.4711551666259766,-0.6818599700927734,0.37911301851272583
1788675195888562700,6.245562744140625,1.4909095764160156,-0.7440050840377808,0.23133277893066406
1788675195904800000,6.261800048828125,1.2492122650146484,-0.9032354354858398,0.1391403079032898
1788675195920993000,6.277992919921875,0.586207389831543,-0.8951900601387024,0.02037942409515381
1788675195937138200,6.29413818359375,-0.09958839416503906,-0.7268049716949463,-0.07109582424163818
1788675195953325000,6.310324951171875,-0.671442985534668,-0.6739293336868286,-0.1448068618774414
1788675195969446100,6.326446044921875,-0.9617023468017578,-0.5267195701599121,-0.23472565412521362
1788675195985690000,6.342690185546875,-1.0853443145751953,-0.3000601530075073,-0.18893516063690186
1788675196001886500,6.358886474609375,-1.012868881225586,-0.22649478912353516,0.05385333299636841
1788675196018030800,6.37503076171875,-1.1792535781860352,-0.24582183361053467,0.07217922806739807
1788675196034228700,6.391228759765625,-1.4171533584594727,-0.21021294593811035,-0.15810039639472961
1788675196050336800,6.407336669921875,-1.4928178787231445,-0.0523221492767334,-0.35027316212654114
1788675196066596600,6.4235966796875,-1.442540168762207,0.12565505504608154,-0.2862575650215149
1788675196082727400,6.4397275390625,-1.4701108932495117,0.21336185932159424,-0.21501508355140686
1788675196098875100,6.455875244140625,-1.5737924575805664,0.12320137023925781,-0.17925997078418732
1788675196115086300,6.47208642578125,-1.4986190795898438,-0.013235092163085938,-0.1276712715625763
1788675196131204400,6.488204345703125,-1.1591596603393555,-0.0008832216262817383,-0.04463264346122742
1788675196147469600,6.504469482421875,-0.6631593704223633,0.09799468517303467,-0.040089964866638184
1788675196163623200,6.520623046875,-0.24654388427734375,0.23552989959716797,-0.0016433894634246826
1788675196179767600,6.536767578125,0.02264881134033203,0.28418731689453125,0.3029632568359375
1788675196195930000,6.55293017578125,0.045093536376953125,0.35904228687286377,0.5678658485412598
1788675196212052500,6.569052490234375,-0.11194229125976562,0.4836639165878296,0.5173649787902832
1788675196228322300,6.585322265625,-0.19982242584228516,0.700697660446167,0.3440916836261749
1788675196244477000,6.601476806640625,-0.18379974365234375,0.7943899631500244,0.16846200823783875
1788675196260653000,6.617653076171875,-0.03979301452636719,0.823330283164978,-0.034238964319229126
1788675196276824000,6.633823974609375,0.42739391326904297,0.7618124485015869,-0.19732755422592163
1788675196292948500,6.649948486328125,1.215714454650879,0.38020026683807373,-0.0686875432729721
1788675196309199000,6.66619921875,2.1188249588012695,-0.1686561107635498,0.35396432876586914
1788675196325335800,6.682335693359375,2.760669708251953,-0.5426026582717896,0.5575017929077148
1788675196341483300,6.698483154296875,2.5257434844970703,-0.6046566963195801,0.5008357167243958
1788675196357658000,6.714658203125,1.7423229217529297,-0.5757730007171631,0.07411178946495056
1788675196373778200,6.730778076171875,1.4316062927246094,-0.4435243606567383,-0.20669987797737122
1788675196390012000,6.747011962890625,1.7601451873779297,-0.4926968812942505,0.10146133601665497
1788675196406149000,6.763149169921875,2.3248329162597656,-0.8716373443603516,0.5447418689727783
1788675196422296600,6.779296630859375,2.5119094848632812,-1.122991919517517,0.26382094621658325
1788675196438481000,6.79548095703125,2.2400941848754883,-1.0163390636444092,-0.37683385610580444
1788675196454585000,6.811585205078125,1.5111446380615234,-0.9712458848953247,-0.5219831466674805
1788675196470791200,6.827791259765625,0.7899398803710938,-0.8850795030593872,-0.46151548624038696
1788675196486943500,6.843943603515625,0.20338916778564453,-0.7280765771865845,-0.47371524572372437
1788675196503091700,6.860091796875,0.016837120056152344,-0.6178761720657349,-0.4209057092666626
1788675196519285800,6.87628564453125,-0.10927867889404297,-0.5222867727279663,-0.14463965594768524
1788675196535408000,6.892408203125,-0.30643558502197266,-0.43476200103759766,0.12920668721199036
1788675196551662600,6.90866259765625,-0.5729360580444336,-0.39755308628082275,0.32040515542030334
1788675196567818800,6.92481884765625,-1.0925168991088867,-0.3890739679336548,0.28151771426200867
1788675196583967500,6.940967529296875,-1.6764311790466309,-0.3269782066345215,-0.09407135844230652
1788675196600172300,6.95717236328125,-2.0969533920288086,-0.1698760986328125,-0.5085477828979492
1788675196616271400,6.973271240234375,-2.166990280151367,-0.02552926540374756,-0.6974702477455139
1788675196632522500,6.9895224609375,-1.9308791160583496,0.12749457359313965,-0.7040168046951294
1788675196648680700,7.0056806640625,-1.6443147659301758,0.15026628971099854,-0.42751646041870117
1788675196664830700,7.021830810546875,-1.1896648406982422,0.12978267669677734,-0.13662150502204895
1788675196681043500,7.03804345703125,-0.6577053070068359,0.1826016902923584,0.07422813773155212
1788675196697166800,7.054166748046875,-0.3166322708129883,0.2392348051071167,0.16046041250228882
1788675196713435100,7.07043505859375,-0.04509162902832031,0.22514116764068604,0.08514514565467834
1788675196729589500,7.086589599609375,0.16549396514892578,0.13779544830322266,-0.0681881308555603
1788675196745738000,7.102738037109375,0.248779296875,0.03115057945251465,-0.16930432617664337
1788675196761907500,7.118907470703125,0.11788177490234375,0.08039379119873047,-0.16307204961776733
1788675196778058200,7.135058349609375,-0.3017873764038086,0.2132481336593628,-0.10261043906211853
1788675196794294300,7.151294189453125,-0.7179718017578125,0.39158332347869873,-0.2767791152000427
1788675196810479600,7.167479736328125,-0.691166877746582,0.5818392038345337,-0.497653067111969
1788675196826625000,7.183625,-0.09751224517822266,0.5394706726074219,-0.40262293815612793
1788675196842814700,7.199814697265625,0.8069725036621094,0.3035624027252197,-0.2151055932044983
1788675196858975000,7.21597509765625,1.7520675659179688,-0.07360398769378662,0.0706724226474762
1788675196875251200,7.232251220703125,2.041581153869629,-0.3506835699081421,0.2771509885787964
1788675196891423700,7.248423828125,2.072333335876465,-0.5326300859451294,0.2138463854789734
1788675196907567400,7.2645673828125,2.099644660949707,-0.563399076461792,-0.0158064067363739
1788675196923762000,7.280761962890625,1.7913942337036133,-0.5794309377670288,-0.23972342908382416
1788675196939925000,7.296925048828125,1.5359668731689453,-0.5793566703796387,-0.3150162398815155
1788675196956172000,7.313172119140625,1.3810253143310547,-0.6724581718444824,0.1097402274608612
1788675196972325400,7.329325439453125,1.4234552383422852,-0.9297913312911987,0.7232240438461304
1788675196988470500,7.345470458984375,1.913884162902832,-0.9860339760780334,1.1556819677352905
1788675197004671200,7.361671142578125,1.9968900680541992,-0.9274703860282898,1.074932336807251
1788675197020791000,7.377791015625,1.4543571472167969,-0.9321909546852112,0.637702226638794
1788675197037042200,7.394042236328125,0.619999885559082,-0.8542467355728149,0.23181653022766113
1788675197053191700,7.410191650390625,-0.09357547760009766,-0.7553197145462036,0.01664087176322937
1788675197069334000,7.426333984375,-0.3250389099121094,-0.6124691963195801,0.14955025911331177
1788675197085543000,7.44254296875,-0.49808216094970703,-0.474090576171875,0.3193885385990143
1788675197101660700,7.45866064453125,-0.7161273956298828,-0.298359751701355,0.39145606756210327
1788675197117920300,7.474920166015625,-1.0636510848999023,-0.17173707485198975,0.3525512218475342
1788675197134069800,7.49106982421875,-1.356210708618164,-0.13167202472686768,0.1854221224784851
1788675197150215200,7.507215087890625,-1.589980125427246,-0.17331230640411377,-0.02201324701309204
1788675197166381600,7.523381591796875,-1.6681108474731445,-0.1276785135269165,-0.30883440375328064
1788675197182502100,7.539502197265625,-1.6028871536254883,-0.040143728256225586,-0.5007573962211609
1788675197198777300,7.55577734375,-1.4393329620361328,0.15603196620941162,-0.5566122531890869
1788675197214927600,7.571927734375,-1.3350582122802734,0.2931734323501587,-0.5234876871109009
1788675197231071500,7.588071533203125,-1.2589340209960938,0.3998678922653198,-0.5301445722579956
1788675197247240400,7.604240478515625,-1.051065444946289,0.4838249683380127,-0.44948428869247437
1788675197263362600,7.620362548828125,-0.737701416015625,0.5491675138473511,-0.18968656659126282
1788675197279638300,7.63663818359375,-0.4141407012939453,0.5151292085647583,0.07709270715713501
1788675197295789300,7.652789306640625,-0.10652828216552734,0.48607027530670166,0.16442358493804932
1788675197311932400,7.668932373046875,0.08243179321289062,0.42202746868133545,0.1759430170059204
1788675197328109600,7.685109619140625,0.133392333984375,0.40081965923309326,-0.06325918436050415
1788675197344228000,7.70122802734375,0.0749044418334961,0.4846850633621216,-0.2676733434200287
1788675197360413000,7.717412841796875,-0.07851409912109375,0.5815771818161011,-0.3993770182132721
1788675197376564000,7.73356396484375,-0.03501605987548828,0.6313741207122803,-0.3541024625301361
1788675197392710400,7.74971044921875,0.33206748962402344,0.48351383209228516,-0.34337174892425537
1788675197408900900,7.76590087890625,0.9513387680053711,0.3682962656021118,-0.46667081117630005
1788675197425047000,7.782047119140625,1.5936899185180664,0.04450118541717529,-0.34006422758102417
1788675197441252400,7.79825244140625,2.023951530456543,-0.3212076425552368,-0.14561909437179565
1788675197457389000,7.81438916015625,2.1416425704956055,-0.4449484348297119,0.09224075078964233
1788675197473529900,7.83052978515625,1.8850860595703125,-0.47339928150177,0.22091010212898254
1788675197489724200,7.84672412109375,1.7138586044311523,-0.6519850492477417,0.09813293814659119
1788675197505841000,7.8628408203125,2.124192237854004,-0.6586039066314697,-0.012657016515731812
1788675197522070800,7.87907080078125,2.9919919967651367,-1.085378885269165,0.1785481870174408
1788675197538205700,7.895205810546875,3.548582077026367,-1.3733546733856201,-0.1004195511341095
1788675197554353000,7.911352783203125,3.154118537902832,-1.3411765098571777,-0.6697012186050415
1788675197570557700,7.9275576171875,1.7761363983154297,-1.1918129920959473,-1.1814093589782715
1788675197586660900,7.943660888671875,0.5376882553100586,-0.9546622037887573,-1.5134634971618652
1788675197602914300,7.959914306640625,-0.38869667053222656,-0.6612221002578735,-1.5289050340652466
1788675197619059200,7.97605908203125,-0.8443355560302734,-0.4903947114944458,-1.197792649269104
1788675197635204600,7.99220458984375,-1.0098447799682617,-0.3285146951675415,-0.895185649394989
1788675197651374800,8.008374755859375,-1.2148361206054688,-0.22513830661773682,-0.642206609249115
1788675197667493400,8.024493408203124,-1.326883316040039,-0.27169620990753174,-0.2856113314628601
1788675197683765500,8.040765625,-1.2190933227539062,-0.3265957832336426,-0.04583728313446045
1788675197699920400,8.05692041015625,-1.0952682495117188,-0.39467453956604004,0.07510513067245483
1788675197716068400,8.073068359375,-1.0280427932739258,-0.35060906410217285,0.013733744621276855
1788675197732239400,8.0892392578125,-1.1834774017333984,-0.2349759340286255,-0.14199039340019226
1788675197748386600,8.105386474609375,-1.3887386322021484,-0.06490302085876465,-0.4779379963874817
1788675197764657700,8.12165771484375,-1.5054731369018555,-0.016347169876098633,-0.6470532417297363
1788675197780841000,8.137841064453125,-1.4328222274780273,-0.005448818206787109,-0.5462072491645813
1788675197796983800,8.15398388671875,-1.1251935958862305,0.09575724601745605,-0.3433363437652588
1788675197813164800,8.170164794921876,-0.7307214736938477,0.20650720596313477,-0.23539185523986816
1788675197829323000,8.186322998046874,-0.35866641998291016,0.2544522285461426,-0.1673475205898285
1788675197845513000,8.202512939453126,-0.18120574951171875,0.20203757286071777,-0.16972237825393677
1788675197861694200,8.218694091796875,-0.15610885620117188,0.06884562969207764,-0.13991275429725647
1788675197877835300,8.234835205078125,-0.11417865753173828,0.027495861053466797,-0.0727132260799408
1788675197894026000,8.25102587890625,-0.09955024719238281,0.08965456485748291,0.0064393579959869385
1788675197910144500,8.26714453125,0.01727294921875,0.21074330806732178,-0.10162666440010071
1788675197926353000,8.283352783203124,0.2865123748779297,0.29417741298675537,-0.34307312965393066
1788675197942552000,8.299552001953124,0.6022558212280273,0.2863534688949585,-0.4471018612384796
1788675197958691600,8.315691650390624,0.9278450012207031,0.14095687866210938,-0.28501200675964355
1788675197974889200,8.33188916015625,1.3085708618164062,-0.03724873065948486,-0.050963401794433594
1788675197991004200,8.348004150390626,1.6491279602050781,-0.14334440231323242,0.2581820785999298
1788675198007256000,8.364256103515626,1.7722740173339844,-0.21215105056762695,0.2302972376346588
1788675198023402000,8.380402099609375,1.8612909317016602,-0.174574613571167,-0.21677958965301514
1788675198039542800,8.396542724609375,1.7625131607055664,-0.13532757759094238,-0.5408428907394409
1788675198055745800,8.412745849609376,1.4569768905639648,-0.1372966766357422,-0.6202265620231628
1788675198071865000,8.428864990234375,1.4068622589111328,0.0040624141693115234,-0.11107474565505981
1788675198088120800,8.445120849609374,1.9300251007080078,-0.26780521869659424,0.8129260540008545
1788675198104256300,8.46125634765625,2.41156005859375,-0.7046054601669312,1.2550523281097412
1788675198120398600,8.477398681640626,2.2846250534057617,-0.890265703201294,0.761800229549408
1788675198136559000,8.49355908203125,1.3098974227905273,-0.9373486638069153,-0.26787707209587097
1788675198152680400,8.509680419921875,0.3231945037841797,-1.0783872604370117,-0.8617328405380249
1788675198168952300,8.525952392578125,-0.13944625854492188,-1.1179335117340088,-0.9744977951049805
1788675198185096000,8.542095947265626,-0.21117210388183594,-1.0021576881408691,-0.5672540068626404
1788675198201240800,8.55824072265625,-0.2453899383544922,-0.8200501203536987,-0.03329557180404663
1788675198217413400,8.574413330078125,-0.48812389373779297,-0.6724156141281128,0.2634204626083374
1788675198233535000,8.590534912109375,-0.9935512542724609,-0.5869117975234985,0.36889123916625977
1788675198249812000,8.60681201171875,-1.4904050827026367,-0.44695520401000977,0.31066304445266724
1788675198265959000,8.622958984375,-1.659306526184082,-0.36249423027038574,0.17180198431015015
1788675198282100500,8.6391005859375,-1.4142322540283203,-0.399619460105896,0.22867900133132935
1788675198298278000,8.65527783203125,-0.9979934692382812,-0.3876248598098755,0.31926071643829346
1788675198314397400,8.6713974609375,-0.7371816635131836,-0.25902891159057617,0.1156417727470398
1788675198330634200,8.68763427734375,-0.7661151885986328,-0.08245539665222168,-0.15629984438419342
1788675198346785300,8.703785400390625,-0.9954156875610352,-0.060910701751708984,-0.038120388984680176
1788675198362928400,8.719928466796874,-1.2340192794799805,0.018292665481567383,0.14345383644104004
1788675198379117600,8.73611767578125,-1.3231172561645508,0.1750011444091797,0.16823691129684448
1788675198395236900,8.75223681640625,-1.2257003784179688,0.21039199829101562,0.25725388526916504
1788675198411479300,8.768479248046875,-0.8778038024902344,0.16663360595703125,0.488435298204422
1788675198427630000,8.784630126953125,-0.4039936065673828,0.08628499507904053,0.7349892854690552
1788675198443775500,8.800775390625,-0.10302162170410156,0.01220238208770752,0.7586921453475952
1788675198459973600,8.8169736328125,0.14175987243652344,0.0351485013961792,0.31965944170951843
1788675198476095200,8.83309521484375,0.3280811309814453,0.0960073471069336,-0.10720103979110718
1788675198492350000,8.849349853515625,0.5495357513427734,0.18780004978179932,-0.4121946096420288
1788675198508500200,8.865500244140625,0.663334846496582,0.37436604499816895,-0.4610307216644287
1788675198524674000,8.881674072265625,0.749730110168457,0.5372183322906494,-0.4347943663597107
1788675198540882200,8.897882080078125,1.154179573059082,0.44824862480163574,-0.25136902928352356
1788675198557005600,8.914005615234375,1.4600639343261719,0.19839835166931152,-0.18444344401359558
1788675198573270800,8.930270751953126,1.8629741668701172,-0.09262287616729736,-0.1306794434785843
1788675198589420800,8.9464208984375,1.6419057846069336,-0.47570085525512695,0.09373527765274048
1788675198605561600,8.9625615234375,1.1229963302612305,-0.42266154289245605,-0.18624113500118256
1788675198621769000,8.97876904296875,1.2827205657958984,-0.1875152587890625,-0.8105472922325134
1788675198637887500,8.994887451171875,1.7725248336791992,-0.26055049896240234,-0.42214351892471313
1788675198654160000,9.011159912109376,1.9653682708740234,-0.3844054937362671,0.29573512077331543
1788675198670293200,9.027293212890624,2.099543571472168,-0.7169457674026489,0.5307136178016663
1788675198686434800,9.043434814453125,1.943333625793457,-0.8306596279144287,0.0380883514881134
1788675198702607000,9.059607177734375,1.4415245056152344,-0.6621854305267334,-0.7135334014892578
1788675198718758700,9.075758544921875,0.7800273895263672,-0.5319336652755737,-0.9061623215675354
1788675198734991400,9.091991455078125,0.1945972442626953,-0.45166587829589844,-0.6659300327301025
1788675198751182600,9.1081826171875,-0.3248405456542969,-0.2961556911468506,-0.38638243079185486
1788675198767330000,9.124330078125,-0.706456184387207,-0.13702940940856934,-0.0724644809961319
1788675198783475000,9.140474853515625,-0.7459430694580078,-0.0704120397567749,0.2543623745441437
1788675198799635500,9.156635498046874,-0.5771627426147461,-0.1357356309890747,0.4294912815093994
1788675198815827000,9.172826904296874,-0.5412750244140625,-0.2854797840118408,0.2635517120361328
1788675198832014300,9.189014404296875,-0.8177995681762695,-0.39009392261505127,-0.08843851089477539
1788675198848157000,9.205156982421874,-1.1315593719482422,-0.3274111747741699,-0.326263427734375
1788675198864343300,9.22134326171875,-1.1404170989990234,-0.17110753059387207,-0.3655664920806885
1788675198880505600,9.237505615234374,-1.004561424255371,-0.01545405387878418,-0.33413276076316833
1788675198896746200,9.253746337890625,-1.113173484802246,0.09271442890167236,-0.48527076840400696
1788675198912898800,9.26989892578125,-1.250828742980957,0.16122007369995117,-0.7168987393379211
1788675198929045200,9.286045166015626,-1.3011970520019531,0.07624161243438721,-0.5745415687561035
1788675198945248800,9.302248779296875,-1.1408653259277344,0.040435194969177246,-0.2614998519420624
1788675198961369000,9.318369140625,-0.6603012084960938,0.07326042652130127,-0.13379499316215515
1788675198977635300,9.33463525390625,-0.30683040618896484,0.08861494064331055,0.05673280358314514
1788675198993788700,9.35078857421875,-0.12824535369873047,0.04996633529663086,0.1875108778476715
1788675199009937200,9.366937255859375,-0.04621124267578125,0.07073163986206055,0.2714323401451111
1788675199026103300,9.383103271484375,0.017861366271972656,0.04694831371307373,0.2570045590400696
1788675199042225700,9.3992255859375,0.0857391357421875,0.01757216453552246,0.07825164496898651
1788675199058483700,9.415483642578126,0.02619647979736328,0.043139100074768066,-0.15846221148967743
1788675199074631000,9.431630859375,0.2226247787475586,0.19216716289520264,-0.27802062034606934
1788675199090772200,9.447772216796874,0.567652702331543,0.36749589443206787,-0.3667874038219452
1788675199106968000,9.463968017578125,0.9322881698608398,0.3640493154525757,-0.23641455173492432
1788675199123088400,9.48008837890625,1.2201862335205078,0.21622538566589355,0.003557451069355011
1788675199139356700,9.496356689453124,1.4860496520996094,0.08852279186248779,0.10753794014453888
1788675199155507000,9.5125068359375,1.6579370498657227,-0.06504297256469727,-0.04127994179725647
1788675199171651000,9.528651123046876,1.8271312713623047,-0.11507165431976318,-0.22059282660484314
1788675199187821000,9.544821044921875,1.6998119354248047,-0.134721040725708,-0.4756099581718445
1788675199203945200,9.5609453125,1.2402238845825195,-0.16440081596374512,-0.33691900968551636
1788675199220163000,9.5771630859375,0.8781318664550781,-0.1558845043182373,-0.026378586888313293
1788675199236303000,9.59330322265625,1.2342300415039062,-0.37608087062835693,0.6496436595916748
1788675199252452400,9.609452392578126,2.177286148071289,-0.5397179126739502,1.142065167427063
1788675199268627500,9.62562744140625,2.4506826400756836,-0.7629485130310059,0.8737034797668457
1788675199284734200,9.641734130859374,1.8362503051757812,-0.7882446050643921,0.029709428548812866
1788675199300929000,9.657928955078125,0.9397048950195312,-0.71349036693573,-0.6124908924102783
1788675199317081300,9.674081298828124,0.13116836547851562,-0.6175448894500732,-0.5636688470840454
1788675199333227800,9.690227783203126,-0.5573616027832031,-0.407867431640625,-0.20953643321990967
1788675199349411600,9.70641162109375,-1.0252923965454102,-0.21906137466430664,0.15723475813865662
1788675199365524000,9.72252392578125,-1.1708965301513672,-0.21560168266296387,0.5607867240905762
1788675199381768700,9.738768798828126,-1.208810806274414,-0.25391948223114014,0.6288411021232605
1788675199397921300,9.75492138671875,-1.2507095336914062,-0.25239861011505127,0.27469420433044434
1788675199414067700,9.771067626953124,-1.066075325012207,-0.2670646905899048,-0.008867654949426651
1788675199430262000,9.787261962890625,-0.9685850143432617,-0.3204646110534668,-0.07670023292303085
1788675199446383400,9.80338330078125,-1.1341962814331055,-0.1682196855545044,-0.2723807096481323
1788675199462636500,9.819636474609375,-1.5169086456298828,0.01395559310913086,-0.2988186180591583
1788675199478793500,9.83579345703125,-2.0391578674316406,0.11937487125396729,-0.25968679785728455
1788675199494930000,9.851929931640624,-2.2984609603881836,0.20805132389068604,-0.21603572368621826
1788675199511089700,9.868089599609375,-1.8417081832885742,0.2732372283935547,-0.11541953682899475
1788675199527212800,9.884212890625,-1.1069755554199219,0.2958242893218994,-0.03816301375627518
1788675199543471400,9.900471435546875,-0.4541006088256836,0.347949743270874,0.09066172689199448
1788675199559626500,9.91662646484375,-0.03508472442626953,0.34348809719085693,0.1765376627445221
1788675199575772700,9.932772705078126,0.19304656982421875,0.2708686590194702,0.36293676495552063
1788675199591932200,9.94893212890625,0.14532852172851562,0.31620121002197266,0.22090451419353485
1788675199608053200,9.96505322265625,0.09889984130859375,0.4924358129501343,0.019581690430641174
1788675199624321300,9.9813212890625,-0.0196990966796875,0.6193511486053467,-0.029203426092863083
1788675199640472000,9.99747216796875,0.03931713104248047,0.760573148727417,-0.0846264585852623
1788675199656646700,10.013646728515624,0.31154727935791016,0.7467076778411865,-0.16684865951538086
1788675199672840700,10.0298408203125,0.893742561340332,0.46143877506256104,-0.2489795982837677
1788675199689009000,10.0460087890625,1.555375099182129,0.07276570796966553,-0.2594453692436218
1788675199705241600,10.06224169921875,2.1731033325195312,-0.25832581520080566,-0.11630485206842422
1788675199721416000,10.078416015625,2.470703125,-0.43968045711517334,0.2712590992450714
1788675199737563000,10.09456298828125,2.256549835205078,-0.3185185194015503,0.4478006362915039
1788675199753753300,10.11075341796875,1.5681324005126953,-0.20647060871124268,0.28824564814567566
1788675199769918200,10.126918212890626,1.248046875,-0.14142978191375732,0.14780330657958984
1788675199786118400,10.143118408203126,1.3550195693969727,-0.17263257503509521,0.2854355275630951
1788675199802312400,10.1593125,1.9759702682495117,-0.5170527696609497,0.5268526673316956
1788675199818457300,10.175457275390626,2.47479248046875,-0.8438354134559631,0.269978791475296
1788675199834651400,10.1916513671875,1.9117298126220703,-0.8066343665122986,-0.41731104254722595
1788675199850774000,10.20777392578125,0.7610197067260742,-0.6560773849487305,-0.7127898931503296
1788675199866995500,10.223995361328125,-0.003960609436035156,-0.48776280879974365,-0.7087247967720032
1788675199883149000,10.240149169921875,-0.05450439453125,-0.36416900157928467,-0.3799416422843933
1788675199899297500,10.256297607421875,0.015677452087402344,-0.23752880096435547,-0.12082545459270477
1788675199915502000,10.272502197265625,-0.010756492614746094,-0.22790074348449707,0.015459828078746796
1788675199931624400,10.28862451171875,-0.15953731536865234,-0.3146268129348755,0.12932568788528442
1788675199947835100,10.304835205078126,-0.41204071044921875,-0.4039539098739624,0.1579512506723404
1788675199963989500,10.320989501953125,-0.7042160034179688,-0.45716702938079834,0.12014972418546677
1788675199980136400,10.337136474609375,-0.9809179306030273,-0.40244555473327637,-0.13091996312141418
1788675199996347400,10.353347412109375,-1.1382341384887695,-0.29526829719543457,-0.3668537735939026
1788675200012467200,10.36946728515625,-1.1386995315551758,-0.19713842868804932,-0.48522791266441345
1788675200028729000,10.38572900390625,-1.180450439453125,-0.14268434047698975,-0.5990754961967468
1788675200044882400,10.40188232421875,-1.3017263412475586,-0.07990455627441406,-0.592904806137085
1788675200061027000,10.418027099609375,-1.4505271911621094,-0.005038261413574219,-0.35762113332748413
1788675200077188000,10.43418798828125,-1.273843765258789,0.06587493419647217,-0.14367488026618958
1788675200093310200,10.450310302734374,-0.8562545776367188,0.010534882545471191,-0.03987769037485123
1788675200109578800,10.466578857421876,-0.4198904037475586,-0.03275883197784424,-0.10852958261966705
1788675200125705200,10.482705322265625,-0.2897939682006836,-0.028941035270690918,-0.17182110249996185
1788675200141852200,10.49885205078125,-0.28931617736816406,-0.04468393325805664,-0.014538319781422615
1788675200158024400,10.5150244140625,-0.1653585433959961,-0.0260312557220459,0.23995910584926605
1788675200174146000,10.53114599609375,-0.0828390121459961,0.0637354850769043,0.36903664469718933
1788675200190381800,10.5473818359375,-0.103302001953125,0.20175015926361084,0.10081169754266739
1788675200206528800,10.56352880859375,-0.1692790985107422,0.31142258644104004,-0.20847979187965393
1788675200222670600,10.579670654296875,0.018238067626953125,0.35794568061828613,-0.3022717833518982
1788675200238845700,10.595845703125,0.5945444107055664,0.13641870021820068,-0.1240183636546135
1788675200254997800,10.611997802734376,1.4628114700317383,-0.26814842224121094,0.07928686589002609
1788675200271231200,10.628231201171875,2.11749267578125,-0.4947969913482666,0.11115173250436783
1788675200287365000,10.644365234375,2.5339794158935547,-0.5839293003082275,-0.2513374090194702
1788675200303509000,10.660509033203125,2.4307641983032227,-0.41227853298187256,-0.6104525327682495
1788675200319693800,10.67669384765625,1.8483734130859375,-0.19224083423614502,-0.5053976774215698
1788675200335817200,10.692817138671876,1.3977947235107422,-0.11878716945648193,-0.01674834080040455
1788675200352063500,10.7090634765625,1.2096281051635742,-0.3904968500137329,0.6862020492553711
1788675200368216800,10.725216796875,1.9565210342407227,-0.6886789798736572,0.950363039970398
1788675200384365300,10.741365234375,3.2940263748168945,-0.5923370122909546,0.7396490573883057
1788675200400566300,10.757566162109375,3.3734025955200195,-0.6734139323234558,0.23761647939682007
1788675200416669700,10.773669677734375,2.053166389465332,-0.5824904441833496,-0.44671523571014404
1788675200432902700,10.789902587890625,0.4351825714111328,-0.447895884513855,-0.6713247299194336
1788675200449036500,10.80603662109375,-0.7139739990234375,-0.39482104778289795,-0.1427065134048462
1788675200465181400,10.822181396484375,-1.1650409698486328,-0.18409621715545654,0.3661002218723297
1788675200481381600,10.838381591796875,-1.3029165267944336,-0.06216394901275635,0.9881119132041931
1788675200497496300,10.854496337890625,-1.486332893371582,-0.13000023365020752,1.2486745119094849
1788675200513757000,10.8707568359375,-1.6341524124145508,-0.19298315048217773,0.8372054100036621
1788675200529909800,10.88690966796875,-1.5218238830566406,-0.3421516418457031,0.3677186071872711
1788675200546057200,10.90305712890625,-1.239109992980957,-0.4254465103149414,0.10703951120376587
1788675200562263300,10.91926318359375,-1.020263671875,-0.3831731081008911,-0.024831822142004967
1788675200578382300,10.93538232421875,-1.1818161010742188,-0.29763031005859375,-0.07442596554756165
1788675200594654000,10.951654052734375,-1.4554977416992188,-0.15550291538238525,-0.07898655533790588
1788675200610832400,10.967832275390625,-1.524083137512207,0.006505608558654785,-0.19948168098926544
1788675200626976500,10.9839765625,-1.496027946472168,0.03208518028259277,-0.09095318615436554
1788675200643155500,11.000155517578126,-1.5011892318725586,0.1280992031097412,-0.09060195088386536
1788675200659278600,11.016278564453126,-1.2197160720825195,0.19216978549957275,0.010097945109009743
1788675200675557000,11.03255712890625,-0.8842964172363281,0.2096388339996338,0.3925562798976898
1788675200691746300,11.048746337890625,-0.45174598693847656,0.2708570957183838,0.5212172865867615
1788675200707889700,11.0648896484375,-0.07383155822753906,0.2437208890914917,0.4925430417060852
1788675200724072700,11.08107275390625,0.09650325775146484,0.1148306131362915,0.2309294193983078
1788675200740225800,11.097225830078125,0.2811737060546875,0.09397530555725098,-0.3058190941810608
1788675200756460800,11.113460693359375,0.544520378112793,0.029775381088256836,-0.5428406596183777
1788675200772653300,11.1296533203125,0.8063211441040039,0.05787992477416992,-0.6676713228225708
1788675200788830500,11.14583056640625,0.8856287002563477,0.1037600040435791,-0.5323654413223267
1788675200805026300,11.1620263671875,1.030217170715332,-0.03612661361694336,-0.15975697338581085
1788675200821194800,11.17819482421875,1.5592308044433594,-0.3370840549468994,0.08799869567155838
1788675200837448200,11.1944482421875,1.8432531356811523,-0.5143685340881348,0.11561958491802216
1788675200853599700,11.210599853515625,1.4043407440185547,-0.44894421100616455,-0.18695098161697388
1788675200869745400,11.226745361328126,0.896183967590332,-0.39150357246398926,-0.24548304080963135
1788675200885952300,11.2429521484375,1.093907356262207,-0.41810715198516846,0.3246058225631714
1788675200902076700,11.25907666015625,2.2504196166992188,-0.6181696653366089,0.7079179286956787
1788675200918322400,11.275322509765624,3.08890438079834,-0.9544196128845215,0.634198009967804
1788675200934457300,11.291457275390625,2.8833141326904297,-1.1171603202819824,-0.09286472946405411
1788675200950605000,11.30760498046875,1.321732521057129,-0.9296189546585083,-0.8774901628494263
1788675200966768400,11.323768310546875,0.02070331573486328,-0.68448805809021,-1.189516305923462
1788675200982873600,11.33987353515625,-0.5188608169555664,-0.4495745897293091,-0.8576776385307312
1788675200999133700,11.3561337890625,-0.4560279846191406,-0.270099401473999,-0.4224318861961365
1788675201015278000,11.372278076171876,-0.18771076202392578,-0.23862826824188232,-0.24190792441368103
1788675201031354400,11.388354248046875,0.22838115692138672,-0.3632395267486572,-0.22372716665267944
1788675201047518500,11.4045185546875,0.41738224029541016,-0.4085885286331177,-0.08025088906288147
1788675201063638500,11.420638427734374,-0.039363861083984375,-0.36216461658477783,-0.03932256996631622
1788675201079915500,11.43691552734375,-0.5578775405883789,-0.36693382263183594,-0.08245640993118286
1788675201096067000,11.453067138671875,-0.9976282119750977,-0.3162081241607666,-0.12829828262329102
1788675201112213000,11.469212890625,-1.1428813934326172,-0.1403425931930542,-0.2812497019767761
1788675201128396000,11.48539599609375,-1.1262855529785156,-0.14174377918243408,-0.33324134349823
1788675201144517400,11.501517333984374,-1.05096435546875,-0.12733209133148193,-0.38082945346832275
1788675201160756700,11.5177568359375,-0.9385213851928711,-0.12187695503234863,-0.242215096950531
1788675201176912000,11.533911865234375,-1.1285638809204102,0.008516192436218262,-0.014640629291534424
1788675201193054000,11.550053955078125,-1.171980857849121,0.08701801300048828,0.004862099885940552
1788675201209231400,11.5662314453125,-1.0941686630249023,0.06630516052246094,0.0015431642532348633
1788675201225355800,11.582355712890624,-0.8094701766967773,0.0576629638671875,0.009697049856185913
1788675201241590800,11.5985908203125,-0.4921226501464844,-0.0017493963241577148,0.047565340995788574
1788675201257747700,11.614747802734374,-0.4238128662109375,0.02255845069885254,0.15362635254859924
1788675201273892900,11.630892822265626,-0.4196739196777344,0.031359195709228516,0.2092834860086441
1788675201290083000,11.6470830078125,-0.5079984664916992,0.06987547874450684,0.149114727973938
1788675201306207200,11.663207275390626,-0.18894481658935547,0.23824596405029297,-0.29566559195518494
1788675201322455000,11.679455078125,0.3271207809448242,0.2953755855560303,-0.09349077939987183
1788675201338606600,11.695606689453125,0.32060909271240234,0.45394444465637207,-0.1850889027118683
1788675201354752500,11.71175244140625,0.42745399475097656,0.15790081024169922,0.08524490892887115
1788675201370943000,11.72794287109375,1.5116243362426758,-0.4886946678161621,0.07640187442302704
1788675201387064800,11.74406494140625,2.147200584411621,-0.3584097623825073,0.20148247480392456
1788675201403309800,11.760309814453125,2.776590347290039,-0.3030916452407837,0.09633323550224304
1788675201419446500,11.776446533203124,2.5967674255371094,-0.2670804262161255,-0.18235138058662415
1788675201435590100,11.792590087890625,1.3251848220825195,0.3088057041168213,-1.4172050952911377
1788675201451734800,11.80873486328125,1.752446174621582,0.1149594783782959,0.030673682689666748
1788675201467797200,11.82479736328125,2.8417158126831055,-0.05365729331970215,0.6737346649169922
1788675201484029000,11.84102880859375,4.00816535949707,-0.18674838542938232,0.9508417844772339
1788675201500164000,11.8571640625,3.6632299423217773,-0.22113466262817383,0.7673231363296509
1788675201516312600,11.8733125,1.804997444152832,-0.43692994117736816,-0.0011992454528808594
1788675201532473000,11.88947314453125,0.02805805206298828,-0.41183900833129883,-0.7424470782279968
1788675201548606200,11.905606201171874,-0.5190029144287109,-0.49086451530456543,-0.5274438858032227
1788675201564867800,11.921867919921874,-0.34966564178466797,-0.5581152439117432,0.21574467420578003
1788675201581036000,11.9380361328125,-0.4499778747558594,-0.42050111293792725,0.9938464164733887
1788675201597183700,11.954183837890625,-2.060302257537842,2.350426197052002,1.6830458641052246
1788675201613370000,11.9703701171875,-1.8015155792236328,-0.7209593057632446,1.228085994720459
1788675201629492500,11.986492431640626,-2.1858162879943848,-0.06534361839294434,0.07216525077819824
1788675201645761300,12.00276123046875,-2.0987629890441895,-0.35071754455566406,0.16829949617385864
1788675201661951200,12.018951171875,-1.551224708557129,-0.3558359146118164,0.08836710453033447
1788675201678099000,12.035098876953125,-1.3516864776611328,-0.23015332221984863,0.11325937509536743
1788675201694289200,12.0512890625,-1.4463825225830078,0.008167862892150879,0.1886085867881775
1788675201710456000,12.0674560546875,-1.6138386726379395,0.19456589221954346,0.12274390459060669
1788675201726702000,12.0837021484375,-1.6665854454040527,0.30378925800323486,0.13831424713134766
1788675201742899200,12.099899169921875,-1.4527311325073242,0.5525808334350586,0.09192818403244019
1788675201759046400,12.11604638671875,-0.8140153884887695,0.6792175769805908,0.3702320456504822
1788675201775246800,12.132246826171874,-0.40163516998291016,0.6245871782302856,0.7023153305053711
1788675201791417900,12.14841796875,-0.4047889709472656,0.6259595155715942,0.9881258606910706
1788675201807671600,12.164671630859376,-0.4420347213745117,0.6086812019348145,0.9597905278205872
1788675201823828000,12.180827880859376,-0.22265243530273438,0.5074799060821533,0.6828552484512329
1788675201839976700,12.196976806640626,0.267303466796875,0.4135270118713379,0.40002691745758057
1788675201856161800,12.213161865234374,0.7494077682495117,0.38051652908325195,0.05930408835411072
1788675201872284400,12.229284423828124,0.9254436492919922,0.43706679344177246,-0.11736422777175903
1788675201888543000,12.24554296875,0.9075374603271484,0.3801400661468506,-0.10648083686828613
1788675201904696300,12.2616962890625,0.6903953552246094,0.16271495819091797,-0.06902515888214111
1788675201920846300,12.277846435546875,0.7464675903320312,-0.13229084014892578,0.055200397968292236
1788675201937010400,12.294010498046875,1.2960920333862305,-0.4855165481567383,0.1835479438304901
1788675201953132500,12.310132568359375,1.8770151138305664,-0.7327015399932861,-0.08754914999008179
1788675201969403100,12.326403076171875,1.847707748413086,-0.7696489095687866,-0.3878249526023865
1788675201985556000,12.342555908203124,1.4321413040161133,-0.6268026828765869,-0.42947977781295776
1788675202001702700,12.35870263671875,1.6745491027832031,-0.42342376708984375,-0.1704775094985962
1788675202017874000,12.3748740234375,2.6916704177856445,-0.6547752618789673,0.405924528837204
1788675202033965600,12.390965576171874,3.3328447341918945,-0.8758610486984253,0.5312542915344238
1788675202050229500,12.4072294921875,3.0830907821655273,-0.9491151571273804,0.18072333931922913
1788675202066367500,12.423367431640624,1.4686908721923828,-0.899612307548523,-0.2421538531780243
1788675202082513400,12.439513427734376,-0.2077465057373047,-0.6772769689559937,-0.5062216520309448
1788675202098691300,12.45569140625,-0.9760990142822266,-0.3719148635864258,-0.45469459891319275
1788675202114805000,12.471804931640625,-0.8767127990722656,-0.17465806007385254,-0.06789273023605347
1788675202131043800,12.4880439453125,-0.10995101928710938,-0.28033268451690674,0.26418179273605347
1788675202147201000,12.504200927734376,0.2789764404296875,-0.4372979402542114,0.2572742700576782
1788675202163349500,12.520349609375,0.48926544189453125,-0.5568432807922363,-0.015744954347610474
1788675202179536400,12.536536376953125,0.2974414825439453,-0.7416545152664185,-0.1161092221736908
1788675202195647000,12.55264697265625,-0.3149576187133789,-0.8601589202880859,-0.11936450004577637
1788675202211891200,12.56889111328125,-0.9399700164794922,-0.7037142515182495,-0.18051815032958984
1788675202228044800,12.585044921875,-1.397303581237793,-0.5058737993240356,-0.33357563614845276
1788675202244191000,12.60119091796875,-1.3265743255615234,-0.38488316535949707,-0.3679705858230591
1788675202260386000,12.617385986328125,-1.0694828033447266,-0.3322443962097168,-0.4791302978992462
1788675202276509000,12.633509033203126,-0.991175651550293,-0.37990665435791016,-0.4744679629802704
1788675202292759000,12.649759033203125,-1.2118234634399414,-0.36672282218933105,-0.3893549144268036
1788675202308910600,12.66591064453125,-1.465235710144043,-0.24184787273406982,-0.20987176895141602
1788675202325057300,12.682057373046876,-1.4089393615722656,-0.08320951461791992,-0.18625947833061218
1788675202341258200,12.69825830078125,-1.1113309860229492,-0.10913252830505371,-0.21918535232543945
1788675202357382400,12.71438232421875,-0.674595832824707,-0.14992260932922363,0.05215674638748169
1788675202373640000,12.730639892578125,-0.2291545867919922,-0.05893659591674805,0.19411297142505646
1788675202389796600,12.746796630859375,-0.10631942749023438,-0.09063220024108887,0.31703653931617737
1788675202405942000,12.76294189453125,-0.10725116729736328,-0.046730756759643555,0.2262600213289261
1788675202422104300,12.779104248046876,-0.0034332275390625,0.05349850654602051,-0.14825791120529175
1788675202438225400,12.795225341796876,0.2215890884399414,0.16493678092956543,-0.36875006556510925
1788675202454491400,12.811491455078125,0.8099126815795898,0.27132558822631836,-0.41993021965026855
1788675202470641200,12.82764111328125,1.3092527389526367,0.13350415229797363,-0.43043962121009827
1788675202486820900,12.84382080078125,1.3300085067749023,-0.20866715908050537,-0.25809821486473083
1788675202502994700,12.85999462890625,1.2453069686889648,-0.41110074520111084,-0.18510466814041138
1788675202519185200,12.87618505859375,1.6064348220825195,-0.41453492641448975,-0.2749495804309845
1788675202535424800,12.8924248046875,1.7901802062988281,-0.3670363426208496,-0.3366490602493286
1788675202551610400,12.9086103515625,1.4824743270874023,-0.2137913703918457,-0.4701475501060486
1788675202567759600,12.924759521484376,0.7084445953369141,-0.15383732318878174,-0.35144829750061035
1788675202583909600,12.94090966796875,0.4484739303588867,-0.3677276372909546,0.22561097145080566
1788675202600071200,12.9570712890625,1.0922927856445312,-0.5446624755859375,0.5529348850250244
1788675202616289800,12.973289794921875,2.5126218795776367,-0.5388787984848022,0.6097121834754944
1788675202632470000,12.989469970703125,3.159792900085449,-0.6078612804412842,0.13771849870681763
1788675202648618800,13.00561865234375,2.4380855560302734,-0.6108332872390747,-0.6577098369598389
1788675202664812300,13.021812255859375,1.3690462112426758,-0.4971468448638916,-0.9381271004676819
1788675202680981500,13.0379814453125,0.3184347152709961,-0.336895227432251,-0.38310444355010986
1788675202697217800,13.0542177734375,-0.6107692718505859,-0.10947525501251221,0.24636738002300262
1788675202713406500,13.070406494140625,-1.2367982864379883,0.037000417709350586,0.6184331178665161
1788675202729517800,13.086517822265625,-1.396479606628418,0.096443772315979,0.6809678673744202
1788675202745671700,13.102671630859374,-1.2408065795898438,0.06004488468170166,0.43979138135910034
1788675202761841200,13.118841064453125,-1.0370845794677734,-0.09112071990966797,-0.005559735000133514
1788675202778088400,13.13508837890625,-0.8580074310302734,-0.14712750911712646,-0.36845383048057556
1788675202794243300,13.151243408203126,-0.8167104721069336,-0.12248528003692627,-0.5656739473342896
1788675202810390300,13.167390380859375,-0.8303556442260742,-0.04453909397125244,-0.575309157371521
1788675202826562800,13.183562744140625,-1.0207281112670898,-0.0039048194885253906,-0.22967079281806946
1788675202842682400,13.199682373046874,-1.482346534729004,0.06832611560821533,-0.009011901915073395
1788675202858933800,13.215933837890624,-1.7697033882141113,0.19633686542510986,0.040672093629837036
1788675202875085300,13.232085205078125,-1.6910700798034668,0.20476436614990234,0.07568579912185669
1788675202891229400,13.2482294921875,-1.2443866729736328,0.1812528371810913,-0.003738218918442726
1788675202907438800,13.26443896484375,-0.7399158477783203,0.18058311939239502,-0.11007634550333023
1788675202923561000,13.28056103515625,-0.2929058074951172,0.13937854766845703,-0.007130656391382217
1788675202939828700,13.296828857421875,-0.15015029907226562,0.11301255226135254,0.11234214901924133
1788675202955981800,13.31298193359375,-0.39742469787597656,0.1447436809539795,0.09211555123329163
1788675202972126000,13.3291259765625,-0.5357398986816406,0.22544074058532715,-0.13277867436408997
1788675202988296200,13.345296142578125,-0.34810829162597656,0.3408910036087036,-0.311298668384552
1788675203004415000,13.3614150390625,-0.08965587615966797,0.5098116397857666,-0.2961002290248871
1788675203020645600,13.377645751953125,0.0036859512329101562,0.6716324090957642,-0.294903039932251
1788675203036797200,13.393797119140626,0.103240966796875,0.6091995239257812,-0.26527830958366394
1788675203052944600,13.409944580078125,0.6720399856567383,0.23769116401672363,-0.09430964291095734
1788675203069152800,13.42615283203125,1.476064682006836,-0.13130438327789307,0.20004388689994812
1788675203085274000,13.442274169921875,1.8769397735595703,-0.4917111396789551,0.4587936997413635
1788675203101513000,13.458512939453126,1.7109622955322266,-0.526155948638916,0.4604056775569916
1788675203117664800,13.474664794921875,1.354386329650879,-0.40191686153411865,0.235427588224411
1788675203133815000,13.49081494140625,1.7689332962036133,-0.3689159154891968,0.15776707231998444
1788675203150013700,13.507013671875,2.8873538970947266,-0.5527980327606201,0.3357163667678833
1788675203166122500,13.52312255859375,3.433863639831543,-0.8451014757156372,0.41755279898643494
1788675203182402600,13.539402587890624,3.057997703552246,-1.1045515537261963,0.13991904258728027
1788675203198540000,13.5555400390625,1.8751230239868164,-1.1664122343063354,-0.2034415900707245
1788675203214689000,13.57168896484375,0.6749544143676758,-1.0099774599075317,-0.5860834717750549
1788675203230883000,13.587883056640624,0.18018722534179688,-0.8705242872238159,-0.8551462292671204
1788675203246999600,13.60399951171875,0.23659896850585938,-0.7527308464050293,-0.8774359226226807
1788675203263255600,13.620255615234376,-0.18578529357910156,-0.9320449829101562,-0.3380865454673767
1788675203279375600,13.636375732421875,0.008001327514648438,-0.9694122672080994,-0.3650445342063904
1788675203295524600,13.652524658203125,-0.5171012878417969,-0.00507199764251709,-0.9625971913337708
1788675203311731200,13.668731201171875,-0.5809125900268555,-0.422041654586792,0.1597081869840622
1788675203327814000,13.68481396484375,-0.12991046905517578,-0.47763586044311523,0.19218870997428894
1788675203344067800,13.70106787109375,0.10164737701416016,-0.47560346126556396,0.07465533912181854
1788675203360220400,13.717220458984375,0.19980430603027344,-0.363239049911499,-0.24895016849040985
1788675203376366000,13.733365966796875,-0.13492774963378906,-0.2470853328704834,-0.5692383050918579
1788675203392573400,13.749573486328124,-0.7630548477172852,-0.1757432222366333,-0.6732429265975952
1788675203408696300,13.7656962890625,-1.1464452743530273,-0.09654998779296875,-0.6228969693183899
1788675203424961000,13.7819609375,-1.3487377166748047,-0.0286102294921875,-0.2712291479110718
1788675203441117700,13.79811767578125,-1.5002918243408203,0.0011562108993530273,0.09764781594276428
1788675203457269000,13.81426904296875,-1.6404309272766113,0.06825947761535645,0.22281457483768463
1788675203473447400,13.830447509765625,-1.643392562866211,0.16886484622955322,0.16773299872875214
1788675203489539800,13.846539794921876,-1.2870264053344727,0.17558825016021729,0.11005011200904846
1788675203505726000,13.862725830078125,-0.7763910293579102,0.11001145839691162,0.26519590616226196
1788675203521911600,13.87891162109375,-0.4641084671020508,0.01604592800140381,0.3278416395187378
1788675203538056000,13.895055908203124,-0.33084774017333984,-0.03751826286315918,0.1590026319026947
1788675203554241800,13.91124169921875,-0.13319015502929688,-0.05358242988586426,-0.11377758532762527
1788675203570403600,13.927403564453124,-0.012394905090332031,0.027835726737976074,-0.3092118501663208
1788675203586640400,13.943640380859375,0.039259910583496094,0.13170981407165527,-0.3198205828666687
1788675203602832100,13.95983203125,0.33997535705566406,0.21525287628173828,-0.09844356030225754
1788675203618977300,13.975977294921876,0.8619956970214844,0.12460517883300781,0.19598431885242462
1788675203635168300,13.992168212890626,1.6170539855957031,-0.14244914054870605,0.4671734869480133
1788675203651366700,14.00836669921875,2.2535438537597656,-0.3894994258880615,0.5337226986885071
1788675203667599400,14.024599365234375,2.635806083679199,-0.32616448402404785,0.4655071198940277
1788675203683733800,14.040733642578125,2.2190113067626953,-0.17045259475708008,0.2990662455558777
1788675203699806200,14.05680615234375,1.5665769577026367,-0.23721563816070557,0.08207952976226807
1788675203716014800,14.073014892578126,1.3871421813964844,-0.2518197298049927,0.2271912842988968
1788675203732139000,14.089138916015624,2.0027055740356445,-0.39545202255249023,0.3322885036468506
1788675203748401400,14.1054013671875,3.1999282836914062,-0.6738961935043335,0.36389315128326416
1788675203764516000,14.12151611328125,3.712902069091797,-0.9400030970573425,0.10937492549419403
1788675203780653600,14.137653564453124,2.6516542434692383,-0.8876872062683105,-0.27889159321784973
1788675203796867000,14.1538671875,0.7880458831787109,-0.6097602844238281,-0.5770311951637268
1788675203812975000,14.16997509765625,-0.5318498611450195,-0.3719717264175415,-0.40969517827033997
1788675203829199600,14.18619970703125,-1.0942049026489258,-0.2225639820098877,0.2654682993888855
1788675203845330700,14.20233056640625,-1.332657814025879,-0.30430781841278076,1.0859603881835938
1788675203861480200,14.218480224609374,-1.6433310508728027,-0.36453044414520264,1.6146202087402344
1788675203877645300,14.234645263671876,-1.8685355186462402,-0.29503118991851807,1.555742621421814
1788675203893770200,14.250770263671875,-1.6983823776245117,-0.28628551959991455,1.0401428937911987
1788675203910012000,14.267011962890624,-1.2020063400268555,-0.34215283393859863,0.46945610642433167
1788675203926162700,14.28316259765625,-0.7853994369506836,-0.5155587196350098,0.04689287021756172
1788675203942305300,14.29930517578125,-0.8259925842285156,-0.43099725246429443,-0.13477933406829834
1788675203958480000,14.31547998046875,-1.2989511489868164,-0.2971242666244507,0.02095472812652588
1788675203974603500,14.331603515625,-1.9228882789611816,-0.10109150409698486,0.19686299562454224
1788675203990835000,14.3478349609375,-2.229004383087158,0.047603607177734375,0.33221951127052307
1788675204006972200,14.36397216796875,-2.1090950965881348,0.14472424983978271,0.360723078250885
1788675204023118300,14.380118408203124,-1.6455740928649902,0.19797706604003906,0.3268910348415375
1788675204039297000,14.396297119140625,-0.8809099197387695,0.1520751714706421,0.41349220275878906
1788675204055420400,14.41242041015625,-0.2132244110107422,0.1781599521636963,0.4712178409099579
1788675204071650600,14.428650634765624,0.20372772216796875,0.24951171875,0.3717643618583679
1788675204087804000,14.444803955078125,0.47249412536621094,0.27263176441192627,0.23918244242668152
1788675204103950000,14.4609501953125,0.632110595703125,0.3077141046524048,0.005475685000419617
1788675204120141000,14.47714111328125,0.5827207565307617,0.473025918006897,-0.23549914360046387
1788675204136296200,14.493296142578124,0.4486045837402344,0.6312404870986938,-0.33915987610816956
1788675204152548600,14.509548583984374,0.4091663360595703,0.7201788425445557,-0.23609162867069244
1788675204168679400,14.525679443359374,0.7694091796875,0.7577431201934814,-0.08530017733573914
1788675204184822500,14.541822509765625,1.4407272338867188,0.5605360269546509,0.136348694562912
1788675204201017000,14.55801708984375,1.8592309951782227,0.16854095458984375,0.236028254032135
1788675204217139200,14.57413916015625,2.0491952896118164,-0.10327017307281494,0.15900956094264984
1788675204233374000,14.5903740234375,2.072620391845703,-0.38896405696868896,0.25051242113113403
1788675204249527600,14.606527587890625,1.2259759902954102,-0.24393510818481445,0.26364725828170776
1788675204265675500,14.622675537109375,0.32375335693359375,-0.019004225730895996,0.09380343556404114
1788675204281878800,14.638878662109375,0.20703506469726562,0.06511402130126953,0.23875096440315247
1788675204298002000,14.655001953125,0.953129768371582,-0.1253429651260376,0.537732720375061
1788675204314257000,14.6712568359375,2.0927629470825195,-0.6218031644821167,0.6471302509307861
1788675204330393900,14.687393798828126,2.6878862380981445,-0.8419891595840454,0.01804928481578827
1788675204346540500,14.70354052734375,2.2445268630981445,-0.9162026047706604,-0.6868705749511719
1788675204362709500,14.71970947265625,1.0640268325805664,-0.8214713931083679,-1.0622538328170776
1788675204378793500,14.73579345703125,0.41130828857421875,-0.6246025562286377,-0.9228142499923706
1788675204395059000,14.752058837890624,0.2580413818359375,-0.5309494733810425,-0.5273493528366089
1788675204411233800,14.76823388671875,0.175811767578125,-0.45835232734680176,-0.08498984575271606
1788675204427379200,14.784379150390626,-0.021724700927734375,-0.47411084175109863,0.2621234059333801
1788675204443542300,14.800542236328125,-0.1843852996826172,-0.5233018398284912,0.42826753854751587
1788675204459693300,14.816693359375,-0.26694583892822266,-0.6394860744476318,0.56389981508255
1788675204475929300,14.832929443359374,-0.3418140411376953,-0.6876534223556519,0.45911484956741333
1788675204492111400,14.849111328125,-0.39266204833984375,-0.6148414611816406,0.09253520518541336
1788675204508256000,14.865256103515625,-0.623997688293457,-0.5539382696151733,-0.21048249304294586
1788675204524443000,14.88144287109375,-0.7995853424072266,-0.45961642265319824,-0.3302069902420044
1788675204540596000,14.897595947265625,-1.2494306564331055,-0.2988581657409668,-0.40880000591278076
1788675204556830700,14.913830810546875,-1.6608896255493164,-0.15993809700012207,-0.2604464888572693
1788675204573019600,14.93001953125,-1.906693458557129,-0.017299294471740723,0.04242759943008423
1788675204589166300,14.946166259765626,-1.7327470779418945,0.12648522853851318,0.23148521780967712
1788675204605364200,14.9623642578125,-1.1713485717773438,0.08192825317382812,0.21939238905906677
1788675204621539000,14.9785390625,-0.3583517074584961,0.008860588073730469,0.05339936167001724
1788675204637787600,14.99478759765625,0.33934879302978516,0.01033926010131836,0.021510764956474304
1788675204653940200,15.010940185546875,0.4140205383300781,0.008112788200378418,0.1096896305680275
1788675204670087200,15.027087158203125,0.2053070068359375,0.08237123489379883,0.12681269645690918
1788675204686291200,15.043291259765626,0.19256019592285156,0.053154826164245605,0.18208874762058258
1788675204702410800,15.05941064453125,0.2175312042236328,0.09422087669372559,0.04777729511260986
1788675204718670300,15.07567041015625,0.19949054718017578,0.2647075653076172,-0.26825037598609924
1788675204734822700,15.09182275390625,0.1287984848022461,0.29352903366088867,-0.4232417941093445
1788675204750951000,15.107950927734375,0.37784481048583984,0.15621519088745117,-0.3490346074104309
1788675204767113200,15.12411328125,0.8473272323608398,-0.1751483678817749,0.013240188360214233
1788675204783236400,15.140236328125,1.2645273208618164,-0.38877785205841064,0.20729857683181763
1788675204799507200,15.156507080078125,1.6560859680175781,-0.48044562339782715,0.12479173392057419
1788675204815657500,15.172657470703125,1.8988456726074219,-0.4306936264038086,-0.11317907273769379
1788675204831806000,15.188805908203125,1.621577262878418,-0.17699050903320312,-0.44976890087127686
1788675204847974400,15.204974365234374,0.9472665786743164,-0.09256422519683838,-0.6328122019767761
1788675204864097500,15.22109765625,0.10615730285644531,-0.014490962028503418,-0.354961633682251
1788675204880332800,15.237332763671875,-0.24289608001708984,-0.2659790515899658,0.28738871216773987
1788675204896486700,15.253486572265626,0.9900779724121094,-0.5518441200256348,0.7752393484115601
1788675204912635600,15.2696357421875,2.649660110473633,-0.5525864362716675,0.6590610146522522
1788675204928811000,15.28581103515625,3.0542421340942383,-0.8137181997299194,0.02359221875667572
1788675204944915500,15.30191552734375,2.068171501159668,-0.8521978259086609,-0.7645358443260193
1788675204961179100,15.31817919921875,1.0717439651489258,-0.7517819404602051,-0.917296826839447
1788675204977329400,15.334329345703125,0.2775707244873047,-0.6473817825317383,-0.13119837641716003
1788675204993472800,15.35047265625,-0.4406108856201172,-0.4547175168991089,0.5105966329574585
1788675205009644000,15.36664404296875,-1.2077579498291016,-0.33862876892089844,0.8317360877990723
1788675205025756000,15.382755859375,-1.5960102081298828,-0.37831568717956543,0.7271759510040283
1788675205041992700,15.39899267578125,-1.550766944885254,-0.386349081993103,0.40800225734710693
1788675205058143200,15.415143310546876,-1.2116565704345703,-0.42367565631866455,0.20110727846622467
1788675205074286000,15.4312861328125,-1.1525135040283203,-0.3926239013671875,0.10588880628347397
1788675205090475800,15.447475830078124,-1.42633056640625,-0.23104965686798096,0.014237798750400543
1788675205106594300,15.46359423828125,-1.819899559020996,-0.14782392978668213,-0.07170635461807251
1788675205122836200,15.479836181640625,-2.255657196044922,-0.06155812740325928,-0.2537964880466461
1788675205138970000,15.49597021484375,-2.285879611968994,0.06821572780609131,-0.2777116000652313
1788675205155110400,15.5121103515625,-1.9647650718688965,0.09324812889099121,0.04400204122066498
1788675205171314200,15.528314208984375,-1.5098686218261719,0.19864416122436523,0.3382331132888794
1788675205187433700,15.544433837890624,-1.076009750366211,0.27306067943573,0.3204888701438904
1788675205203690800,15.560690673828125,-0.6862545013427734,0.3270254135131836,0.19426043331623077
1788675205219841500,15.576841552734376,-0.38527774810791016,0.38059568405151367,0.10664726048707962
1788675205235986200,15.592986083984375,-0.08236885070800781,0.3552812337875366,0.11890336871147156
1788675205252190000,15.60918994140625,0.20388317108154297,0.44132161140441895,-0.05670425295829773
1788675205268313000,15.62531298828125,0.29703521728515625,0.6415958404541016,-0.3027486503124237
1788675205284536000,15.6415361328125,0.39316368103027344,0.6538060903549194,-0.5516465306282043
1788675205300689200,15.657689208984374,0.7115983963012695,0.6834005117416382,-0.7178663015365601
1788675205316835600,15.673835693359376,1.401515007019043,0.6213926076889038,-0.54622882604599
1788675205332998400,15.689998291015625,2.0301904678344727,0.3959388732910156,-0.2938951849937439
1788675205349098800,15.7060986328125,2.418646812438965,0.13209664821624756,-0.2776602804660797
1788675205365357600,15.722357666015625,2.665555953979492,-0.1862165927886963,-0.04750525951385498
1788675205381518600,15.7385185546875,2.1912670135498047,-0.2639024257659912,0.08438537269830704
1788675205397662700,15.754662841796875,1.5186405181884766,-0.05587315559387207,0.0060647279024124146
1788675205413839600,15.770839599609374,1.5102338790893555,-0.00987541675567627,0.2035779058933258
1788675205429989000,15.786989013671874,2.203505516052246,-0.1500312089920044,0.5617104768753052
1788675205446250500,15.80325048828125,2.8903303146362305,-0.49175453186035156,0.5177656412124634
1788675205462419700,15.819419677734375,3.109151840209961,-0.8705973625183105,0.20479841530323029
1788675205478563000,15.83556298828125,2.762637138366699,-0.9854046702384949,-0.25815507769584656
1788675205494745300,15.851745361328126,1.1649599075317383,-0.8852840065956116,-0.48836207389831543
1788675205510908000,15.867907958984375,-0.3584280014038086,-0.6540143489837646,-0.5000827312469482
1788675205527137300,15.88413720703125,-0.8435077667236328,-0.5053118467330933,-0.1997101902961731
1788675205543323100,15.9003232421875,-0.5672063827514648,-0.423681378364563,0.14624756574630737
1788675205559462100,15.916462158203124,-0.23872852325439453,-0.41878020763397217,0.325671523809433
1788675205575649800,15.93264990234375,-0.09022903442382812,-0.45252513885498047,0.2907752990722656
1788675205591809300,15.948809326171874,-0.13976383209228516,-0.5590131282806396,0.3953797221183777
1788675205608052200,15.96505224609375,-0.4406089782714844,-0.6458449363708496,0.40378233790397644
1788675205624248000,15.981248046875,-0.7249860763549805,-0.5591412782669067,0.14484184980392456
1788675205640391700,15.9973916015625,-1.0853815078735352,-0.44802844524383545,-0.24785886704921722
1788675205656588300,16.01358837890625,-1.4707441329956055,-0.35433149337768555,-0.49398529529571533
1788675205672711400,16.02971142578125,-1.720564842224121,-0.34247887134552,-0.5535394549369812
1788675205688962300,16.04596240234375,-1.691986083984375,-0.2173827886581421,-0.5107165575027466
1788675205705116000,16.062115966796874,-1.6438102722167969,-0.08075416088104248,-0.2711445689201355
1788675205721263000,16.07826318359375,-1.709956169128418,-0.03617572784423828,-0.10227183997631073
1788675205737425200,16.094425048828125,-1.556783676147461,0.07967579364776611,-0.10548089444637299
1788675205753545700,16.110545654296875,-0.9411592483520508,0.08568227291107178,-0.12302620708942413
1788675205769808600,16.12680859375,-0.2697601318359375,0.028507232666015625,-0.09860075265169144
1788675205785959700,16.142959716796874,0.2699556350708008,0.05360758304595947,-0.06959641724824905
1788675205802105600,16.159105712890625,0.4346189498901367,-0.0037306547164916992,0.06819036602973938
1788675205818268200,16.17526806640625,0.15717411041259766,0.00012183189392089844,0.13330014050006866
1788675205834388500,16.191388427734374,-0.1038980484008789,0.054248929023742676,-0.07239443808794022
1788675205850616000,16.207615966796876,-0.23232364654541016,0.14922261238098145,-0.35220080614089966
1788675205866767600,16.223767578125,-0.08161258697509766,0.2805694341659546,-0.5773452520370483
1788675205882940700,16.239940673828126,0.29419422149658203,0.3088301420211792,-0.47269755601882935
1788675205899111700,16.256111572265624,0.7520809173583984,0.19044280052185059,-0.34892410039901733
1788675205915229700,16.272229736328125,1.3717565536499023,-0.06626379489898682,-0.04447969049215317
1788675205931459600,16.28845947265625,1.7894611358642578,-0.22689926624298096,0.008824281394481659
1788675205947610600,16.304610595703124,1.9127445220947266,-0.2189793586730957,-0.17661431431770325
1788675205963758000,16.320758056640624,1.6295452117919922,-0.0930948257446289,-0.42110881209373474
1788675205979940000,16.336940185546876,1.2521686553955078,-0.11122369766235352,-0.45057740807533264
1788675205996056800,16.353056884765625,1.5638093948364258,-0.40496528148651123,0.027520842850208282
1788675206012289800,16.369289794921876,2.721179962158203,-0.6479123830795288,0.514829158782959
1788675206028420900,16.3854208984375,4.092912673950195,-0.8172497153282166,0.49349549412727356
1788675206044561400,16.4015615234375,4.356500625610352,-1.0102593898773193,0.12317033857107162
1788675206060754000,16.41775390625,2.40853214263916,-0.8035128712654114,-0.5980980396270752
1788675206076852700,16.433852783203125,0.1270151138305664,-0.5907101631164551,-1.0896278619766235
1788675206093082600,16.45008251953125,-1.5134153366088867,-0.36005735397338867,-0.9228339791297913
1788675206109211400,16.46621142578125,-1.9821233749389648,-0.06876158714294434,-0.1686840057373047
1788675206125352400,16.4823525390625,-1.7290678024291992,0.0660240650177002,0.8984519243240356
1788675206141544200,16.498544189453124,-1.4765968322753906,0.08054935932159424,1.7016555070877075
1788675206157655800,16.51465576171875,-1.3612213134765625,0.03819155693054199,1.876252293586731
1788675206173911300,16.530911376953124,-1.0514774322509766,0.017970800399780273,1.1873708963394165
1788675206190067000,16.54706689453125,-0.38382816314697266,-0.07274472713470459,0.26659685373306274
1788675206206211600,16.563211669921873,-0.008862495422363281,-0.22504663467407227,-0.13966026902198792
1788675206222413000,16.5794130859375,-0.06668281555175781,-0.2899627685546875,-0.29132604598999023
1788675206238529000,16.595529052734374,-0.7927780151367188,-0.20405030250549316,-0.3272499740123749
1788675206254793500,16.61179345703125,-1.565237045288086,-0.10974419116973877,-0.2781561613082886
1788675206270944300,16.6279443359375,-1.9511089324951172,-0.02050769329071045,-0.1962248831987381
1788675206287084800,16.644084716796876,-2.1963768005371094,-0.018164396286010742,-0.037503182888031006
1788675206303242800,16.66024267578125,-2.173818588256836,0.07034552097320557,0.0164436437189579
1788675206319343000,16.676343017578127,-1.889296531677246,0.05602085590362549,0.13998112082481384
1788675206335612000,16.69261181640625,-1.2447357177734375,0.10437750816345215,0.5031270384788513
1788675206351792000,16.708792236328126,-0.5834121704101562,0.1244957447052002,0.9673856496810913
1788675206367934000,16.724933837890624,-0.10909080505371094,0.12216043472290039,1.2287647724151611
1788675206384104400,16.7411044921875,0.08472251892089844,0.12616240978240967,0.6144787669181824
1788675206400254200,16.757254150390626,-0.030358314514160156,0.15878045558929443,-0.28360846638679504
1788675206416531200,16.77353125,0.12607192993164062,0.31330347061157227,-1.167222499847412
1788675206432717600,16.789717529296876,0.5571966171264648,0.2712303400039673,-1.4745370149612427
1788675206448858400,16.8058583984375,0.7562246322631836,0.19042861461639404,-1.2691534757614136
1788675206465019400,16.822019287109374,0.9206142425537109,0.20479917526245117,-0.913314163684845
1788675206481176800,16.8381767578125,1.7203054428100586,0.11772286891937256,-0.6112574338912964
1788675206497411000,16.8544111328125,2.746678352355957,-0.2739948034286499,-0.3221578598022461
1788675206513584600,16.870584716796873,2.793346405029297,-0.45569419860839844,-0.28771692514419556
1788675206529723100,16.88672314453125,2.142852783203125,-0.36765992641448975,-0.41357117891311646
1788675206545917000,16.9029169921875,1.753575325012207,-0.24704349040985107,-0.17104628682136536
1788675206562032400,16.919032470703126,2.207418441772461,-0.1863551139831543,0.05661769583821297
1788675206578261500,16.935261474609376,2.9956789016723633,-0.451580286026001,0.04428448528051376
1788675206594390500,16.951390625,3.4453353881835938,-0.6198227405548096,-0.486266165971756
1788675206610531600,16.967531494140626,3.1125288009643555,-0.5666803121566772,-1.2549498081207275
1788675206626733000,16.983733154296875,1.5865564346313477,-0.5056741237640381,-1.3658902645111084
1788675206642840000,16.999840087890625,0.30411815643310547,-0.3630119562149048,-1.158514142036438
1788675206659089000,17.0160888671875,-0.45627689361572266,-0.28510618209838867,-0.6824449300765991
1788675206675232800,17.032232666015624,-0.5628061294555664,-0.29037177562713623,-0.2737167477607727
1788675206691376600,17.048376708984375,-0.5872468948364258,-0.41488897800445557,0.14235243201255798
1788675206707584500,17.06458447265625,-0.781071662902832,-0.38874173164367676,0.4224497079849243
1788675206723703800,17.080703857421874,-0.9285659790039062,-0.47884464263916016,0.9342714548110962
1788675206739971800,17.096971923828125,-1.2321319580078125,-0.5411226749420166,0.9191443920135498
1788675206756123100,17.113123046875,-1.1671838760375977,-0.5550035238265991,0.67259281873703
1788675206772266800,17.129266845703125,-0.9526882171630859,-0.5805850028991699,0.3611888289451599
1788675206788435200,17.145435302734374,-0.8502368927001953,-0.5721734762191772,-0.0437311977148056
1788675206804552400,17.161552490234374,-0.860748291015625,-0.581297755241394,-0.23962834477424622
1788675206820783400,17.177783447265625,-1.0090274810791016,-0.6373794078826904,-0.21952737867832184
1788675206836935000,17.193934814453126,-1.2162399291992188,-0.6502532958984375,-0.19815915822982788
1788675206853076700,17.21007666015625,-1.3456335067749023,-0.6186484098434448,-0.17791864275932312
1788675206869180200,17.22618017578125,-1.2980928421020508,-0.3659095764160156,-0.15716800093650818
1788675206885304600,17.2423046875,-0.9436368942260742,-0.20449256896972656,-0.2181978076696396
1788675206901530400,17.2585302734375,-0.4665031433105469,-0.0959082841873169,-0.1521870195865631
1788675206917681700,17.274681640625,-0.3681211471557617,-0.04713010787963867,-0.07442410290241241
1788675206933827300,17.290827392578127,-0.41371726989746094,-0.0038553476333618164,-0.09043866395950317
1788675206950011000,17.307010986328127,-0.09667396545410156,0.094207763671875,-0.056609585881233215
1788675206966128000,17.323128173828124,0.2941904067993164,0.17110610008239746,-0.09493370354175568
1788675206982367200,17.3393671875,0.33238792419433594,0.23811662197113037,-0.5176655054092407
1788675206998518500,17.3555185546875,0.13177108764648438,0.4029492139816284,-0.8937548995018005
1788675207014664400,17.37166455078125,0.14814472198486328,0.468652606010437,-0.7941860556602478
1788675207030849300,17.387849365234374,0.4509744644165039,0.37820327281951904,-0.2956571877002716
1788675207046973400,17.403973388671876,0.8286848068237305,0.2035064697265625,0.1392550766468048
1788675207063228400,17.420228515625,1.5254535675048828,0.02141737937927246,0.3350491225719452
1788675207079382800,17.4363828125,1.9633913040161133,0.007957935333251953,0.12478088587522507
1788675207095513000,17.45251318359375,1.998356819152832,0.047826409339904785,-0.35494688153266907
1788675207111718400,17.468718505859375,1.5009641647338867,-0.0657815933227539,-0.5084343552589417
1788675207127839500,17.484839599609376,0.947627067565918,-0.26098430156707764,-0.1134849563241005
1788675207144095700,17.501095703125,1.1979951858520508,-0.7116621732711792,0.6146742105484009
1788675207160247600,17.51724755859375,2.5272369384765625,-1.0127397775650024,0.8797604441642761
1788675207176391700,17.5333916015625,3.0766067504882812,-1.1031246185302734,0.5252510905265808
1788675207192602000,17.54960205078125,2.324300765991211,-1.1908012628555298,-0.1680435687303543
1788675207208705500,17.56570556640625,1.0509014129638672,-1.0922629833221436,-0.6031941771507263
1788675207224967700,17.5819677734375,0.10112762451171875,-0.9150083661079407,-0.4169946014881134
1788675207241115000,17.598114990234375,-0.4631948471069336,-0.6678453683853149,0.000016137957572937012
1788675207257260800,17.6142607421875,-0.5672311782836914,-0.4847896099090576,0.19635172188282013
1788675207273441800,17.63044189453125,-0.4100837707519531,-0.4023047685623169,0.48480844497680664
1788675207289589000,17.646589111328126,-0.5034828186035156,-0.4246854782104492,0.5966847538948059
1788675207305825500,17.662825439453126,-0.5722427368164062,-0.34009504318237305,0.42322248220443726
1788675207321985300,17.6789853515625,-0.5319890975952148,-0.38134658336639404,0.26643940806388855
1788675207338133500,17.695133544921877,-0.5817031860351562,-0.4170950651168823,0.06711038947105408
1788675207354315000,17.71131494140625,-0.8344707489013672,-0.28224873542785645,-0.16311292350292206
1788675207370472400,17.727472412109375,-1.3672904968261719,-0.0004298686981201172,-0.2764013409614563
1788675207386702000,17.7437021484375,-1.7973508834838867,0.1605907678604126,-0.08160877227783203
1788675207402891500,17.7598916015625,-2.148372173309326,0.25310957431793213,0.09653402864933014
1788675207419035600,17.77603564453125,-2.158275604248047,0.31696784496307373,0.27725234627723694
1788675207435221500,17.792221435546875,-1.8900418281555176,0.39658379554748535,0.29024994373321533
1788675207451384000,17.808384033203126,-1.296004295349121,0.41710901260375977,0.30865973234176636
1788675207467625000,17.824625,-0.45447826385498047,0.4103964567184448,0.37645643949508667
1788675207483822300,17.840822265625,0.031693458557128906,0.27172696590423584,0.5535506010055542
1788675207499967200,17.85696728515625,-0.0700063705444336,0.1782855987548828,0.6968136429786682
1788675207516167700,17.873167724609374,-0.45856571197509766,0.21719777584075928,0.5449213981628418
1788675207532291300,17.889291259765624,-0.4848966598510742,0.28520405292510986,0.0846867710351944
1788675207548549400,17.90554931640625,-0.07709980010986328,0.383736252784729,-0.35881930589675903
1788675207564701400,17.921701416015626,0.4932117462158203,0.5593847036361694,-0.6256308555603027
1788675207580847400,17.937847412109374,1.0421676635742188,0.6264834403991699,-0.5147075653076172
1788675207597031000,17.954031005859374,1.5208616256713867,0.4451472759246826,-0.2772194743156433
1788675207613153800,17.97015380859375,1.7190179824829102,0.0991896390914917,0.061163365840911865
1788675207629413600,17.98641357421875,1.7474956512451172,-0.32859885692596436,0.17516356706619263
1788675207645569300,18.0025693359375,1.5947513580322266,-0.5893546342849731,-0.09617555141448975
1788675207661700400,18.018700439453124,1.0121345520019531,-0.3980196714401245,-0.6231765151023865
1788675207677854200,18.034854248046877,0.8539514541625977,-0.06466925144195557,-0.8598796725273132
1788675207693977300,18.050977294921875,1.3437280654907227,0.05753302574157715,-0.1929522156715393
1788675207710250800,18.067250732421876,2.203683853149414,-0.04332995414733887,0.8598592877388
1788675207726386200,18.08338623046875,2.822568893432617,-0.5306156873703003,1.109612226486206
1788675207742534100,18.0995341796875,2.6915159225463867,-0.9502410292625427,0.2973771095275879
1788675207758702800,18.115702880859374,1.7849254608154297,-1.0414530038833618,-0.6121872067451477
1788675207774826800,18.13182666015625,0.5646018981933594,-0.814321756362915,-0.9959216117858887
1788675207791060200,18.148060302734375,0.020215988159179688,-0.5762654542922974,-0.7501770853996277
1788675207807207700,18.164207763671875,-0.06657886505126953,-0.4467703104019165,-0.272517591714859
1788675207823354000,18.18035400390625,-0.11420822143554688,-0.2126842737197876,-0.12502294778823853
1788675207839529700,18.19652978515625,-0.15926456451416016,-0.07375669479370117,-0.2209242582321167
1788675207855653400,18.2126533203125,-0.12070083618164062,-0.18857073783874512,-0.1945154368877411
1788675207871892200,18.228892333984376,-0.4039154052734375,-0.28642213344573975,-0.10235142707824707
1788675207888046300,18.24504638671875,-1.0007667541503906,-0.17541873455047607,-0.09747427701950073
1788675207904187000,18.261186767578124,-1.5903644561767578,-0.02048778533935547,-0.09452980756759644
1788675207920376300,18.277376220703125,-1.7962579727172852,0.050810813903808594,-0.3020738959312439
1788675207936491300,18.2934912109375,-1.5597343444824219,0.1657581329345703,-0.5272624492645264
1788675207952732700,18.309732666015623,-1.2540197372436523,0.16026389598846436,-0.4111156463623047
1788675207968889900,18.325889892578125,-0.9865016937255859,0.13721632957458496,-0.24164259433746338
1788675207985040400,18.342040283203126,-0.8378152847290039,0.12740659713745117,0.05097997188568115
1788675208001233200,18.358233154296876,-0.9682693481445312,-0.013550043106079102,0.26989611983299255
1788675208017354200,18.374354248046874,-0.745640754699707,-0.015543937683105469,0.2226654291152954
1788675208033600500,18.3906005859375,-0.29708290100097656,-0.04966270923614502,0.20168930292129517
1788675208049752800,18.4067529296875,0.07325172424316406,-0.05770230293273926,0.3201867938041687
1788675208065898500,18.4228984375,0.3544034957885742,-0.09729957580566406,0.6729248762130737
1788675208082091500,18.439091552734375,0.7263727188110352,-0.09881651401519775,0.8116639256477356
1788675208098212600,18.455212646484377,0.5981903076171875,-0.04667699337005615,0.3109370470046997
1788675208114467300,18.47146728515625,-0.046112060546875,0.064239501953125,-0.5666627883911133
1788675208130616300,18.4876162109375,0.05090141296386719,0.1757054328918457,-0.848443865776062
1788675208146795500,18.50379541015625,1.3130483627319336,-0.008167266845703125,-0.18515563011169434
1788675208162957600,18.51995751953125,0.2652864456176758,-0.7184906005859375,-0.007506638765335083
1788675208179081000,18.5360810546875,0.7690162658691406,-0.3545341491699219,-1.2130606174468994
1788675208195296500,18.552296630859374,1.7618942260742188,-0.7222861647605896,0.17454124987125397
1788675208211403000,18.568403076171876,3.982168197631836,-0.3630943298339844,0.6182263493537903
1788675208227549700,18.5845498046875,3.028214454650879,-0.3877580165863037,0.7581755518913269
1788675208243730000,18.60072998046875,0.07491111755371094,-0.6438138484954834,0.27827322483062744
1788675208259864300,18.6168642578125,-1.7791080474853516,-0.04053235054016113,-1.3436626195907593
1788675208276125700,18.633125732421874,-1.098764419555664,0.1478724479675293,-1.174338936805725
1788675208292290800,18.649290771484374,0.49607181549072266,-0.5083643198013306,0.28842657804489136
1788675208308435500,18.665435546875,2.5286293029785156,-0.5854501724243164,1.2872813940048218
1788675208324608800,18.68160888671875,3.4356651306152344,-0.45600426197052,1.5000648498535156
1788675208340748300,18.697748291015625,2.5851593017578125,-0.3355128765106201,0.9955649971961975
1788675208357017000,18.71401708984375,0.854741096496582,-0.3984168767929077,0.2605113685131073
1788675208373181400,18.730181396484376,-0.27426815032958984,-0.5002729892730713,-0.2733607888221741
1788675208389323300,18.7463232421875,-0.7329988479614258,-0.5646991729736328,-0.3155670762062073
1788675208405514000,18.762513916015624,-0.6163520812988281,-0.5057536363601685,-0.11106468737125397
1788675208421672400,18.77867236328125,-0.2888374328613281,-0.37342047691345215,0.2957669198513031
1788675208437915100,18.7949150390625,-0.20758724212646484,-0.32925736904144287,0.6427875757217407
1788675208454064000,18.811064208984376,-0.49774932861328125,-0.24240803718566895,0.6036320924758911
1788675208470209000,18.827208984375,-1.189824104309082,-0.19036591053009033,0.31261345744132996
1788675208486411000,18.843410888671876,-1.8512039184570312,0.011435985565185547,0.04830962419509888
1788675208502533400,18.859533447265626,-2.4499449729919434,0.14313173294067383,-0.02915191650390625
1788675208518769200,18.87576904296875,-2.702767848968506,0.23438715934753418,-0.07430717349052429
1788675208534903000,18.891903076171875,-2.355133533477783,0.20996952056884766,-0.14796844124794006
1788675208551046400,18.90804638671875,-1.5121564865112305,0.19121599197387695,-0.12243953347206116
1788675208567252500,18.92425244140625,-0.7923250198364258,0.23659956455230713,-0.02441352605819702
1788675208583371300,18.940371337890625,-0.4763011932373047,0.29670488834381104,0.12531553208827972
1788675208599635000,18.956635009765623,-0.38446712493896484,0.3680555820465088,0.20814800262451172
1788675208615786200,18.9727861328125,0.005349159240722656,0.42615020275115967,0.2656501531600952
1788675208631930000,18.98893017578125,0.19561386108398438,0.42863309383392334,0.1233188658952713
1788675208648093400,19.005093505859374,0.2873954772949219,0.50806725025177,-0.25566256046295166
1788675208664216600,19.021216552734376,0.34844112396240234,0.6561969518661499,-0.4345657229423523
1788675208680440000,19.037440185546874,0.3916358947753906,0.7269637584686279,-0.48221394419670105
1788675208696589300,19.05358935546875,0.49544715881347656,0.6368836164474487,-0.4940933883190155
1788675208712733000,19.06973291015625,0.741943359375,0.44019877910614014,-0.44881007075309753
1788675208728905200,19.0859052734375,1.0174674987792969,0.09235131740570068,-0.241533100605011
1788675208745027300,19.10202734375,1.2840080261230469,-0.15380120277404785,0.013622373342514038
1788675208761252400,19.11825244140625,1.5141372680664062,-0.286584734916687,0.22597897052764893
1788675208777406200,19.13440625,1.3519411087036133,-0.293418288230896,0.4058270752429962
1788675208793550800,19.15055078125,0.6384067535400391,-0.1739494800567627,0.35367947816848755
1788675208809729500,19.1667294921875,0.5217218399047852,-0.17027568817138672,0.237009197473526
1788675208825846000,19.182845947265626,1.1172456741333008,-0.19537508487701416,0.3082902133464813
1788675208842081800,19.199081787109375,1.9632997512817383,-0.5154956579208374,0.3319477438926697
1788675208858214700,19.215214599609375,2.548903465270996,-0.7684041261672974,0.18675720691680908
1788675208874356700,19.231356689453126,2.4488210678100586,-0.8650184869766235,-0.18351402878761292
1788675208890543400,19.24754345703125,1.4753522872924805,-0.7221119403839111,-0.4968620240688324
1788675208906660000,19.26366015625,0.39894676208496094,-0.4575684070587158,-0.6374455690383911
1788675208922905900,19.27990576171875,-0.18972396850585938,-0.2776378393173218,-0.5786865949630737
1788675208939047700,19.296047607421876,-0.21770954132080078,-0.14822232723236084,-0.2649201452732086
1788675208955190500,19.3121904296875,-0.07270336151123047,-0.09181082248687744,0.10959440469741821
1788675208971390000,19.328389892578127,0.0881967544555664,-0.15764844417572021,0.38016343116760254
1788675208987507000,19.3445068359375,0.31401920318603516,-0.254727840423584,0.4731822907924652
1788675209003752400,19.36075244140625,0.16496753692626953,-0.48177438974380493,0.34689486026763916
1788675209019902200,19.376902099609374,-0.336181640625,-0.5117185115814209,-0.0645783543586731
1788675209036045600,19.393045654296873,-0.8970479965209961,-0.3765455484390259,-0.40124714374542236
1788675209052247600,19.40924755859375,-1.3345317840576172,-0.2752293348312378,-0.4464801251888275
1788675209068366000,19.425365966796875,-1.7110209465026855,-0.1209326982498169,-0.42748579382896423
1788675209084631800,19.4416318359375,-1.8647847175598145,0.10181784629821777,-0.49894022941589355
1788675209100781300,19.45778125,-1.7724924087524414,0.13749384880065918,-0.2634899914264679
1788675209116922000,19.473922119140624,-1.381765365600586,0.1966228485107422,-0.10300570726394653
1788675209133128200,19.490128173828126,-1.0226306915283203,0.20683419704437256,-0.042960017919540405
1788675209149244700,19.50624462890625,-0.6830148696899414,0.16665363311767578,-0.1428745985031128
1788675209165473800,19.522473876953125,-0.46448516845703125,0.11203014850616455,-0.12207311391830444
1788675209181650400,19.538650390625,-0.46338748931884766,0.14510667324066162,-0.06915915012359619
1788675209197789400,19.55478955078125,-0.4006938934326172,0.18172204494476318,0.05518963932991028
1788675209213964000,19.570964111328124,-0.2533435821533203,0.11905384063720703,0.2020149528980255
1788675209230113500,19.587113525390624,0.1991252899169922,0.06963729858398438,0.2833282947540283
1788675209246337000,19.6033369140625,0.5794000625610352,0.1340559720993042,0.038107067346572876
1788675209262517500,19.619517578125,0.6611852645874023,0.264972448348999,-0.3457854688167572
1788675209278672400,19.63567236328125,0.6358175277709961,0.18275105953216553,-0.5748867392539978
1788675209294831400,19.651831298828125,0.9035882949829102,-0.0950554609298706,-0.4753943085670471
1788675209310987000,19.667987060546874,1.44232177734375,-0.3923221826553345,-0.1349661648273468
1788675209327228000,19.684227783203124,1.9659881591796875,-0.4606510400772095,0.11945456266403198
1788675209343400000,19.70039990234375,2.0759286880493164,-0.39198970794677734,0.10440672934055328
1788675209359538000,19.716537841796875,2.0068607330322266,-0.33061838150024414,-0.09736855328083038
1788675209375721500,19.732721435546875,1.8472929000854492,-0.3300342559814453,-0.20696184039115906
1788675209391882800,19.7488828125,1.4820919036865234,-0.3998603820800781,-0.1396009773015976
1788675209408126700,19.765126708984376,1.1684246063232422,-0.3719133138656616,0.13775041699409485
1788675209424273400,19.7812734375,1.524871826171875,-0.5717755556106567,0.5536899566650391
1788675209440418800,19.797418701171875,2.4802932739257812,-0.7427934408187866,0.9054396748542786
1788675209456625200,19.813625244140624,2.636542320251465,-0.8346703052520752,0.6050577163696289
1788675209472730000,19.829730224609374,1.603719711303711,-0.889483630657196,-0.22377806901931763
1788675209488987100,19.845987060546875,0.46242237091064453,-0.8320087790489197,-0.45766326785087585
1788675209505120800,19.862120849609376,-0.3902616500854492,-0.7825695276260376,-0.09594994783401489
1788675209521267200,19.87826708984375,-1.0239286422729492,-0.5958091020584106,0.5626919269561768
1788675209537478100,19.89447802734375,-1.244633674621582,-0.37874484062194824,1.165231704711914
1788675209553611500,19.910611572265626,-1.1096954345703125,-0.8088393211364746,1.6242653131484985
1788675209569876200,19.926876220703125,-0.8427629470825195,-0.44181132316589355,0.7134654521942139
1788675209586028500,19.943028564453126,-0.9373855590820312,-0.11974859237670898,-0.2688142657279968
1788675209602170600,19.959170654296877,-0.9567556381225586,-0.17188870906829834,-0.3405778706073761
1788675209618337300,19.975337158203125,-1.0729427337646484,-0.14466607570648193,-0.29649871587753296
1788675209634456800,19.991456787109374,-1.433180809020996,-0.03591716289520264,-0.1598103940486908
1788675209650728700,20.007728759765627,-1.873448371887207,0.23234498500823975,-0.03560835123062134
1788675209666883000,20.023883056640624,-2.110330104827881,0.3373211622238159,-0.03284648060798645
1788675209683027200,20.040027099609375,-2.2424283027648926,0.36066603660583496,-0.12194082140922546
1788675209699202300,20.056202392578125,-2.182027816772461,0.39154815673828125,-0.15903252363204956
1788675209715306200,20.07230615234375,-1.6785802841186523,0.5130096673965454,-0.02284836769104004
1788675209731538400,20.088538330078126,-0.9307327270507812,0.5321508646011353,0.15179836750030518
1788675209747687400,20.1046875,-0.2485513687133789,0.4644204378128052,0.23042407631874084
1788675209763832800,20.120832763671874,0.20215797424316406,0.35320723056793213,0.06259694695472717
1788675209780044000,20.1370439453125,0.4417600631713867,0.3817676305770874,-0.08283346891403198
1788675209796210200,20.153210205078125,0.4304771423339844,0.45243728160858154,-0.24654388427734375
