time,seconds_elapsed,z,y,x
1788675189873775000,0.230775146484375,9.753703117370605,1.015936017036438,0.05935942754149437
1788675189889634800,0.246634765625,9.74899673461914,1.0590708255767822,0.07629650831222534
1788675189905759000,0.262759033203125,9.745206832885742,1.091600775718689,0.09865926206111908
1788675189922018000,0.27901806640625,9.740592956542969,1.1291288137435913,0.12769870460033417
1788675189938171000,0.2951708984375,9.735018730163574,1.1724262237548828,0.15878701210021973
1788675189954318600,0.311318603515625,9.729010581970215,1.217826247215271,0.18337133526802063
1788675189970521000,0.32752099609375,9.719220161437988,1.2888931035995483,0.21423497796058655
1788675189986645500,0.3436455078125,9.709331512451172,1.3588956594467163,0.2294778972864151
1788675190002908700,0.35990869140625,9.699156761169434,1.429238200187683,0.2324167788028717
1788675190019064000,0.37606396484375,9.697185516357422,1.445285677909851,0.21478691697120667
1788675190035210800,0.392210693359375,9.69517993927002,1.4616128206253052,0.19378353655338287
1788675190051373000,0.408373046875,9.694875717163086,1.4652557373046875,0.181105837225914
1788675190067496000,0.424495849609375,9.69459056854248,1.4673404693603516,0.17950822412967682
1788675190083773400,0.4407734375,9.693127632141113,1.4767179489135742,0.18157051503658295
1788675190099960300,0.456960205078125,9.691699028015137,1.4856770038604736,0.1847069263458252
1788675190116100900,0.473100830078125,9.689788818359375,1.4985729455947876,0.18074126541614532
1788675190132281000,0.489281005859375,9.686997413635254,1.5180200338363647,0.16757835447788239
1788675190148433700,0.50543359375,9.683910369873047,1.5398149490356445,0.14577002823352814
1788675190164671500,0.52167138671875,9.680458068847656,1.5634516477584839,0.12139058858156204
1788675190180857600,0.537857666015625,9.676589012145996,1.5887657403945923,0.0992373526096344
1788675190196999700,0.553999755859375,9.672343254089355,1.6154426336288452,0.08067868649959564
1788675190213187800,0.570187744140625,9.667889595031738,1.6425005197525024,0.06702741980552673
1788675190229354000,0.58635400390625,9.663305282592773,1.6696971654891968,0.05508442968130112
1788675190245607200,0.602607177734375,9.659061431884766,1.6944129467010498,0.04333365708589554
1788675190261758500,0.618758544921875,9.655494689941406,1.7149308919906616,0.028487369418144226
1788675190277901800,0.63490185546875,9.652204513549805,1.7335760593414307,0.007703596726059914
1788675190294102300,0.651102294921875,9.648823738098145,1.7522317171096802,-0.016765166074037552
1788675190310224000,0.667223876953125,9.645024299621582,1.7725012302398682,-0.04614122584462166
1788675190326482000,0.68348193359375,9.640798568725586,1.793980598449707,-0.08381073921918869
1788675190342631700,0.699631591796875,9.636432647705078,1.8143515586853027,-0.13297182321548462
1788675190358773200,0.715773193359375,9.63194751739502,1.8328492641448975,-0.19141915440559387
1788675190374977000,0.73197705078125,9.62703800201416,1.8512310981750488,-0.25191059708595276
1788675190391093800,0.74809375,9.620830535888672,1.8737938404083252,-0.31448808312416077
1788675190407332000,0.76433203125,9.6119966506958,1.909493327140808,-0.36571863293647766
1788675190423464000,0.7804638671875,9.600712776184082,1.9608218669891357,-0.38972607254981995
1788675190439608000,0.796608154296875,9.587645530700684,2.0244638919830322,-0.38600069284439087
1788675190455770400,0.812770263671875,9.574515342712402,2.086507558822632,-0.38148924708366394
1788675190471877000,0.828877197265625,9.584121704101562,2.0357978343963623,-0.41293802857398987
1788675190488141000,0.84514111328125,9.597729682922363,1.965235710144043,-0.4379693269729614
1788675190504270800,0.861270751953125,9.604491233825684,1.9256831407546997,-0.46463543176651
1788675190520465200,0.877465087890625,9.60488510131836,1.9087213277816772,-0.5228379368782043
1788675190536637000,0.893636962890625,9.60551643371582,1.8874841928482056,-0.5846697092056274
1788675190552759300,0.90975927734375,9.608306884765625,1.8622243404388428,-0.6188299655914307
1788675190568949500,0.925949462890625,9.613707542419434,1.8292490243911743,-0.6331344842910767
1788675190585104600,0.942104736328125,9.620844841003418,1.789177656173706,-0.6391925811767578
1788675190601250300,0.958250244140625,9.628698348999023,1.7447985410690308,-0.6436101198196411
1788675190617428700,0.9744287109375,9.635594367980957,1.7038257122039795,-0.6501381993293762
1788675190633551000,0.990551025390625,9.641071319580078,1.6673694849014282,-0.6633418798446655
1788675190649790700,1.006790771484375,9.642330169677734,1.6561414003372192,-0.6730870008468628
1788675190665942000,1.02294189453125,9.637682914733887,1.685318946838379,-0.6671975255012512
1788675190682091000,1.039091064453125,9.631621360778809,1.7231096029281616,-0.6581412553787231
1788675190698252800,1.055252685546875,9.62846565246582,1.743933081626892,-0.6494112014770508
1788675190714363100,1.071363037109375,9.629865646362305,1.7413303852081299,-0.635490894317627
1788675190730613000,1.087613037109375,9.633296966552734,1.7287274599075317,-0.6176361441612244
1788675190746766000,1.10376611328125,9.635254859924316,1.722686529159546,-0.6038247346878052
1788675190762915300,1.119915283203125,9.633949279785156,1.7315107583999634,-0.599393904209137
1788675190779106800,1.13610693359375,9.630350112915039,1.7463722229003906,-0.613944411277771
1788675190795229000,1.15222900390625,9.625840187072754,1.760398268699646,-0.6438941955566406
1788675190811437300,1.168437255859375,9.622901916503906,1.7662341594696045,-0.6712401509284973
1788675190827593200,1.18459326171875,9.623621940612793,1.7561365365982056,-0.6872221231460571
1788675190843740400,1.200740478515625,9.628728866577148,1.7282493114471436,-0.6863846182823181
1788675190859943700,1.216943603515625,9.634286880493164,1.696575403213501,-0.6874160170555115
1788675190876064800,1.233064697265625,9.638436317443848,1.6704456806182861,-0.6932191252708435
1788675190892330000,1.249330078125,9.639598846435547,1.6596804857254028,-0.7028337121009827
1788675190908482600,1.265482666015625,9.63945198059082,1.656237006187439,-0.7129065990447998
1788675190924627500,1.28162744140625,9.639762878417969,1.6514638662338257,-0.7197355031967163
1788675190940791600,1.29779150390625,9.641244888305664,1.6444915533065796,-0.7158411741256714
1788675190956909000,1.313908935546875,9.64340877532959,1.6384663581848145,-0.7003423571586609
1788675190973175600,1.330175537109375,9.645395278930664,1.6358555555343628,-0.6787542700767517
1788675190989326800,1.346326904296875,9.646259307861328,1.6391681432724,-0.6581820249557495
1788675191005474600,1.362474609375,9.645471572875977,1.6499603986740112,-0.6425670981407166
1788675191021661000,1.378660888671875,9.642847061157227,1.6700363159179688,-0.6299816370010376
1788675191037777700,1.394777587890625,9.637665748596191,1.7052720785140991,-0.6146852970123291
1788675191054007300,1.41100732421875,9.631054878234863,1.7519062757492065,-0.5865148901939392
1788675191070192400,1.4271923828125,9.625404357910156,1.7964109182357788,-0.5430320501327515
1788675191086336000,1.4433359375,9.622198104858398,1.8293993473052979,-0.48682498931884766
1788675191102517800,1.459517822265625,9.620368957519531,1.8563873767852783,-0.4155988395214081
1788675191118673700,1.475673583984375,9.618453979492188,1.8808188438415527,-0.3438757359981537
1788675191134915800,1.491915771484375,9.61650276184082,1.9002419710159302,-0.2869652807712555
1788675191151104000,1.50810400390625,9.615280151367188,1.9114079475402832,-0.2515869736671448
1788675191167249200,1.524249267578125,9.614937782287598,1.9150904417037964,-0.23618046939373016
1788675191183439400,1.540439453125,9.615716934204102,1.9119011163711548,-0.23023316264152527
1788675191199607300,1.556607177734375,9.617544174194336,1.9050931930541992,-0.20942284166812897
1788675191215857000,1.57285693359375,9.620081901550293,1.8957277536392212,-0.175029456615448
1788675191232056300,1.589056396484375,9.6278715133667,1.8588663339614868,-0.13817088305950165
1788675191248199200,1.60519921875,9.63682746887207,1.8137212991714478,-0.11111266165971756
1788675191264400600,1.621400634765625,9.6396484375,1.7982734441757202,-0.11737684160470963
1788675191280521000,1.63752099609375,9.633561134338379,1.8285490274429321,-0.14590704441070557
1788675191296784100,1.6537841796875,9.622634887695312,1.8818466663360596,-0.18424442410469055
1788675191312939300,1.669939208984375,9.612597465515137,1.927620530128479,-0.22941307723522186
1788675191329083400,1.68608349609375,9.607540130615234,1.9470587968826294,-0.27301260828971863
1788675191345293300,1.702293212890625,9.607171058654785,1.944873332977295,-0.30019232630729675
1788675191361414700,1.71841455078125,9.60865306854248,1.9373146295547485,-0.30164825916290283
1788675191377683200,1.73468310546875,9.609086036682129,1.9367649555206299,-0.29117321968078613
1788675191393836300,1.750836181640625,9.608043670654297,1.9400063753128052,-0.3037436008453369
1788675191409980000,1.76697998046875,9.604969024658203,1.9465742111206055,-0.35468828678131104
1788675191426143500,1.7831435546875,9.598525047302246,1.9639310836791992,-0.42623016238212585
1788675191442263600,1.799263671875,9.588679313659668,1.9948909282684326,-0.49802061915397644
1788675191458529000,1.815529052734375,9.57694149017334,2.0375850200653076,-0.5484656691551208
1788675191474676700,1.8316767578125,9.565576553344727,2.084125280380249,-0.5714511871337891
1788675191490822000,1.84782177734375,9.55445384979248,2.1326000690460205,-0.5786396861076355
1788675191506991000,1.8639912109375,9.541426658630371,2.1894378662109375,-0.5813257098197937
1788675191523113500,1.880113525390625,9.54035758972168,2.1919925212860107,-0.5891730189323425
1788675191539380700,1.896380615234375,9.5634183883667,2.0905544757843018,-0.583954930305481
1788675191555515100,1.91251513671875,9.584132194519043,2.001370906829834,-0.5561544299125671
1788675191571660800,1.928660888671875,9.598469734191895,1.9348729848861694,-0.5440910458564758
1788675191587823000,1.944822998046875,9.603446006774902,1.9080396890640259,-0.5509930849075317
1788675191603938000,1.96093798828125,9.600746154785156,1.9173883199691772,-0.5654116272926331
1788675191620181500,1.977181396484375,9.591938018798828,1.954769492149353,-0.5865097045898438
1788675191636332800,1.993332763671875,9.578944206237793,2.0116121768951416,-0.6063219308853149
1788675191652477200,2.009477294921875,9.563496589660645,2.081002950668335,-0.6159157156944275
1788675191668665900,2.025665771484375,9.553067207336426,2.125965118408203,-0.6241559982299805
1788675191684801000,2.041801025390625,9.55217456817627,2.1277055740356445,-0.6318337321281433
1788675191701047600,2.058047607421875,9.5571928024292,2.1088149547576904,-0.6191469430923462
1788675191717180400,2.074180419921875,9.558045387268066,2.114837169647217,-0.5844792127609253
1788675191733324800,2.09032470703125,9.548712730407715,2.1611557006835938,-0.5673481822013855
1788675191749522700,2.106522705078125,9.531340599060059,2.230879545211792,-0.5891575813293457
1788675191765645000,2.12264501953125,9.513529777526855,2.294259786605835,-0.6320626735687256
1788675191781849900,2.138849853515625,9.507009506225586,2.3115344047546387,-0.6663082242012024
1788675191797992200,2.1549921875,9.519085884094238,2.2604477405548096,-0.6691510081291199
1788675191814137900,2.171137939453125,9.542105674743652,2.170006513595581,-0.6400606036186218
1788675191830335500,2.18733544921875,9.56503677368164,2.0793652534484863,-0.5972345471382141
1788675191846457300,2.203457275390625,9.57906723022461,2.0237231254577637,-0.5624970197677612
1788675191862720000,2.219719970703125,9.582226753234863,2.0100255012512207,-0.5577794909477234
1788675191878876200,2.235876220703125,9.580050468444824,2.0141799449920654,-0.5797263383865356
1788675191895022300,2.252022216796875,9.577935218811035,2.017573833465576,-0.6024442315101624
1788675191911227400,2.268227294921875,9.580126762390137,2.0058250427246094,-0.6068221926689148
1788675191927347200,2.28434716796875,9.584351539611816,1.9865663051605225,-0.6034542918205261
1788675191943612000,2.30061181640625,9.586106300354004,1.9783074855804443,-0.6027096509933472
1788675191959764000,2.316763916015625,9.584086418151855,1.9865467548370361,-0.6076983213424683
1788675191975904800,2.33290478515625,9.579035758972168,2.007249116897583,-0.6192052364349365
1788675191992076000,2.349075927734375,9.573288917541504,2.0315961837768555,-0.6286098957061768
1788675192008229600,2.365229736328125,9.56791877746582,2.054018974304199,-0.6374359130859375
1788675192024469000,2.381468994140625,9.564851760864258,2.0620505809783936,-0.6572223901748657
1788675192040593200,2.39759326171875,9.56183910369873,2.0668952465057373,-0.685244083404541
1788675192056688000,2.413688232421875,9.551775932312012,2.1032826900482178,-0.7142590284347534
1788675192072876500,2.42987646484375,9.555450439453125,2.058555841445923,-0.7912601232528687
1788675192089023500,2.4460234375,9.572213172912598,1.9509847164154053,-0.8583652973175049
1788675192105297000,2.462296875,9.583577156066895,1.8566943407058716,-0.9370787143707275
1788675192121432000,2.47843212890625,9.58112621307373,1.812596082687378,-1.042545199394226
1788675192137495600,2.49449560546875,9.56965160369873,1.805361032485962,-1.1544827222824097
1788675192153664800,2.510664794921875,9.558405876159668,1.8077012300491333,-1.2407585382461548
1788675192169825800,2.52682568359375,9.552391052246094,1.8038667440414429,-1.2916159629821777
1788675192186028000,2.543028076171875,9.553245544433594,1.7967392206192017,-1.295231580734253
1788675192202190300,2.5591904296875,9.543889045715332,1.8387240171432495,-1.3052438497543335
1788675192218350300,2.575350341796875,9.509188652038574,1.976312279701233,-1.3564293384552002
1788675192234550500,2.591550537109375,9.455225944519043,2.1599233150482178,-1.450454592704773
1788675192250645200,2.607645263671875,9.398475646972656,2.32063364982605,-1.566430687904358
1788675192266892000,2.62389208984375,9.358208656311035,2.414499044418335,-1.662678837776184
1788675192283041000,2.640041015625,9.34636116027832,2.4413838386535645,-1.6898423433303833
1788675192299181800,2.656181884765625,9.362987518310547,2.4264328479766846,-1.6178014278411865
1788675192315390200,2.67239013671875,9.396965980529785,2.3909292221069336,-1.4665900468826294
1788675192331530000,2.688530029296875,9.432015419006348,2.353428840637207,-1.291838526725769
1788675192347793200,2.704793212890625,9.460175514221191,2.3217179775238037,-1.1336195468902588
1788675192363933700,2.72093359375,9.47878646850586,2.2944209575653076,-1.0288947820663452
1788675192380077000,2.7370771484375,9.491266250610352,2.2603423595428467,-0.9884880781173706
1788675192396237300,2.7532373046875,9.501618385314941,2.216928720474243,-0.9873466491699219
1788675192412351700,2.769351806640625,9.513880729675293,2.1667096614837646,-0.9807265400886536
1788675192428589300,2.78558935546875,9.528841018676758,2.1164016723632812,-0.9446802735328674
1788675192444743000,2.801742919921875,9.543435096740723,2.077690601348877,-0.881161093711853
1788675192460888300,2.817888427734375,9.55559253692627,2.0531625747680664,-0.8034742474555969
1788675192477054700,2.8340546875,9.564231872558594,2.0404043197631836,-0.7298004627227783
1788675192493180000,2.850179931640625,9.568887710571289,2.032221555709839,-0.6905465722084045
1788675192509459700,2.866459716796875,9.570661544799805,2.0240092277526855,-0.6900716423988342
1788675192525612000,2.882612060546875,9.573040008544922,2.0105011463165283,-0.6965575218200684
1788675192541758500,2.898758544921875,9.577863693237305,1.9945937395095825,-0.6756618618965149
1788675192557929000,2.914928955078125,9.581576347351074,1.988966941833496,-0.6385965943336487
1788675192574049800,2.9310498046875,9.58636474609375,1.9831622838974,-0.5822900533676147
1788675192590242800,2.947242919921875,9.592105865478516,1.9695079326629639,-0.5319197773933411
1788675192606377200,2.963377197265625,9.598749160766602,1.9461435079574585,-0.4969097971916199
1788675192622521600,2.979521484375,9.603717803955078,1.9221539497375488,-0.49427923560142517
1788675192638703900,2.995703857421875,9.603798866271973,1.9137606620788574,-0.5243680477142334
1788675192654824700,3.01182470703125,9.599425315856934,1.9239882230758667,-0.5654255747795105
1788675192671073500,3.028073486328125,9.593581199645996,1.9411789178848267,-0.6044901013374329
1788675192687148300,3.044148193359375,9.589652061462402,1.950286865234375,-0.6366721391677856
1788675192703296000,3.0602958984375,9.588190078735352,1.949202299118042,-0.6615311503410339
1788675192719495700,3.07649560546875,9.587074279785156,1.9529680013656616,-0.6665590405464172
1788675192735620600,3.09262060546875,9.588190078735352,1.953908085823059,-0.6474927067756653
1788675192751829200,3.108829345703125,9.586438179016113,1.9719806909561157,-0.6179727911949158
1788675192767983600,3.124983642578125,9.579906463623047,2.0083703994750977,-0.6018469333648682
1788675192784141800,3.141141845703125,9.571012496948242,2.05133056640625,-0.5984596610069275
1788675192800301300,3.15730126953125,9.56385612487793,2.0851237773895264,-0.5960789322853088
1788675192816425700,3.17342578125,9.560673713684082,2.0997579097747803,-0.5957530736923218
1788675192832692000,3.18969189453125,9.559694290161133,2.097510576248169,-0.6189382672309875
1788675192848844300,3.20584423828125,9.560717582702637,2.0829832553863525,-0.651333212852478
1788675192864990700,3.22199072265625,9.562516212463379,2.0630226135253906,-0.6874702572822571
1788675192881152300,3.23815234375,9.563475608825684,2.0491833686828613,-0.7149608135223389
1788675192897258500,3.254258544921875,9.5608491897583,2.0558769702911377,-0.7306966781616211
1788675192913539600,3.27053955078125,9.555556297302246,2.0740480422973633,-0.7483744025230408
1788675192929693700,3.286693603515625,9.553873062133789,2.0729451179504395,-0.7725284099578857
1788675192945828900,3.302828857421875,9.560482025146484,2.029175043106079,-0.8062431216239929
1788675192962012200,3.31901220703125,9.572160720825195,1.9553126096725464,-0.849041759967804
1788675192978147800,3.33514794921875,9.583434104919434,1.8801655769348145,-0.8905956745147705
1788675192994418000,3.35141796875,9.589130401611328,1.8387786149978638,-0.9153486490249634
1788675193010555600,3.3675556640625,9.587313652038574,1.8513681888580322,-0.9089820981025696
1788675193026690800,3.38369091796875,9.581353187561035,1.8999934196472168,-0.8706833720207214
1788675193042876000,3.3998759765625,9.576252937316895,1.9503731727600098,-0.8135179281234741
1788675193059014400,3.416014404296875,9.57504940032959,1.9785696268081665,-0.7576853632926941
1788675193075294000,3.4322939453125,9.579598426818848,1.9731948375701904,-0.7128741145133972
1788675193091480600,3.44848046875,9.588521957397461,1.9410161972045898,-0.6805071234703064
1788675193107629600,3.464629638671875,9.59990119934082,1.8945132493972778,-0.6504598259925842
1788675193123820000,3.480820068359375,9.609731674194336,1.8525677919387817,-0.6256495118141174
1788675193139990500,3.496990478515625,9.614355087280273,1.8353381156921387,-0.6050552725791931
1788675193156194600,3.513194580078125,9.611434936523438,1.8555209636688232,-0.5896984338760376
1788675193172386000,3.529385986328125,9.602766990661621,1.9038268327713013,-0.5768028497695923
1788675193188532500,3.545532470703125,9.590667724609375,1.9688068628311157,-0.5597091913223267
1788675193204729900,3.561729736328125,9.61556625366211,1.8825759887695312,-0.408894807100296
1788675193220834300,3.577834228515625,9.652571678161621,1.689486026763916,-0.3793257772922516
1788675193237078300,3.594078369140625,9.677334785461426,1.5289058685302734,-0.4266427457332611
1788675193253213400,3.61021337890625,9.680700302124023,1.4853980541229248,-0.49801814556121826
1788675193269360400,3.6263603515625,9.668745040893555,1.5336015224456787,-0.5777748227119446
1788675193285567200,3.642567138671875,9.651043891906738,1.6160852909088135,-0.6449968218803406
1788675193301674200,3.65867431640625,9.63574504852295,1.6864656209945679,-0.6918333768844604
1788675193317910800,3.674910888671875,9.630861282348633,1.706949234008789,-0.7093820571899414
1788675193334046500,3.69104638671875,9.638256072998047,1.6710060834884644,-0.6943635940551758
1788675193350192000,3.707192138671875,9.650678634643555,1.6110084056854248,-0.6629021763801575
1788675193366363600,3.72336376953125,9.660432815551758,1.5607500076293945,-0.6406852602958679
1788675193382498800,3.739498779296875,9.663619041442871,1.5428900718688965,-0.6358782649040222
1788675193398754000,3.755754150390625,9.659119606018066,1.5681480169296265,-0.6424208283424377
1788675193414892500,3.771892578125,9.650726318359375,1.6208837032318115,-0.6376529932022095
1788675193431036200,3.7880361328125,9.642890930175781,1.6774650812149048,-0.6092230677604675
1788675193447207000,3.80420703125,9.637582778930664,1.7201884984970093,-0.5730041265487671
1788675193463324200,3.82032421875,9.634952545166016,1.7460473775863647,-0.5379667282104492
1788675193479557400,3.836557373046875,9.633748054504395,1.767545223236084,-0.48690083622932434
1788675193495709200,3.852709228515625,9.631141662597656,1.7989600896835327,-0.418622761964798
1788675193511855600,3.868855712890625,9.624500274658203,1.847074270248413,-0.35736069083213806
1788675193528035000,3.88503515625,9.613879203796387,1.9083287715911865,-0.3193632662296295
1788675193544158500,3.901158447265625,9.602890014648438,1.966009259223938,-0.29949408769607544
1788675193560402200,3.917402099609375,9.597232818603516,1.9929313659667969,-0.30288809537887573
1788675193576553500,3.933553466796875,9.60099983215332,1.9742159843444824,-0.30605262517929077
1788675193592699400,3.949699462890625,9.609310150146484,1.9360458850860596,-0.28858134150505066
1788675193608888300,3.965888427734375,9.615683555603027,1.9077403545379639,-0.2636982202529907
1788675193624994600,3.98199462890625,9.615777969360352,1.909375548362732,-0.24796129763126373
1788675193641244000,3.998243896484375,9.610503196716309,1.9361573457717896,-0.2447807490825653
1788675193657397000,4.01439697265625,9.60449504852295,1.9653663635253906,-0.24779272079467773
1788675193673543200,4.030543212890625,9.602116584777832,1.976214051246643,-0.25360894203186035
1788675193689744100,4.046744140625,9.605141639709473,1.960854172706604,-0.2582399249076843
1788675193705835500,4.06283544921875,9.61205768585205,1.9270555973052979,-0.25530514121055603
1788675193722098400,4.079098388671875,9.621182441711426,1.8825740814208984,-0.24319034814834595
1788675193738252800,4.095252685546875,9.629591941833496,1.8424409627914429,-0.21623735129833221
1788675193754398200,4.111398193359375,9.634687423706055,1.8194663524627686,-0.1809222549200058
1788675193770606300,4.1276064453125,9.635601043701172,1.8183537721633911,-0.13845333456993103
1788675193786730500,4.14373046875,9.632779121398926,1.835598349571228,-0.1026567667722702
1788675193802999000,4.1599990234375,9.628360748291016,1.8592102527618408,-0.09165551513433456
1788675193819152400,4.17615234375,9.625996589660645,1.8711398839950562,-0.09702343493700027
1788675193835297800,4.1922978515625,9.627387046813965,1.863806128501892,-0.10011022537946701
1788675193851460400,4.20846044921875,9.631057739257812,1.8454327583312988,-0.0865631252527237
1788675193867489500,4.224489501953125,9.634968757629395,1.8243885040283203,-0.09677885472774506
1788675193883765800,4.240765869140625,9.63741397857666,1.8100258111953735,-0.12020484358072281
1788675193899906800,4.25690673828125,9.639030456542969,1.80210542678833,-0.10909275710582733
1788675193916051200,4.27305126953125,9.641636848449707,1.7906904220581055,-0.05155329778790474
1788675193932235000,4.289235107421875,9.64478588104248,1.7740634679794312,0.03448726609349251
1788675193948391400,4.305391357421875,9.647814750671387,1.7533961534500122,0.12515519559383392
1788675193964618800,4.32161865234375,9.649826049804688,1.7337781190872192,0.2127438336610794
1788675193980765200,4.33776513671875,9.649535179138184,1.7253130674362183,0.283090740442276
1788675193996927700,4.353927734375,9.647761344909668,1.729997158050537,0.31336337327957153
1788675194013115100,4.370115234375,9.646549224853516,1.7404131889343262,0.29231250286102295
1788675194029282000,4.386281982421875,9.649828910827637,1.7279826402664185,0.25545933842658997
1788675194045529600,4.402529541015625,9.654936790466309,1.707963228225708,0.1882905811071396
1788675194061714200,4.418714111328125,9.656275749206543,1.7087385654449463,0.08334332704544067
1788675194077863400,4.434863525390625,9.65493106842041,1.718304991722107,-0.011317001655697823
1788675194094061300,4.451061279296875,9.654552459716797,1.7199089527130127,-0.043856460601091385
1788675194110173700,4.467173583984375,9.655333518981934,1.7160753011703491,-0.002605944871902466
1788675194126365200,4.483365234375,9.654353141784668,1.718223214149475,0.10748407989740372
1788675194142509000,4.499509033203125,9.649796485900879,1.7307548522949219,0.2373119443655014
1788675194158658600,4.515658447265625,9.645809173583984,1.7420027256011963,0.3068806827068329
1788675194174869200,4.531869140625,9.648346900939941,1.7261592149734497,0.31647226214408875
1788675194190968300,4.54796826171875,9.656316757202148,1.6848905086517334,0.2950703501701355
1788675194207101700,4.564101806640625,9.667827606201172,1.6240613460540771,0.25672614574432373
1788675194223251200,4.580251220703125,9.682205200195312,1.5416862964630127,0.2202136367559433
1788675194239402800,4.59640283203125,9.697011947631836,1.4476090669631958,0.20683728158473969
1788675194255616500,4.612616455078125,9.708301544189453,1.3635497093200684,0.24492521584033966
1788675194271740000,4.628739990234375,9.714921951293945,1.3002032041549683,0.3164684474468231
1788675194287983600,4.644983642578125,9.717214584350586,1.259445071220398,0.3999018967151642
1788675194304113000,4.66111279296875,9.717443466186523,1.239324688911438,0.4535973370075226
1788675194320260900,4.6772607421875,9.71831226348877,1.2308876514434814,0.45794451236724854
1788675194336428800,4.6934287109375,9.72010612487793,1.2261360883712769,0.43187618255615234
1788675194352551000,4.709551025390625,9.721186637878418,1.2276761531829834,0.40215933322906494
1788675194368816000,4.725816162109375,9.720915794372559,1.2353392839431763,0.38487786054611206
1788675194384970500,4.741970458984375,9.719686508178711,1.2468757629394531,0.3786557614803314
1788675194401118700,4.75811865234375,9.717963218688965,1.2584781646728516,0.3844657242298126
1788675194417293600,4.77429345703125,9.716038703918457,1.2681763172149658,0.4008881747722626
1788675194433414100,4.7904140625,9.713618278503418,1.2780150175094604,0.42741522192955017
1788675194449654000,4.806654052734375,9.709943771362305,1.2936749458312988,0.46236705780029297
1788675194465808000,4.822807861328125,9.705194473266602,1.3170804977416992,0.49486494064331055
1788675194481955300,4.838955322265625,9.70085620880127,1.3424490690231323,0.5114716291427612
1788675194498128400,4.85512841796875,9.698423385620117,1.363543152809143,0.5017194747924805
1788675194514249700,4.871249755859375,9.698064804077148,1.3755624294281006,0.4751322865486145
1788675194530495200,4.8874951171875,9.698382377624512,1.382345199584961,0.4481959342956543
1788675194546647600,4.9036474609375,9.697909355163574,1.3890018463134766,0.4377412497997284
1788675194562791200,4.919791259765625,9.695980072021484,1.4009610414505005,0.4423549473285675
1788675194578996200,4.935996337890625,9.692414283752441,1.42207670211792,0.4529835283756256
1788675194595117600,4.95211767578125,9.687271118164062,1.451371669769287,0.4697769582271576
1788675194611306200,4.96830615234375,9.680767059326172,1.4864251613616943,0.4936245083808899
1788675194627441200,4.984441162109375,9.67338752746582,1.529516577720642,0.5064895153045654
1788675194643586300,5.00058642578125,9.666444778442383,1.5703849792480469,0.5139323472976685
1788675194659783200,5.016783203125,9.661881446838379,1.5920649766921997,0.5327037572860718
1788675194675902500,5.03290234375,9.66099739074707,1.5849006175994873,0.5688552856445312
1788675194692158700,5.04915869140625,9.663646697998047,1.5506569147109985,0.6162617206573486
1788675194708295400,5.06529541015625,9.667737007141113,1.5126585960388184,0.645841121673584
1788675194724444000,5.08144384765625,9.671204566955566,1.4950921535491943,0.6347321271896362
1788675194740621600,5.09762158203125,9.67263412475586,1.5067546367645264,0.5832963585853577
1788675194756744200,5.113744140625,9.67094898223877,1.5397497415542603,0.5218297243118286
1788675194773000400,5.13000048828125,9.666740417480469,1.5786079168319702,0.48220309615135193
1788675194789147600,5.146147705078125,9.66242790222168,1.6040517091751099,0.48466041684150696
1788675194805291500,5.16229150390625,9.659080505371094,1.6125224828720093,0.5218403339385986
1788675194821454800,5.178454833984375,9.656606674194336,1.610036015510559,0.5728120803833008
1788675194837576700,5.19457666015625,9.655448913574219,1.5991084575653076,0.6209226250648499
1788675194853850600,5.2108505859375,9.656484603881836,1.5814210176467896,0.6494630575180054
1788675194870032100,5.2270322265625,9.660306930541992,1.5589029788970947,0.6470484733581543
1788675194886179800,5.243179931640625,9.666236877441406,1.5351710319519043,0.6144054532051086
1788675194902358000,5.25935791015625,9.67220401763916,1.5141808986663818,0.5710576176643372
1788675194918510000,5.275510009765625,9.676913261413574,1.4976919889450073,0.5335385203361511
1788675194934743800,5.291743896484375,9.679614067077637,1.4856723546981812,0.5179246068000793
1788675194950894800,5.307894775390625,9.68002700805664,1.4804401397705078,0.5251209735870361
1788675194967039500,5.32403955078125,9.678263664245605,1.4844976663589478,0.5457639098167419
1788675194983224300,5.340224365234375,9.675125122070312,1.4973440170288086,0.5659536719322205
1788675194999345700,5.356345703125,9.671954154968262,1.5120033025741577,0.5809794068336487
1788675195015588400,5.37258837890625,9.668992042541504,1.5279674530029297,0.5884695649147034
1788675195031783200,5.388783203125,9.66552448272705,1.549378514289856,0.5894511938095093
1788675195047927800,5.404927734375,9.661385536193848,1.5755574703216553,0.5879090428352356
1788675195064128800,5.421128662109375,9.656281471252441,1.6088296175003052,0.5816249847412109
1788675195080248000,5.437248046875,9.650323867797852,1.650227427482605,0.5642552971839905
1788675195096455000,5.453454833984375,9.642735481262207,1.7019321918487549,0.5398744344711304
1788675195112605700,5.469605712890625,9.634339332580566,1.7571275234222412,0.5122538805007935
1788675195128750300,5.485750244140625,9.62578010559082,1.8110674619674683,0.4845438003540039
1788675195144926200,5.50192626953125,9.617269515991211,1.8616843223571777,0.46114397048950195
1788675195161046300,5.51804638671875,9.609380722045898,1.9051799774169922,0.44774889945983887
1788675195177260300,5.53426025390625,9.601934432983398,1.9408985376358032,0.45403850078582764
1788675195193413000,5.5504130859375,9.595611572265625,1.9683167934417725,0.4694174826145172
1788675195209559000,5.56655908203125,9.59164047241211,1.9885584115982056,0.465231716632843
1788675195225766400,5.582766357421875,9.591812133789062,1.9961072206497192,0.4278862774372101
1788675195241886200,5.59888623046875,9.596787452697754,1.9809333086013794,0.3846501111984253
1788675195258147300,5.615147216796875,9.605680465698242,1.9437198638916016,0.3510676920413971
1788675195274281000,5.631281005859375,9.616043090820312,1.8948701620101929,0.3340146243572235
1788675195290424300,5.64742431640625,9.62484359741211,1.849560260772705,0.33450981974601746
1788675195306587600,5.663587646484375,9.628610610961914,1.8284260034561157,0.3422093391418457
1788675195322691800,5.67969189453125,9.626911163330078,1.8351056575775146,0.35407036542892456
1788675195338963200,5.695963134765625,9.622288703918457,1.8557651042938232,0.3715970814228058
1788675195355096300,5.712096435546875,9.617517471313477,1.8756383657455444,0.39462336897850037
1788675195371239400,5.728239501953125,9.6146879196167,1.8838586807250977,0.4233609437942505
1788675195387410400,5.744410400390625,9.617011070251465,1.866154670715332,0.44826608896255493
1788675195403532500,5.760532470703125,9.625162124633789,1.8187105655670166,0.46789276599884033
1788675195419765800,5.776765869140625,9.63329792022705,1.7674975395202637,0.4958932101726532
1788675195435915800,5.792915771484375,9.639668464660645,1.7256507873535156,0.5189431309700012
1788675195452061700,5.809061767578125,9.642666816711426,1.7095634937286377,0.5164847373962402
1788675195468243000,5.825242919921875,9.643543243408203,1.7150176763534546,0.48081108927726746
1788675195484366000,5.841365966796875,9.644841194152832,1.7222133874893188,0.4259001314640045
1788675195500562400,5.8575625,9.645567893981934,1.729247808456421,0.3783086836338043
1788675195516718800,5.87371875,9.64540958404541,1.7344914674758911,0.357785165309906
1788675195532866300,5.8898662109375,9.643932342529297,1.741377830505371,0.36408713459968567
1788675195549052200,5.90605224609375,9.640673637390137,1.7537686824798584,0.38997963070869446
1788675195565172200,5.922172119140625,9.63580322265625,1.773154377937317,0.421429306268692
1788675195581414100,5.9384140625,9.630515098571777,1.7934819459915161,0.45496368408203125
1788675195597554400,5.954554443359375,9.625801086425781,1.8108701705932617,0.4848587214946747
1788675195613672400,5.97067236328125,9.623196601867676,1.82450270652771,0.4854589104652405
1788675195629863700,5.98686376953125,9.621527671813965,1.8379464149475098,0.4674750864505768
1788675195645985300,6.0029853515625,9.619199752807617,1.85482656955719,0.4483361542224884
1788675195662235600,6.019235595703125,9.618080139160156,1.8674513101577759,0.41897091269493103
1788675195678387500,6.035387451171875,9.618125915527344,1.872356653213501,0.39537447690963745
1788675195694528800,6.05152880859375,9.618545532226562,1.871185064315796,0.3906986713409424
1788675195710705700,6.06770556640625,9.61777400970459,1.8725420236587524,0.40299171209335327
1788675195726824000,6.083823974609375,9.617270469665527,1.8637913465499878,0.4525310695171356
1788675195743089000,6.1000888671875,9.620293617248535,1.8416569232940674,0.47814884781837463
1788675195759222800,6.116222900390625,9.622941017150879,1.818733811378479,0.511474072933197
1788675195775369000,6.132368896484375,9.624308586120605,1.8067514896392822,0.5279478430747986
1788675195791534000,6.1485341796875,9.623329162597656,1.8088492155075073,0.5385051369667053
1788675195807640300,6.164640380859375,9.62057876586914,1.8235981464385986,0.5379053354263306
1788675195823908600,6.18090869140625,9.617199897766113,1.839070439338684,0.5455901622772217
1788675195840072700,6.19707275390625,9.615612030029297,1.8415461778640747,0.5648965239524841
1788675195856221000,6.213220947265625,9.617186546325684,1.8276482820510864,0.5829376578330994
1788675195872403200,6.2294033203125,9.62118148803711,1.807134747505188,0.5809618830680847
1788675195888562700,6.245562744140625,9.62536907196045,1.790271282196045,0.5635421872138977
1788675195904800000,6.261800048828125,9.627646446228027,1.7843016386032104,0.5432071685791016
1788675195920993000,6.277992919921875,9.627456665039062,1.7906215190887451,0.5254985690116882
1788675195937138200,6.29413818359375,9.626116752624512,1.8018015623092651,0.5116289258003235
1788675195953325000,6.310324951171875,9.628151893615723,1.7944157123565674,0.49914872646331787
1788675195969446100,6.326446044921875,9.635894775390625,1.7573392391204834,0.48132842779159546
1788675195985690000,6.342690185546875,9.64700984954834,1.7006680965423584,0.4618741571903229
1788675196001886500,6.358886474609375,9.655937194824219,1.6534390449523926,0.44653481245040894
1788675196018030800,6.37503076171875,9.661910057067871,1.6224877834320068,0.43060311675071716
1788675196034228700,6.391228759765625,9.665178298950195,1.6084266901016235,0.40949156880378723
1788675196050336800,6.407336669921875,9.666622161865234,1.6037648916244507,0.39336878061294556
1788675196066596600,6.4235966796875,9.66662311553955,1.605352759361267,0.38681402802467346
1788675196082727400,6.4397275390625,9.6654634475708,1.6110198497772217,0.3921860158443451
1788675196098875100,6.455875244140625,9.663800239562988,1.6173832416534424,0.40670913457870483
1788675196115086300,6.47208642578125,9.662846565246582,1.6197444200515747,0.4197638928890228
1788675196131204400,6.488204345703125,9.66336441040039,1.6145751476287842,0.42770490050315857
1788675196147469600,6.504469482421875,9.66535758972168,1.6018885374069214,0.4303448498249054
1788675196163623200,6.520623046875,9.66772747039795,1.588851809501648,0.42541709542274475
1788675196179767600,6.536767578125,9.669079780578613,1.5832899808883667,0.415297269821167
1788675196195930000,6.55293017578125,9.668182373046875,1.59223210811615,0.40178585052490234
1788675196212052500,6.569052490234375,9.664807319641113,1.6160510778427124,0.3876432478427887
1788675196228322300,6.585322265625,9.661707878112793,1.640831708908081,0.35980358719825745
1788675196244477000,6.601476806640625,9.660050392150879,1.6596667766571045,0.31516674160957336
1788675196260653000,6.617653076171875,9.6549072265625,1.695369839668274,0.28084173798561096
1788675196276824000,6.633823974609375,9.647406578063965,1.7401282787322998,0.26436519622802734
1788675196292948500,6.649948486328125,9.641990661621094,1.769792914390564,0.26501208543777466
1788675196309199000,6.66619921875,9.63909912109375,1.7823480367660522,0.2852874994277954
1788675196325335800,6.682335693359375,9.634112358093262,1.8043469190597534,0.3139876425266266
1788675196341483300,6.698483154296875,9.62722396850586,1.8400647640228271,0.3179812431335449
1788675196357658000,6.714658203125,9.620558738708496,1.8806129693984985,0.2802300751209259
1788675196373778200,6.730778076171875,9.617634773254395,1.9015932083129883,0.2354303002357483
1788675196390012000,6.747011962890625,9.619495391845703,1.8956990242004395,0.2049964815378189
1788675196406149000,6.763149169921875,9.624628067016602,1.8700194358825684,0.19985482096672058
1788675196422296600,6.779296630859375,9.629087448120117,1.8460408449172974,0.2078367918729782
1788675196438481000,6.79548095703125,9.63035774230957,1.8375502824783325,0.2236049473285675
1788675196454585000,6.811585205078125,9.62907600402832,1.8403410911560059,0.25383251905441284
1788675196470791200,6.827791259765625,9.62723159790039,1.8451544046401978,0.286738783121109
1788675196486943500,6.843943603515625,9.627202987670898,1.8413803577423096,0.31090953946113586
1788675196503091700,6.860091796875,9.629401206970215,1.8269480466842651,0.3275318443775177
1788675196519285800,6.87628564453125,9.633413314819336,1.8031846284866333,0.3409641981124878
1788675196535408000,6.892408203125,9.639034271240234,1.7707265615463257,0.35202786326408386
1788675196551662600,6.90866259765625,9.644566535949707,1.7383060455322266,0.361942321062088
1788675196567818800,6.92481884765625,9.649394035339355,1.7106733322143555,0.36491677165031433
1788675196583967500,6.940967529296875,9.651516914367676,1.7012499570846558,0.3526451289653778
1788675196600172300,6.95717236328125,9.650659561157227,1.7117420434951782,0.3241942524909973
1788675196616271400,6.973271240234375,9.648870468139648,1.7278066873550415,0.29045596718788147
1788675196632522500,6.9895224609375,9.647391319274902,1.7399827241897583,0.2658778727054596
1788675196648680700,7.0056806640625,9.645736694335938,1.7507299184799194,0.2551339566707611
1788675196664830700,7.021830810546875,9.643590927124023,1.7616366147994995,0.2611199915409088
1788675196681043500,7.03804345703125,9.64074993133545,1.773461103439331,0.2849021255970001
1788675196697166800,7.054166748046875,9.637259483337402,1.7862597703933716,0.3207741379737854
1788675196713435100,7.07043505859375,9.633869171142578,1.7979592084884644,0.35538795590400696
1788675196729589500,7.086589599609375,9.631579399108887,1.8062963485717773,0.3746459484100342
1788675196745738000,7.102738037109375,9.6296968460083,1.8171731233596802,0.3704172670841217
1788675196761907500,7.118907470703125,9.628912925720215,1.8253908157348633,0.34981977939605713
1788675196778058200,7.135058349609375,9.627202987670898,1.8409768342971802,0.3133001923561096
1788675196794294300,7.151294189453125,9.624402046203613,1.8613604307174683,0.2767791152000427
1788675196810479600,7.167479736328125,9.621539115905762,1.8794001340866089,0.25344449281692505
1788675196826625000,7.183625,9.61925220489502,1.8906440734863281,0.25657662749290466
1788675196842814700,7.199814697265625,9.617382049560547,1.8943147659301758,0.29650846123695374
1788675196858975000,7.21597509765625,9.615602493286133,1.8931972980499268,0.35549548268318176
1788675196875251200,7.232251220703125,9.61339282989502,1.8949437141418457,0.4028022885322571
1788675196891423700,7.248423828125,9.611371040344238,1.89971923828125,0.42779964208602905
1788675196907567400,7.2645673828125,9.610395431518555,1.9041520357131958,0.4300033152103424
1788675196923762000,7.280761962890625,9.609794616699219,1.910607099533081,0.4145001471042633
1788675196939925000,7.296925048828125,9.609042167663574,1.9177154302597046,0.39881330728530884
1788675196956172000,7.313172119140625,9.608360290527344,1.919837236404419,0.4050131142139435
1788675196972325400,7.329325439453125,9.609025955200195,1.9114140272140503,0.428386926651001
1788675196988470500,7.345470458984375,9.61180305480957,1.8910422325134277,0.455615758895874
1788675197004671200,7.361671142578125,9.614988327026367,1.8731800317764282,0.46214523911476135
1788675197020791000,7.377791015625,9.61643123626709,1.868323802947998,0.45165953040122986
1788675197037042200,7.394042236328125,9.615212440490723,1.8765708208084106,0.44334834814071655
1788675197053191700,7.410191650390625,9.612921714782715,1.8877770900726318,0.44544005393981934
1788675197069334000,7.426333984375,9.612147331237793,1.8885786533355713,0.4585769772529602
1788675197085543000,7.44254296875,9.615201950073242,1.8675159215927124,0.48027482628822327
1788675197101660700,7.45866064453125,9.620163917541504,1.835437297821045,0.5039753913879395
1788675197117920300,7.474920166015625,9.625316619873047,1.7997941970825195,0.5333033800125122
1788675197134069800,7.49106982421875,9.628177642822266,1.7764885425567627,0.5591745972633362
1788675197150215200,7.507215087890625,9.629709243774414,1.7630622386932373,0.5750738382339478
1788675197166381600,7.523381591796875,9.6312255859375,1.7533414363861084,0.5793792009353638
1788675197182502100,7.539502197265625,9.633039474487305,1.7424211502075195,0.582160234451294
1788675197198777300,7.55577734375,9.634685516357422,1.7305989265441895,0.5901311039924622
1788675197214927600,7.571927734375,9.63575553894043,1.7203501462936401,0.602496325969696
1788675197231071500,7.588071533203125,9.636245727539062,1.7118180990219116,0.6187300086021423
1788675197247240400,7.604240478515625,9.636672973632812,1.7020812034606934,0.638626217842102
1788675197263362600,7.620362548828125,9.63694953918457,1.6918052434921265,0.6613442897796631
1788675197279638300,7.63663818359375,9.636605262756348,1.687536358833313,0.6770808100700378
1788675197295789300,7.652789306640625,9.635451316833496,1.6926532983779907,0.6807296276092529
1788675197311932400,7.668932373046875,9.633238792419434,1.7088121175765991,0.6716043949127197
1788675197328109600,7.685109619140625,9.632555961608887,1.7228373289108276,0.6450501680374146
1788675197344228000,7.70122802734375,9.633583068847656,1.732345700263977,0.6028615832328796
1788675197360413000,7.717412841796875,9.633772850036621,1.7479811906814575,0.552605926990509
1788675197376564000,7.73356396484375,9.633370399475098,1.7652218341827393,0.5025429725646973
1788675197392710400,7.74971044921875,9.632599830627441,1.7814009189605713,0.45829343795776367
1788675197408900900,7.76590087890625,9.62863826751709,1.8128215074539185,0.41639256477355957
1788675197425047000,7.782047119140625,9.62553882598877,1.834947109222412,0.39034247398376465
1788675197441252400,7.79825244140625,9.621445655822754,1.8558909893035889,0.3922218680381775
1788675197457389000,7.81438916015625,9.616281509399414,1.879075288772583,0.408147394657135
1788675197473529900,7.83052978515625,9.611870765686035,1.9003435373306274,0.4135533273220062
1788675197489724200,7.84672412109375,9.610715866088867,1.906546711921692,0.4118320047855377
1788675197505841000,7.8628408203125,9.614578247070312,1.8868293762207031,0.4124886989593506
1788675197522070800,7.87907080078125,9.623056411743164,1.8419466018676758,0.4176080524921417
1788675197538205700,7.895205810546875,9.631498336791992,1.7947341203689575,0.4284251928329468
1788675197554353000,7.911352783203125,9.635706901550293,1.7721327543258667,0.42788684368133545
1788675197570557700,7.9275576171875,9.634629249572754,1.783180832862854,0.4056880474090576
1788675197586660900,7.943660888671875,9.630486488342285,1.811786413192749,0.37621772289276123
1788675197602914300,7.959914306640625,9.625526428222656,1.8415635824203491,0.35814037919044495
1788675197619059200,7.97605908203125,9.621479034423828,1.8622722625732422,0.35982200503349304
1788675197635204600,7.99220458984375,9.619394302368164,1.8703806400299072,0.3732496500015259
1788675197651374800,8.008374755859375,9.618484497070312,1.8699548244476318,0.39799803495407104
1788675197667493400,8.024493408203124,9.618003845214844,1.8638403415679932,0.43644604086875916
1788675197683765500,8.040765625,9.617953300476074,1.8517022132873535,0.48637038469314575
1788675197699920400,8.05692041015625,9.618626594543457,1.8359839916229248,0.5306279063224792
1788675197716068400,8.073068359375,9.620832443237305,1.8182547092437744,0.5512978434562683
1788675197732239400,8.0892392578125,9.623038291931152,1.8079664707183838,0.5466104745864868
1788675197748386600,8.105386474609375,9.624792098999023,1.8054876327514648,0.5234278440475464
1788675197764657700,8.12165771484375,9.626605033874512,1.8048158884048462,0.4914301633834839
1788675197780841000,8.137841064453125,9.628174781799316,1.8034943342208862,0.46480441093444824
1788675197796983800,8.15398388671875,9.629398345947266,1.8004504442214966,0.4510754346847534
1788675197813164800,8.170164794921876,9.629969596862793,1.7974395751953125,0.45087000727653503
1788675197829323000,8.186322998046874,9.62901496887207,1.7997727394104004,0.4618343412876129
1788675197845513000,8.202512939453126,9.626331329345703,1.8090918064117432,0.4809685945510864
1788675197861694200,8.218694091796875,9.622782707214355,1.824967861175537,0.49186038970947266
1788675197877835300,8.234835205078125,9.619159698486328,1.8471640348434448,0.47972750663757324
1788675197894026000,8.25102587890625,9.616501808166504,1.8664082288742065,0.45803576707839966
1788675197910144500,8.26714453125,9.61460018157959,1.8817890882492065,0.43442070484161377
1788675197926353000,8.283352783203124,9.61351203918457,1.8917287588119507,0.41489917039871216
1788675197942552000,8.299552001953124,9.611408233642578,1.9067353010177612,0.39442941546440125
1788675197958691600,8.315691650390624,9.609036445617676,1.9204506874084473,0.3855684697628021
1788675197974889200,8.33188916015625,9.606595039367676,1.9310622215270996,0.3933342397212982
1788675197991004200,8.348004150390626,9.603619575500488,1.9413899183273315,0.41458860039711
1788675198007256000,8.364256103515626,9.600184440612793,1.9527356624603271,0.4400792419910431
1788675198023402000,8.380402099609375,9.597358703613281,1.9606491327285767,0.46577656269073486
1788675198039542800,8.396542724609375,9.595580101013184,1.964497685432434,0.48577627539634705
1788675198055745800,8.412745849609376,9.594657897949219,1.964072585105896,0.5053048729896545
1788675198071865000,8.428864990234375,9.594494819641113,1.9543945789337158,0.5444252490997314
1788675198088120800,8.445120849609374,9.595662117004395,1.929381251335144,0.6092298030853271
1788675198104256300,8.46125634765625,9.597755432128906,1.8969179391860962,0.6746743321418762
1788675198120398600,8.477398681640626,9.600192070007324,1.8766767978668213,0.696268618106842
1788675198136559000,8.49355908203125,9.602873802185059,1.87587571144104,0.6605261564254761
1788675198152680400,8.509680419921875,9.605560302734375,1.8852331638336182,0.5911880135536194
1788675198168952300,8.525952392578125,9.608513832092285,1.8912606239318848,0.519599437713623
1788675198185096000,8.542095947265626,9.610808372497559,1.8928006887435913,0.4690917432308197
1788675198201240800,8.55824072265625,9.611507415771484,1.8950467109680176,0.44509825110435486
1788675198217413400,8.574413330078125,9.610032081604004,1.903035283088684,0.44286906719207764
1788675198233535000,8.590534912109375,9.607889175415039,1.913299560546875,0.4451373219490051
1788675198249812000,8.60681201171875,9.606748580932617,1.919389247894287,0.4435104727745056
1788675198265959000,8.622958984375,9.60805606842041,1.913936972618103,0.4387194514274597
1788675198282100500,8.6391005859375,9.614373207092285,1.8840245008468628,0.4297264814376831
1788675198298278000,8.65527783203125,9.621908187866211,1.8504821062088013,0.4061824083328247
1788675198314397400,8.6713974609375,9.629246711730957,1.820048451423645,0.3679869771003723
1788675198330634200,8.68763427734375,9.634238243103027,1.8014922142028809,0.3262881636619568
1788675198346785300,8.703785400390625,9.636089324951172,1.7967069149017334,0.29669415950775146
1788675198362928400,8.719928466796874,9.635272979736328,1.8036948442459106,0.28031986951828003
1788675198379117600,8.73611767578125,9.633391380310059,1.8145804405212402,0.2746903896331787
1788675198395236900,8.75223681640625,9.631742477416992,1.8222851753234863,0.28144150972366333
1788675198411479300,8.768479248046875,9.63100528717041,1.8229479789733887,0.301651269197464
1788675198427630000,8.784630126953125,9.631246566772461,1.8171054124832153,0.3280363082885742
1788675198443775500,8.800775390625,9.63194465637207,1.8097851276397705,0.3474290072917938
1788675198459973600,8.8169736328125,9.63137149810791,1.8083868026733398,0.3698706328868866
1788675198476095200,8.83309521484375,9.631797790527344,1.8049888610839844,0.3753516376018524
1788675198492350000,8.849349853515625,9.635397911071777,1.792204737663269,0.3427627682685852
1788675198508500200,8.865500244140625,9.638915061950684,1.7804155349731445,0.303013414144516
1788675198524674000,8.881674072265625,9.641105651855469,1.773186206817627,0.2743828594684601
1788675198540882200,8.897882080078125,9.641276359558105,1.7735705375671387,0.2657342255115509
1788675198557005600,8.914005615234375,9.63945484161377,1.7816064357757568,0.2778173089027405
1788675198573270800,8.930270751953126,9.63637638092041,1.7949002981185913,0.29827356338500977
1788675198589420800,8.9464208984375,9.632390022277832,1.8140596151351929,0.3108848035335541
1788675198605561600,8.9625615234375,9.629363059997559,1.8328464031219482,0.293980211019516
1788675198621769000,8.97876904296875,9.630050659179688,1.8347259759902954,0.2574867010116577
1788675198637887500,8.994887451171875,9.633452415466309,1.8215700387954712,0.221030592918396
1788675198654160000,9.011159912109376,9.636933326721191,1.8041671514511108,0.21183563768863678
1788675198670293200,9.027293212890624,9.639226913452148,1.7895481586456299,0.23064251244068146
1788675198686434800,9.043434814453125,9.639814376831055,1.7835519313812256,0.25161004066467285
1788675198702607000,9.059607177734375,9.638840675354004,1.787460207939148,0.26102927327156067
1788675198718758700,9.075758544921875,9.637144088745117,1.7960721254348755,0.26451629400253296
1788675198734991400,9.091991455078125,9.635994911193848,1.8019956350326538,0.2660983204841614
1788675198751182600,9.1081826171875,9.63589096069336,1.8021085262298584,0.26906654238700867
1788675198767330000,9.124330078125,9.639223098754883,1.7842401266098022,0.26878902316093445
1788675198783475000,9.140474853515625,9.645191192626953,1.7511416673660278,0.27236202359199524
1788675198799635500,9.156635498046874,9.6511869430542,1.7159087657928467,0.2839808464050293
1788675198815827000,9.172826904296874,9.656001091003418,1.6884819269180298,0.2847204804420471
1788675198832014300,9.189014404296875,9.659586906433105,1.6709917783737183,0.2656094431877136
1788675198848157000,9.205156982421874,9.662099838256836,1.66098153591156,0.2352837473154068
1788675198864343300,9.22134326171875,9.663775444030762,1.6555125713348389,0.20276078581809998
1788675198880505600,9.237505615234374,9.664388656616211,1.6554821729660034,0.17132703959941864
1788675198896746200,9.253746337890625,9.662867546081543,1.667023777961731,0.14289993047714233
1788675198912898800,9.26989892578125,9.659265518188477,1.6894978284835815,0.12074247747659683
1788675198929045200,9.286045166015626,9.654566764831543,1.7170155048370361,0.10767225921154022
1788675198945248800,9.302248779296875,9.649858474731445,1.7432451248168945,0.10827094316482544
1788675198961369000,9.318369140625,9.645740509033203,1.765486478805542,0.11464137583971024
1788675198977635300,9.33463525390625,9.641822814941406,1.786044955253601,0.12522652745246887
1788675198993788700,9.35078857421875,9.638014793395996,1.8055399656295776,0.13810056447982788
1788675199009937200,9.366937255859375,9.634988784790039,1.8206876516342163,0.1499471664428711
1788675199026103300,9.383103271484375,9.63316535949707,1.8301057815551758,0.15240390598773956
1788675199042225700,9.3992255859375,9.632325172424316,1.8355399370193481,0.13962070643901825
1788675199058483700,9.415483642578126,9.632013320922852,1.8387033939361572,0.11776077747344971
1788675199074631000,9.431630859375,9.631909370422363,1.8405100107192993,0.09606128185987473
1788675199090772200,9.447772216796874,9.631646156311035,1.842352271080017,0.0866658091545105
1788675199106968000,9.463968017578125,9.630929946899414,1.8457988500595093,0.09276245534420013
1788675199123088400,9.48008837890625,9.630335807800293,1.847576379776001,0.11615263670682907
1788675199139356700,9.496356689453124,9.630228996276855,1.8459922075271606,0.14624743163585663
1788675199155507000,9.5125068359375,9.63072395324707,1.8415405750274658,0.16817262768745422
1788675199171651000,9.528651123046876,9.631518363952637,1.8365026712417603,0.17749719321727753
1788675199187821000,9.544821044921875,9.63194465637207,1.834604263305664,0.1739405244588852
1788675199203945200,9.5609453125,9.63184642791748,1.8355536460876465,0.16932488977909088
1788675199220163000,9.5771630859375,9.632413864135742,1.8318257331848145,0.17721329629421234
1788675199236303000,9.59330322265625,9.635445594787598,1.812601923942566,0.20748057961463928
1788675199252452400,9.609452392578126,9.640493392944336,1.779914379119873,0.2513602077960968
1788675199268627500,9.62562744140625,9.644824028015137,1.754148006439209,0.2659364640712738
1788675199284734200,9.641734130859374,9.646341323852539,1.7507137060165405,0.2312585711479187
1788675199300929000,9.657928955078125,9.645060539245605,1.76454496383667,0.17195779085159302
1788675199317081300,9.674081298828124,9.641963005065918,1.7859153747558594,0.11595309525728226
1788675199333227800,9.690227783203126,9.638568878173828,1.8060811758041382,0.08024954795837402
1788675199349411600,9.70641162109375,9.637235641479492,1.813599705696106,0.0702144131064415
1788675199365524000,9.72252392578125,9.639187812805176,1.8029574155807495,0.07607090473175049
1788675199381768700,9.738768798828126,9.643583297729492,1.779025912284851,0.08223680406808853
1788675199397921300,9.75492138671875,9.649569511413574,1.7463804483413696,0.07964767515659332
1788675199414067700,9.771067626953124,9.656471252441406,1.7083741426467896,0.0663284957408905
1788675199430262000,9.787261962890625,9.661931037902832,1.6779769659042358,0.0431814081966877
1788675199446383400,9.80338330078125,9.6647367477417,1.6622015237808228,0.018595349043607712
1788675199462636500,9.819636474609375,9.664377212524414,1.6643798351287842,-0.005244997330009937
1788675199478793500,9.83579345703125,9.662296295166016,1.676276445388794,-0.022829005494713783
1788675199494930000,9.851929931640624,9.66063117980957,1.6857621669769287,-0.028172850608825684
1788675199511089700,9.868089599609375,9.661170959472656,1.6828255653381348,-0.016261562705039978
1788675199527212800,9.884212890625,9.66385269165039,1.6674211025238037,0.0070383925922214985
1788675199543471400,9.900471435546875,9.666988372802734,1.6488144397735596,0.03383675962686539
1788675199559626500,9.91662646484375,9.669352531433105,1.6341224908828735,0.060488298535346985
1788675199575772700,9.932772705078126,9.668670654296875,1.6373101472854614,0.07999054342508316
1788675199591932200,9.94893212890625,9.666110038757324,1.6518325805664062,0.09034170210361481
1788675199608053200,9.96505322265625,9.662260055541992,1.6743167638778687,0.08815738558769226
1788675199624321300,9.9813212890625,9.661149024963379,1.6814765930175781,0.0722990557551384
1788675199640472000,9.99747216796875,9.65959358215332,1.691089391708374,0.05350183695554733
1788675199656646700,10.013646728515624,9.65551471710205,1.714531660079956,0.042350172996520996
1788675199672840700,10.0298408203125,9.650321960449219,1.7436209917068481,0.038289837539196014
1788675199689009000,10.0460087890625,9.6470947265625,1.761192798614502,0.04636142775416374
1788675199705241600,10.06224169921875,9.644676208496094,1.773855447769165,0.06363241374492645
1788675199721416000,10.078416015625,9.641563415527344,1.7900102138519287,0.08068854361772537
1788675199737563000,10.09456298828125,9.63784408569336,1.8101061582565308,0.07652956247329712
1788675199753753300,10.11075341796875,9.634337425231934,1.8297393321990967,0.0445484034717083
1788675199769918200,10.126918212890626,9.633600234985352,1.8341304063796997,0.010214000009000301
1788675199786118400,10.143118408203126,9.636760711669922,1.8174490928649902,-0.010102333500981331
1788675199802312400,10.1593125,9.64309024810791,1.7835854291915894,-0.004916646517813206
1788675199818457300,10.175457275390626,9.649444580078125,1.7488436698913574,0.012536998838186264
1788675199834651400,10.1916513671875,9.652264595031738,1.7331904172897339,0.01508516725152731
1788675199850774000,10.20777392578125,9.651363372802734,1.738256573677063,0.006500335410237312
1788675199866995500,10.223995361328125,9.650198936462402,1.7447186708450317,0.0024352872278541327
1788675199883149000,10.240149169921875,9.65046501159668,1.7432291507720947,0.008840368129312992
1788675199899297500,10.256297607421875,9.652109146118164,1.7339048385620117,0.027451591566205025
1788675199915502000,10.272502197265625,9.654601097106934,1.7194883823394775,0.04918361455202103
1788675199931624400,10.28862451171875,9.65733528137207,1.703263759613037,0.07178725302219391
1788675199947835100,10.304835205078126,9.660841941833496,1.6824575662612915,0.08865152299404144
1788675199963989500,10.320989501953125,9.6657133102417,1.6542679071426392,0.08814582973718643
1788675199980136400,10.337136474609375,9.669475555419922,1.6330652236938477,0.06867071986198425
1788675199996347400,10.353347412109375,9.67116928100586,1.624050259590149,0.036453936249017715
1788675200012467200,10.36946728515625,9.671634674072266,1.6216884851455688,0.0015991696855053306
1788675200028729000,10.38572900390625,9.670289993286133,1.6294835805892944,-0.02581116184592247
1788675200044882400,10.40188232421875,9.667067527770996,1.6481066942214966,-0.04395279660820961
1788675200061027000,10.418027099609375,9.662638664245605,1.6737968921661377,-0.04699895903468132
1788675200077188000,10.43418798828125,9.65833854675293,1.698651671409607,-0.03828444331884384
1788675200093310200,10.450310302734374,9.654945373535156,1.7180787324905396,-0.024765754118561745
1788675200109578800,10.466578857421876,9.651931762695312,1.7350362539291382,-0.01596890576183796
1788675200125705200,10.482705322265625,9.648728370666504,1.7527662515640259,-0.014926630072295666
1788675200141852200,10.49885205078125,9.645856857299805,1.7685091495513916,-0.014192100614309311
1788675200158024400,10.5150244140625,9.644002914428711,1.7785868644714355,-0.014904139563441277
1788675200174146000,10.53114599609375,9.6428861618042,1.7845882177352905,-0.01948321983218193
1788675200190381800,10.5473818359375,9.641801834106445,1.790225625038147,-0.03377404808998108
1788675200206528800,10.56352880859375,9.640741348266602,1.7954750061035156,-0.05248820409178734
1788675200222670600,10.579670654296875,9.639971733093262,1.7992300987243652,-0.06404108554124832
1788675200238845700,10.595845703125,9.640667915344238,1.7957020998001099,-0.05794096738100052
1788675200254997800,10.611997802734376,9.643890380859375,1.7788896560668945,-0.03619123622775078
1788675200271231200,10.628231201171875,9.647614479064941,1.7589354515075684,-0.008201061747968197
1788675200287365000,10.644365234375,9.650113105773926,1.7451170682907104,0.01670563593506813
1788675200303509000,10.660509033203125,9.65037727355957,1.7434546947479248,0.031055767089128494
1788675200319693800,10.67669384765625,9.64858341217041,1.7532603740692139,0.036134157329797745
1788675200335817200,10.692817138671876,9.646657943725586,1.763603687286377,0.045478761196136475
1788675200352063500,10.7090634765625,9.648077011108398,1.7551918029785156,0.06557729095220566
1788675200368216800,10.725216796875,9.655357360839844,1.7133972644805908,0.09350896626710892
1788675200384365300,10.741365234375,9.665787696838379,1.652968406677246,0.10310996323823929
1788675200400566300,10.757566162109375,9.672602653503418,1.6143351793289185,0.0712355300784111
1788675200416669700,10.773669677734375,9.671238899230957,1.6239681243896484,0.015758920460939407
1788675200432902700,10.789902587890625,9.663559913635254,1.6689387559890747,-0.025387968868017197
1788675200449036500,10.80603662109375,9.653923034667969,1.7236030101776123,-0.03685862571001053
1788675200465181400,10.822181396484375,9.645303726196289,1.7714519500732422,-0.021335186436772346
1788675200481381600,10.838381591796875,9.639527320861816,1.8027485609054565,0.003087609075009823
1788675200497496300,10.854496337890625,9.636195182800293,1.820306658744812,0.025040727108716965
1788675200513757000,10.8707568359375,9.635574340820312,1.8234344720840454,0.034283991903066635
1788675200529909800,10.88690966796875,9.638167381286621,1.8097972869873047,0.027324672788381577
1788675200546057200,10.90305712890625,9.6427583694458,1.7853530645370483,0.010276369750499725
1788675200562263300,10.91926318359375,9.64657211303711,1.764627456665039,-0.011081201955676079
1788675200578382300,10.93538232421875,9.647713661193848,1.7580933570861816,-0.03331311047077179
1788675200594654000,10.951654052734375,9.646061897277832,1.7668006420135498,-0.04790612682700157
1788675200610832400,10.967832275390625,9.642821311950684,1.7843573093414307,-0.049515288323163986
1788675200626976500,10.9839765625,9.638708114624023,1.8066617250442505,-0.04072791337966919
1788675200643155500,11.000155517578126,9.634292602539062,1.8303577899932861,-0.02431972697377205
1788675200659278600,11.016278564453126,9.630546569824219,1.8500841856002808,-0.012492146342992783
1788675200675557000,11.03255712890625,9.627921104431152,1.8637397289276123,-0.0023014089092612267
1788675200691746300,11.048746337890625,9.626326560974121,1.8719534873962402,0.003112907987087965
1788675200707889700,11.0648896484375,9.62430191040039,1.882330298423767,0.005450904369354248
1788675200724072700,11.08107275390625,9.621561050415039,1.8962987661361694,0.0037023434415459633
1788675200740225800,11.097225830078125,9.618850708007812,1.9099714756011963,-0.010215524584054947
1788675200756460800,11.113460693359375,9.616471290588379,1.9214990139007568,-0.04134455695748329
1788675200772653300,11.1296533203125,9.613245010375977,1.9364900588989258,-0.07692541927099228
1788675200788830500,11.14583056640625,9.60815715789795,1.9600417613983154,-0.10928057134151459
1788675200805026300,11.1620263671875,9.602432250976562,1.987401008605957,-0.11797042191028595
1788675200821194800,11.17819482421875,9.597748756408691,2.0106310844421387,-0.10475810617208481
1788675200837448200,11.1944482421875,9.59384822845459,2.029898166656494,-0.08928336203098297
1788675200853599700,11.210599853515625,9.58983325958252,2.0482709407806396,-0.10035320371389389
1788675200869745400,11.226745361328126,9.588025093078613,2.055473804473877,-0.12322401255369186
1788675200885952300,11.2429521484375,9.591414451599121,2.0389816761016846,-0.1330696940422058
1788675200902076700,11.25907666015625,9.600878715515137,1.994835615158081,-0.11894429475069046
1788675200918322400,11.275322509765624,9.612335205078125,1.9408307075500488,-0.08113741129636765
1788675200934457300,11.291457275390625,9.619207382202148,1.9072468280792236,-0.06036417931318283
1788675200950605000,11.30760498046875,9.619769096374512,1.9040590524673462,-0.07061368227005005
1788675200966768400,11.323768310546875,9.618352890014648,1.9103193283081055,-0.09138157963752747
1788675200982873600,11.33987353515625,9.619221687316895,1.9052492380142212,-0.10479145497083664
1788675200999133700,11.3561337890625,9.62342643737793,1.8837913274765015,-0.10668669641017914
1788675201015278000,11.372278076171876,9.63044261932373,1.847531795501709,-0.10764551907777786
1788675201031354400,11.388354248046875,9.638124465942383,1.8069431781768799,-0.10906688123941422
1788675201047518500,11.4045185546875,9.64305305480957,1.780466079711914,-0.10889104008674622
1788675201063638500,11.420638427734374,9.644901275634766,1.7699551582336426,-0.1163005381822586
1788675201079915500,11.43691552734375,9.64387321472168,1.7747243642807007,-0.12823334336280823
1788675201096067000,11.453067138671875,9.64069652557373,1.7910363674163818,-0.13985231518745422
1788675201112213000,11.469212890625,9.6375093460083,1.8067070245742798,-0.15688921511173248
1788675201128396000,11.48539599609375,9.635278701782227,1.8152908086776733,-0.19108887016773224
1788675201144517400,11.501517333984374,9.631783485412598,1.8296095132827759,-0.22729778289794922
1788675201160756700,11.5177568359375,9.627079010009766,1.8504905700683594,-0.25577884912490845
1788675201176912000,11.533911865234375,9.620797157287598,1.8805088996887207,-0.27266356348991394
1788675201193054000,11.550053955078125,9.613936424255371,1.914534568786621,-0.2778010964393616
1788675201209231400,11.5662314453125,9.607950210571289,1.94482421875,-0.2744821608066559
1788675201225355800,11.582355712890624,9.603372573852539,1.9678316116333008,-0.2706650495529175
1788675201241590800,11.5985908203125,9.599665641784668,1.9865425825119019,-0.26543769240379333
1788675201257747700,11.614747802734374,9.595999717712402,2.0053303241729736,-0.2565770149230957
1788675201273892900,11.630892822265626,9.5918607711792,2.0252599716186523,-0.2547733187675476
1788675201290083000,11.6470830078125,9.586811065673828,2.0465989112854004,-0.27361321449279785
1788675201306207200,11.663207275390626,9.581398010253906,2.0673701763153076,-0.30527904629707336
1788675201322455000,11.679455078125,9.575297355651855,2.0916435718536377,-0.33028292655944824
1788675201338606600,11.695606689453125,9.56744384765625,2.127005100250244,-0.3320586383342743
1788675201354752500,11.71175244140625,9.561155319213867,2.157292127609253,-0.31748247146606445
1788675201370943000,11.72794287109375,9.559164047241211,2.167030096054077,-0.3110336363315582
1788675201387064800,11.74406494140625,9.560445785522461,2.16363787651062,-0.29485633969306946
1788675201403309800,11.760309814453125,9.563125610351562,2.1490211486816406,-0.3142055869102478
1788675201419446500,11.776446533203124,9.563383102416992,2.1345577239990234,-0.3946512043476105
1788675201435590100,11.792590087890625,9.563644409179688,2.1093380451202393,-0.5077330470085144
1788675201451734800,11.80873486328125,9.572128295898438,2.0589756965637207,-0.5526096820831299
1788675201467797200,11.82479736328125,9.58658504486084,1.9881722927093506,-0.5612071752548218
1788675201484029000,11.84102880859375,9.60047721862793,1.9201503992080688,-0.5605868697166443
1788675201500164000,11.8571640625,9.605436325073242,1.8898932933807373,-0.5781812071800232
1788675201516312600,11.8733125,9.59858512878418,1.9069697856903076,-0.6332641839981079
1788675201532473000,11.88947314453125,9.587056159973145,1.9417338371276855,-0.6988623738288879
1788675201548606200,11.905606201171874,9.578661918640137,1.9680869579315186,-0.739088773727417
1788675201564867800,11.921867919921874,9.574524879455566,1.9850594997406006,-0.7472574710845947
1788675201581036000,11.9380361328125,9.57188606262207,2.003068447113037,-0.7328784465789795
1788675201597183700,11.954183837890625,9.56851863861084,2.028568744659424,-0.7062115669250488
1788675201613370000,11.9703701171875,9.568305969238281,2.0377702713012695,-0.6822080016136169
1788675201629492500,11.986492431640626,9.569534301757812,2.038165807723999,-0.663533091545105
1788675201645761300,12.00276123046875,9.573460578918457,2.0218703746795654,-0.6567166447639465
1788675201661951200,12.018951171875,9.578983306884766,1.9934698343276978,-0.6629754900932312
1788675201678099000,12.035098876953125,9.582951545715332,1.9707379341125488,-0.6735025644302368
1788675201694289200,12.0512890625,9.584274291992188,1.962260127067566,-0.6794199347496033
1788675201710456000,12.0674560546875,9.584136009216309,1.9650040864944458,-0.6734102964401245
1788675201726702000,12.0837021484375,9.584210395812988,1.9707022905349731,-0.6554617881774902
1788675201742899200,12.099899169921875,9.585834503173828,1.9709076881408691,-0.6306235790252686
1788675201759046400,12.11604638671875,9.588764190673828,1.9639811515808105,-0.6072580218315125
1788675201775246800,12.132246826171874,9.590580940246582,1.9611507654190063,-0.5873936414718628
1788675201791417900,12.14841796875,9.588946342468262,1.976537823677063,-0.5619579553604126
1788675201807671600,12.164671630859376,9.585491180419922,2.0009987354278564,-0.5336226224899292
1788675201823828000,12.180827880859376,9.581586837768555,2.025585412979126,-0.5104727149009705
1788675201839976700,12.196976806640626,9.577653884887695,2.0477123260498047,-0.49579498171806335
1788675201856161800,12.213161865234374,9.576784133911133,2.0448098182678223,-0.5237792134284973
1788675201872284400,12.229284423828124,9.57313060760498,2.052902936935425,-0.5578006505966187
1788675201888543000,12.24554296875,9.567094802856445,2.0739166736602783,-0.5830492377281189
1788675201904696300,12.2616962890625,9.559182167053223,2.1069881916046143,-0.5941687226295471
1788675201920846300,12.277846435546875,9.553388595581055,2.133843421936035,-0.5915015935897827
1788675201937010400,12.294010498046875,9.55203628540039,2.14469838142395,-0.5738028287887573
1788675201953132500,12.310132568359375,9.55290412902832,2.1428864002227783,-0.5660679340362549
1788675201969403100,12.326403076171875,9.553481101989746,2.1367380619049072,-0.5794325470924377
1788675201985556000,12.342555908203124,9.554850578308105,2.125572919845581,-0.5976327061653137
1788675202001702700,12.35870263671875,9.561439514160156,2.096970796585083,-0.5932728052139282
1788675202017874000,12.3748740234375,9.573824882507324,2.0505948066711426,-0.5543650388717651
1788675202033965600,12.390965576171874,9.586267471313477,2.0059242248535156,-0.5001296997070312
1788675202050229500,12.4072294921875,9.591813087463379,1.9881986379623413,-0.4632391333580017
1788675202066367500,12.423367431640624,9.587732315063477,2.0081276893615723,-0.4617414176464081
1788675202082513400,12.439513427734376,9.578652381896973,2.046760320663452,-0.48018941283226013
1788675202098691300,12.45569140625,9.571283340454102,2.0789806842803955,-0.4886208474636078
1788675202114805000,12.471804931640625,9.570058822631836,2.08762526512146,-0.4755910634994507
1788675202131043800,12.4880439453125,9.574230194091797,2.075984001159668,-0.4413527250289917
1788675202147201000,12.504200927734376,9.58034610748291,2.0581724643707275,-0.38895538449287415
1788675202163349500,12.520349609375,9.585535049438477,2.043642520904541,-0.3338084816932678
1788675202179536400,12.536536376953125,9.588217735290527,2.0369176864624023,-0.29569345712661743
1788675202195647000,12.55264697265625,9.587700843811035,2.0405004024505615,-0.2876497805118561
1788675202211891200,12.56889111328125,9.585432052612305,2.049255609512329,-0.3007164001464844
1788675202228044800,12.585044921875,9.58307933807373,2.057316541671753,-0.3200414478778839
1788675202244191000,12.60119091796875,9.581781387329102,2.060824394226074,-0.3359246850013733
1788675202260386000,12.617385986328125,9.580869674682617,2.0632522106170654,-0.34686926007270813
1788675202276509000,12.633509033203126,9.579176902770996,2.0678188800811768,-0.3658968508243561
1788675202292759000,12.649759033203125,9.574769973754883,2.0857596397399902,-0.3791838586330414
1788675202308910600,12.66591064453125,9.569608688354492,2.1093251705169678,-0.37910187244415283
1788675202325057300,12.682057373046876,9.565984725952148,2.1278576850891113,-0.36680111289024353
1788675202341258200,12.69825830078125,9.56525707244873,2.134627103805542,-0.3458462357521057
1788675202357382400,12.71438232421875,9.56666088104248,2.13232159614563,-0.32030734419822693
1788675202373640000,12.730639892578125,9.56893539428711,2.1251325607299805,-0.299457848072052
1788675202389796600,12.746796630859375,9.570598602294922,2.118520975112915,-0.2930945158004761
1788675202405942000,12.76294189453125,9.57153034210205,2.112926721572876,-0.30287447571754456
1788675202422104300,12.779104248046876,9.573057174682617,2.103677272796631,-0.31861141324043274
1788675202438225400,12.795225341796876,9.575484275817871,2.0904011726379395,-0.33275100588798523
1788675202454491400,12.811491455078125,9.57852840423584,2.0749921798706055,-0.34142589569091797
1788675202470641200,12.82764111328125,9.581971168518066,2.059584617614746,-0.3380991518497467
1788675202486820900,12.84382080078125,9.58515739440918,2.0474140644073486,-0.3212985694408417
1788675202502994700,12.85999462890625,9.588456153869629,2.0367636680603027,-0.2889472544193268
1788675202519185200,12.87618505859375,9.593640327453613,2.0186500549316406,-0.2398037612438202
1788675202535424800,12.8924248046875,9.599037170410156,1.9974876642227173,-0.19725793600082397
1788675202551610400,12.9086103515625,9.602679252624512,1.9831063747406006,-0.1619216650724411
1788675202567759600,12.924759521484376,9.6057767868042,1.971036434173584,-0.12020941078662872
1788675202583909600,12.94090966796875,9.611961364746094,1.9431123733520508,-0.06998785585165024
1788675202600071200,12.9570712890625,9.624154090881348,1.8830212354660034,-0.01663370244204998
1788675202616289800,12.973289794921875,9.640345573425293,1.7982288599014282,0.022357067093253136
1788675202632470000,12.989469970703125,9.653974533081055,1.7235592603683472,0.022693002596497536
1788675202648618800,13.00561865234375,9.659815788269043,1.6906182765960693,-0.012666625902056694
1788675202664812300,13.021812255859375,9.658646583557129,1.6966419219970703,-0.04828401282429695
1788675202680981500,13.0379814453125,9.65341567993164,1.7255321741104126,-0.06700550019741058
1788675202697217800,13.0542177734375,9.646486282348633,1.7638685703277588,-0.0668022483587265
1788675202713406500,13.070406494140625,9.640446662902832,1.796958088874817,-0.05579575523734093
1788675202729517800,13.086517822265625,9.637321472167969,1.8141292333602905,-0.036927592009305954
1788675202745671700,13.102671630859374,9.637271881103516,1.81461501121521,-0.02320025861263275
1788675202761841200,13.118841064453125,9.639451026916504,1.8029749393463135,-0.02556488662958145
1788675202778088400,13.13508837890625,9.642333030700684,1.7871556282043457,-0.04334885627031326
1788675202794243300,13.151243408203126,9.644132614135742,1.7768785953521729,-0.06160687282681465
1788675202810390300,13.167390380859375,9.643411636352539,1.7803353071212769,-0.0735195204615593
1788675202826562800,13.183562744140625,9.639854431152344,1.7995561361312866,-0.07199863344430923
1788675202842682400,13.199682373046874,9.634603500366211,1.8278815746307373,-0.060419946908950806
1788675202858933800,13.215933837890624,9.629867553710938,1.8530997037887573,-0.045460496097803116
1788675202875085300,13.232085205078125,9.627848625183105,1.863825798034668,-0.03259016573429108
1788675202891229400,13.2482294921875,9.628881454467773,1.8586069345474243,-0.0249922014772892
1788675202907438800,13.26443896484375,9.631980895996094,1.8425172567367554,-0.02160475216805935
1788675202923561000,13.28056103515625,9.63508129119873,1.826261043548584,-0.01920556277036667
1788675202939828700,13.296828857421875,9.635977745056152,1.821502447128296,-0.021362485364079475
1788675202955981800,13.31298193359375,9.634254455566406,1.830472707748413,-0.029866311699151993
1788675202972126000,13.3291259765625,9.631312370300293,1.845543622970581,-0.04678644984960556
1788675202988296200,13.345296142578125,9.628033638000488,1.8617745637893677,-0.07177357375621796
1788675203004415000,13.3614150390625,9.623367309570312,1.884390115737915,-0.1013372540473938
1788675203020645600,13.377645751953125,9.616216659545898,1.9188939332962036,-0.1288706511259079
1788675203036797200,13.393797119140626,9.607641220092773,1.9597787857055664,-0.15131279826164246
1788675203052944600,13.409944580078125,9.601479530334473,1.9889163970947266,-0.16186992824077606
1788675203069152800,13.42615283203125,9.599512100219727,1.998781681060791,-0.1569482535123825
1788675203085274000,13.442274169921875,9.598468780517578,2.0048465728759766,-0.14275908470153809
1788675203101513000,13.458512939453126,9.59685230255127,2.0129551887512207,-0.13718843460083008
1788675203117664800,13.474664794921875,9.596692085266113,2.013214588165283,-0.144447922706604
1788675203133815000,13.49081494140625,9.601130485534668,1.9921846389770508,-0.141007661819458
1788675203150013700,13.507013671875,9.610379219055176,1.9486175775527954,-0.11784400790929794
1788675203166122500,13.52312255859375,9.61932373046875,1.9057328701019287,-0.08475875109434128
1788675203182402600,13.539402587890624,9.624088287353516,1.8826671838760376,-0.05372779071331024
1788675203198540000,13.5555400390625,9.624227523803711,1.882278561592102,-0.040766987949609756
1788675203214689000,13.57168896484375,9.622507095336914,1.8910436630249023,-0.041197359561920166
1788675203230883000,13.587883056640624,9.621674537658691,1.8952425718307495,-0.04267941415309906
1788675203246999600,13.60399951171875,9.622723579406738,1.8899766206741333,-0.039543308317661285
1788675203263255600,13.620255615234376,9.62372875213623,1.8849372863769531,-0.03540891036391258
1788675203279375600,13.636375732421875,9.626266479492188,1.8720263242721558,-0.029998742043972015
1788675203295524600,13.652524658203125,9.629432678222656,1.8557898998260498,-0.021419694647192955
1788675203311731200,13.668731201171875,9.635783195495605,1.822649598121643,-0.004085077438503504
1788675203327814000,13.68481396484375,9.639679908752441,1.8016294240951538,0.032866258174180984
1788675203344067800,13.70106787109375,9.647541999816895,1.7588955163955688,0.04026634246110916
1788675203360220400,13.717220458984375,9.652336120605469,1.7327224016189575,0.021500999107956886
1788675203376366000,13.733365966796875,9.654273986816406,1.7219135761260986,-0.01973535865545273
1788675203392573400,13.749573486328124,9.652726173400879,1.7295801639556885,-0.061777014285326004
1788675203408696300,13.7656962890625,9.648255348205566,1.7533376216888428,-0.08578675985336304
1788675203424961000,13.7819609375,9.642251968383789,1.785954236984253,-0.08790112286806107
1788675203441117700,13.79811767578125,9.635788917541504,1.820831298828125,-0.08088840544223785
1788675203457269000,13.81426904296875,9.629881858825684,1.8518903255462646,-0.07916247844696045
1788675203473447400,13.830447509765625,9.62566089630127,1.8733891248703003,-0.08633013814687729
1788675203489539800,13.846539794921876,9.623637199401855,1.8834251165390015,-0.09329070150852203
1788675203505726000,13.862725830078125,9.622966766357422,1.886752724647522,-0.09520760178565979
1788675203521911600,13.87891162109375,9.621930122375488,1.8921328783035278,-0.0932098776102066
1788675203538056000,13.895055908203124,9.620349884033203,1.9002071619033813,-0.0919649749994278
1788675203554241800,13.91124169921875,9.619017601013184,1.9066945314407349,-0.09691216796636581
1788675203570403600,13.927403564453124,9.617932319641113,1.9114676713943481,-0.10977347195148468
1788675203586640400,13.943640380859375,9.616555213928223,1.917726755142212,-0.12071250379085541
1788675203602832100,13.95983203125,9.61511516571045,1.9251635074615479,-0.11703459173440933
1788675203618977300,13.975977294921876,9.615031242370605,1.9272255897521973,-0.0858510434627533
1788675203635168300,13.992168212890626,9.61653995513916,1.921341061592102,-0.03142877295613289
1788675203651366700,14.00836669921875,9.619302749633789,1.9074232578277588,0.03370311111211777
1788675203667599400,14.024599365234375,9.622506141662598,1.8895782232284546,0.08515927195549011
1788675203683733800,14.040733642578125,9.625104904174805,1.875124216079712,0.10794802755117416
1788675203699806200,14.05680615234375,9.62870979309082,1.8556959629058838,0.12142761051654816
1788675203716014800,14.073014892578126,9.635762214660645,1.8176276683807373,0.13672737777233124
1788675203732139000,14.089138916015624,9.647480010986328,1.7529643774032593,0.15373443067073822
1788675203748401400,14.1054013671875,9.661723136901855,1.6722782850265503,0.15804284811019897
1788675203764516000,14.12151611328125,9.673079490661621,1.6079853773117065,0.12765103578567505
1788675203780653600,14.137653564453124,9.676090240478516,1.5939767360687256,0.053836639970541
1788675203796867000,14.1538671875,9.669827461242676,1.6320843696594238,-0.03349025547504425
1788675203812975000,14.16997509765625,9.658546447753906,1.69596529006958,-0.08111616969108582
1788675203829199600,14.18619970703125,9.646293640136719,1.7644299268722534,-0.0787205845117569
1788675203845330700,14.20233056640625,9.635748863220215,1.822231650352478,-0.04687695577740669
1788675203861480200,14.218480224609374,9.6279935836792,1.8633006811141968,-0.015293430536985397
1788675203877645300,14.234645263671876,9.6233549118042,1.8871753215789795,0.0004885689704678953
1788675203893770200,14.250770263671875,9.623189926147461,1.8880064487457275,-0.005847849417477846
1788675203910012000,14.267011962890624,9.627202033996582,1.8672592639923096,-0.026528799906373024
1788675203926162700,14.28316259765625,9.631975173950195,1.8419464826583862,-0.0516812726855278
1788675203942305300,14.29930517578125,9.634260177612305,1.8292109966278076,-0.07351621240377426
1788675203958480000,14.31547998046875,9.633167266845703,1.8342018127441406,-0.09038657695055008
1788675203974603500,14.331603515625,9.629823684692383,1.8512529134750366,-0.09870072454214096
1788675203990835000,14.3478349609375,9.627087593078613,1.865363597869873,-0.09998194128274918
1788675204006972200,14.36397216796875,9.626888275146484,1.8664051294326782,-0.09975507110357285
1788675204023118300,14.380118408203124,9.630236625671387,1.8490653038024902,-0.09944187849760056
1788675204039297000,14.396297119140625,9.636505126953125,1.8159586191177368,-0.1022459864616394
1788675204055420400,14.41242041015625,9.6439847946167,1.7755086421966553,-0.10729918628931046
1788675204071650600,14.428650634765624,9.650806427001953,1.737675666809082,-0.11319059878587723
1788675204087804000,14.444803955078125,9.65497875213623,1.7145556211471558,-0.10989554971456528
1788675204103950000,14.4609501953125,9.655774116516113,1.7105978727340698,-0.1012437492609024
1788675204120141000,14.47714111328125,9.654885292053223,1.715274453163147,-0.10687170177698135
1788675204136296200,14.493296142578124,9.652532577514648,1.7270482778549194,-0.12770944833755493
1788675204152548600,14.509548583984374,9.64887523651123,1.7458488941192627,-0.1469806283712387
1788675204168679400,14.525679443359374,9.647762298583984,1.751380205154419,-0.15411999821662903
1788675204184822500,14.541822509765625,9.646821022033691,1.7570511102676392,-0.14831970632076263
1788675204201017000,14.55801708984375,9.64490795135498,1.7683682441711426,-0.13786597549915314
1788675204217139200,14.57413916015625,9.641691207885742,1.7863940000534058,-0.13027913868427277
1788675204233374000,14.5903740234375,9.637419700622559,1.8087257146835327,-0.13798494637012482
1788675204249527600,14.606527587890625,9.631729125976562,1.8360792398452759,-0.17027340829372406
1788675204265675500,14.622675537109375,9.626548767089844,1.8577511310577393,-0.2206961214542389
1788675204281878800,14.638878662109375,9.625951766967773,1.8550357818603516,-0.26508718729019165
1788675204298002000,14.655001953125,9.631635665893555,1.8228319883346558,-0.28155317902565
1788675204314257000,14.6712568359375,9.641219139099121,1.773414134979248,-0.2688463628292084
1788675204330393900,14.687393798828126,9.649435043334961,1.7302379608154297,-0.25507524609565735
1788675204346540500,14.70354052734375,9.652261734008789,1.71347177028656,-0.26123324036598206
1788675204362709500,14.71970947265625,9.650025367736816,1.7240854501724243,-0.273710697889328
1788675204378793500,14.73579345703125,9.646733283996582,1.7426947355270386,-0.2718924283981323
1788675204395059000,14.752058837890624,9.644376754760742,1.7591749429702759,-0.24837203323841095
1788675204411233800,14.76823388671875,9.642809867858887,1.7727690935134888,-0.20949697494506836
1788675204427379200,14.784379150390626,9.641627311706543,1.7837392091751099,-0.16635535657405853
1788675204443542300,14.800542236328125,9.64148235321045,1.787440299987793,-0.13138653337955475
1788675204459693300,14.816693359375,9.645033836364746,1.7695492506027222,-0.11139567941427231
1788675204475929300,14.832929443359374,9.652864456176758,1.7267369031906128,-0.10477298498153687
1788675204492111400,14.849111328125,9.655828475952148,1.7089916467666626,-0.12126562744379044
1788675204508256000,14.865256103515625,9.657320976257324,1.698366641998291,-0.14864777028560638
1788675204524443000,14.88144287109375,9.65573787689209,1.7046012878417969,-0.17736376821994781
1788675204540596000,14.897595947265625,9.650684356689453,1.7305908203125,-0.1993272304534912
1788675204556830700,14.913830810546875,9.643157958984375,1.7712358236312866,-0.2064228504896164
1788675204573019600,14.93001953125,9.635176658630371,1.8153448104858398,-0.19565650820732117
1788675204589166300,14.946166259765626,9.628824234008789,1.8511253595352173,-0.17163017392158508
1788675204605364200,14.9623642578125,9.625274658203125,1.8717403411865234,-0.1451721340417862
1788675204621539000,14.9785390625,9.62391185760498,1.8801645040512085,-0.12522540986537933
1788675204637787600,14.99478759765625,9.6229248046875,1.8858684301376343,-0.1148846298456192
1788675204653940200,15.010940185546875,9.620079040527344,1.9000660181045532,-0.11926643550395966
1788675204670087200,15.027087158203125,9.615708351135254,1.9215755462646484,-0.12681269645690918
1788675204686291200,15.043291259765626,9.611695289611816,1.94121515750885,-0.1318105161190033
1788675204702410800,15.05941064453125,9.608272552490234,1.9576098918914795,-0.13875696063041687
1788675204718670300,15.07567041015625,9.604764938354492,1.9738709926605225,-0.15073493123054504
1788675204734822700,15.09182275390625,9.601237297058105,1.990539312362671,-0.15615499019622803
1788675204750951000,15.107950927734375,9.598793983459473,2.003354787826538,-0.14177674055099487
1788675204767113200,15.12411328125,9.5985746383667,2.0067126750946045,-0.10421985387802124
1788675204783236400,15.140236328125,9.600359916687012,2.000075578689575,-0.05646386742591858
1788675204799507200,15.156507080078125,9.60384464263916,1.984004259109497,-0.017052659764885902
1788675204815657500,15.172657470703125,9.607687950134277,1.9653769731521606,-0.0017426059348508716
1788675204831806000,15.188805908203125,9.609622955322266,1.9558824300765991,-0.007523618638515472
1788675204847974400,15.204974365234374,9.608768463134766,1.9600415229797363,-0.013622264377772808
1788675204864097500,15.22109765625,9.607118606567383,1.968159556388855,-0.004168627317994833
1788675204880332800,15.237332763671875,9.609013557434082,1.9586796760559082,0.02864590287208557
1788675204896486700,15.253486572265626,9.618629455566406,1.9093564748764038,0.08188486844301224
1788675204912635600,15.2696357421875,9.63259506225586,1.8358784914016724,0.11426615715026855
1788675204928811000,15.28581103515625,9.64220905303955,1.7857640981674194,0.09611786901950836
1788675204944915500,15.30191552734375,9.64426326751709,1.7763596773147583,0.05585210770368576
1788675204961179100,15.31817919921875,9.639914512634277,1.8004423379898071,0.029048053547739983
1788675204977329400,15.334329345703125,9.632030487060547,1.8420884609222412,0.03303610160946846
1788675204993472800,15.35047265625,9.622374534606934,1.8912385702133179,0.05922335758805275
1788675205009644000,15.36664404296875,9.613800048828125,1.9331670999526978,0.09003154933452606
1788675205025756000,15.382755859375,9.609403610229492,1.9537004232406616,0.11318883299827576
1788675205041992700,15.39899267578125,9.609649658203125,1.9521570205688477,0.11872213333845139
1788675205058143200,15.415143310546876,9.612910270690918,1.936811089515686,0.1053505390882492
1788675205074286000,15.4312861328125,9.616016387939453,1.9225187301635742,0.08085892349481583
1788675205090475800,15.447475830078124,9.616894721984863,1.9189618825912476,0.05758824944496155
1788675205106594300,15.46359423828125,9.6154203414917,1.9267158508300781,0.042975932359695435
1788675205122836200,15.479836181640625,9.613039016723633,1.9386122226715088,0.04071253538131714
1788675205138970000,15.49597021484375,9.612136840820312,1.9429136514663696,0.04786823317408562
1788675205155110400,15.5121103515625,9.614239692687988,1.932246446609497,0.05655442923307419
1788675205171314200,15.528314208984375,9.619029998779297,1.9082534313201904,0.0568101592361927
1788675205187433700,15.544433837890624,9.625703811645508,1.8745383024215698,0.04821817949414253
1788675205203690800,15.560690673828125,9.633386611938477,1.8349387645721436,0.03558293357491493
1788675205219841500,15.576841552734376,9.641261100769043,1.793339490890503,0.020245427265763283
1788675205235986200,15.592986083984375,9.647204399108887,1.7611931562423706,0.005595116876065731
1788675205252190000,15.60918994140625,9.650650978088379,1.7421903610229492,-0.010333397425711155
1788675205268313000,15.62531298828125,9.650873184204102,1.7406349182128906,-0.034833796322345734
1788675205284536000,15.6415361328125,9.648118019104004,1.7547608613967896,-0.07084588706493378
1788675205300689200,15.657689208984374,9.645718574523926,1.765867829322815,-0.11052750796079636
1788675205316835600,15.673835693359376,9.645331382751465,1.7656265497207642,-0.14330124855041504
1788675205332998400,15.689998291015625,9.646330833435059,1.7588427066802979,-0.15860894322395325
1788675205349098800,15.7060986328125,9.645735740661621,1.7617168426513672,-0.1628728210926056
1788675205365357600,15.722357666015625,9.643034934997559,1.7759665250778198,-0.1679728925228119
1788675205381518600,15.7385185546875,9.638484001159668,1.7985857725143433,-0.1873360425233841
1788675205397662700,15.754662841796875,9.633550643920898,1.8203997611999512,-0.22633127868175507
1788675205413839600,15.770839599609374,9.632380485534668,1.8222861289978027,-0.25864455103874207
1788675205429989000,15.786989013671874,9.635822296142578,1.802030324935913,-0.27201205492019653
1788675205446250500,15.80325048828125,9.640921592712402,1.7750465869903564,-0.26876863837242126
1788675205462419700,15.819419677734375,9.644761085510254,1.756451964378357,-0.2526824474334717
1788675205478563000,15.83556298828125,9.644116401672363,1.7611260414123535,-0.24462726712226868
1788675205494745300,15.851745361328126,9.637678146362305,1.7950806617736816,-0.2514462471008301
1788675205510908000,15.867907958984375,9.628776550292969,1.841538429260254,-0.2564849853515625
1788675205527137300,15.88413720703125,9.623044967651367,1.8724009990692139,-0.24800553917884827
1788675205543323100,15.9003232421875,9.622076988220215,1.879356026649475,-0.2324388176202774
1788675205559462100,15.916462158203124,9.62399959564209,1.8720606565475464,-0.21074983477592468
1788675205575649800,15.93264990234375,9.626334190368652,1.8627099990844727,-0.1854304075241089
1788675205591809300,15.948809326171874,9.627985000610352,1.8566704988479614,-0.1583537459373474
1788675205608052200,15.96505224609375,9.631949424743652,1.8381574153900146,-0.13084334135055542
1788675205624248000,15.981248046875,9.638599395751953,1.8041261434555054,-0.113717220723629
1788675205640391700,15.9973916015625,9.642258644104004,1.7839930057525635,-0.12084819376468658
1788675205656588300,16.01358837890625,9.63976001739502,1.7956409454345703,-0.1452665477991104
1788675205672711400,16.02971142578125,9.635795593261719,1.8149129152297974,-0.16711528599262238
1788675205688962300,16.04596240234375,9.631158828735352,1.8382573127746582,-0.17881348729133606
1788675205705116000,16.062115966796874,9.626078605651855,1.8644344806671143,-0.18135957419872284
1788675205721263000,16.07826318359375,9.62039852142334,1.8940762281417847,-0.17545555531978607
1788675205737425200,16.094425048828125,9.615666389465332,1.9194825887680054,-0.15788130462169647
1788675205753545700,16.110545654296875,9.612957954406738,1.9350239038467407,-0.13075916469097137
1788675205769808600,16.12680859375,9.61193561553955,1.9419207572937012,-0.100117988884449
1788675205785959700,16.142959716796874,9.610915184020996,1.94794499874115,-0.0788440927863121
1788675205802105600,16.159105712890625,9.609057426452637,1.9573992490768433,-0.07058456540107727
1788675205818268200,16.17526806640625,9.606380462646484,1.970306158065796,-0.07583929598331451
1788675205834388500,16.191388427734374,9.604090690612793,1.9808224439620972,-0.09041128307580948
1788675205850616000,16.207615966796876,9.603229522705078,1.984011173248291,-0.10988010466098785
1788675205866767600,16.223767578125,9.603352546691895,1.981951117515564,-0.13373270630836487
1788675205882940700,16.239940673828126,9.603435516357422,1.9800266027450562,-0.15458327531814575
1788675205899111700,16.256111572265624,9.605236053466797,1.9715213775634766,-0.15146403014659882
1788675205915229700,16.272229736328125,9.61044692993164,1.948106288909912,-0.12072023004293442
1788675205931459600,16.28845947265625,9.61651611328125,1.9195998907089233,-0.0902271419763565
1788675205947610600,16.304610595703124,9.622519493103027,1.890132188796997,-0.06998845934867859
1788675205963758000,16.320758056640624,9.62799072265625,1.8624098300933838,-0.06012573838233948
1788675205979940000,16.336940185546876,9.63426685333252,1.8302605152130127,-0.037839747965335846
1788675205996056800,16.353056884765625,9.643448829650879,1.7816312313079834,0.008392182178795338
1788675206012289800,16.369289794921876,9.656843185424805,1.7061495780944824,0.06935609132051468
1788675206028420900,16.3854208984375,9.671353340148926,1.619307279586792,0.11463174968957901
1788675206044561400,16.4015615234375,9.680704116821289,1.5633199214935303,0.101884625852108
1788675206060754000,16.41775390625,9.679792404174805,1.5720516443252563,0.025883834809064865
1788675206076852700,16.433852783203125,9.670058250427246,1.629793643951416,-0.06437727808952332
1788675206093082600,16.45008251953125,9.656095504760742,1.7079929113388062,-0.11385529488325119
1788675206109211400,16.46621142578125,9.643568992614746,1.778221607208252,-0.09946659207344055
1788675206125352400,16.4823525390625,9.634721755981445,1.8277894258499146,-0.04132773354649544
1788675206141544200,16.498544189453124,9.628853797912598,1.85875403881073,0.024563856422901154
1788675206157655800,16.51465576171875,9.626005172729492,1.8723814487457275,0.06783948093652725
1788675206173911300,16.530911376953124,9.627508163452148,1.863871693611145,0.08634436875581741
1788675206190067000,16.54706689453125,9.63262939453125,1.8372713327407837,0.08535078912973404
1788675206206211600,16.563211669921873,9.638341903686523,1.8076139688491821,0.0726226270198822
1788675206222413000,16.5794130859375,9.641095161437988,1.7935214042663574,0.05430007353425026
1788675206238529000,16.595529052734374,9.63935375213623,1.8033770322799683,0.03276316449046135
1788675206254793500,16.61179345703125,9.633696556091309,1.8335694074630737,0.01718815788626671
1788675206270944300,16.6279443359375,9.626919746398926,1.8688313961029053,0.016659751534461975
1788675206287084800,16.644084716796876,9.620796203613281,1.900006890296936,0.025532172992825508
1788675206303242800,16.66024267578125,9.617391586303711,1.9168418645858765,0.04341140016913414
1788675206319343000,16.676343017578127,9.617779731750488,1.9144071340560913,0.06113182008266449
1788675206335612000,16.69261181640625,9.622047424316406,1.8923866748809814,0.0738755315542221
1788675206351792000,16.708792236328126,9.628705978393555,1.857903242111206,0.08127471804618835
1788675206367934000,16.724933837890624,9.635619163513184,1.8219313621520996,0.07607518136501312
1788675206384104400,16.7411044921875,9.640524864196777,1.7963815927505493,0.060686103999614716
1788675206400254200,16.757254150390626,9.643077850341797,1.7829171419143677,0.051370907574892044
1788675206416531200,16.77353125,9.644664764404297,1.7744405269622803,0.046736087650060654
1788675206432717600,16.789717529296876,9.64449691772461,1.775812029838562,0.023650743067264557
1788675206448858400,16.8058583984375,9.644187927246094,1.7776051759719849,-0.011744341813027859
1788675206465019400,16.822019287109374,9.644997596740723,1.7728114128112793,-0.03957812488079071
1788675206481176800,16.8381767578125,9.647364616394043,1.759331226348877,-0.05911901965737343
1788675206497411000,16.8544111328125,9.650498390197754,1.7416404485702515,-0.07049120962619781
1788675206513584600,16.870584716796873,9.651714324951172,1.7341978549957275,-0.08577854186296463
1788675206529723100,16.88672314453125,9.650984764099121,1.7371432781219482,-0.10597055405378342
1788675206545917000,16.9029169921875,9.6524019241333,1.72905433177948,-0.10907531529664993
1788675206562032400,16.919032470703126,9.658245086669922,1.697096347808838,-0.09253071993589401
1788675206578261500,16.935261474609376,9.667253494262695,1.646286964416504,-0.06583230197429657
1788675206594390500,16.951390625,9.67488956451416,1.6014454364776611,-0.04764081910252571
1788675206610531600,16.967531494140626,9.67729663848877,1.586610198020935,-0.0546785406768322
1788675206626733000,16.983733154296875,9.67337417602539,1.6094011068344116,-0.07781336456537247
1788675206642840000,16.999840087890625,9.665337562561035,1.6558809280395508,-0.09844173491001129
1788675206659089000,17.0160888671875,9.657194137573242,1.7024736404418945,-0.1028532162308693
1788675206675232800,17.032232666015624,9.651195526123047,1.7364696264266968,-0.0973845049738884
1788675206691376600,17.048376708984375,9.646905899047852,1.7604303359985352,-0.0920742005109787
1788675206707584500,17.06458447265625,9.646800994873047,1.7606192827224731,-0.09923246502876282
1788675206723703800,17.080703857421874,9.648248672485352,1.7525599002838135,-0.1010892391204834
1788675206739971800,17.096971923828125,9.650145530700684,1.7430119514465332,-0.08356795459985733
1788675206756123100,17.113123046875,9.649840354919434,1.7449218034744263,-0.078830786049366
1788675206772266800,17.129266845703125,9.650822639465332,1.739378571510315,-0.08106723427772522
1788675206788435200,17.145435302734374,9.651322364807129,1.735755443572998,-0.09752669930458069
1788675206804552400,17.161552490234374,9.649862289428711,1.742485523223877,-0.11950191110372543
1788675206820783400,17.177783447265625,9.647307395935059,1.7554715871810913,-0.13481448590755463
1788675206836935000,17.193934814453126,9.643830299377441,1.7731338739395142,-0.15139427781105042
1788675206853076700,17.21007666015625,9.639147758483887,1.7965956926345825,-0.17163479328155518
1788675206869180200,17.22618017578125,9.634703636169434,1.8191900253295898,-0.18280863761901855
1788675206885304600,17.2423046875,9.632194519042969,1.8325496912002563,-0.1816338747739792
1788675206901530400,17.2585302734375,9.63150691986084,1.836492896080017,-0.17821282148361206
1788675206917681700,17.274681640625,9.631287574768066,1.8379930257797241,-0.1745728701353073
1788675206933827300,17.290827392578127,9.631393432617188,1.8378138542175293,-0.1705293357372284
1788675206950011000,17.307010986328127,9.632779121398926,1.8307304382324219,-0.1684453785419464
1788675206966128000,17.323128173828124,9.634564399719238,1.8208696842193604,-0.17321689426898956
1788675206982367200,17.3393671875,9.634674072265625,1.8185025453567505,-0.191018208861351
1788675206998518500,17.3555185546875,9.631783485412598,1.8308409452438354,-0.21715466678142548
1788675207014664400,17.37166455078125,9.62738037109375,1.851328730583191,-0.23771482706069946
1788675207030849300,17.387849365234374,9.623826026916504,1.8699520826339722,-0.2358556091785431
1788675207046973400,17.403973388671876,9.62440013885498,1.8722662925720215,-0.1895333081483841
1788675207063228400,17.420228515625,9.626737594604492,1.8652135133743286,-0.13154198229312897
1788675207079382800,17.4363828125,9.62933349609375,1.8547309637069702,-0.07929105311632156
1788675207095513000,17.45251318359375,9.630280494689941,1.8507754802703857,-0.052067387849092484
1788675207111718400,17.468718505859375,9.629679679870605,1.8542503118515015,-0.03744365647435188
1788675207127839500,17.484839599609376,9.629956245422363,1.853128433227539,-0.01580192893743515
1788675207144095700,17.501095703125,9.635767936706543,1.8225717544555664,0.024577593430876732
1788675207160247600,17.51724755859375,9.647278785705566,1.7597306966781616,0.06116081029176712
1788675207176391700,17.5333916015625,9.658151626586914,1.699280858039856,0.05414567142724991
1788675207192602000,17.54960205078125,9.663467407226562,1.6696416139602661,-0.009127364493906498
1788675207208705500,17.56570556640625,9.663150787353516,1.669265627861023,-0.0863359123468399
1788675207224967700,17.5819677734375,9.660032272338867,1.6835471391677856,-0.1408543884754181
1788675207241115000,17.598114990234375,9.656929016113281,1.6997462511062622,-0.15803344547748566
1788675207257260800,17.6142607421875,9.655620574951172,1.7082266807556152,-0.14607349038124084
1788675207273441800,17.63044189453125,9.656490325927734,1.7047505378723145,-0.12807238101959229
1788675207289589000,17.646589111328126,9.658909797668457,1.6912181377410889,-0.12502703070640564
1788675207305825500,17.662825439453126,9.663026809692383,1.6664828062057495,-0.1383124738931656
1788675207321985300,17.6789853515625,9.668262481689453,1.6335140466690063,-0.1634887307882309
1788675207338133500,17.695133544921877,9.672487258911133,1.6046191453933716,-0.19639727473258972
1788675207354315000,17.71131494140625,9.673863410949707,1.5918771028518677,-0.22953616082668304
1788675207370472400,17.727472412109375,9.672776222229004,1.5949681997299194,-0.2527172565460205
1788675207386702000,17.7437021484375,9.669486045837402,1.613512635231018,-0.2607620656490326
1788675207402891500,17.7598916015625,9.666165351867676,1.633521318435669,-0.25933974981307983
1788675207419035600,17.77603564453125,9.664097785949707,1.6462775468826294,-0.25570452213287354
1788675207435221500,17.792221435546875,9.66401481628418,1.648064374923706,-0.24715431034564972
1788675207451384000,17.808384033203126,9.666133880615234,1.6371159553527832,-0.23683369159698486
1788675207467625000,17.824625,9.669760704040527,1.6174923181533813,-0.22322753071784973
1788675207483822300,17.840822265625,9.672005653381348,1.6053271293640137,-0.21357393264770508
1788675207499967200,17.85696728515625,9.670755386352539,1.6125773191452026,-0.2155791074037552
1788675207516167700,17.873167724609374,9.669059753417969,1.619154930114746,-0.240857794880867
1788675207532291300,17.889291259765624,9.66905403137207,1.6110036373138428,-0.2905881106853485
1788675207548549400,17.90554931640625,9.670665740966797,1.5914801359176636,-0.34028756618499756
1788675207564701400,17.921701416015626,9.672568321228027,1.5690606832504272,-0.3871164321899414
1788675207580847400,17.937847412109374,9.671884536743164,1.561816930770874,-0.43100205063819885
1788675207597031000,17.954031005859374,9.669636726379395,1.5659821033477783,-0.4649830460548401
1788675207613153800,17.97015380859375,9.667805671691895,1.5719631910324097,-0.48254287242889404
1788675207629413600,17.98641357421875,9.665663719177246,1.5831605195999146,-0.4888039827346802
1788675207645569300,18.0025693359375,9.662784576416016,1.5949193239212036,-0.5071632862091064
1788675207661700400,18.018700439453124,9.658822059631348,1.604697346687317,-0.5499823689460754
1788675207677854200,18.034854248046877,9.656594276428223,1.6017467975616455,-0.5957949757575989
1788675207693977300,18.050977294921875,9.657629013061523,1.58488929271698,-0.6234705448150635
1788675207710250800,18.067250732421876,9.661979675292969,1.5612537860870361,-0.6156507134437561
1788675207726386200,18.08338623046875,9.667981147766113,1.5409687757492065,-0.5709168910980225
1788675207742534100,18.0995341796875,9.672142028808594,1.5320320129394531,-0.5224320888519287
1788675207758702800,18.115702880859374,9.671329498291016,1.544235348701477,-0.5011165738105774
1788675207774826800,18.13182666015625,9.66821575164795,1.56610107421875,-0.4932717978954315
1788675207791060200,18.148060302734375,9.66672420501709,1.577041745185852,-0.4876251816749573
1788675207807207700,18.164207763671875,9.667327880859375,1.574439287185669,-0.48405012488365173
1788675207823354000,18.18035400390625,9.669466972351074,1.563014030456543,-0.47831588983535767
1788675207839529700,18.19652978515625,9.673822402954102,1.536613941192627,-0.475788414478302
1788675207855653400,18.2126533203125,9.678354263305664,1.507775902748108,-0.4758610427379608
1788675207871892200,18.228892333984376,9.68144702911377,1.4835230112075806,-0.48901641368865967
1788675207888046300,18.24504638671875,9.68214225769043,1.468287706375122,-0.5202297568321228
1788675207904187000,18.261186767578124,9.68037223815918,1.466585636138916,-0.5566930770874023
1788675207920376300,18.277376220703125,9.677969932556152,1.4719014167785645,-0.5837807059288025
1788675207936491300,18.2934912109375,9.676077842712402,1.4766641855239868,-0.602800726890564
1788675207952732700,18.309732666015623,9.674427032470703,1.4869468212127686,-0.6040258407592773
1788675207968889900,18.325889892578125,9.6726655960083,1.5052059888839722,-0.5867512226104736
1788675207985040400,18.342040283203126,9.670025825500488,1.5317752361297607,-0.5609449148178101
1788675208001233200,18.358233154296876,9.666403770446777,1.5649927854537964,-0.5308641195297241
1788675208017354200,18.374354248046874,9.664042472839355,1.5909286737442017,-0.49560442566871643
1788675208033600500,18.3906005859375,9.663200378417969,1.605893850326538,-0.46265730261802673
1788675208049752800,18.4067529296875,9.663966178894043,1.6115392446517944,-0.42553168535232544
1788675208065898500,18.4228984375,9.66533088684082,1.6128292083740234,-0.38801491260528564
1788675208082091500,18.439091552734375,9.66685676574707,1.6119519472122192,-0.3519771993160248
1788675208098212600,18.455212646484377,9.665752410888672,1.6196675300598145,-0.34685006737709045
1788675208114467300,18.47146728515625,9.661226272583008,1.6404321193695068,-0.37425848841667175
1788675208130616300,18.4876162109375,9.657586097717285,1.6582530736923218,-0.38935837149620056
1788675208146795500,18.50379541015625,9.657183647155762,1.6649549007415771,-0.37029916048049927
1788675208162957600,18.51995751953125,9.656285285949707,1.6761713027954102,-0.3420467972755432
1788675208179081000,18.5360810546875,9.655338287353516,1.6833161115646362,-0.33359378576278687
1788675208195296500,18.552296630859374,9.660841941833496,1.6656016111373901,-0.2535499036312103
1788675208211403000,18.568403076171876,9.662386894226074,1.663145899772644,-0.20642365515232086
1788675208227549700,18.5845498046875,9.653871536254883,1.7117515802383423,-0.20750916004180908
1788675208243730000,18.60072998046875,9.638364791870117,1.7954248189926147,-0.22081239521503448
1788675208259864300,18.6168642578125,9.627301216125488,1.8553372621536255,-0.20778010785579681
1788675208276125700,18.633125732421874,9.631699562072754,1.8393149375915527,-0.13289520144462585
1788675208292290800,18.649290771484374,9.648160934448242,1.755743384361267,-0.02745857462286949
1788675208308435500,18.665435546875,9.667433738708496,1.646081566810608,0.039106350392103195
1788675208324608800,18.68160888671875,9.68216609954834,1.5573370456695557,0.02743581309914589
1788675208340748300,18.697748291015625,9.687519073486328,1.5230369567871094,-0.05224955826997757
1788675208357017000,18.71401708984375,9.684535026550293,1.5356626510620117,-0.14798389375209808
1788675208373181400,18.730181396484376,9.678692817687988,1.5632985830307007,-0.22223897278308868
1788675208389323300,18.7463232421875,9.675342559814453,1.5798406600952148,-0.24946452677249908
1788675208405514000,18.762513916015624,9.676011085510254,1.5759618282318115,-0.24806557595729828
1788675208421672400,18.77867236328125,9.6788969039917,1.5585503578186035,-0.24548867344856262
1788675208437915100,18.7949150390625,9.681443214416504,1.540723443031311,-0.2573211193084717
1788675208454064000,18.811064208984376,9.681906700134277,1.532882809638977,-0.2852032482624054
1788675208470209000,18.827208984375,9.67966365814209,1.5406956672668457,-0.31740185618400574
1788675208486411000,18.843410888671876,9.675455093383789,1.5615545511245728,-0.3427964448928833
1788675208502533400,18.859533447265626,9.670857429504395,1.5878760814666748,-0.351526141166687
1788675208518769200,18.87576904296875,9.667500495910645,1.6091481447219849,-0.3470723330974579
1788675208534903000,18.891903076171875,9.667025566101074,1.6144121885299683,-0.33566030859947205
1788675208551046400,18.90804638671875,9.669201850891113,1.6044353246688843,-0.32048776745796204
1788675208567252500,18.92425244140625,9.672419548034668,1.5877821445465088,-0.30598631501197815
1788675208583371300,18.940371337890625,9.674823760986328,1.5755608081817627,-0.2929096519947052
1788675208599635000,18.956635009765623,9.676363945007324,1.5688536167144775,-0.2775798439979553
1788675208615786200,18.9727861328125,9.676802635192871,1.568219780921936,-0.2656501531600952
1788675208631930000,18.98893017578125,9.675680160522461,1.575313687324524,-0.2645767629146576
1788675208648093400,19.005093505859374,9.672483444213867,1.591647744178772,-0.2830328345298767
1788675208664216600,19.021216552734376,9.671293258666992,1.5919584035873413,-0.31960779428482056
1788675208680440000,19.037440185546874,9.66879940032959,1.5978059768676758,-0.3629392683506012
1788675208696589300,19.05358935546875,9.665544509887695,1.6088775396347046,-0.39894387125968933
1788675208712733000,19.06973291015625,9.660862922668457,1.630785584449768,-0.4226793348789215
1788675208728905200,19.0859052734375,9.6558837890625,1.657810091972351,-0.4312375783920288
1788675208745027300,19.10202734375,9.652705192565918,1.6789076328277588,-0.4206366539001465
1788675208761252400,19.11825244140625,9.650025367736816,1.6967695951461792,-0.41033250093460083
1788675208777406200,19.13440625,9.647021293640137,1.7107857465744019,-0.42258650064468384
1788675208793550800,19.15055078125,9.644689559936523,1.7158154249191284,-0.4542359411716461
1788675208809729500,19.1667294921875,9.646452903747559,1.6977763175964355,-0.48361197113990784
1788675208825846000,19.182845947265626,9.654267311096191,1.6486555337905884,-0.497432142496109
1788675208842081800,19.199081787109375,9.665337562561035,1.5833096504211426,-0.49475347995758057
1788675208858214700,19.215214599609375,9.67588996887207,1.5225776433944702,-0.4788498282432556
1788675208874356700,19.231356689453126,9.682599067687988,1.485116720199585,-0.4605262577533722
1788675208890543400,19.24754345703125,9.684021949768066,1.4786796569824219,-0.4512418210506439
1788675208906660000,19.26366015625,9.683036804199219,1.4870750904083252,-0.444733589887619
1788675208922905900,19.27990576171875,9.682733535766602,1.4914981126785278,-0.4364548623561859
1788675208939047700,19.296047607421876,9.684383392333984,1.4841868877410889,-0.4246099293231964
1788675208955190500,19.3121904296875,9.687817573547363,1.4660825729370117,-0.4088696241378784
1788675208971390000,19.328389892578127,9.692116737365723,1.443334698677063,-0.3873460292816162
1788675208987507000,19.3445068359375,9.696138381958008,1.4230983257293701,-0.3606548011302948
1788675209003752400,19.36075244140625,9.699143409729004,1.4059362411499023,-0.34689486026763916
1788675209019902200,19.376902099609374,9.699904441833496,1.3975731134414673,-0.359195351600647
1788675209036045600,19.393045654296873,9.69813346862793,1.4012638330459595,-0.3912336230278015
1788675209052247600,19.40924755859375,9.695084571838379,1.4124751091003418,-0.42500928044319153
1788675209068366000,19.425365966796875,9.690895080566406,1.432955265045166,-0.4511862099170685
1788675209084631800,19.4416318359375,9.686641693115234,1.4568074941635132,-0.4659230709075928
1788675209100781300,19.45778125,9.682934761047363,1.480986475944519,-0.46674153208732605
1788675209116922000,19.473922119140624,9.680068016052246,1.5032603740692139,-0.45484328269958496
1788675209133128200,19.490128173828126,9.677669525146484,1.524173617362976,-0.4358803331851959
1788675209149244700,19.50624462890625,9.675636291503906,1.5428063869476318,-0.4149743914604187
1788675209165473800,19.522473876953125,9.672584533691406,1.5639110803604126,-0.40704548358917236
1788675209181650400,19.538650390625,9.669093132019043,1.585901141166687,-0.40489277243614197
1788675209197789400,19.55478955078125,9.666254043579102,1.6043524742126465,-0.3999546766281128
1788675209213964000,19.570964111328124,9.664950370788574,1.6143481731414795,-0.3911568820476532
1788675209230113500,19.587113525390624,9.664985656738281,1.6158807277679443,-0.3838847577571869
1788675209246337000,19.6033369140625,9.665389060974121,1.6137112379074097,-0.3828721046447754
1788675209262517500,19.619517578125,9.665006637573242,1.6144758462905884,-0.3892344534397125
1788675209278672400,19.63567236328125,9.66403865814209,1.6200828552246094,-0.3899765610694885
1788675209294831400,19.651831298828125,9.66441822052002,1.6225560903549194,-0.3697589039802551
1788675209310987000,19.667987060546874,9.666773796081543,1.61815345287323,-0.324720561504364
1788675209327228000,19.684227783203124,9.669832229614258,1.609867811203003,-0.27028927206993103
1788675209343400000,19.70039990234375,9.672418594360352,1.6010615825653076,-0.22651101648807526
1788675209359538000,19.716537841796875,9.67444896697998,1.592362642288208,-0.19951246678829193
1788675209375721500,19.732721435546875,9.675999641418457,1.5845959186553955,-0.18568724393844604
1788675209391882800,19.7488828125,9.677282333374023,1.5778076648712158,-0.17643363773822784
1788675209408126700,19.765126708984376,9.679703712463379,1.5642257928848267,-0.16408663988113403
1788675209424273400,19.7812734375,9.68478012084961,1.5342446565628052,-0.146675705909729
1788675209440418800,19.797418701171875,9.691827774047852,1.4897843599319458,-0.13929514586925507
1788675209456625200,19.813625244140624,9.695990562438965,1.4595569372177124,-0.1669188141822815
1788675209472730000,19.829730224609374,9.694518089294434,1.4616978168487549,-0.22393766045570374
1788675209488987100,19.845987060546875,9.688992500305176,1.4880200624465942,-0.28214505314826965
1788675209505120800,19.862120849609376,9.682158470153809,1.524772047996521,-0.3182469606399536
1788675209521267200,19.87826708984375,9.676573753356934,1.558278203010559,-0.3256659507751465
1788675209537478100,19.89447802734375,9.674617767333984,1.5734515190124512,-0.31050175428390503
1788675209553611500,19.910611572265626,9.676149368286133,1.5678012371063232,-0.2906949520111084
1788675209569876200,19.926876220703125,9.67976188659668,1.545538306236267,-0.2896917164325714
1788675209586028500,19.943028564453126,9.683403968811035,1.52035653591156,-0.3010057210922241
1788675209602170600,19.959170654296877,9.686015129089355,1.5006706714630127,-0.31543341279029846
1788675209618337300,19.975337158203125,9.687280654907227,1.4902074337005615,-0.32599371671676636
1788675209634456800,19.991456787109374,9.685994148254395,1.4963802099227905,-0.33578935265541077
1788675209650728700,20.007728759765627,9.683334350585938,1.5130280256271362,-0.33788710832595825
1788675209666883000,20.023883056640624,9.680795669555664,1.530156135559082,-0.33346638083457947
1788675209683027200,20.040027099609375,9.678818702697754,1.542724370956421,-0.33295750617980957
1788675209699202300,20.056202392578125,9.67827320098877,1.545361042022705,-0.336567223072052
1788675209715306200,20.07230615234375,9.680002212524414,1.5340327024459839,-0.3386760950088501
1788675209731538400,20.088538330078126,9.683934211730957,1.5101031064987183,-0.3337576985359192
1788675209747687400,20.1046875,9.688888549804688,1.4796713590621948,-0.32619214057922363
1788675209763832800,20.120832763671874,9.69307804107666,1.4520208835601807,-0.32595914602279663
1788675209780044000,20.1370439453125,9.692895889282227,1.4497966766357422,-0.3409402370452881
1788675209796210200,20.153210205078125,9.689813613891602,1.4629241228103638,-0.3711601495742798
1788675209812447500,20.169447509765625,9.68852424621582,1.4594380855560303,-0.41584497690200806
1788675209828598000,20.185597900390626,9.685892105102539,1.4632196426391602,-0.46137744188308716
1788675209844771000,20.20177099609375,9.682544708251953,1.4726096391677856,-0.5001410245895386
1788675209860958700,20.217958740234376,9.676942825317383,1.5010290145874023,-0.5235269069671631
1788675209877078300,20.234078369140626,9.673495292663574,1.5260262489318848,-0.5149102210998535
1788675209893325800,20.250325927734377,9.67111873626709,1.5493911504745483,-0.4891197085380554
1788675209909473500,20.2664736328125,9.668835639953613,1.5686371326446533,-0.47263845801353455
1788675209925617000,20.282616943359375,9.666597366333008,1.5786181688308716,-0.48502737283706665
1788675209941809400,20.298809326171874,9.665560722351074,1.5734444856643677,-0.5211387276649475
1788675209957926000,20.31492578125,9.66740894317627,1.5523927211761475,-0.5492462515830994
1788675209974236000,20.33123583984375,9.67107105255127,1.5270920991897583,-0.5556710958480835
1788675209990367000,20.347366943359376,9.674978256225586,1.5086348056793213,-0.5377676486968994
1788675210006512600,20.3635126953125,9.676604270935059,1.5055586099624634,-0.5167312622070312
1788675210022675000,20.379675048828126,9.67387580871582,1.5250039100646973,-0.5107685923576355
1788675210038795300,20.395795166015624,9.669105529785156,1.5574357509613037,-0.5031639933586121
1788675210055063300,20.412063232421875,9.6658296585083,1.5840644836425781,-0.4825443923473358
1788675210071210800,20.428210693359375,9.665437698364258,1.596086025238037,-0.4496823847293854
1788675210087358200,20.444358154296875,9.668326377868652,1.58811616897583,-0.41442203521728516
1788675210103521000,20.46052099609375,9.673027992248535,1.567196249961853,-0.38316991925239563
1788675210119641900,20.476641845703124,9.67487621307373,1.5592708587646484,-0.3685579299926758
1788675210135831000,20.4928310546875,9.677658081054688,1.5449680089950562,-0.35550206899642944
1788675210152017000,20.509016845703126,9.6807861328125,1.5244667530059814,-0.3588276207447052
1788675210168161800,20.525161865234374,9.684900283813477,1.4969981908798218,-0.36342909932136536
1788675210184348700,20.5413486328125,9.688056945800781,1.4727587699890137,-0.37803763151168823
1788675210200507400,20.55750732421875,9.687332153320312,1.471566915512085,-0.40059715509414673
1788675210216741000,20.5737412109375,9.683544158935547,1.4913188219070435,-0.41871342062950134
1788675210232935700,20.589935791015623,9.678182601928711,1.5247946977615356,-0.4221123456954956
1788675210249092000,20.606092041015625,9.672572135925293,1.5631580352783203,-0.41020309925079346
1788675210265286100,20.6222861328125,9.66778564453125,1.5983349084854126,-0.38683393597602844
1788675210281445600,20.638445556640626,9.664860725402832,1.6233786344528198,-0.3542788028717041
1788675210297682400,20.654682373046874,9.664287567138672,1.6339328289031982,-0.3196825385093689
1788675210313875200,20.670875244140625,9.665165901184082,1.6340432167053223,-0.2913075089454651
1788675210330017000,20.68701708984375,9.666247367858887,1.6307567358016968,-0.2732771337032318
1788675210346205400,20.703205322265624,9.665940284729004,1.6324479579925537,-0.2740471661090851
1788675210362322200,20.719322265625,9.66317081451416,1.6452956199645996,-0.29416581988334656
1788675210378567200,20.735567138671875,9.658822059631348,1.665360450744629,-0.32269036769866943
1788675210394716700,20.751716552734376,9.655496597290039,1.680073857307434,-0.345148503780365
1788675210410858200,20.767858154296874,9.653962135314941,1.6867973804473877,-0.35512715578079224
1788675210427036000,20.784035888671873,9.650957107543945,1.7021079063415527,-0.3636425733566284
