time,seconds_elapsed,z,y,x
1788675189886447000,0.243447021484375,-86.66600036621094,44.01400375366211,-4.187000274658203
1788675189902570200,0.2595703125,-92.3030014038086,6.427000522613525,-2.882000207901001
1788675189918842000,0.275842041015625,-92.0560073852539,7.463000297546387,-5.521000385284424
1788675189934982100,0.291982177734375,-93.14500427246094,6.220000267028809,-2.4750001430511475
1788675189951190000,0.30818994140625,-92.20100402832031,6.100000381469727,-3.2920000553131104
1788675189967332000,0.32433203125,-92.93600463867188,5.353000164031982,-3.196000099182129
1788675189983457000,0.34045703125,-93.77100372314453,5.798000335693359,-2.070000171661377
1788675189999733000,0.35673291015625,-92.92900085449219,6.005000114440918,-2.4770002365112305
1788675190015875800,0.372875732421875,-92.6290054321289,6.317000389099121,-3.188000202178955
1788675190032082700,0.389082763671875,-93.37600708007812,5.021000385284424,-4.013000011444092
1788675190048184800,0.405184814453125,-90.57500457763672,4.707000255584717,-3.1030001640319824
1788675190064307700,0.4213076171875,-92.5320053100586,6.202000141143799,-3.698000192642212
1788675190080597200,0.43759716796875,-91.85800170898438,5.465000152587891,-2.687000036239624
1788675190096770600,0.4537705078125,-90.60100555419922,5.448000431060791,-3.809000253677368
1788675190112973800,0.469973876953125,-91.8330078125,5.156000137329102,-1.7730001211166382
1788675190129093600,0.48609375,-90.71600341796875,5.335000038146973,-4.2170000076293945
1788675190145245700,0.50224560546875,-91.78400421142578,5.229000091552734,-4.319000244140625
1788675190161495800,0.518495849609375,-91.97700500488281,5.025000095367432,-3.506000280380249
1788675190177671200,0.534671142578125,-92.94100189208984,6.1060004234313965,-2.9850001335144043
1788675190193871400,0.550871337890625,-92.62000274658203,7.186000347137451,-2.263000011444092
1788675190210001000,0.5670009765625,-90.56300354003906,5.795000076293945,-1.871000051498413
1788675190226165800,0.583165771484375,-91.83900451660156,5.260000228881836,-1.9760000705718994
1788675190242431500,0.599431396484375,-92.4050064086914,6.1060004234313965,-2.884000062942505
1788675190258571300,0.6155712890625,-91.96100616455078,5.684000492095947,-2.379000186920166
1788675190274774000,0.63177392578125,-90.8800048828125,5.0420002937316895,-2.182000160217285
1788675190290914000,0.6479140625,-91.92500305175781,5.38100004196167,-0.956000030040741
1788675190307036000,0.664035888671875,-91.01600646972656,5.88800048828125,-2.9900002479553223
1788675190323306000,0.680305908203125,-90.89400482177734,5.898000240325928,-2.2770001888275146
1788675190339443500,0.696443359375,-91.4050064086914,4.939000129699707,-1.877000093460083
1788675190355645700,0.712645751953125,-92.2760009765625,6.12000036239624,-1.8660000562667847
1788675190371789300,0.728789306640625,-91.73300170898438,7.0970001220703125,-0.8390000462532043
1788675190387905800,0.74490576171875,-91.05500793457031,6.038000106811523,0.1680000126361847
1788675190404157400,0.761157470703125,-91.81000518798828,6.142000198364258,-0.1340000033378601
1788675190420275700,0.777275634765625,-91.82500457763672,6.565000534057617,-0.5380000472068787
1788675190436481000,0.79348095703125,-91.19100189208984,5.372000217437744,-1.568000078201294
1788675190452582000,0.809581787109375,-91.9310073852539,4.513000011444092,-1.7780001163482666
1788675190468689000,0.82568896484375,-90.25000762939453,4.818000316619873,-2.7960002422332764
1788675190484964000,0.841964111328125,-89.36900329589844,5.373000144958496,-1.2650001049041748
1788675190501082000,0.85808203125,-91.94000244140625,5.804000377655029,-1.3590000867843628
1788675190517337000,0.874337158203125,-93.22400665283203,5.697000503540039,-1.5630000829696655
1788675190533448400,0.890448486328125,-90.96800231933594,5.053000450134277,-1.3670001029968262
1788675190549570300,0.9065703125,-91.49700164794922,3.9760000705718994,-1.784000039100647
1788675190565820400,0.9228203125,-91.60600280761719,3.6510002613067627,-2.0920000076293945
1788675190581916200,0.938916259765625,-93.09700775146484,4.087000370025635,-1.6790001392364502
1788675190598121700,0.955121826171875,-91.61100769042969,4.728000164031982,-1.6750000715255737
1788675190614241300,0.9712412109375,-92.58200073242188,6.237000465393066,-1.1510000228881836
1788675190630363000,0.98736279296875,-90.35200500488281,4.821000099182129,-2.5930001735687256
1788675190646614000,1.003614013671875,-91.2020034790039,4.50100040435791,-2.5940001010894775
1788675190662753800,1.01975390625,-92.84000396728516,5.670000076293945,-3.499000072479248
1788675190678962200,1.035962158203125,-91.84300231933594,4.069000244140625,-2.9030001163482666
1788675190695064800,1.05206494140625,-90.88500213623047,5.255000114440918,-2.2820000648498535
1788675190711175000,1.0681748046875,-91.33100128173828,6.433000087738037,-2.373000144958496
1788675190727436000,1.08443603515625,-91.85100555419922,4.820000171661377,-2.7940001487731934
1788675190743576000,1.100576171875,-91.0250015258789,5.6670002937316895,-3.501000165939331
1788675190759785700,1.11678564453125,-91.54400634765625,4.920000076293945,-3.3030002117156982
1788675190775919000,1.132919189453125,-91.45600128173828,5.449000358581543,-3.808000087738037
1788675190792040200,1.149040283203125,-90.1500015258789,4.164999961853027,-3.515000104904175
1788675190808308500,1.16530859375,-91.78600311279297,5.87600040435791,-4.008000373840332
1788675190824404000,1.181404052734375,-89.39600372314453,4.060000419616699,-3.314000129699707
1788675190840611600,1.197611572265625,-92.86500549316406,6.195000171661377,-4.309000015258789
1788675190856755500,1.21375537109375,-92.74700164794922,5.986000061035156,-3.9040002822875977
1788675190872876500,1.22987646484375,-90.72000122070312,6.630000114440918,-3.5950002670288086
1788675190889153500,1.246153564453125,-92.406005859375,4.700000286102295,-3.813000202178955
1788675190905294000,1.262294189453125,-92.83800506591797,4.698000431060791,-4.017000198364258
1788675190921499100,1.2784990234375,-89.60800170898438,3.953000068664551,-3.314000129699707
1788675190937604400,1.294604248046875,-93.0510025024414,4.4830002784729,-4.12000036239624
1788675190953721900,1.310721923828125,-91.98200225830078,4.914000034332275,-3.812000274658203
1788675190970000400,1.32700048828125,-93.17200469970703,5.664000034332275,-4.008000373840332
1788675190986139100,1.34313916015625,-91.13900756835938,4.906000137329102,-4.323000431060791
1788675191002347300,1.35934716796875,-93.39900207519531,6.304000377655029,-4.205000400543213
1788675191018473500,1.375473388671875,-92.42300415039062,5.447000026702881,-4.111999988555908
1788675191034591700,1.391591796875,-92.31400299072266,4.259000301361084,-4.734000205993652
1788675191050831600,1.40783154296875,-92.33100128173828,5.330000400543213,-4.827000141143799
1788675191067005400,1.42400537109375,-91.85900115966797,2.76200008392334,-4.442000389099121
1788675191083208000,1.4402080078125,-92.53400421142578,4.580000400543213,-4.833000183105469
1788675191099330600,1.45633056640625,-91.96400451660156,3.7370002269744873,-3.7210001945495605
1788675191115485400,1.4724853515625,-92.44700622558594,4.027000427246094,-6.060000419616699
1788675191131740200,1.488740234375,-91.6030044555664,4.128000259399414,-6.468000411987305
1788675191147916000,1.504916015625,-90.16400146484375,2.8600001335144043,-4.953000068664551
1788675191164120600,1.52112060546875,-89.8790054321289,4.459000110626221,-5.551000118255615
1788675191180251400,1.53725146484375,-91.7800064086914,4.583000183105469,-4.528000354766846
1788675191196420000,1.553420166015625,-93.72000122070312,4.25100040435791,-5.547000408172607
1788675191212681000,1.569680908203125,-93.0780029296875,4.142000198364258,-5.549000263214111
1788675191228868900,1.585868896484375,-92.76200103759766,5.112000465393066,-5.134000301361084
1788675191245072100,1.602072021484375,-92.22400665283203,2.8440001010894775,-6.377000331878662
1788675191261213000,1.618212890625,-93.0510025024414,3.510000228881836,-4.740000247955322
1788675191277333000,1.6343330078125,-90.9540023803711,4.3480000495910645,-5.958000183105469
1788675191293608000,1.65060791015625,-92.2030029296875,4.153000354766846,-4.633000373840332
1788675191309749500,1.66674951171875,-89.1830062866211,2.438000202178955,-4.3470001220703125
1788675191325956000,1.6829560546875,-92.21000671386719,3.825000286102295,-5.146000385284424
1788675191342105600,1.699105712890625,-92.97900390625,4.678000450134277,-5.545000076293945
1788675191358226000,1.715225830078125,-89.9580078125,3.93500018119812,-4.638000011444092
1788675191374508800,1.7315087890625,-90.5770034790039,4.490000247955322,-3.308000087738037
1788675191390647800,1.747647705078125,-89.63600158691406,3.6120002269744873,-4.743000030517578
1788675191406852600,1.7638525390625,-90.2490005493164,2.6570000648498535,-4.140000343322754
1788675191422954800,1.779954833984375,-90.78700256347656,3.7360000610351562,-3.620000123977661
1788675191439075300,1.796075439453125,-90.04900360107422,3.945000171661377,-3.9250001907348633
1788675191455353000,1.81235302734375,-89.70600128173828,3.0940001010894775,-3.4240002632141113
1788675191471488500,1.828488525390625,-89.26300048828125,3.1030001640319824,-2.7110002040863037
1788675191487693800,1.84469384765625,-88.71900177001953,4.189000129699707,-1.5820000171661377
1788675191503802600,1.860802734375,-92.38300323486328,4.174000263214111,-3.1050002574920654
1788675191519925200,1.87692529296875,-89.61900329589844,3.082000255584717,-4.341000080108643
1788675191536203500,1.89320361328125,-88.54100799560547,3.8420002460479736,-3.4180002212524414
1788675191552326700,1.90932666015625,-89.2550048828125,2.8910000324249268,-2.509000062942505
1788675191568532700,1.92553271484375,-90.77100372314453,2.2330000400543213,-3.8370001316070557
1788675191584635100,1.94163525390625,-90.2750015258789,4.046000003814697,-4.433000087738037
1788675191600749600,1.95774951171875,-90.3290023803711,2.3490002155303955,-3.124000072479248
1788675191617004500,1.974004638671875,-91.31500244140625,3.5240001678466797,-3.5200002193450928
1788675191633144600,1.99014453125,-90.69300079345703,3.188000202178955,-4.5420002937316895
1788675191649349000,2.00634912109375,-89.96600341796875,3.823000192642212,-5.047000408172607
1788675191665478000,2.022477783203125,-89.80900573730469,3.204000234603882,-3.2190001010894775
1788675191681613800,2.03861376953125,-89.62600708007812,2.42900013923645,-5.059000015258789
1788675191697871600,2.05487158203125,-88.56400299072266,3.829000234603882,-4.437000274658203
1788675191713992700,2.07099267578125,-88.96100616455078,2.767000198364258,-3.7330002784729004
1788675191730197000,2.087197021484375,-89.87600708007812,3.380000114440918,-6.069000244140625
1788675191746335000,2.1033349609375,-89.6300048828125,3.075000047683716,-4.850000381469727
1788675191762456300,2.119456298828125,-90.26200103759766,3.0810000896453857,-4.442000389099121
1788675191778720800,2.135720703125,-90.91100311279297,2.2130000591278076,-5.365000247955322
1788675191794804500,2.151804443359375,-89.62700653076172,3.509000062942505,-4.439000129699707
1788675191811009500,2.168009521484375,-90.74700164794922,4.452000141143799,-6.1610002517700195
1788675191827146000,2.18414599609375,-89.72000122070312,5.074000358581543,-7.583000183105469
1788675191843269000,2.20026904296875,-89.4800033569336,5.522000312805176,-6.153000354766846
1788675191859544000,2.2165439453125,-92.56600189208984,5.209000110626221,-5.8460001945495605
1788675191875688000,2.23268798828125,-90.42900085449219,4.450000286102295,-6.26300048828125
1788675191891894300,2.248894287109375,-89.70100402832031,4.869000434875488,-6.871000289916992
1788675191908039200,2.2650390625,-89.92200469970703,5.406000137329102,-6.866000175476074
1788675191924159700,2.28115966796875,-90.10800170898438,5.0980000495910645,-5.850000381469727
1788675191940436200,2.297436279296875,-88.8280029296875,4.988000392913818,-5.955000400543213
1788675191956576300,2.313576171875,-88.84600067138672,5.301000118255615,-6.563000202178955
1788675191972777700,2.32977783203125,-90.67300415039062,4.5400004386901855,-7.586000442504883
1788675191988888000,2.34588818359375,-88.85600280761719,5.403000354766846,-6.970000267028809
1788675192005041200,2.362041259765625,-89.05900573730469,5.301000118255615,-6.563000202178955
1788675192021292000,2.3782919921875,-88.2030029296875,4.653000354766846,-6.875000476837158
1788675192037416400,2.39441650390625,-90.09300231933594,4.7829999923706055,-5.344000339508057
1788675192053559600,2.4105595703125,-87.96300506591797,4.560000419616699,-5.75600004196167
1788675192069688300,2.426688232421875,-90.34000396728516,4.115000247955322,-7.285000324249268
1788675192085835800,2.442835693359375,-90.8530044555664,4.561000347137451,-6.058000087738037
1788675192102121000,2.459120849609375,-89.66700744628906,4.565999984741211,-5.550000190734863
1788675192118269400,2.47526953125,-90.66100311279297,7.249000549316406,-5.321000099182129
1788675192134397400,2.4913974609375,-91.0040054321289,6.588000297546387,-6.753000259399414
1788675192150475500,2.5074755859375,-91.36700439453125,6.4110002517700195,-4.003000259399414
1788675192166637000,2.523636962890625,-90.7280044555664,5.544000148773193,-4.623000144958496
1788675192182850300,2.539850341796875,-92.04300689697266,6.823000431060791,-5.323000431060791
1788675192199003000,2.5560029296875,-91.81100463867188,5.645000457763672,-5.232000350952148
1788675192215222000,2.572221923828125,-93.74500274658203,6.397000312805176,-5.325000286102295
1788675192231361000,2.588361083984375,-88.9590072631836,7.567000389099121,-5.422000408172607
1788675192247462400,2.60446240234375,-88.69500732421875,6.408000469207764,-3.9050002098083496
1788675192263715300,2.62071533203125,-88.7820053100586,5.988000392913818,-3.2970001697540283
1788675192279852800,2.636852783203125,-87.14900207519531,5.0320000648498535,-2.493000030517578
1788675192296053500,2.653053466796875,-88.2280044555664,6.323000431060791,-2.1750001907348633
1788675192312201200,2.669201171875,-86.6510009765625,5.982000350952148,-3.504000186920166
1788675192328341200,2.68534130859375,-88.13600158691406,5.558000087738037,-3.302000045776367
1788675192344617000,2.701616943359375,-89.77100372314453,7.4860005378723145,-3.5880000591278076
1788675192360745500,2.717745361328125,-89.87100219726562,6.517000198364258,-3.9020001888275146
1788675192376949200,2.73394921875,-90.10000610351562,7.4810004234313965,-3.996000289916992
1788675192393050000,2.750050048828125,-89.57200622558594,8.557000160217285,-3.579000234603882
1788675192409163500,2.76616357421875,-91.8280029296875,6.715000152587891,-5.324000358581543
1788675192425412400,2.782412353515625,-89.35700225830078,7.801000595092773,-3.994000196456909
1788675192441554000,2.798553955078125,-92.24200439453125,7.588000297546387,-4.196000099182129
1788675192457760500,2.814760498046875,-92.03300476074219,10.071000099182129,-2.8500001430511475
1788675192473866200,2.8308662109375,-90.34800720214844,8.64900016784668,-4.800000190734863
1788675192489989000,2.846989013671875,-90.56700134277344,7.565000534057617,-5.7260003089904785
1788675192506284300,2.8632841796875,-91.83800506591797,8.11400032043457,-4.90500020980835
1788675192522423000,2.879423095703125,-91.28400421142578,8.77400016784668,-3.575000286102295
1788675192538630400,2.89563037109375,-90.8800048828125,9.624000549316406,-4.078000068664551
1788675192554742300,2.9117421875,-90.64300537109375,8.449000358581543,-3.7830002307891846
1788675192570862000,2.927862060546875,-89.89900207519531,8.01300048828125,-4.195000171661377
1788675192587114200,2.9441142578125,-91.09400177001953,8.219000816345215,-5.00600004196167
1788675192603189000,2.96018896484375,-93.09500122070312,9.968000411987305,-2.6460001468658447
1788675192619393500,2.9763935546875,-91.73100280761719,9.087000846862793,-4.285000324249268
1788675192635516000,2.992515869140625,-93.76600646972656,9.410000801086426,-4.38100004196167
1788675192651636500,3.008636474609375,-91.85200500488281,9.943000793457031,-4.379000186920166
1788675192667896600,3.024896484375,-92.88600158691406,8.668000221252441,-3.6760001182556152
1788675192683959600,3.04095947265625,-95.05900573730469,9.729000091552734,-4.682000160217285
1788675192700168000,3.05716796875,-93.74900817871094,8.34000015258789,-4.289000034332275
1788675192716307700,3.0733076171875,-92.15400695800781,9.306000709533691,-3.9770002365112305
1788675192732432100,3.08943212890625,-92.781005859375,9.42400074005127,-3.26200008392334
1788675192748700400,3.105700439453125,-94.82100677490234,10.608000755310059,-3.0450000762939453
1788675192764795600,3.121795654296875,-91.67000579833984,10.896000862121582,-5.186000347137451
1788675192781017000,3.13801708984375,-92.91700744628906,9.946000099182129,-4.276000022888184
1788675192797111300,3.154111328125,-93.74200439453125,9.317000389099121,-3.364000082015991
1788675192813236500,3.170236572265625,-92.78900146484375,10.175000190734863,-3.1530001163482666
1788675192829515500,3.186515625,-94.42300415039062,10.050000190734863,-4.680000305175781
1788675192845656300,3.20265625,-92.67200469970703,9.315999984741211,-3.263000249862671
1788675192861862400,3.2188623046875,-92.6830062866211,9.742000579833984,-3.4630000591278076
1788675192877965000,3.234965087890625,-93.62700653076172,9.862000465393066,-2.6460001468658447
1788675192894070000,3.251070068359375,-91.6310043334961,10.271000862121582,-3.867000102996826
1788675192910362400,3.2673623046875,-92.69200134277344,10.277000427246094,-3.56000018119812
1788675192926505500,3.28350537109375,-93.88400268554688,10.160000801086426,-4.375
1788675192942713900,3.2997138671875,-93.7760009765625,10.269000053405762,-4.272000312805176
1788675192958823700,3.31582373046875,-93.64400482177734,9.959000587463379,-3.3580002784729004
1788675192974959900,3.3319599609375,-94.27300262451172,9.10300064086914,-3.3650002479553223
1788675192991241700,3.34824169921875,-93.87100219726562,11.897000312805176,-2.7290000915527344
1788675193007367200,3.3643671875,-93.75900268554688,10.171000480651855,-3.56000018119812
1788675193023577000,3.3805771484375,-93.22200775146484,10.820000648498535,-3.0450000762939453
1788675193039687200,3.396687255859375,-94.37700653076172,10.510000228881836,-2.3340001106262207
1788675193055826000,3.412825927734375,-94.50100708007812,11.148000717163086,-2.7350001335144043
1788675193072117800,3.42911767578125,-94.73700714111328,10.919000625610352,-3.8570001125335693
1788675193088291600,3.44529150390625,-93.24300384521484,11.132000923156738,-3.756000280380249
1788675193104500500,3.46150048828125,-92.80400085449219,11.78700065612793,-2.8340001106262207
1788675193120631000,3.477631103515625,-93.55900573730469,11.351000785827637,-3.448000192642212
1788675193136801800,3.4938017578125,-94.1830062866211,10.282000541687012,-3.3540000915527344
1788675193153065200,3.510065185546875,-94.4850082397461,10.617000579833984,-2.3320000171661377
1788675193169198000,3.526197998046875,-94.16800689697266,10.507000923156738,-2.5380001068115234
1788675193185404000,3.54240380859375,-95.25000762939453,10.932000160217285,-2.940000057220459
1788675193201541600,3.558541748046875,-91.9310073852539,10.7160005569458,-2.640000104904175
1788675193217646600,3.574646484375,-94.84300231933594,11.892000198364258,-3.2380001544952393
1788675193233902600,3.590902587890625,-95.47900390625,12.868000984191895,-2.4130001068115234
1788675193250026000,3.60702587890625,-96.22200775146484,12.657000541687012,-2.312000036239624
1788675193266232300,3.623232421875,-96.906005859375,14.144001007080078,-3.317000150680542
1788675193282378800,3.639378662109375,-94.9260025024414,12.123000144958496,-2.013000011444092
1788675193298484500,3.655484375,-95.57000732421875,12.66200065612793,-1.8040001392364502
1788675193314744300,3.671744384765625,-93.75300598144531,12.552000999450684,-1.8070000410079956
1788675193330858500,3.6878583984375,-93.52000427246094,12.131000518798828,-1.2000000476837158
1788675193347064600,3.704064697265625,-97.07000732421875,13.5260009765625,-1.4890000820159912
1788675193363175200,3.720175048828125,-96.08700561523438,12.781000137329102,-0.987000048160553
1788675193379310600,3.736310546875,-95.01200103759766,12.135000228881836,-1.096000075340271
1788675193395577600,3.75257763671875,-95.76800537109375,11.915000915527344,-1.6060000658035278
1788675193411704600,3.76870458984375,-94.16900634765625,13.208000183105469,-0.8840000629425049
1788675193427908600,3.78490869140625,-95.53400421142578,12.25100040435791,-0.4830000102519989
1788675193444019000,3.80101904296875,-92.65300750732422,12.570000648498535,-0.38200002908706665
1788675193460136000,3.817135986328125,-93.83100128173828,12.78600025177002,-0.3790000081062317
1788675193476381200,3.833381103515625,-95.1100082397461,11.168000221252441,-1.308000087738037
1788675193492520700,3.849520751953125,-94.57500457763672,13.006000518798828,-0.07000000029802322
1788675193508726500,3.8657265625,-94.26000213623047,12.461000442504883,-0.687000036239624
1788675193524846300,3.881846435546875,-93.60900115966797,11.818000793457031,-0.5910000205039978
1788675193540969700,3.8979697265625,-95.52800750732422,11.283000946044922,-0.7970000505447388
1788675193557226800,3.914226806640625,-93.90800476074219,11.291000366210938,0.015000000596046448
1788675193573365200,3.930365234375,-93.76600646972656,10.880000114440918,1.3350000381469727
1788675193589571300,3.9465712890625,-95.62700653076172,10.747000694274902,-0.8020000457763672
1788675193605699800,3.962699951171875,-96.19100189208984,12.891000747680664,-0.7820000648498535
1788675193621823000,3.978822998046875,-97.30900573730469,11.630000114440918,0.9390000700950623
1788675193638067000,3.99506689453125,-93.48700714111328,11.071000099182129,-0.39400002360343933
1788675193654208500,4.01120849609375,-93.71500396728516,12.143000602722168,-0.3840000033378601
1788675193670414600,4.02741455078125,-96.05400085449219,11.720000267028809,-0.1810000091791153
1788675193686554600,4.0435546875,-96.99600219726562,10.97700023651123,0.2200000137090683
1788675193702646800,4.059646728515625,-96.4570083618164,12.816000938415527,1.559000015258789
1788675193718922200,4.075922119140625,-94.33800506591797,12.155000686645508,0.4300000071525574
1788675193735064600,4.092064697265625,-95.93600463867188,12.700000762939453,0.9470000267028809
1788675193751269600,4.10826953125,-94.33500671386719,11.292000770568848,0.015000000596046448
1788675193767416800,4.124416748046875,-94.53700256347656,11.29900074005127,0.5250000357627869
1788675193783542500,4.14054248046875,-97.76100158691406,12.265000343322754,0.23200000822544098
1788675193799823600,4.15682373046875,-97.43400573730469,12.917000770568848,0.9500000476837158
1788675193815963100,4.172963134765625,-96.66400146484375,11.308000564575195,0.9350000619888306
1788675193832172800,4.1891728515625,-97.21500396728516,12.703001022338867,1.0500000715255737
1788675193848270600,4.2052705078125,-98.9070053100586,12.176000595092773,1.4550000429153442
1788675193864324400,4.221324462890625,-97.42500305175781,13.13800048828125,1.4620000123977661
1788675193880588300,4.23758837890625,-96.8550033569336,12.18600082397461,2.4710001945495605
1788675193896718000,4.253718017578125,-96.01400756835938,11.961000442504883,1.755000114440918
1788675193912923100,4.269923095703125,-95.28500366210938,11.84000015258789,0.8360000252723694
1788675193929045500,4.28604541015625,-97.17400360107422,11.107000350952148,1.8510000705718994
1788675193945203700,4.30220361328125,-98.06000518798828,12.386000633239746,1.252000093460083
1788675193961455000,4.318455078125,-99.67100524902344,12.92300033569336,1.1570000648498535
1788675193977577200,4.3345771484375,-97.29700469970703,10.124000549316406,0.5180000066757202
1788675193993799700,4.350799560546875,-98.06800842285156,12.48900032043457,0.9470000267028809
1788675194009926400,4.366926513671875,-98.81800842285156,12.165000915527344,0.64000004529953
1788675194026093800,4.38309375,-96.47000122070312,12.052000999450684,0.534000039100647
1788675194042353000,4.399352783203125,-98.18700408935547,13.995000839233398,1.3680000305175781
1788675194058525200,4.415525146484375,-98.82600402832031,11.619000434875488,-0.07700000703334808
1788675194074735000,4.431735107421875,-96.77800750732422,12.492000579833984,1.3530000448226929
1788675194090874000,4.4478740234375,-97.51900482177734,11.849000930786133,1.2470000982284546
1788675194106986000,4.463986083984375,-96.12400817871094,12.71500015258789,2.067000150680542
1788675194123236000,4.480236083984375,-97.88300323486328,13.87600040435791,0.5520000457763672
1788675194139321300,4.4963212890625,-97.13300323486328,12.36400032043457,-0.2760000228881836
1788675194155529700,4.51252978515625,-95.9540023803711,11.392000198364258,-0.6940000057220459
1788675194171679500,4.528679443359375,-97.53800201416016,11.405000686645508,0.12200000882148743
1788675194187779300,4.544779296875,-96.69900512695312,13.340001106262207,0.6480000019073486
1788675194203933400,4.560933349609375,-98.32000732421875,13.11500072479248,-0.3700000047683716
1788675194220062200,4.577062255859375,-97.76700592041016,12.909000396728516,0.3400000035762787
1788675194236274000,4.59327392578125,-97.76000213623047,13.346000671386719,0.9550000429153442
1788675194252427800,4.609427734375,-98.14900207519531,11.100000381469727,1.2410000562667847
1788675194268550700,4.625550537109375,-98.07300567626953,13.459000587463379,1.3630000352859497
1788675194284836600,4.641836669921875,-98.07200622558594,11.946000099182129,0.43300002813339233
1788675194300924000,4.657923828125,-99.34400177001953,12.927000999450684,1.4620000123977661
1788675194317132500,4.674132568359375,-100.21900177001953,13.456000328063965,0.8570000529289246
1788675194333240300,4.690240234375,-99.4530029296875,12.710000991821289,1.2570000886917114
1788675194349364200,4.7063642578125,-100.2070083618164,12.382000923156738,0.7450000643730164
1788675194365639700,4.7226396484375,-98.94500732421875,13.98900032043457,0.8600000143051147
1788675194381782500,4.738782470703125,-99.46300506591797,14.108000755310059,1.6770000457763672
1788675194397990400,4.754990478515625,-99.67400360107422,12.165000915527344,0.5390000343322754
1788675194414105600,4.771105712890625,-97.22200775146484,14.212000846862793,1.6750000715255737
1788675194430225400,4.787225341796875,-97.64000701904297,12.057000160217285,0.7390000224113464
1788675194446477800,4.803477783203125,-100.21600341796875,12.917000770568848,0.6480000019073486
1788675194462618600,4.81961865234375,-98.27700805664062,13.789000511169434,1.9780000448226929
1788675194478826000,4.835825927734375,-99.64700317382812,12.181000709533691,1.7620000839233398
1788675194494940400,4.8519404296875,-100.26900482177734,11.761000633239746,2.370000123977661
1788675194511061000,4.86806103515625,-99.64300537109375,12.832000732421875,2.379000186920166
1788675194527319300,4.8843193359375,-98.86700439453125,11.767000198364258,2.9790000915527344
1788675194543459300,4.900459228515625,-98.34900665283203,11.433000564575195,2.059000015258789
1788675194559663900,4.916663818359375,-98.42000579833984,11.022000312805176,3.380000114440918
1788675194575808500,4.93280859375,-99.60600280761719,11.666000366210938,3.2850000858306885
1788675194591929000,4.94892919921875,-98.09000396728516,10.920000076293945,3.7860002517700195
1788675194608177700,4.965177734375,-99.0770034790039,11.878000259399414,3.184000253677368
1788675194624253700,4.981253662109375,-96.9260025024414,11.5600004196167,3.688000202178955
1788675194640458800,4.997458740234375,-98.44600677490234,12.735000610351562,3.2930002212524414
1788675194656595000,5.013594970703125,-99.51800537109375,12.519001007080078,2.9870002269744873
1788675194672715000,5.029715087890625,-97.4570083618164,11.022000312805176,3.4800002574920654
1788675194688983300,5.0459833984375,-95.52800750732422,11.456000328063965,4.093000411987305
1788675194705107700,5.062107666015625,-97.0060043334961,10.928000450134277,4.498000144958496
1788675194721315300,5.0783154296875,-97.8600082397461,10.38900089263916,4.188000202178955
1788675194737432800,5.094432861328125,-98.48400115966797,10.184000015258789,4.799000263214111
1788675194753556200,5.11055615234375,-97.07000732421875,9.981000900268555,5.814000129699707
1788675194769825300,5.1268251953125,-98.05000305175781,9.863000869750977,4.897000312805176
1788675194785959000,5.142958984375,-97.62200164794922,9.647000312805176,4.793000221252441
1788675194802163700,5.159163818359375,-97.177001953125,9.657000541687012,5.607000350952148
1788675194818267100,5.17526708984375,-97.6050033569336,9.873000144958496,5.711000442504883
1788675194834387700,5.1913876953125,-97.57300567626953,8.380000114440918,6.208000183105469
1788675194850674700,5.2076748046875,-97.51200103759766,10.081000328063965,5.204000473022461
1788675194866843400,5.223843505859375,-99.09400177001953,8.79900074005127,5.2960004806518555
1788675194883051000,5.240051025390625,-97.93500518798828,9.43600082397461,4.99500036239624
1788675194899170300,5.25617041015625,-98.0250015258789,8.581000328063965,5.191000461578369
1788675194915322600,5.272322509765625,-97.34500122070312,7.848000526428223,6.508000373840332
1788675194931568400,5.288568359375,-97.93900299072266,7.76900053024292,8.546000480651855
1788675194947706000,5.3047060546875,-97.3810043334961,9.123000144958496,5.705000400543213
1788675194963911200,5.3209111328125,-98.16800689697266,7.760000228881836,7.833000183105469
1788675194980034800,5.337034912109375,-96.48600769042969,7.849000453948975,6.711000442504883
1788675194996158200,5.353158203125,-97.2280044555664,6.773000240325928,6.295000076293945
1788675195012412400,5.369412353515625,-99.82200622558594,8.595000267028809,6.009000301361084
1788675195028594400,5.385594482421875,-98.9330062866211,6.561000347137451,6.295000076293945
1788675195044800300,5.40180029296875,-97.97700500488281,7.0970001220703125,6.400000095367432
1788675195060940500,5.4179404296875,-97.87800598144531,7.309000492095947,6.199000358581543
1788675195077060000,5.43406005859375,-97.96200561523438,5.810000419616699,6.2870001792907715
1788675195093327000,5.4503271484375,-96.66800689697266,5.707000255584717,6.794000148773193
1788675195109417200,5.466417236328125,-98.59100341796875,4.953000068664551,6.28000020980835
1788675195125622500,5.48262255859375,-95.06100463867188,4.843000411987305,6.479000091552734
1788675195141738800,5.49873876953125,-97.92100524902344,3.0240001678466797,6.36400032043457
1788675195157858300,5.5148583984375,-97.29200744628906,3.2320001125335693,5.958000183105469
1788675195174131700,5.531131591796875,-93.67300415039062,3.328000068664551,5.547000408172607
1788675195190225000,5.547224853515625,-94.8280029296875,2.4770002365112305,5.8460001945495605
1788675195206431200,5.56343115234375,-95.90300750732422,1.502000093460083,4.922000408172607
1788675195222579200,5.5795791015625,-95.88300323486328,1.8380000591278076,6.0460004806518555
1788675195238699000,5.595698974609375,-93.98400115966797,2.686000108718872,5.5420002937316895
1788675195254977800,5.611977783203125,-95.9850082397461,0.5440000295639038,5.423000335693359
1788675195271093000,5.628093017578125,-95.50900268554688,2.236999988555908,3.9100000858306885
1788675195287296800,5.644296875,-94.71700286865234,0.31800001859664917,4.707000255584717
1788675195303400200,5.660400146484375,-97.37100219726562,-0.4240000247955322,4.9070000648498535
1788675195319503600,5.676503662109375,-96.87700653076172,0.9550000429153442,4.002000331878662
1788675195335793000,5.69279296875,-95.7750015258789,0.11000000685453415,5.01200008392334
1788675195351908000,5.708908203125,-95.53600311279297,-1.7120001316070557,4.99500036239624
1788675195368111900,5.72511181640625,-96.54700469970703,-0.11900000274181366,3.7880001068115234
1788675195384222200,5.74122216796875,-95.1500015258789,-0.7640000581741333,3.7810001373291016
1788675195400344800,5.7573447265625,-95.58700561523438,-1.3100000619888306,2.9620001316070557
1788675195416595700,5.773595703125,-95.96300506591797,-2.575000047683716,4.479000091552734
1788675195432728600,5.789728515625,-96.63800811767578,-1.7310000658035278,3.4690001010894775
1788675195448932900,5.805932861328125,-95.2550048828125,-1.196000099182129,3.573000192642212
1788675195465054500,5.822054443359375,-96.42300415039062,-1.5140000581741333,3.6740002632141113
1788675195481177900,5.838177734375,-95.05500793457031,-2.825000047683716,1.9290001392364502
1788675195497432800,5.854432861328125,-93.22100067138672,-3.0330002307891846,2.638000011444092
1788675195513530000,5.870530029296875,-94.94100189208984,-2.064000129699707,2.750000238418579
1788675195529737700,5.88673779296875,-93.46800231933594,-1.75600004196167,1.936000108718872
1788675195545863200,5.90286328125,-92.57200622558594,-3.6770002841949463,2.63100004196167
1788675195561984000,5.91898388671875,-93.86600494384766,-3.575000286102295,2.124000072479248
1788675195578243300,5.935243408203125,-94.1050033569336,-2.7250001430511475,1.5210000276565552
1788675195594372900,5.951372802734375,-94.302001953125,-3.580000162124634,1.718000054359436
1788675195610543400,5.96754345703125,-93.79200744628906,-3.4870002269744873,0.6990000605583191
1788675195626675000,5.983675048828125,-94.95600128173828,-4.884000301361084,0.281000018119812
1788675195642796500,5.999796630859375,-93.677001953125,-5.427000045776367,-0.13199999928474426
1788675195659065600,6.016065673828125,-94.65200805664062,-3.705000162124634,0.29100000858306885
1788675195675200000,6.032199951171875,-93.02100372314453,-4.879000186920166,0.89000004529953
1788675195691401000,6.04840087890625,-92.27300262451172,-5.744000434875488,0.3720000088214874
1788675195707518000,6.06451806640625,-94.65300750732422,-4.354000091552734,-0.1210000067949295
1788675195723636200,6.08063623046875,-93.17200469970703,-5.122000217437744,-1.2510000467300415
1788675195739919600,6.096919677734375,-93.06500244140625,-5.337000370025635,-1.3550000190734863
1788675195756034800,6.113034912109375,-94.0060043334961,-4.784000396728516,-0.12600000202655792
1788675195772240400,6.129240478515625,-93.7280044555664,-5.026000022888184,-2.1660001277923584
1788675195788346000,6.14534619140625,-93.9280014038086,-5.017000198364258,-1.5540000200271606
1788675195804451000,6.161451171875,-95.1830062866211,-6.944000244140625,-1.5700000524520874
1788675195820736300,6.177736328125,-94.66700744628906,-4.4710001945495605,-0.8360000252723694
1788675195836882400,6.19388232421875,-94.5840072631836,-4.593000411987305,-1.9570001363754272
1788675195853092000,6.210092041015625,-92.23200225830078,-5.892000198364258,-2.68500018119812
1788675195869215500,6.226215576171875,-93.51700592041016,-4.812000274658203,-2.1640000343322754
1788675195885374500,6.24237451171875,-94.7820053100586,-5.016000270843506,-1.5530000925064087
1788675195901629200,6.258629150390625,-95.12800598144531,-5.788000106811523,-3.190000057220459
1788675195917804800,6.2748046875,-94.94300079345703,-3.752000093460083,-3.1720001697540283
1788675195934010600,6.2910107421875,-94.80000305175781,-4.703000068664551,-2.1620001792907715
1788675195950136600,6.307136474609375,-95.33600616455078,-4.919000148773193,-2.367000102996826
1788675195966259200,6.32325927734375,-93.74900817871094,-3.9580001831054688,-2.4620001316070557
1788675195982520000,6.33952001953125,-92.32000732421875,-6.313000202178955,-2.077000141143799
1788675195998698800,6.35569873046875,-93.29400634765625,-4.698000431060791,-1.6540000438690186
1788675196014903300,6.3719033203125,-95.34600830078125,-4.169000148773193,-2.3600001335144043
1788675196031041000,6.388041015625,-93.51500701904297,-4.486000061035156,-1.8560000658035278
1788675196047148300,6.404148193359375,-94.5040054321289,-3.0970001220703125,-2.25
1788675196063425800,6.42042578125,-93.87600708007812,-3.8620002269744873,-3.2760002613067627
1788675196079539200,6.436539306640625,-93.96400451660156,-4.715000152587891,-2.9780001640319824
1788675196095747000,6.4527470703125,-93.302001953125,-4.919000148773193,-2.1660001277923584
1788675196111898400,6.4688984375,-94.0300064086914,-5.554000377655029,-1.66100013256073
1788675196128016000,6.485015869140625,-94.07500457763672,-4.39300012588501,-2.9750001430511475
1788675196144298200,6.50129833984375,-95.47400665283203,-4.938000202178955,-3.7930002212524414
1788675196160435000,6.51743505859375,-93.14500427246094,-3.008000135421753,-3.4730000495910645
1788675196176639500,6.533639404296875,-94.10600280761719,-4.952000141143799,-4.711000442504883
1788675196192742400,6.549742431640625,-93.66800689697266,-4.406000137329102,-3.892000198364258
1788675196208864500,6.565864501953125,-93.17900085449219,-4.002000331878662,-5.621000289916992
1788675196225152500,6.582152587890625,-92.94500732421875,-4.638000011444092,-5.118000030517578
1788675196241288400,6.598288330078125,-93.17200469970703,-5.510000228881836,-6.246000289916992
1788675196257524700,6.614524658203125,-92.07500457763672,-4.954000473022461,-4.611999988555908
1788675196273636400,6.63063623046875,-93.05000305175781,-5.069000244140625,-5.325000286102295
1788675196289760300,6.64676025390625,-94.89000701904297,-4.64900016784668,-6.134000301361084
1788675196306027800,6.66302783203125,-93.02800750732422,-6.353000164031982,-5.133000373840332
1788675196322148600,6.679148681640625,-93.81600189208984,-4.431000232696533,-5.7260003089904785
1788675196338355500,6.69535546875,-90.69000244140625,-6.688000202178955,-5.8520002365112305
1788675196354471000,6.711470947265625,-91.94000244140625,-4.570000171661377,-7.869000434875488
1788675196370591000,6.727591064453125,-90.83500671386719,-5.414000034332275,-6.75700044631958
1788675196386840600,6.743840576171875,-93.15900421142578,-5.611000061035156,-5.737000465393066
1788675196402960400,6.75996044921875,-91.06600189208984,-4.991000175476074,-7.262000560760498
1788675196419168800,6.776168701171875,-90.55900573730469,-3.7120001316070557,-7.659000396728516
1788675196435292700,6.792292724609375,-91.72300720214844,-4.136000156402588,-7.458000183105469
1788675196451397000,6.808397216796875,-92.35600280761719,-5.211000442504883,-7.772000312805176
1788675196467661800,6.824661865234375,-93.12300109863281,-3.9250001907348633,-7.8610005378723145
1788675196483755300,6.84075537109375,-92.1780014038086,-4.800000190734863,-9.093000411987305
1788675196499963400,6.85696337890625,-93.2300033569336,-5.2220001220703125,-8.688000679016113
1788675196516097300,6.87309716796875,-92.36800384521484,-4.353000164031982,-7.764000415802002
1788675196532220000,6.889219970703125,-92.6500015258789,-4.177999973297119,-10.717000961303711
1788675196548491800,6.90549169921875,-94.44600677490234,-3.7320001125335693,-9.59000015258789
1788675196564629500,6.92162939453125,-93.06800079345703,-2.9840002059936523,-9.585000038146973
1788675196580840000,6.93783984375,-91.7820053100586,-3.199000120162964,-9.487000465393066
1788675196596983800,6.95398388671875,-93.23200225830078,-3.6020002365112305,-7.75700044631958
1788675196613083000,6.970082763671875,-93.28700256347656,-2.7700002193450928,-9.6850004196167
1788675196629348900,6.986348876953125,-93.64800262451172,-3.2700002193450928,-7.0400004386901855
1788675196645491000,7.002490966796875,-92.15900421142578,-4.465000152587891,-8.071000099182129
1788675196661701400,7.018701416015625,-90.67100524902344,-5.12000036239624,-8.792000770568848
1788675196677855000,7.03485498046875,-92.87300109863281,-2.6710002422332764,-10.194000244140625
1788675196693978600,7.050978515625,-91.9800033569336,-3.621000289916992,-9.083000183105469
1788675196710264300,7.067264404296875,-91.35200500488281,-3.0890002250671387,-9.282999992370605
1788675196726401300,7.0834013671875,-90.2750015258789,-2.870000123977661,-8.773000717163086
1788675196742609400,7.099609375,-90.7020034790039,-3.4090001583099365,-9.082000732421875
1788675196758719200,7.11571923828125,-92.76900482177734,-4.402000427246094,-11.432000160217285
1788675196774869500,7.131869384765625,-90.05500793457031,-3.8390002250671387,-9.087000846862793
1788675196791166200,7.148166259765625,-93.06700134277344,-3.0910000801086426,-9.586000442504883
1788675196807290400,7.164290283203125,-91.14800262451172,-3.204000234603882,-9.793000221252441
1788675196823495700,7.18049560546875,-94.21000671386719,-4.367000102996826,-8.985000610351562
1788675196839626800,7.196626708984375,-91.67900085449219,-3.741000175476074,-10.00100040435791
1788675196855786000,7.212785888671875,-93.70700073242188,-3.630000114440918,-9.895000457763672
1788675196872080400,7.229080322265625,-91.17300415039062,-2.8940000534057617,-10.707000732421875
1788675196888236300,7.245236328125,-93.531005859375,-2.8960001468658447,-11.112000465393066
1788675196904439600,7.261439453125,-91.24700164794922,-5.0360002517700195,-10.624000549316406
1788675196920573700,7.27757373046875,-92.84500122070312,-3.194000244140625,-9.282000541687012
1788675196936736500,7.293736572265625,-90.19600677490234,-2.3460001945495605,-9.6850004196167
1788675196953000200,7.310000244140625,-92.63500213623047,-3.4130001068115234,-9.589000701904297
1788675196969137200,7.32613720703125,-90.5060043334961,-3.636000156402588,-10.00100040435791
1788675196985343000,7.342343017578125,-88.70000457763672,-4.077000141143799,-10.721000671386719
1788675197001483300,7.358483154296875,-89.24300384521484,-3.758000135421753,-10.921000480651855
1788675197017603600,7.374603515625,-90.20600128173828,-2.4600000381469727,-10.195000648498535
1788675197033872000,7.390871826171875,-90.6240005493164,-2.3460001945495605,-9.684000015258789
1788675197050004500,7.40700439453125,-90.09300231933594,-4.7260003089904785,-11.336000442504883
1788675197066206700,7.423206787109375,-91.56900787353516,-4.28000020980835,-10.210000038146973
1788675197082355700,7.439355712890625,-90.2020034790039,-3.1060001850128174,-10.405000686645508
1788675197098473200,7.45547314453125,-89.55500793457031,-3.2120001316070557,-10.20300006866455
1788675197114750700,7.471750732421875,-92.21400451660156,-3.633000135421753,-9.999000549316406
1788675197130881500,7.487881591796875,-89.0510025024414,-2.690000057220459,-11.217000961303711
1788675197147086800,7.5040869140625,-91.4070053100586,-2.69100022315979,-11.520000457763672
1788675197163193300,7.520193359375,-91.12800598144531,-3.8400001525878906,-9.289000511169434
1788675197179313700,7.536313720703125,-90.27900695800781,-3.7370002269744873,-9.493000030517578
1788675197195607300,7.552607177734375,-92.10200500488281,-3.198000192642212,-9.486000061035156
1788675197211740000,7.568739990234375,-90.19000244140625,-2.451000213623047,-9.482000350952148
1788675197227943700,7.584943603515625,-91.60200500488281,-2.247000217437744,-10.395000457763672
1788675197244052500,7.601052490234375,-90.72100067138672,-2.0160000324249268,-9.070000648498535
1788675197260173800,7.617173828125,-92.23900604248047,-2.4600000381469727,-10.396000862121582
1788675197276467700,7.6334677734375,-91.76300811767578,-3.4030001163482666,-8.77500057220459
1788675197292601900,7.649601806640625,-90.71600341796875,-2.877000093460083,-9.383000373840332
1788675197308804400,7.665804443359375,-93.0840072631836,-2.3450000286102295,-9.885000228881836
1788675197324921900,7.681921875,-89.86100769042969,-2.446000099182129,-9.075000762939453
1788675197341040400,7.698040283203125,-91.14700317382812,-2.7710001468658447,-9.484000205993652
1788675197357285000,7.71428515625,-92.23900604248047,-0.5139999985694885,-9.157000541687012
1788675197373376300,7.730376220703125,-92.66400146484375,-3.1060001850128174,-10.707000732421875
1788675197389582800,7.746582763671875,-90.75000762939453,-2.8980002403259277,-10.91100025177002
1788675197405712400,7.76271240234375,-92.09500122070312,-2.870000123977661,-8.973999977111816
1788675197421859300,7.778859375,-91.36600494384766,-2.882000207901001,-9.790000915527344
1788675197438123300,7.795123291015625,-92.25800323486328,-1.6070001125335693,-10.694000244140625
1788675197454201000,7.811201171875,-89.98800659179688,-3.755000114440918,-10.818000793457031
1788675197470403000,7.827403076171875,-89.66000366210938,-2.886000156402588,-9.894000053405762
1788675197486536200,7.8435361328125,-90.9530029296875,-2.999000072479248,-10.505000114440918
1788675197502653700,7.85965380859375,-90.73800659179688,-2.4580001831054688,-10.093000411987305
1788675197518900500,7.875900390625,-90.73400115966797,-3.8610002994537354,-10.818000793457031
1788675197535018500,7.8920185546875,-90.96900177001953,-2.4690001010894775,-10.907000541687012
1788675197551224800,7.908224853515625,-91.29600524902344,-1.1750000715255737,-10.386000633239746
1788675197567369700,7.92436962890625,-90.10700225830078,-3.2220001220703125,-11.017000198364258
1788675197583473200,7.94047314453125,-90.76400756835938,-2.9060001373291016,-11.523000717163086
1788675197599744300,7.956744140625,-89.7040023803711,-2.1560001373291016,-11.416000366210938
1788675197615870700,7.97287060546875,-89.36100769042969,-1.4940000772476196,-9.984000205993652
1788675197632076300,7.989076171875,-89.1780014038086,-1.40500009059906,-11.308000564575195
1788675197648186600,8.0051865234375,-90.6780014038086,-1.5140000581741333,-11.612000465393066
1788675197664306200,8.02130615234375,-89.66800689697266,-3.431000232696533,-10.612000465393066
1788675197680593400,8.037593505859375,-89.5060043334961,-3.139000177383423,-12.749000549316406
1788675197696732400,8.053732421875,-88.85100555419922,-2.375,-11.622000694274902
1788675197712941000,8.069941162109375,-90.57500457763672,-3.246000051498413,-12.850000381469727
1788675197729052200,8.08605224609375,-90.70600128173828,-2.17900013923645,-13.248001098632812
1788675197745199600,8.10219970703125,-90.16700744628906,-2.826000213623047,-13.458000183105469
1788675197761489200,8.1184892578125,-89.0060043334961,-1.215000033378601,-13.03800106048584
1788675197777653000,8.134653076171874,-90.58100128173828,-2.493000030517578,-12.640000343322754
1788675197793856300,8.150856201171875,-90.05000305175781,-2.2790000438690186,-12.63900089263916
1788675197809977300,8.166977294921875,-90.1500015258789,-3.8960001468658447,-13.366000175476074
1788675197826136300,8.18313623046875,-89.54500579833984,-2.8380000591278076,-14.274001121520996
1788675197842385000,8.199385009765624,-89.66600799560547,-1.7660000324249268,-14.26400089263916
1788675197858507500,8.215507568359374,-89.34300231933594,-2.305000066757202,-14.473000526428223
1788675197874708200,8.231708251953124,-89.54800415039062,-2.4080002307891846,-14.168000221252441
1788675197890838500,8.247838623046874,-90.031005859375,-3.3480000495910645,-12.444000244140625
1788675197906957800,8.263957763671876,-89.74600219726562,-3.5860002040863037,-14.179000854492188
1788675197923224000,8.28022412109375,-88.14100646972656,-2.2910001277923584,-13.25200080871582
1788675197939364400,8.2963642578125,-89.09200286865234,-4.01200008392334,-13.878000259399414
1788675197955564800,8.312564697265625,-88.02900695800781,-2.828000068664551,-13.359000205993652
1788675197971700700,8.32870068359375,-89.51200103759766,-2.6020002365112305,-12.642000198364258
1788675197987816400,8.34481640625,-89.01200103759766,-3.056000232696533,-14.480000495910645
1788675198004086800,8.361086669921875,-86.61400604248047,-3.7860002517700195,-12.758000373840332
1788675198020215300,8.37721533203125,-87.8290023803711,-2.8360002040863037,-13.971000671386719
1788675198036415700,8.393415771484374,-90.0570068359375,-4.553000450134277,-14.390000343322754
1788675198052558600,8.40955859375,-88.45700073242188,-2.827000141143799,-13.359000205993652
1788675198068678000,8.425677978515624,-89.86400604248047,-3.5930001735687256,-14.688000679016113
1788675198084951800,8.441951904296875,-88.24700164794922,-3.370000123977661,-13.873001098632812
1788675198101069000,8.458069091796874,-89.18600463867188,-4.761000156402588,-13.782000541687012
1788675198117271300,8.474271240234375,-86.7560043334961,-3.267000198364258,-13.976000785827637
1788675198133372400,8.490372314453126,-89.76500701904297,-1.8690000772476196,-13.960000991821289
1788675198149492500,8.506492431640625,-87.60800170898438,-2.4000000953674316,-13.356000900268555
1788675198165782500,8.522782470703126,-90.9990005493164,-3.4590001106262207,-12.85200023651123
1788675198181908500,8.538908447265625,-88.44500732421875,-3.3600001335144043,-13.160000801086426
1788675198198112800,8.55511279296875,-90.23700714111328,-4.317000389099121,-12.758000373840332
1788675198214225200,8.57122509765625,-87.97300720214844,-4.306000232696533,-11.742000579833984
1788675198230347300,8.58734716796875,-86.7090072631836,-3.6710002422332764,-12.146000862121582
1788675198246642200,8.60364208984375,-87.2490005493164,-4.430000305175781,-12.86500072479248
1788675198262772200,8.619772216796875,-88.75700378417969,-2.814000129699707,-12.441000938415527
1788675198278972700,8.63597265625,-88.17200469970703,-2.892000198364258,-10.202000617980957
1788675198295090000,8.65208984375,-88.32400512695312,-3.244000196456909,-12.446001052856445
1788675198311210000,8.6682099609375,-89.13200378417969,-4.728000164031982,-11.337000846862793
1788675198327464000,8.6844638671875,-89.61500549316406,-2.492000102996826,-12.437000274658203
1788675198343597600,8.70059765625,-88.44200134277344,-3.250000238418579,-12.955000877380371
1788675198359800600,8.716800537109375,-88.2080078125,-2.9140000343322754,-11.832000732421875
1788675198375929600,8.7329296875,-90.34900665283203,-3.13100004196167,-12.238000869750977
1788675198392049400,8.74904931640625,-86.38800048828125,-3.88700008392334,-12.250000953674316
1788675198408308700,8.765308837890625,-89.17200469970703,-4.320000171661377,-12.861001014709473
1788675198424442000,8.781442138671874,-90.6820068359375,-4.867000102996826,-13.883000373840332
1788675198440647000,8.79764697265625,-90.03700256347656,-3.568000078201294,-12.85400104522705
1788675198456784600,8.81378466796875,-88.29100799560547,-3.116000175476074,-10.917000770568848
1788675198472906800,8.82990673828125,-88.43900299072266,-3.249000072479248,-12.85300064086914
1788675198489179400,8.846179443359375,-90.3790054321289,-3.4730000495910645,-13.769001007080078
1788675198505311500,8.8623115234375,-90.76800537109375,-3.2330000400543213,-11.933000564575195
1788675198521546500,8.87854638671875,-89.1570053100586,-3.7700002193450928,-11.838000297546387
1788675198537693700,8.894693603515625,-88.84700775146484,-3.6690001487731934,-12.245000839233398
1788675198553817600,8.910817626953126,-87.5770034790039,-4.326000213623047,-13.169000625610352
1788675198570099700,8.927099609375,-89.71800231933594,-2.9210002422332764,-12.543000221252441
1788675198586233900,8.94323388671875,-88.85100555419922,-3.3470001220703125,-12.242000579833984
1788675198602434600,8.9594345703125,-89.2820053100586,-3.457000255584717,-12.446001052856445
1788675198618581200,8.975581298828125,-90.99700164794922,-3.7820000648498535,-12.956000328063965
1788675198634700300,8.9917001953125,-89.06900787353516,-3.890000104904175,-12.756000518798828
1788675198650986500,9.007986572265626,-90.13600158691406,-2.807000160217285,-12.032000541687012
1788675198667105500,9.02410546875,-90.48400115966797,-2.2829999923706055,-12.944000244140625
1788675198683307500,9.0403076171875,-89.1240005493164,-1.5460001230239868,-13.754000663757324
1788675198699419000,9.0564189453125,-89.51000213623047,-3.682000160217285,-13.26300048828125
1788675198715571200,9.0725712890625,-90.36600494384766,-4.2220001220703125,-13.67400074005127
1788675198731821000,9.088821044921875,-88.98100280761719,-3.0370001792907715,-13.054000854492188
1788675198747993900,9.104993896484375,-88.83700561523438,-4.419000148773193,-12.25200080871582
1788675198764201700,9.12120166015625,-88.6820068359375,-3.1580002307891846,-14.074000358581543
1788675198780285700,9.13728564453125,-88.47600555419922,-3.055000066757202,-14.379000663757324
1788675198796447700,9.15344775390625,-87.50100708007812,-2.940000057220459,-13.666000366210938
1788675198812699000,9.169698974609375,-87.21500396728516,-2.0970001220703125,-14.678000450134277
1788675198828826600,9.18582666015625,-87.91200256347656,-3.578000068664551,-13.366000175476074
1788675198845029600,9.202029541015625,-87.62600708007812,-2.4110000133514404,-14.171000480651855
1788675198861155300,9.2181552734375,-88.3810043334961,-2.5220000743865967,-14.578001022338867
1788675198877318100,9.234318115234375,-87.82000732421875,-2.8310000896453857,-13.563000679016113
1788675198893575200,9.2505751953125,-88.77300262451172,-2.933000087738037,-13.257000923156738
1788675198909710600,9.266710693359375,-88.91100311279297,-3.81600022315979,-15.200000762939453
1788675198925917700,9.282917724609375,-88.8810043334961,-2.392000198364258,-12.947000503540039
1788675198942061000,9.29906103515625,-89.5060043334961,-3.0300002098083496,-12.646000862121582
1788675198958182000,9.315181884765625,-86.84200286865234,-3.579000234603882,-13.265000343322754
1788675198974465500,9.331465576171874,-88.21700286865234,-2.9200000762939453,-12.23900032043457
1788675198990600200,9.34760009765625,-89.50200653076172,-2.812000036239624,-12.338000297546387
1788675199006808600,9.36380859375,-88.96400451660156,-3.7830002307891846,-12.755001068115234
1788675199022915000,9.3799150390625,-88.84600067138672,-3.7760002613067627,-12.246000289916992
1788675199039037700,9.39603759765625,-88.11000061035156,-4.2170000076293945,-13.066000938415527
1788675199055314400,9.412314453125,-86.41100311279297,-3.9010002613067627,-13.269001007080078
1788675199071443200,9.428443115234375,-87.71100616455078,-2.3970000743865967,-13.152000427246094
1788675199087644400,9.44464453125,-86.81500244140625,-4.1020002365112305,-12.35300064086914
1788675199103779800,9.46077978515625,-85.74300384521484,-3.885000228881836,-12.047000885009766
1788675199119900400,9.476900390625,-87.81600189208984,-3.8010001182556152,-13.97900104522705
1788675199136186600,9.4931865234375,-88.1830062866211,-3.872000217437744,-11.331000328063965
1788675199152319000,9.509319091796876,-87.48700714111328,-2.2829999923706055,-12.642000198364258
1788675199168523000,9.52552294921875,-86.62600708007812,-4.118000030517578,-13.474000930786133
1788675199184632600,9.541632568359375,-84.36400604248047,-2.5960001945495605,-11.630000114440918
1788675199200756000,9.557755859375,-85.5320053100586,-2.699000120162964,-11.426000595092773
1788675199216991700,9.57399169921875,-87.77300262451172,-2.802000045776367,-11.42400074005127
1788675199233114600,9.590114501953124,-85.83800506591797,-3.446000099182129,-11.22800064086914
1788675199249323800,9.60632373046875,-86.47200775146484,-2.9010000228881836,-10.611000061035156
1788675199265439700,9.622439697265625,-85.93800354003906,-3.766000270843506,-11.129000663757324
1788675199281545200,9.638545166015625,-86.46300506591797,-6.029000282287598,-12.167000770568848
1788675199297799400,9.65479931640625,-86.47400665283203,-3.442000150680542,-11.02400016784668
1788675199313894000,9.670893798828125,-86.57200622558594,-3.436000108718872,-10.616000175476074
1788675199330100000,9.687099853515624,-85.34600067138672,-3.8390002250671387,-8.584000587463379
1788675199346223600,9.7032236328125,-85.36800384521484,-4.069000244140625,-9.706000328063965
1788675199362336300,9.719336181640625,-85.69800567626953,-3.2100000381469727,-9.596000671386719
1788675199378597000,9.73559716796875,-86.1240005493164,-3.4250001907348633,-9.700000762939453
1788675199394733600,9.751733642578126,-87.17200469970703,-4.059000015258789,-9.195000648498535
1788675199410940000,9.76793994140625,-85.02400207519531,-2.6500000953674316,-7.759000301361084
1788675199427074300,9.78407421875,-87.99500274658203,-2.8500001430511475,-7.044000148773193
1788675199443195100,9.800195068359375,-85.77200317382812,-4.269999980926514,-8.791000366210938
1788675199459465700,9.8164658203125,-85.33700561523438,-4.1579999923706055,-8.383000373840332
1788675199475604000,9.83260400390625,-87.2550048828125,-3.6120002269744873,-7.866000175476074
1788675199491812000,9.84881201171875,-85.55400085449219,-2.755000114440918,-7.657000541687012
1788675199507906300,9.86490625,-85.3280029296875,-3.2890002727508545,-7.458000183105469
1788675199524024000,9.881024169921876,-85.22200775146484,-3.6130001544952393,-7.6650004386901855
1788675199540300800,9.89730078125,-84.47500610351562,-3.7230002880096436,-7.76900053024292
1788675199556437500,9.9134375,-85.3340072631836,-3.184000253677368,-7.6610002517700195
1788675199572644600,9.92964453125,-84.56100463867188,-3.9260001182556152,-6.956000328063965
1788675199588745500,9.945745361328125,-85.24100494384766,-3.517000198364258,-8.479000091552734
1788675199604865000,9.961864990234375,-86.60400390625,-2.742000102996826,-6.841000556945801
1788675199621151200,9.978151123046874,-84.66300201416016,-3.2740001678466797,-6.338000297546387
1788675199637284900,9.994284912109375,-85.31100463867188,-3.386000156402588,-6.746000289916992
1788675199653519000,10.01051904296875,-85.32500457763672,-3.3940000534057617,-7.357000350952148
1788675199669653000,10.026653076171876,-86.7080078125,-3.6050002574920654,-7.256000518798828
1788675199685821000,10.042821044921874,-83.86100769042969,-3.0920002460479736,-8.579000473022461
1788675199702071000,10.059071044921875,-86.39700317382812,-3.7200002670288086,-7.766000270843506
1788675199718228000,10.07522802734375,-86.31700134277344,-3.0880000591278076,-8.576000213623047
1788675199734434000,10.09143408203125,-86.2040023803711,-2.43500018119812,-7.857000350952148
1788675199750565400,10.1075654296875,-86.72900390625,-2.8620002269744873,-7.758000373840332
1788675199766729700,10.123729736328125,-85.3550033569336,-2.3320000171661377,-8.06100082397461
1788675199782989300,10.1399892578125,-85.68500518798828,-2.6610000133514404,-8.675000190734863
1788675199799124500,10.15612451171875,-85.93000030517578,-2.0320000648498535,-9.688000679016113
1788675199815329800,10.172329833984374,-84.3070068359375,-1.9130001068115234,-8.670000076293945
1788675199831462700,10.188462646484375,-85.36800384521484,-2.556000232696533,-8.776000022888184
1788675199847586300,10.20458642578125,-86.281005859375,-4.039000034332275,-7.566000461578369
1788675199863824600,10.22082470703125,-85.2280044555664,-3.2930002212524414,-7.764000415802002
1788675199879960800,10.2369609375,-83.36700439453125,-2.0360000133514404,-9.690999984741211
1788675199896171000,10.2531708984375,-83.54500579833984,-2.3380000591278076,-8.267000198364258
1788675199912313300,10.269313232421876,-84.38800048828125,-3.302000045776367,-8.37600040435791
1788675199928435700,10.285435791015624,-84.28900146484375,-1.2540000677108765,-7.442000389099121
1788675199944664300,10.301664306640625,-84.72300720214844,-1.5820000171661377,-7.953000545501709
1788675199960800800,10.31780078125,-84.82200622558594,-2.6570000648498535,-8.268000602722168
1788675199977007600,10.334007568359375,-85.1570053100586,-1.909000039100647,-8.46500015258789
1788675199993160000,10.350159912109374,-86.14400482177734,-1.1670000553131104,-9.170000076293945
1788675200009278500,10.366278564453125,-84.91000366210938,-3.186000108718872,-7.764000415802002
1788675200025561600,10.3825615234375,-85.44900512695312,-1.1350001096725464,-6.7260003089904785
1788675200041694500,10.398694580078125,-86.97300720214844,-1.1510000228881836,-8.04900074005127
1788675200057899500,10.4148994140625,-84.29900360107422,-1.4760000705718994,-8.055000305175781
1788675200074001000,10.4310009765625,-84.94800567626953,-1.912000060081482,-8.669000625610352
1788675200090121500,10.44712158203125,-84.73600769042969,-0.9410000443458557,-8.151000022888184
1788675200106407400,10.463407470703125,-83.57500457763672,-0.6270000338554382,-8.558000564575195
1788675200122517000,10.47951708984375,-84.31500244140625,-1.4860000610351562,-8.768000602722168
1788675200138722800,10.495722900390625,-85.68900299072266,-1.3670001029968262,-8.052000045776367
1788675200154836500,10.51183642578125,-83.23600769042969,-0.8320000171661377,-7.847000598907471
1788675200170958600,10.52795849609375,-83.6510009765625,-2.013000011444092,-8.0600004196167
1788675200187253000,10.5442529296875,-84.41200256347656,-1.3720000982284546,-8.256999969482422
1788675200203342000,10.560342041015625,-84.39600372314453,-1.3620001077651978,-7.544000148773193
1788675200219543300,10.576543212890625,-83.7750015258789,-2.13100004196167,-8.87600040435791
1788675200235658200,10.592658203125,-84.30400085449219,-1.4790000915527344,-8.259000778198242
1788675200251809500,10.6088095703125,-81.53900146484375,-0.8420000672340393,-8.358000755310059
1788675200268060400,10.625060302734376,-84.18400573730469,-1.255000114440918,-7.544000148773193
1788675200284178200,10.64117822265625,-83.09300231933594,-2.432000160217285,-7.250000476837158
1788675200300381700,10.657381591796875,-85.04400634765625,-1.0410000085830688,-7.64300012588501
1788675200316505000,10.673505126953126,-85.81700134277344,0.34800001978874207,-7.935000419616699
1788675200332628700,10.689628662109374,-84.9050064086914,-0.37400001287460327,-5.803000450134277
1788675200348893400,10.7058935546875,-83.96400451660156,-0.9270000457763672,-7.032000541687012
1788675200365028400,10.7220283203125,-83.99500274658203,-0.18900001049041748,-7.942000389099121
1788675200381237200,10.7382373046875,-83.45000457763672,-1.5890001058578491,-8.362000465393066
1788675200397378000,10.7543779296875,-84.64200592041016,0.7790000438690186,-7.627000331878662
1788675200413482000,10.77048193359375,-85.24700164794922,-0.6020000576972961,-6.925000190734863
1788675200429732600,10.786732666015626,-83.96300506591797,0.47700002789497375,-6.103000164031982
1788675200445848000,10.80284814453125,-82.35700225830078,-0.17000000178813934,-6.314000129699707
1788675200462053400,10.819053466796875,-82.58200073242188,-0.1770000010728836,-6.823000431060791
1788675200478193400,10.835193359375,-82.21900177001953,-0.800000011920929,-5.301000118255615
1788675200494307600,10.8513076171875,-82.13600158691406,0.26500001549720764,-5.699000358581543
1788675200510585900,10.8675859375,-83.08900451660156,0.055000003427267075,-5.496000289916992
1788675200526721500,10.883721435546875,-81.61800384521484,-1.3650000095367432,-7.446000576019287
1788675200542929400,10.899929443359374,-83.44200134277344,0.7920000553131104,-6.508000373840332
1788675200559075300,10.916075439453126,-82.90900421142578,-0.5040000081062317,-7.335000514984131
1788675200575195600,10.932195556640625,-80.87100219726562,1.1180000305175781,-5.897000312805176
1788675200591483600,10.948483642578125,-84.29000091552734,1.1220000982284546,-5.99500036239624
1788675200607644000,10.964643798828124,-83.42100524902344,0.5890000462532043,-5.695000171661377
1788675200623848200,10.98084814453125,-82.1510009765625,0.9040000438690186,-5.999000072479248
1788675200639968000,10.996968017578125,-83.2020034790039,1.1330000162124634,-5.079000473022461
1788675200656090600,11.013090576171875,-80.53600311279297,0.5860000252723694,-5.5970001220703125
1788675200672383700,11.0293837890625,-82.36300659179688,1.446000099182129,-5.587000370025635
1788675200688557000,11.04555712890625,-84.72500610351562,0.25300002098083496,-6.918000221252441
1788675200704762400,11.061762451171875,-82.06100463867188,1.4350000619888306,-6.402000427246094
1788675200720884000,11.077884033203125,-80.72000122070312,-0.2590000033378601,-4.789000034332275
1788675200737037800,11.094037841796874,-82.92200469970703,2.620000123977661,-5.9830002784729
1788675200753291000,11.110291015625,-81.7020034790039,0.8090000152587891,-5.084000110626221
1788675200769465000,11.126465087890624,-84.3080062866211,1.9750001430511475,-6.293000221252441
1788675200785702000,11.142701904296874,-83.5250015258789,1.0230000019073486,-5.283000469207764
1788675200801836000,11.1588359375,-81.70000457763672,0.8100000619888306,-4.982000350952148
1788675200818007600,11.175007568359375,-82.36400604248047,0.6890000104904175,-6.103000164031982
1788675200834277600,11.191277587890625,-83.22500610351562,0.6860000491142273,-6.407000541687012
1788675200850411800,11.207411865234375,-81.73800659179688,1.436000108718872,-6.301000118255615
1788675200866616300,11.2236162109375,-83.03300476074219,2.4020001888275146,-6.2900004386901855
1788675200882763500,11.239763427734376,-81.45100402832031,1.8470001220703125,-7.520000457763672
1788675200898888000,11.255887939453125,-82.3080062866211,1.5230001211166382,-7.827000141143799
1788675200915151600,11.272151611328125,-83.12800598144531,1.221000075340271,-6.504000186920166
1788675200931267800,11.288267822265626,-83.25900268554688,2.6110000610351562,-6.696000099182129
1788675200947476200,11.304476318359375,-82.21700286865234,2.0530002117156982,-8.230000495910645
1788675200963580200,11.320580078125,-82.40800476074219,1.2030000686645508,-7.728000164031982
1788675200979685400,11.336685302734375,-82.54000091552734,1.4040000438690186,-8.745000839233398
1788675200995963000,11.352962890625,-83.38600158691406,2.491000175476074,-7.715000152587891
1788675201012091600,11.369091552734375,-82.5270004272461,1.9520001411437988,-7.823000431060791
1788675201028225800,11.385225830078125,-81.77300262451172,1.9550000429153442,-7.51800012588501
1788675201044330200,11.401330322265625,-82.61900329589844,1.5290000438690186,-7.419000148773193
1788675201060450300,11.4174501953125,-83.9020004272461,1.3140000104904175,-7.623000144958496
1788675201076745200,11.4337451171875,-84.34400177001953,2.9260001182556152,-7.303000450134277
1788675201092879600,11.449879638671876,-82.66600036621094,2.1490001678466797,-9.145000457763672
1788675201109085200,11.466085205078125,-82.56400299072266,2.7940001487731934,-8.93600082397461
1788675201125207000,11.48220703125,-82.33500671386719,2.695000171661377,-8.326000213623047
1788675201141329200,11.4983291015625,-82.08300018310547,1.7450001239776611,-7.214000225067139
1788675201157627000,11.514626953125,-83.5260009765625,2.9030001163482666,-8.934000015258789
1788675201173723100,11.53072314453125,-83.0770034790039,3.132000207901001,-7.812000274658203
1788675201189924600,11.546924560546875,-83.21900177001953,2.67900013923645,-9.64900016784668
1788675201206043000,11.56304296875,-83.75100708007812,2.248000144958496,-9.856000900268555
1788675201222168600,11.57916845703125,-81.81600189208984,3.117000102996826,-8.730000495910645
1788675201238419200,11.595419189453125,-83.42300415039062,2.7930002212524414,-9.13900089263916
1788675201254558500,11.611558349609375,-81.91800689697266,3.445000171661377,-8.320000648498535
1788675201270769200,11.62776904296875,-83.3270034790039,2.13700008392334,-10.06100082397461
1788675201286894600,11.64389453125,-81.82000732421875,3.2230000495910645,-8.831000328063965
1788675201303018500,11.6600185546875,-82.9070053100586,3.6450002193450928,-9.437000274658203
1788675201319284500,11.676284423828125,-83.86800384521484,3.1070001125335693,-9.747000694274902
1788675201335419400,11.69241943359375,-81.427001953125,3.5260002613067627,-10.153000831604004
1788675201351624700,11.708624755859375,-83.11200714111328,2.6780002117156982,-9.65000057220459
1788675201367755000,11.724755126953125,-82.17200469970703,3.5290002822875977,-10.051000595092773
1788675201383875800,11.740875732421875,-82.96100616455078,3.4610002040863037,-7.198000431060791
1788675201400138200,11.75713818359375,-82.7820053100586,2.1430001258850098,-9.553000450134277
1788675201416258000,11.773258056640625,-81.62600708007812,2.995000123977661,-9.85200023651123
1788675201432461000,11.7894609375,-80.15800476074219,4.273000240325928,-10.250000953674316
1788675201448578600,11.80557861328125,-81.92400360107422,3.9820001125335693,-8.213000297546387
1788675201464625000,11.821625,-82.15400695800781,4.188000202178955,-8.822000503540039
1788675201480857900,11.83785791015625,-83.40400695800781,3.452000141143799,-7.9110002517700195
1788675201496975400,11.853975341796875,-84.58200073242188,2.372000217437744,-8.734000205993652
1788675201513183000,11.870182861328125,-83.1050033569336,4.304000377655029,-8.31100082397461
1788675201529288700,11.886288818359375,-83.63700103759766,4.8460001945495605,-7.898000240325928
1788675201545417500,11.90241748046875,-84.03800201416016,2.809000015258789,-8.017000198364258
1788675201561697800,11.91869775390625,-82.64900207519531,3.888000249862671,-7.2960004806518555
1788675201577847800,11.934847900390626,-84.02100372314453,4.223999977111816,-6.375000476837158
1788675201594055400,11.951055419921875,-84.1240005493164,2.2820000648498535,-7.4110002517700195
1788675201610181600,11.967181640625,-82.8800048828125,3.013000249862671,-8.628000259399414
1788675201626303500,11.983303466796874,-85.18900299072266,4.014000415802002,-6.172000408172607
1788675201642590200,11.999590087890626,-84.55500030517578,2.7120001316070557,-7.304000377655029
1788675201658763000,12.015762939453126,-85.71900177001953,3.9100000858306885,-6.070000171661377
1788675201674970600,12.031970703125,-84.33500671386719,2.7160000801086426,-6.999000549316406
1788675201691100000,12.048099853515625,-82.6310043334961,2.062000036239624,-7.618000507354736
1788675201707267300,12.064267333984375,-84.02400207519531,2.6020002365112305,-7.510000228881836
1788675201723532300,12.0805322265625,-83.37200164794922,2.6070001125335693,-7.00100040435791
1788675201739711000,12.0967109375,-83.9000015258789,3.4770002365112305,-6.178000450134277
1788675201755918000,12.11291796875,-83.0320053100586,2.186000108718872,-6.39400053024292
1788675201772058400,12.129058349609375,-84.97000122070312,4.125,-5.865000247955322
1788675201788229000,12.14522900390625,-83.5780029296875,3.369000196456909,-6.179000377655029
1788675201804500200,12.161500244140624,-84.0580062866211,4.527000427246094,-7.798000335693359
1788675201820638700,12.177638671875,-84.54100036621094,3.0450000762939453,-6.487000465393066
1788675201836847900,12.193847900390624,-83.49200439453125,3.3560001850128174,-7.0960001945495605
1788675201852974300,12.209974365234375,-83.57600402832031,3.695000171661377,-5.871000289916992
1788675201869096200,12.22609619140625,-85.83100128173828,4.123000144958496,-6.170000076293945
1788675201885372000,12.242371826171874,-85.05900573730469,3.4880001544952393,-5.463000297546387
1788675201901508900,12.2585087890625,-83.6830062866211,3.26200008392334,-6.180000305175781
1788675201917717500,12.274717529296876,-84.53500366210938,3.9130001068115234,-5.664000034332275
1788675201933822500,12.290822509765626,-85.1830062866211,1.6400001049041748,-7.4150004386901855
1788675201949944000,12.306944091796876,-85.1830062866211,2.937000036239624,-6.589000225067139
1788675201966232300,12.323232421875,-84.31500244140625,2.2960000038146973,-6.392000198364258
1788675201982368000,12.339367919921875,-82.79500579833984,2.633000135421753,-5.066000461578369
1788675201998574600,12.35557470703125,-86.48700714111328,3.574000120162964,-7.193000316619873
1788675202014685200,12.371685302734376,-82.83300018310547,3.69100022315979,-6.076000213623047
1788675202030775800,12.38777587890625,-85.10100555419922,4.435000419616699,-6.779000282287598
1788675202047057400,12.404057373046875,-84.51100158691406,1.874000072479248,-5.886000156402588
1788675202063178800,12.4201787109375,-85.21800231933594,3.3480000495910645,-7.909000396728516
1788675202079385600,12.436385498046874,-84.31700134277344,2.4030001163482666,-6.391000270843506
1788675202095503400,12.45250341796875,-84.53900146484375,2.3980000019073486,-6.798000335693359
1788675202111617000,12.468616943359375,-86.22600555419922,1.9810000658035278,-6.086000442504883
1788675202127913700,12.484913818359376,-86.76500701904297,2.195000171661377,-6.186000347137451
1788675202144013000,12.501012939453124,-84.74300384521484,2.8360002040863037,-6.081000328063965
1788675202160221200,12.51722119140625,-85.63400268554688,4.653000354766846,-6.573000431060791
1788675202176347400,12.533347412109375,-86.69200134277344,3.4710001945495605,-6.88800048828125
1788675202192458200,12.549458251953125,-83.88400268554688,2.513000011444092,-6.085000514984131
1788675202208720600,12.565720703125,-85.59000396728516,2.950000047683716,-5.6710004806518555
1788675202224857000,12.581857177734374,-84.08500671386719,2.4130001068115234,-5.576000213623047
1788675202241062400,12.5980625,-84.75900268554688,3.367000102996826,-6.4830002784729
1788675202257197600,12.614197509765624,-87.1820068359375,2.634000062942505,-5.468000411987305
1788675202273320700,12.63032080078125,-85.156005859375,1.6570000648498535,-6.192000389099121
1788675202289588500,12.64658837890625,-87.32400512695312,3.1540000438690186,-6.686000347137451
1788675202305723100,12.66272314453125,-84.76400756835938,3.364000082015991,-6.687000274658203
1788675202321929200,12.67892919921875,-85.77300262451172,1.564000129699707,-5.174000263214111
1788675202338069500,12.695069580078124,-85.01700592041016,0.8110000491142273,-5.283000469207764
1788675202354194000,12.71119384765625,-86.2280044555664,2.30400013923645,-5.982000350952148
1788675202370469000,12.72746923828125,-85.3810043334961,2.2990000247955322,-6.288000106811523
1788675202386607600,12.743607666015626,-86.23500061035156,2.3000001907348633,-6.2870001792907715
1788675202402814500,12.759814453125,-85.20500183105469,1.7350001335144043,-8.331000328063965
1788675202418916600,12.77591650390625,-84.31200408935547,1.433000087738037,-6.807000160217285
1788675202435037200,12.792037109375,-85.28400421142578,1.2120000123977661,-7.419000148773193
1788675202451321600,12.808321533203125,-85.5790023803711,1.8760000467300415,-5.884000301361084
1788675202467453400,12.824453369140626,-86.19100189208984,1.5700000524520874,-4.766000270843506
1788675202483691800,12.84069189453125,-87.79500579833984,0.9230000376701355,-5.279000282287598
1788675202499806500,12.856806396484375,-86.23200225830078,3.058000087738037,-5.669000148773193
1788675202515996700,12.87299658203125,-85.12000274658203,1.3540000915527344,-4.769000053405762
1788675202532296200,12.889296142578125,-87.14800262451172,0.16900001466274261,-5.490000247955322
1788675202548421000,12.905421142578126,-84.08000183105469,1.8760000467300415,-5.683000087738037
1788675202564630800,12.921630859375,-87.06800079345703,0.909000039100647,-6.197000503540039
1788675202580720600,12.937720703125,-86.94300079345703,0.812000036239624,-5.485000133514404
1788675202596882400,12.95388232421875,-85.44500732421875,1.6760001182556152,-4.766000270843506
1788675202613119000,12.970118896484376,-85.24600219726562,0.9110000729560852,-5.89300012588501
1788675202629281500,12.986281494140625,-86.5270004272461,1.777000069618225,-5.375000476837158
1788675202645490200,13.002490234375,-87.56400299072266,1.474000096321106,-4.154000282287598
1788675202661624300,13.018624267578126,-86.94300079345703,1.4600000381469727,-5.071000099182129
1788675202677792800,13.034792724609375,-86.18800354003906,1.3560000658035278,-4.76800012588501
1788675202694043600,13.051043701171874,-88.54600524902344,2.327000141143799,-4.552000045776367
1788675202710218200,13.06721826171875,-86.97000122070312,1.2280000448226929,-6.398000240325928
1788675202726389200,13.08338916015625,-85.51700592041016,-0.13900001347064972,-4.374000072479248
1788675202742514700,13.0995146484375,-86.09100341796875,0.593000054359436,-5.691000461578369
1788675202758653700,13.11565380859375,-87.89000701904297,0.6060000061988831,-4.9760003089904785
1788675202774917600,13.131917724609375,-86.19700622558594,1.350000023841858,-5.175000190734863
1788675202791053300,13.14805322265625,-85.74300384521484,0.718000054359436,-4.366000175476074
1788675202807261700,13.16426171875,-88.07100677490234,-0.1300000101327896,-3.9630002975463867
1788675202823375400,13.180375244140626,-86.17300415039062,1.2570000886917114,-4.1570000648498535
1788675202839494000,13.196493896484375,-88.39200592041016,-0.23800000548362732,-4.065999984741211
1788675202855764000,13.212763916015625,-87.75200653076172,0.9490000605583191,-3.3430001735687256
1788675202871897900,13.22889794921875,-87.77300262451172,0.18000000715255737,-4.776000022888184
1788675202888102000,13.245101806640625,-87.68800354003906,-0.049000002443790436,-5.89900016784668
1788675202904250000,13.26125,-87.67500305175781,0.8220000267028809,-4.770000457763672
1788675202920373000,13.277373046875,-87.12100219726562,-0.7860000133514404,-4.88700008392334
1788675202936658400,13.293658447265624,-87.31600189208984,0.9540000557899475,-2.936000108718872
1788675202952794600,13.309794677734375,-87.66500091552734,0.07200000435113907,-4.777000427246094
1788675202968998400,13.325998291015624,-86.1760025024414,0.7140000462532043,-4.671000003814697
1788675202985108000,13.34210791015625,-87.3530044555664,0.17500001192092896,-5.082000255584717
1788675203001227500,13.3582275390625,-85.47600555419922,1.1170001029968262,-6.502000331878662
1788675203017474000,13.37447412109375,-84.66500091552734,-0.3570000231266022,-4.581000328063965
1788675203033610200,13.3906103515625,-85.81800079345703,-1.2080000638961792,-4.180000305175781
1788675203049816800,13.40681689453125,-86.71000671386719,0.39100003242492676,-4.877000331878662
1788675203065964800,13.42296484375,-88.49800109863281,-2.2900002002716064,-5.306000232696533
1788675203082085600,13.439085693359376,-85.95500183105469,-1.0090000629425049,-5.400000095367432
1788675203098342400,13.45534228515625,-85.03700256347656,1.1230000257492065,-5.994000434875488
1788675203114476800,13.471476806640625,-86.61800384521484,0.27400001883506775,-5.592000484466553
1788675203130686200,13.487686279296875,-86.60600280761719,-1.4470000267028809,-6.116000175476074
1788675203146824700,13.50382470703125,-85.21000671386719,-0.14800000190734863,-4.986000061035156
1788675203162933800,13.519933837890624,-87.03300476074219,-0.7980000376701355,-5.702000141143799
1788675203179230700,13.536230712890625,-85.54800415039062,-1.6710001230239868,-6.7310004234313965
1788675203195351600,13.5523515625,-84.99600219726562,-0.9040000438690186,-5.400000095367432
1788675203211560400,13.568560546875,-85.14100646972656,-0.38700002431869507,-6.822000503540039
1788675203227693600,13.584693603515625,-86.84800720214844,-1.031000018119812,-7.131000518798828
1788675203243810800,13.600810791015626,-87.50700378417969,0.6860000491142273,-6.9110002517700195
1788675203260084200,13.617084228515624,-85.04200744628906,0.14800000190734863,-6.817000389099121
1788675203276186400,13.633186279296876,-86.7030029296875,-1.9810000658035278,-6.019000053405762
1788675203292396000,13.64939599609375,-86.75100708007812,0.3660000264644623,-6.711000442504883
1788675203308544000,13.6655439453125,-86.21300506591797,-0.6040000319480896,-7.128000259399414
1788675203324625000,13.681625,-84.71600341796875,-0.6050000190734863,-7.028000354766846
1788675203340896800,13.697896728515625,-84.5050048828125,0.25699999928474426,-6.613000392913818
1788675203357033200,13.714033203125,-83.54000091552734,-0.17400000989437103,-6.720000267028809
1788675203373238000,13.730238037109375,-83.43900299072266,-1.2580000162124634,-7.647000312805176
1788675203389385200,13.74638525390625,-84.50000762939453,-0.6040000319480896,-6.926000118255615
1788675203405507000,13.762507080078125,-85.37300109863281,-0.7220000624656677,-7.843000411987305
1788675203421789700,13.778789794921876,-85.56900787353516,-2.3320000171661377,-8.06100082397461
1788675203437929200,13.79492919921875,-85.02900695800781,-0.2760000228881836,-6.515000343322754
1788675203454139600,13.8111396484375,-86.12000274658203,-0.2880000174045563,-7.533000469207764
1788675203470259000,13.827259033203125,-84.74100494384766,-0.40400001406669617,-8.045000076293945
1788675203486367700,13.84336767578125,-84.53800201416016,0.3450000286102295,-8.038000106811523
1788675203502596600,13.8595966796875,-85.39000701904297,-0.6240000128746033,-8.555000305175781
1788675203518722300,13.875722412109376,-84.63200378417969,-0.7270000576972961,-8.15000057220459
1788675203534930000,13.891929931640625,-84.01400756835938,-0.6330000162124634,-9.065999984741211
1788675203551053300,13.90805322265625,-85.9330062866211,0.01900000125169754,-8.54900074005127
1788675203567215000,13.924215087890625,-83.58000183105469,-0.6300000548362732,-8.761000633239746
1788675203583469800,13.9404697265625,-84.09200286865234,-0.07500000298023224,-7.432000160217285
1788675203599644200,13.95664404296875,-84.5250015258789,-0.9430000185966492,-8.254000663757324
1788675203615849500,13.972849365234374,-85.23900604248047,-2.2180001735687256,-7.551000595092773
1788675203631979500,13.9889794921875,-83.04700469970703,-1.3880000114440918,-9.278000831604004
1788675203648177700,14.005177734375,-82.82000732421875,-0.8400000333786011,-8.357000350952148
1788675203664428300,14.02142822265625,-84.42500305175781,-0.6230000257492065,-8.35300064086914
1788675203680550700,14.037550537109375,-83.13700103759766,-0.7290000319480896,-8.152000427246094
1788675203696686600,14.0536865234375,-83.65800476074219,-0.3960000276565552,-7.333000183105469
1788675203712825600,14.06982568359375,-84.40400695800781,-0.6110000014305115,-7.436000347137451
1788675203728950500,14.085950439453125,-85.17400360107422,0.024000000208616257,-8.039999961853027
1788675203745229800,14.102229736328125,-84.29300689697266,0.039000000804662704,-6.819000244140625
1788675203761335000,14.1183349609375,-86.6510009765625,0.03800000250339508,-7.224000453948975
1788675203777525000,14.13452490234375,-85.60700225830078,0.8870000243186951,-7.7270002365112305
1788675203793678000,14.150677978515626,-86.01900482177734,1.1130000352859497,-6.909000396728516
1788675203809786000,14.1667861328125,-84.51000213623047,0.7940000295639038,-6.506000518798828
1788675203826058200,14.183058349609375,-83.31200408935547,0.05000000074505806,-5.903000354766846
1788675203842142000,14.199141845703124,-84.99800109863281,0.06700000166893005,-4.88200044631958
1788675203858351000,14.21535107421875,-84.24800109863281,-0.25600001215934753,-4.988000392913818
1788675203874457900,14.231457763671875,-84.61500549316406,0.4710000157356262,-6.6110005378723145
1788675203890581500,14.24758154296875,-84.39800262451172,-0.28200000524520874,-6.924000263214111
1788675203906840300,14.26384033203125,-84.81100463867188,0.37400001287460327,-5.89900016784668
1788675203922973700,14.2799736328125,-82.99400329589844,0.6970000267028809,-5.592000484466553
1788675203939184600,14.2961845703125,-83.16500091552734,-1.00600004196167,-4.7920002937316895
1788675203955291400,14.31229150390625,-85.11000061035156,-0.3680000305175781,-5.395000457763672
1788675203971414500,14.32841455078125,-83.80500030517578,-0.8960000276565552,-4.689000129699707
1788675203987664100,14.3446640625,-83.52300262451172,0.3760000169277191,-5.595000267028809
1788675204003782400,14.360782470703125,-83.83600616455078,-0.8070000410079956,-6.01200008392334
1788675204019989500,14.376989501953124,-83.40800476074219,-0.3750000298023224,-5.703000068664551
1788675204036108500,14.393108642578126,-82.94000244140625,-0.242000013589859,-3.767000198364258
1788675204052232700,14.409232666015624,-83.16400146484375,-0.24900001287460327,-4.276000022888184
1788675204068480000,14.42547998046875,-82.57400512695312,1.2320001125335693,-5.588000297546387
1788675204084615700,14.44161572265625,-83.5270004272461,1.0220000743865967,-5.385000228881836
1788675204100822300,14.457822265625,-85.39500427246094,0.08500000089406967,-3.557000160217285
1788675204116952300,14.473952392578125,-85.32100677490234,-0.04200000315904617,-5.087000370025635
1788675204133107500,14.490107421875,-84.2300033569336,0.07800000160932541,-3.9670002460479736
1788675204149378000,14.5063779296875,-85.14700317382812,1.662000060081482,-5.785000324249268
1788675204165490000,14.522489990234375,-84.91200256347656,0.9180000424385071,-5.2820000648498535
1788675204181694000,14.53869384765625,-83.93400573730469,-0.15300001204013824,-5.191000461578369
1788675204197829000,14.5548291015625,-83.84500122070312,1.1320000886917114,-5.180000305175781
1788675204213951000,14.570950927734375,-82.77000427246094,0.16200000047683716,-5.496000289916992
1788675204230203100,14.587203125,-82.80000305175781,1.3330000638961792,-6.0960001945495605
1788675204246339800,14.60333984375,-84.09100341796875,0.6810000538825989,-6.9150004386901855
1788675204262547200,14.619547119140625,-84.33600616455078,1.8500001430511475,-7.618000507354736
1788675204278690300,14.635690185546874,-81.07400512695312,0.04400000348687172,-6.110000133514404
1788675204294813200,14.651813232421874,-84.08900451660156,0.5740000009536743,-6.9160003662109375
1788675204311086300,14.66808642578125,-82.16800689697266,1.6510000228881836,-6.298000335693359
1788675204327206000,14.684205810546874,-85.16900634765625,1.433000087738037,-6.907000541687012
1788675204343412200,14.700412109375,-82.81500244140625,1.4320000410079956,-6.707000255584717
1788675204359521000,14.71652099609375,-83.33500671386719,-0.07100000232458115,-7.025000095367432
1788675204375613200,14.73261328125,-82.84000396728516,2.7140002250671387,-7.00100040435791
1788675204391888000,14.748887939453125,-84.51100158691406,1.3340001106262207,-6.196000099182129
1788675204408045300,14.76504541015625,-82.30500030517578,1.309000015258789,-7.829000473022461
1788675204424251400,14.78125146484375,-83.24500274658203,1.6470000743865967,-6.704000473022461
1788675204440360400,14.7973603515625,-82.32300567626953,1.8380000591278076,-8.334000587463379
1788675204456505000,14.813505126953125,-85.38600158691406,0.5660000443458557,-7.628000259399414
1788675204472800500,14.829800537109374,-82.30400085449219,2.6060001850128174,-7.003000259399414
1788675204488924000,14.845923828125,-82.5050048828125,1.9660000801086426,-6.804000377655029
1788675204505128000,14.8621279296875,-81.97500610351562,1.3140000104904175,-7.422000408172607
1788675204521254100,14.878254150390624,-80.71100616455078,1.409000039100647,-8.136000633239746
1788675204537408800,14.89440869140625,-84.7540054321289,2.2890000343322754,-6.900000095367432
1788675204553661000,14.910660888671876,-82.43500518798828,1.5110000371932983,-8.744000434875488
1788675204569832200,14.926832275390625,-83.302001953125,3.450000047683716,-8.11400032043457
1788675204586038000,14.9430380859375,-83.47700500488281,2.2850000858306885,-7.1060004234313965
1788675204602176300,14.95917626953125,-84.11500549316406,1.099000096321106,-7.7270002365112305
1788675204618350000,14.97535009765625,-82.87000274658203,1.290000081062317,-9.255000114440918
1788675204634616800,14.991616943359375,-82.84700012207031,1.7370001077651978,-7.926000595092773
1788675204650752300,15.007752197265624,-81.33300018310547,1.2050000429153442,-7.424000263214111
1788675204666958600,15.02395849609375,-81.77900695800781,3.0320000648498535,-7.1010003089904785
1788675204683103200,15.040103271484375,-81.98500061035156,1.2000000476837158,-7.932000160217285
1788675204699222800,15.056222900390624,-82.52000427246094,2.2800002098083496,-7.311000347137451
1788675204715496700,15.07249658203125,-81.56700134277344,1.5180001258850098,-8.134000778198242
1788675204731634200,15.08863427734375,-81.99500274658203,2.5980000495910645,-7.512000560760498
1788675204747822300,15.104822265625,-81.97300720214844,1.9640001058578491,-6.907000541687012
1788675204763925800,15.12092578125,-81.36200714111328,1.2960000038146973,-8.645000457763672
1788675204780047400,15.13704736328125,-82.6240005493164,2.065999984741211,-7.313000202178955
1788675204796336000,15.153336181640626,-83.48600769042969,0.9820000529289246,-8.34000015258789
1788675204812470000,15.169469970703124,-82.08900451660156,2.6070001125335693,-6.901000499725342
1788675204828676400,15.18567626953125,-83.18500518798828,2.0510001182556152,-8.534000396728516
1788675204844787000,15.201786865234375,-83.28300476074219,2.9210002422332764,-7.610000133514404
1788675204860909600,15.21790966796875,-80.89200592041016,1.3220000267028809,-6.710000514984131
1788675204877203200,15.234203125,-82.4020004272461,1.7470000982284546,-7.112000465393066
1788675204893300000,15.250300048828125,-83.26700592041016,3.0390000343322754,-6.794000148773193
1788675204909507000,15.266507080078124,-83.09200286865234,2.69100022315979,-8.733000755310059
1788675204925623000,15.282623046875,-83.41300201416016,3.123000144958496,-8.52500057220459
1788675204941728300,15.298728271484375,-80.73800659179688,3.3380000591278076,-8.119000434875488
1788675204958009000,15.315009033203125,-80.06600189208984,2.384000062942505,-7.313000202178955
1788675204974141700,15.3311416015625,-79.21500396728516,2.812000036239624,-7.208000183105469
1788675204990345000,15.347344970703125,-82.9320068359375,3.4790000915527344,-5.874000072479248
1788675205006457300,15.363457275390624,-81.42900085449219,1.8610000610351562,-6.50100040435791
1788675205022568000,15.37956787109375,-79.62300109863281,0.23100000619888306,-7.944000244140625
1788675205038823000,15.395822998046874,-81.3340072631836,2.2850000858306885,-6.803000450134277
1788675205054956500,15.41195654296875,-82.51100158691406,2.934000253677368,-6.490000247955322
1788675205071158500,15.428158447265625,-81.00100708007812,0.34800001978874207,-7.432000160217285
1788675205087288300,15.444288330078125,-81.09200286865234,2.194000005722046,-5.582000255584717
1788675205103406300,15.46040625,-81.96500396728516,2.4000000953674316,-6.2920002937316895
1788675205119666700,15.476666748046876,-81.26000213623047,3.995000123977661,-7.195000171661377
1788675205135781400,15.492781494140624,-81.8790054321289,3.252000093460083,-6.692000389099121
1788675205151983400,15.5089833984375,-83.0510025024414,2.3910000324249268,-7.1050004959106445
1788675205168126000,15.5251259765625,-82.52100372314453,2.1720001697540283,-7.414000511169434
1788675205184246500,15.54124658203125,-81.02100372314453,2.6050000190734863,-6.902000427246094
1788675205200519700,15.557519775390626,-82.52100372314453,3.7930002212524414,-6.381000518798828
1788675205216653300,15.5736533203125,-81.80000305175781,1.939000129699707,-8.741000175476074
1788675205232858000,15.589858154296875,-81.79100036621094,3.133000135421753,-7.610000133514404
1788675205249001700,15.606001708984374,-84.35600280761719,4.1080002784729,-7.089000225067139
1788675205265123600,15.62212353515625,-81.23400115966797,2.6050000190734863,-6.902000427246094
1788675205281407000,15.638406982421875,-82.02900695800781,5.38800048828125,-7.284000396728516
1788675205297501200,15.654501220703125,-83.08800506591797,3.882000207901001,-7.805000305175781
1788675205313707300,15.670707275390624,-81.59700012207031,3.877000093460083,-8.011000633239746
1788675205329811200,15.686811279296874,-81.89700317382812,2.701000213623047,-7.817000389099121
1788675205345911800,15.702911865234375,-81.3550033569336,2.5970001220703125,-7.51300048828125
1788675205362187000,15.71918701171875,-81.78500366210938,2.812000036239624,-7.511000156402588
1788675205378331000,15.735330810546875,-82.33200073242188,2.805000066757202,-8.121000289916992
1788675205394535000,15.751534912109374,-84.39900207519531,4.406000137329102,-8.818000793457031
1788675205410652400,15.76765234375,-83.08000183105469,3.6700000762939453,-7.603000164031982
1788675205426801400,15.783801513671875,-83.20000457763672,3.7710001468658447,-8.112000465393066
1788675205443080000,15.800079833984375,-82.23600769042969,3.2310001850128174,-8.321000099182129
1788675205459232300,15.816232177734374,-82.11100769042969,2.5930001735687256,-7.9200005531311035
1788675205475435300,15.832435302734375,-81.51900482177734,2.455000162124634,-10.163000106811523
1788675205491557600,15.8485576171875,-82.68800354003906,3.2160000801086426,-9.442000389099121
1788675205507720400,15.864720458984374,-82.05400085449219,5.697000503540039,-8.197999954223633
1788675205523966500,15.880966552734375,-83.00900268554688,3.1080000400543213,-9.544000625610352
1788675205540134700,15.897134765625,-80.34000396728516,4.293000221252441,-8.824000358581543
1788675205556335400,15.91333544921875,-80.19600677490234,5.547000408172607,-11.156000137329102
1788675205572462800,15.929462890625,-81.46200561523438,4.26200008392334,-11.267000198364258
1788675205588621800,15.945621826171875,-80.01800537109375,3.8610002994537354,-9.032000541687012
1788675205604882200,15.961882080078125,-79.43600463867188,3.2840001583099365,-11.992000579833984
1788675205621060000,15.97806005859375,-80.68000030517578,4.389000415802002,-9.63700008392334
1788675205637264000,15.994263916015624,-80.19100189208984,5.334000110626221,-11.056000709533691
1788675205653399800,16.01039990234375,-80.25700378417969,3.7370002269744873,-10.255000114440918
1788675205669523500,16.0265234375,-76.72700500488281,4.060000419616699,-9.747000694274902
1788675205685793000,16.04279296875,-78.98400115966797,4.271000385284424,-10.25200080871582
1788675205701927000,16.058927001953126,-80.5060043334961,3.933000087738037,-11.679000854492188
1788675205718134800,16.075134765625,-80.76900482177734,2.7790000438690186,-9.855000495910645
1788675205734237000,16.09123681640625,-79.96300506591797,3.829000234603882,-11.375000953674316
1788675205750358300,16.107358154296875,-79.96400451660156,3.3960001468658447,-11.6850004196167
1788675205766638800,16.123638916015626,-79.4330062866211,3.2860002517700195,-11.890000343322754
1788675205782771700,16.139771728515626,-80.51400756835938,4.576000213623047,-11.67300033569336
1788675205798976300,16.155976318359375,-82.21300506591797,3.829000234603882,-11.678000450134277
1788675205815080200,16.172080078125,-79.51200103759766,2.76200008392334,-10.97800064086914
1788675205831200800,16.18820068359375,-80.62600708007812,4.789000034332275,-11.773000717163086
1788675205847487700,16.20448779296875,-78.56900024414062,3.507000207901001,-11.278000831604004
1788675205863579600,16.22057958984375,-81.10700225830078,2.7690000534057617,-10.670000076293945
1788675205879813400,16.2368134765625,-79.91200256347656,3.1030001640319824,-9.54800033569336
1788675205895924000,16.252924072265625,-79.97300720214844,4.688000202178955,-11.266000747680664
1788675205912042500,16.26904248046875,-77.93700408935547,5.446000099182129,-10.447000503540039
1788675205928289300,16.285289306640625,-77.6820068359375,3.309000253677368,-9.956000328063965
1788675205944422000,16.301421875,-79.02000427246094,4.898000240325928,-11.469000816345215
1788675205960629800,16.317629638671875,-77.91700744628906,3.7280001640319824,-10.666000366210938
1788675205976752400,16.33375244140625,-81.99500274658203,3.3980002403259277,-11.784000396728516
1788675205992870100,16.3498701171875,-80.8270034790039,5.338000297546387,-10.851000785827637
1788675206009121000,16.36612109375,-77.83800506591797,4.252000331878662,-11.578001022338867
1788675206025233400,16.3822333984375,-81.24100494384766,4.050000190734863,-11.066000938415527
1788675206041434000,16.39843408203125,-80.27100372314453,4.378000259399414,-10.45300006866455
1788675206057566200,16.414566162109374,-80.24100494384766,4.396000385284424,-9.129000663757324
1788675206073665800,16.430665771484374,-80.8080062866211,4.484000205993652,-10.553000450134277
1788675206089914000,16.4469140625,-80.03300476074219,3.4200000762939453,-9.952000617980957
1788675206106023200,16.463023193359376,-77.68800354003906,3.7380001544952393,-9.95300006866455
1788675206122226000,16.479225830078125,-79.21500396728516,3.7210001945495605,-11.37700080871582
1788675206138356700,16.495356689453125,-80.41700744628906,5.110000133514404,-11.771000862121582
1788675206154467300,16.51146728515625,-79.6240005493164,3.7320001125335693,-10.56100082397461
1788675206170739500,16.527739501953125,-78.677001953125,4.263000011444092,-10.86400032043457
1788675206186879000,16.54387890625,-77.71700286865234,4.368000030517578,-10.86400032043457
1788675206203083300,16.560083251953124,-80.48900604248047,4.700000286102295,-10.450000762939453
1788675206219224800,16.576224853515626,-77.83100128173828,5.229000091552734,-10.652000427246094
1788675206235340300,16.59234033203125,-81.14100646972656,5.342000484466553,-10.545000076293945
1788675206251622700,16.60862255859375,-76.43900299072266,5.229000091552734,-10.450000762939453
1788675206267756300,16.62475634765625,-77.27200317382812,4.703000068664551,-9.843000411987305
1788675206283956700,16.640956787109374,-78.26500701904297,4.685000419616699,-11.268000602722168
1788675206300055800,16.657055908203127,-76.4070053100586,4.600000381469727,-9.437000274658203
1788675206316156700,16.67315673828125,-75.16600036621094,5.5460004806518555,-10.653000831604004
1788675206332442400,16.6894423828125,-77.94200134277344,4.686000347137451,-11.166000366210938
1788675206348604700,16.705604736328127,-78.60600280761719,7.050000190734863,-10.737000465393066
1788675206364806700,16.721806640625,-77.82000732421875,4.587000370025635,-10.556000709533691
1788675206380917500,16.73791748046875,-76.88899993896484,5.1080002784729,-11.571000099182129
1788675206397066500,16.75406640625,-77.62000274658203,6.200000286102295,-10.135000228881836
1788675206413361400,16.770361328125,-75.9280014038086,5.1060004234313965,-11.57300090789795
1788675206429530600,16.786530517578125,-77.49400329589844,5.670000076293945,-9.630000114440918
1788675206445730800,16.802730712890625,-77.52200317382812,6.51800012588501,-10.336000442504883
1788675206461831000,16.818830810546874,-76.00100708007812,5.451000213623047,-9.838000297546387
1788675206477989600,16.83498974609375,-76.75900268554688,6.202000141143799,-9.830000877380371
1788675206494241500,16.851241455078124,-77.41400146484375,4.7900004386901855,-11.370000839233398
1788675206510397200,16.867397216796874,-75.4050064086914,5.207000255584717,-11.980000495910645
1788675206526596000,16.88359619140625,-76.78400421142578,7.052000522613525,-10.434000968933105
1788675206542730500,16.89973046875,-76.87700653076172,5.547000408172607,-10.753000259399414
1788675206558846000,16.915845947265623,-76.96900177001953,5.988000392913818,-9.832000732421875
1788675206575091700,16.932091796875,-76.36000061035156,6.725000381469727,-10.743000984191895
1788675206591204000,16.9482041015625,-76.27000427246094,5.526000499725342,-12.282000541687012
1788675206607404300,16.964404296875,-77.45500183105469,6.6020002365112305,-12.067000389099121
1788675206623545300,16.98054541015625,-76.47500610351562,6.071000099182129,-11.563000679016113
1788675206639650800,16.99665087890625,-77.75100708007812,6.942000389099121,-10.73900032043457
1788675206655918000,17.01291796875,-75.07500457763672,7.482000350952148,-10.12700080871582
1788675206672044800,17.029044921875,-73.81600189208984,7.142000198364258,-11.354000091552734
1788675206688248600,17.04524853515625,-75.33700561523438,7.560000419616699,-12.265000343322754
1788675206704397000,17.06139697265625,-73.64100646972656,6.470000267028809,-13.499000549316406
1788675206720516600,17.0775166015625,-76.51100158691406,6.807000160217285,-12.677000999450684
1788675206736797700,17.093797607421877,-76.61600494384766,7.348000526428223,-12.265000343322754
1788675206752936000,17.10993603515625,-74.69300079345703,8.426000595092773,-11.545000076293945
1788675206769139000,17.126138916015623,-76.83900451660156,7.883000373840332,-12.362000465393066
1788675206785247700,17.142247802734374,-76.39000701904297,6.599000453948975,-12.170001029968262
1788675206801364700,17.15836474609375,-75.45800018310547,8.52500057220459,-12.256000518798828
1788675206817655300,17.1746552734375,-75.97500610351562,7.996000289916992,-11.85300064086914
1788675206833747000,17.190746826171875,-75.76100158691406,8.320000648498535,-11.646000862121582
1788675206849952800,17.206952880859376,-78.56400299072266,9.38900089263916,-12.143000602722168
1788675206865991000,17.222990966796875,-76.43500518798828,9.057000160217285,-12.658000946044922
1788675206882115000,17.239114990234373,-76.21300506591797,9.927000045776367,-11.733000755310059
1788675206898359800,17.25535986328125,-76.30900573730469,8.961000442504883,-11.844000816345215
1788675206914494000,17.271493896484376,-77.0560073852539,8.313000679016113,-12.256000518798828
1788675206930699300,17.28769921875,-75.43600463867188,8.755000114440918,-11.134000778198242
1788675206946823700,17.30382373046875,-76.00100708007812,8.196000099182129,-12.870000839233398
1788675206962941000,17.31994091796875,-76.81800079345703,9.192000389099121,-10.619000434875488
1788675206979197000,17.336197021484374,-76.00200653076172,9.925000190734863,-11.836000442504883
1788675206995330800,17.352330810546874,-75.56600189208984,9.821000099182129,-11.532000541687012
1788675207011536400,17.368536376953124,-75.98500061035156,9.394000053405762,-11.433000564575195
1788675207027662000,17.384662109375,-74.49200439453125,9.824000358581543,-11.22700023651123
1788675207043785500,17.400785400390625,-75.34900665283203,9.71500015258789,-11.431000709533691
1788675207060058000,17.41705810546875,-75.43400573730469,9.296000480651855,-10.721000671386719
1788675207076194300,17.4331943359375,-76.00300598144531,10.032000541687012,-11.835000991821289
1788675207092384500,17.449384521484376,-76.19300079345703,9.939000129699707,-10.817000389099121
1788675207108530700,17.46553076171875,-78.76300048828125,9.506000518798828,-11.428000450134277
1788675207124651300,17.4816513671875,-76.81900024414062,9.407999992370605,-10.515000343322754
1788675207140925200,17.49792529296875,-74.4800033569336,10.479000091552734,-10.305000305175781
1788675207157059000,17.51405908203125,-77.37100219726562,10.371000289916992,-10.709000587463379
1788675207173263000,17.53026318359375,-77.5790023803711,9.942000389099121,-10.713000297546387
1788675207189414100,17.5464140625,-75.11500549316406,11.348000526428223,-9.481000900268555
1788675207205517600,17.562517578125,-76.18000030517578,11.351000785827637,-9.378000259399414
1788675207221796400,17.57879638671875,-77.7820053100586,11.030000686645508,-9.583000183105469
1788675207237926400,17.594926513671876,-77.21100616455078,9.971000671386719,-8.574000358581543
1788675207254133000,17.611133056640625,-76.27900695800781,10.92400074005127,-9.280000686645508
1788675207270252500,17.62725244140625,-75.10100555419922,10.168000221252441,-9.594000816345215
1788675207286401300,17.6434013671875,-77.34200286865234,11.577000617980957,-8.66100025177002
1788675207302686000,17.65968603515625,-76.9000015258789,10.505000114440918,-8.671000480651855
1788675207318796500,17.675796630859374,-77.32200622558594,10.292000770568848,-8.571000099182129
1788675207335005200,17.692005126953124,-77.00200653076172,10.832000732421875,-8.261000633239746
1788675207351127000,17.708126953125,-78.70000457763672,10.409000396728516,-8.059000015258789
1788675207367284700,17.72428466796875,-76.44600677490234,10.196000099182129,-7.656000137329102
1788675207383532000,17.740531982421874,-77.66300201416016,10.496000289916992,-9.384000778198242
1788675207399703000,17.756703125,-78.30900573730469,10.495000839233398,-9.587000846862793
1788675207415907300,17.7729072265625,-77.40800476074219,10.95300006866455,-7.241000175476074
1788675207432033300,17.789033203125,-77.09300231933594,9.869000434875488,-8.168000221252441
1788675207448196900,17.80519677734375,-77.23500061035156,11.577000617980957,-8.66200065612793
1788675207464455400,17.821455322265624,-78.39100646972656,11.050000190734863,-8.155000686645508
1788675207480633900,17.8376337890625,-78.96600341796875,11.566000938415527,-9.678000450134277
1788675207496839000,17.8538388671875,-80.33300018310547,11.040000915527344,-9.070000648498535
1788675207512979700,17.869979736328126,-79.16900634765625,11.57300090789795,-9.169000625610352
1788675207529102600,17.8861025390625,-78.927001953125,10.509000778198242,-8.567000389099121
1788675207545378000,17.9023779296875,-78.49700164794922,10.834000587463379,-8.259000778198242
1788675207561513200,17.91851318359375,-78.50800323486328,12.449000358581543,-7.735000133514404
1788675207577719600,17.934719482421876,-77.031005859375,13.084000587463379,-8.138999938964844
1788675207593842700,17.9508427734375,-78.83500671386719,11.797000885009766,-8.454000473022461
1788675207609965800,17.9669658203125,-77.8530044555664,10.403000831604004,-8.366000175476074
1788675207626242600,17.98324267578125,-79.35100555419922,11.808000564575195,-7.63800048828125
1788675207642380500,17.999380615234376,-77.48200225830078,12.962000846862793,-9.260000228881836
1788675207658589700,18.015589599609374,-78.5250015258789,12.331000328063965,-8.551000595092773
1788675207674666200,18.031666259765625,-79.37800598144531,11.576000213623047,-8.964000701904297
1788675207690788600,18.04778857421875,-79.11800384521484,11.063000679016113,-7.238000392913818
1788675207707080400,18.06408056640625,-79.8340072631836,12.208000183105469,-9.875
1788675207723198000,18.080197998046874,-81.03400421142578,14.356000900268555,-9.651000022888184
1788675207739406000,18.096406005859375,-79.19200134277344,12.099000930786133,-9.87700080871582
1788675207755513600,18.112513671875,-81.24200439453125,13.495000839233398,-9.964000701904297
1788675207771638800,18.128638671875,-80.78600311279297,13.187000274658203,-8.847000122070312
1788675207787931400,18.144931396484374,-80.6810073852539,11.565000534057617,-9.982000350952148
1788675207804019000,18.16101904296875,-82.40400695800781,13.720000267028809,-9.247000694274902
1788675207820226300,18.177226318359374,-80.03800201416016,12.213000297546387,-9.467000007629395
1788675207836341000,18.193341064453126,-79.95100402832031,13.607000350952148,-9.455000877380371
1788675207852464600,18.209464599609376,-79.93400573730469,12.860000610351562,-9.156000137329102
1788675207868720000,18.22572021484375,-80.48300170898438,13.284000396728516,-9.559000015258789
1788675207884858600,18.241858642578126,-81.04300689697266,14.242000579833984,-10.16100025177002
1788675207901058600,18.25805859375,-79.43500518798828,13.270000457763672,-10.47700023651123
1788675207917188600,18.274188720703126,-79.19800567626953,13.068000793457031,-9.563000679016113
1788675207933311200,18.290311279296876,-79.96700286865234,13.813000679016113,-10.065000534057617
1788675207949561300,18.306561279296876,-80.61000061035156,13.272000312805176,-10.476000785827637
1788675207965701400,18.322701416015626,-80.61200714111328,13.595000267028809,-10.371000289916992
1788675207981911800,18.338911865234376,-79.94400024414062,12.746000289916992,-9.667000770568848
1788675207998045400,18.35504541015625,-81.47900390625,14.237000465393066,-10.568000793457031
1788675208014164700,18.371164794921874,-81.16100311279297,13.046000480651855,-11.394001007080078
1788675208030430000,18.387429931640625,-80.427001953125,14.010000228881836,-11.386000633239746
1788675208046564600,18.403564697265626,-80.02800750732422,15.07300090789795,-11.98900032043457
1788675208062771200,18.419771240234375,-82.49100494384766,15.397000312805176,-12.085000991821289
1788675208078903800,18.43590380859375,-82.88700103759766,13.795001029968262,-11.691000938415527
1788675208095025000,18.45202490234375,-80.83600616455078,14.886000633239746,-10.054000854492188
1788675208111296800,18.468296875,-82.65400695800781,13.590001106262207,-10.980000495910645
1788675208127430000,18.484429931640626,-80.93600463867188,13.702000617980957,-10.472000122070312
1788675208143665000,18.500664794921875,-84.3530044555664,14.247000694274902,-10.157000541687012
1788675208159769000,18.51676904296875,-81.81500244140625,13.688000679016113,-11.5910005569458
1788675208175891700,18.5328916015625,-81.13200378417969,12.416000366210938,-10.483000755310059
1788675208192167400,18.54916748046875,-81.0580062866211,14.449000358581543,-10.669000625610352
1788675208208215000,18.565215087890625,-81.26500701904297,13.04800033569336,-11.292000770568848
1788675208224422000,18.581421875,-81.3790054321289,12.720000267028809,-11.804000854492188
1788675208240541700,18.597541748046876,-81.89500427246094,13.920001029968262,-10.265000343322754
1788675208256676900,18.6136767578125,-82.43900299072266,11.970000267028809,-11.91100025177002
1788675208272955600,18.62995556640625,-81.6810073852539,13.380001068115234,-10.576000213623047
1788675208289103400,18.646103271484375,-83.09300231933594,14.773000717163086,-10.765000343322754
1788675208305307400,18.662307373046875,-82.86200714111328,14.67500114440918,-10.053000450134277
1788675208321421800,18.678421875,-83.96500396728516,15.411001205444336,-11.166000366210938
1788675208337559800,18.694559814453125,-82.64800262451172,14.783000946044922,-9.951000213623047
1788675208353847000,18.710846923828125,-82.84100341796875,13.931000709533691,-9.551000595092773
1788675208369994500,18.726994384765625,-85.04700469970703,15.405000686645508,-11.7760009765625
1788675208386195200,18.7431953125,-83.48600769042969,15.118000984191895,-9.030000686645508
1788675208402326000,18.759325927734373,-83.0530014038086,14.149001121520996,-9.345000267028809
1788675208418485000,18.775485107421876,-83.70600128173828,14.574000358581543,-9.646000862121582
1788675208434745900,18.791745849609374,-84.76000213623047,13.93600082397461,-9.446000099182129
1788675208450876400,18.80787646484375,-84.65900421142578,13.824000358581543,-9.753000259399414
1788675208467080700,18.824080810546874,-84.57200622558594,14.136000633239746,-10.463000297546387
1788675208483222300,18.84022216796875,-84.54300689697266,13.505001068115234,-9.552000045776367
1788675208499344100,18.85634423828125,-87.97300720214844,13.611001014709473,-10.056000709533691
1788675208515599600,18.872599609375,-84.77100372314453,13.713000297546387,-10.059000015258789
1788675208531714300,18.88871435546875,-82.19400024414062,12.85300064086914,-9.968000411987305
1788675208547918300,18.90491845703125,-87.10600280761719,14.374000549316406,-9.032000541687012
1788675208564065000,18.92106494140625,-85.40300750732422,13.9350004196167,-9.547000885009766
1788675208580182800,18.937182861328125,-84.46000671386719,13.707000732421875,-10.467000961303711
1788675208596465700,18.953465576171876,-84.79000091552734,13.918000221252441,-10.771000862121582
1788675208612599000,18.96959912109375,-86.26800537109375,14.363000869750977,-9.746000289916992
1788675208628802600,18.985802490234374,-83.98100280761719,12.765000343322754,-8.744000434875488
1788675208644905700,19.00190576171875,-86.0270004272461,12.217000961303711,-9.867000579833984
1788675208661029000,19.018029052734374,-87.5250015258789,13.623001098632812,-9.140000343322754
1788675208677311700,19.034311767578124,-84.72400665283203,12.336000442504883,-8.848999977111816
1788675208693402400,19.05040234375,-85.80000305175781,13.089000701904297,-8.73900032043457
1788675208709605400,19.06660546875,-86.24400329589844,14.918001174926758,-8.315000534057617
1788675208725717000,19.082717041015623,-86.46500396728516,13.508000373840332,-9.550000190734863
1788675208741840100,19.098840087890625,-86.14700317382812,13.182000160217285,-9.859000205993652
1788675208758078700,19.11507861328125,-86.04300689697266,12.42400074005127,-10.47700023651123
1788675208774217700,19.1312177734375,-88.79700469970703,13.73900032043457,-8.628000259399414
1788675208790423300,19.14742333984375,-87.96500396728516,13.724000930786133,-9.648000717163086
1788675208806540800,19.163540771484374,-85.4010009765625,13.28800106048584,-9.859000205993652
1788675208822659000,19.1796591796875,-88.41300201416016,15.225000381469727,-9.634000778198242
1788675208838912500,19.19591259765625,-87.33800506591797,15.336000442504883,-9.22700023651123
1788675208855026000,19.21202587890625,-89.906005859375,13.931000709533691,-10.356000900268555
1788675208871229000,19.22822900390625,-88.1550064086914,12.333000183105469,-9.456000328063965
1788675208887356400,19.2443564453125,-90.76300811767578,13.499000549316406,-10.767000198364258
1788675208903474000,19.260473876953125,-89.04300689697266,12.63800048828125,-10.7760009765625
1788675208919736000,19.276736083984375,-89.35700225830078,12.859000205993652,-10.367000579833984
1788675208935860200,19.292860107421873,-88.50200653076172,13.290000915527344,-10.058000564575195
1788675208952063000,19.30906298828125,-89.24200439453125,12.2160005569458,-10.372000694274902
1788675208968203000,19.325203125,-89.78700256347656,13.722001075744629,-9.951000213623047
1788675208984319200,19.3413193359375,-87.89100646972656,12.947000503540039,-11.59000015258789
1788675209000582700,19.357582763671875,-89.71200561523438,14.35200023651123,-10.964000701904297
1788675209016715000,19.373715087890623,-88.51600646972656,12.958000183105469,-10.87600040435791
1788675209032917800,19.389917724609376,-90.32300567626953,12.858000755310059,-10.569000244140625
1788675209049060600,19.406060546875,-89.37000274658203,12.635000228881836,-11.082000732421875
1788675209065177600,19.422177490234375,-89.9050064086914,12.851000785827637,-10.97700023651123
1788675209081461800,19.438461669921875,-89.23800659179688,12.974000930786133,-9.755000114440918
1788675209097594000,19.454593994140627,-88.71500396728516,12.75100040435791,-10.368000030517578
1788675209113794000,19.4707939453125,-89.27100372314453,12.522000312805176,-11.49000072479248
1788675209129941200,19.486941162109375,-90.59900665283203,13.468000411987305,-13.008000373840332
1788675209146057500,19.503057373046875,-89.6310043334961,13.904000282287598,-12.394001007080078
1788675209162345500,19.519345458984375,-89.4540023803711,11.784000396728516,-10.580000877380371
1788675209178463200,19.535463134765624,-88.61700439453125,12.421000480651855,-10.983000755310059
1788675209194662100,19.551662109375,-87.43600463867188,11.450000762939453,-11.29800033569336
1788675209210776800,19.56777685546875,-89.14200592041016,11.779000282287598,-10.988000869750977
1788675209226925800,19.58392578125,-88.08700561523438,11.986001014709473,-11.395000457763672
1788675209243167500,19.60016748046875,-88.92900085449219,10.805000305175781,-11.608000755310059
1788675209259330800,19.616330810546874,-88.30000305175781,11.01300048828125,-12.01400089263916
1788675209275544000,19.6325439453125,-89.51600646972656,10.882000923156738,-13.949000358581543
1788675209291643000,19.648642822265625,-89.14000701904297,10.159000396728516,-11.919000625610352
1788675209307799000,19.664799072265627,-90.73400115966797,10.382000923156738,-11.405000686645508
1788675209324057900,19.681057861328124,-89.89200592041016,10.481000900268555,-11.915000915527344
1788675209340210400,19.69721044921875,-89.8800048828125,9.624000549316406,-11.92300033569336
1788675209356411400,19.713411376953125,-91.47600555419922,10.170000076293945,-11.304000854492188
1788675209372534000,19.729533935546876,-91.91100311279297,10.27400016784668,-11.609000205993652
1788675209388695300,19.7456953125,-90.31700134277344,10.483000755310059,-11.813000679016113
1788675209404957200,19.761957275390625,-90.5060043334961,10.82300090789795,-10.485000610351562
1788675209421086500,19.77808642578125,-88.2770004272461,10.163000106811523,-11.51200008392334
1788675209437291000,19.794291015625,-89.8810043334961,10.164000511169434,-11.612000465393066
1788675209453436700,19.810436767578125,-88.78300476074219,9.100000381469727,-10.910000801086426
1788675209469541400,19.826541259765627,-91.0580062866211,10.164000511169434,-11.713000297546387
1788675209485816600,19.842816650390624,-89.93800354003906,8.897000312805176,-10.197000503540039
1788675209501933600,19.85893359375,-89.8340072631836,9.220000267028809,-10.093000411987305
1788675209518137900,19.875137939453126,-92.29300689697266,9.438000679016113,-10.088000297546387
1788675209534290000,19.8912900390625,-90.781005859375,8.581000328063965,-9.893000602722168
1788675209550424300,19.90742431640625,-90.35100555419922,8.366000175476074,-9.896000862121582
1788675209566705200,19.923705078125,-89.93000793457031,8.470000267028809,-10.099000930786133
1788675209582841000,19.939841064453127,-90.44700622558594,8.04900074005127,-9.593000411987305
1788675209599042800,19.956042724609375,-89.21000671386719,10.07300090789795,-10.290000915527344
1788675209615149600,19.972149658203126,-91.19800567626953,9.129000663757324,-9.072999954223633
1788675209631269000,19.98826904296875,-89.81500244140625,7.827000141143799,-10.105000495910645
1788675209647558400,20.004558349609376,-90.94700622558594,7.422000408172607,-8.47700023651123
1788675209663694800,20.02069482421875,-90.00000762939453,8.600000381469727,-8.366000175476074
1788675209679899400,20.0368994140625,-89.92300415039062,9.447000503540039,-9.17400074005127
1788675209696014300,20.053014404296874,-90.88700103759766,7.177000522613525,-10.720000267028809
1788675209712117500,20.069117431640624,-89.79000091552734,6.869000434875488,-9.604000091552734
1788675209728367900,20.085367919921875,-91.20600128173828,8.367000579833984,-9.895000457763672
1788675209744500500,20.10150048828125,-90.34100341796875,7.940000534057617,-9.696000099182129
1788675209760705000,20.117705078125,-90.33700561523438,7.618000507354736,-9.699000358581543
1788675209776857300,20.133857421875,-91.53400421142578,8.147000312805176,-10.405000686645508
1788675209793022200,20.150022216796874,-90.94700622558594,7.422000408172607,-8.47700023651123
1788675209809277000,20.16627685546875,-91.05500793457031,6.6650004386901855,-8.993000030517578
1788675209825409800,20.182409912109375,-91.72100067138672,7.839000225067139,-9.38900089263916
1788675209841643300,20.198643310546874,-91.26700592041016,6.558000087738037,-8.994000434875488
1788675209857771000,20.21477099609375,-90.25900268554688,6.152000427246094,-7.1650004386901855
1788675209873890000,20.23089013671875,-91.68000793457031,6.567000389099121,-8.381999969482422
1788675209890156300,20.24715625,-91.51000213623047,7.729000568389893,-9.594000816345215
1788675209906285300,20.263285400390625,-90.63500213623047,6.336000442504883,-9.506000518798828
1788675209922489600,20.279489501953126,-92.57400512695312,6.436000347137451,-10.2160005569458
1788675209938622700,20.295622802734375,-89.35000610351562,5.4710001945495605,-9.92300033569336
1788675209954738700,20.31173876953125,-90.6240005493164,5.910000324249268,-9.306000709533691
1788675209971012900,20.328012939453124,-91.26600646972656,5.694000244140625,-9.511000633239746
1788675209987179800,20.3441796875,-89.78900146484375,5.680000305175781,-10.32800006866455
1788675210003384300,20.36038427734375,-89.57500457763672,5.788000106811523,-10.225000381469727
1788675210019487000,20.376487060546875,-91.81500244140625,5.793000221252441,-10.120000839233398
1788675210035607600,20.392607666015625,-92.32100677490234,4.946000099182129,-9.414000511169434
1788675210051893200,20.408893310546876,-90.01100158691406,5.244000434875488,-10.942000389099121
1788675210068022300,20.425022216796876,-90.87800598144531,4.697000026702881,-11.863000869750977
1788675210084230400,20.44123046875,-91.09100341796875,5.994000434875488,-11.03600025177002
1788675210100333600,20.45733349609375,-92.24600219726562,3.739000082015991,-11.564000129699707
1788675210116454000,20.473453857421877,-90.83200073242188,4.509000301361084,-9.929000854492188
1788675210132702700,20.48970263671875,-90.64300537109375,5.7900004386901855,-10.224000930786133
1788675210148829200,20.5058291015625,-90.5250015258789,3.636000156402588,-11.058000564575195
1788675210165033700,20.52203369140625,-91.93900299072266,4.703000068664551,-11.556000709533691
1788675210181158400,20.538158447265626,-90.93900299072266,4.509000301361084,-9.929000854492188
1788675210197319400,20.5543193359375,-90.33100128173828,3.623000144958496,-11.975000381469727
1788675210213571000,20.570571044921873,-90.40900421142578,4.181000232696533,-10.34000015258789
1788675210229747700,20.586747802734376,-88.72700500488281,3.622000217437744,-11.875000953674316
1788675210245964800,20.60296484375,-90.85700225830078,4.169000148773193,-11.256000518798828
1788675210262098400,20.619098388671876,-89.35900115966797,3.952000141143799,-11.260000228881836
1788675210278258400,20.635258544921875,-90.44600677490234,3.4020001888275146,-12.486001014709473
1788675210294512600,20.6515126953125,-90.44500732421875,3.619000196456909,-12.280000686645508
1788675210310688500,20.6676884765625,-88.72100067138672,3.8420002460479736,-11.4660005569458
1788675210326889200,20.68388916015625,-90.1030044555664,2.875000238418579,-11.778000831604004
1788675210343018000,20.70001806640625,-88.72500610351562,2.759000062942505,-12.290000915527344
1788675210359135000,20.716135009765626,-89.8280029296875,4.360000133514404,-12.886000633239746
1788675210375396400,20.732396240234376,-88.48100280761719,1.2640000581741333,-11.896000862121582
1788675210391529200,20.748529296875,-88.81200408935547,2.014000177383423,-11.88900089263916
1788675210407731000,20.76473095703125,-89.11600494384766,2.3490002155303955,-10.969000816345215
1788675210423847700,20.78084765625,-89.656005859375,0.9410000443458557,-12.101000785827637
1788675210439968300,20.79696826171875,-88.79700469970703,1.915000081062317,-11.279000282287598
1788675210456242000,20.813241943359376,-88.2550048828125,1.1630001068115234,-11.38800048828125
