time,seconds_elapsed,z,y,x
1788678776522340400,0.22834033203125,-0.2883284091949463,-0.5198463201522827,0.6206390857696533
1788678776538301200,0.24430126953125,-0.2883284091949463,-0.5198463201522827,0.6206390857696533
1788678776554231300,0.260231201171875,-0.2883284091949463,-0.5198463201522827,0.6206390857696533
1788678776570222300,0.276222412109375,-0.2883284091949463,-0.5198463201522827,0.6206390857696533
1788678776586091500,0.292091552734375,-0.2883284091949463,-0.5198463201522827,0.6206390857696533
1788678776602052400,0.30805224609375,-0.2883284091949463,-0.5198463201522827,0.6206390857696533
1788678776618013000,0.324012939453125,-0.033597588539123535,-0.15760323405265808,0.10201449692249298
1788678776633973800,0.339973876953125,-0.03726277872920036,-0.16920967400074005,0.06414084881544113
1788678776649934300,0.355934326171875,-0.04459316283464432,-0.1417207419872284,0.02321287989616394
1788678776665925600,0.371925537109375,-0.04581489413976669,-0.08918632566928864,-0.01038470957428217
1788678776681886200,0.38788623046875,-0.03298672288656235,-0.04886921867728233,-0.039706241339445114
1788678776697847000,0.403846923828125,-0.03176499158143997,-0.05742133408784866,-0.039095375686883926
1788678776713716200,0.41971630859375,-0.039095375686883926,-0.09162978827953339,-0.0006108652451075613
1788678776729616000,0.435615966796875,-0.036651913076639175,-0.10262536257505417,0.0507018156349659
1788678776745515500,0.451515625,-0.018936822190880775,-0.10018189996480942,0.054367005825042725
1788678776761384400,0.467384521484375,-0.018325956538319588,-0.10873401165008545,0.005497787147760391
1788678776777284000,0.4832841796875,-0.00427605677396059,-0.09957103431224823,-0.02076941914856434
1788678776793245000,0.499244873046875,0.09834930300712585,-0.0959058403968811,-0.08429940044879913
1788678776809297200,0.515297119140625,0.09407325088977814,-0.030543262138962746,-0.059864792972803116
1788678776825135900,0.531135986328125,0.05864306539297104,-0.06169738993048668,-0.015271631069481373
1788678776841035500,0.547035400390625,0.03481931984424591,-0.07757988572120667,0.04948008432984352
1788678776857026600,0.563026611328125,0.015882495790719986,-0.10323622822761536,0.10262536257505417
1788678776872926200,0.57892626953125,0.030543262138962746,-0.12950342893600464,0.10506882518529892
1788678776888978400,0.594978515625,0.06108652427792549,-0.14416420459747314,0.06291911751031876
1788678776904847600,0.61084765625,0.08307767659425735,-0.12950342893600464,0.03237585723400116
1788678776920839000,0.6268388671875,0.08735372871160507,-0.09285151958465576,0.016493361443281174
1788678776936830200,0.642830322265625,0.06719517707824707,-0.0708603709936142,0.021991148591041565
1788678776952790800,0.658790771484375,0.04459316283464432,-0.059864792972803116,0.022602014243602753
1788678776968782000,0.674781982421875,0.019547687843441963,-0.0959058403968811,0.010995574295520782
1788678776984773000,0.690773193359375,0.00427605677396059,-0.15515977144241333,0.012217304669320583
1788678777000734000,0.70673388671875,-0.005497787147760391,-0.17592918872833252,0.03237585723400116
1788678777016694500,0.722694580078125,-0.005497787147760391,-0.18570303916931152,0.04398229718208313
1788678777032655400,0.7386552734375,-0.0024434609804302454,-0.15577064454555511,0.04153883829712868
1788678777048677000,0.754677001953125,-0.00733038317412138,-0.09712757170200348,0.039095375686883926
1788678777064576800,0.77057666015625,-0.014049900695681572,-0.05253441259264946,0.039706241339445114
1788678777080567800,0.78656787109375,-0.02076941914856434,-0.00733038317412138,0.0403171069920063
1788678777096528600,0.802528564453125,-0.031154127791523933,-0.022602014243602753,0.045204028487205505
1788678777112489200,0.8184892578125,-0.04214970022439957,-0.10567969083786011,0.0555887371301651
1788678777128450000,0.834449951171875,-0.02687807008624077,-0.16493362188339233,0.12278391420841217
1788678777144319200,0.8503193359375,-0.0708603709936142,-0.24495697021484375,0.12767083942890167
1788678777160279800,0.86627978515625,-0.07513642311096191,-0.1966986060142517,0.09834930300712585
1788678777176271000,0.88227099609375,-0.05192354694008827,-0.10751228034496307,0.03481931984424591
1788678777192231700,0.898231689453125,-0.06352998316287994,0.025656340643763542,-0.021380282938480377
1788678777208161800,0.914161865234375,-0.05497787147760391,0.08307767659425735,-0.08491026610136032
1788678777224000500,0.93000048828125,-0.01038470957428217,0.036041051149368286,-0.06291911751031876
1788678777239900200,0.945900146484375,0.018325956538319588,-0.010995574295520782,0.001832595793530345
1788678777255830300,0.961830322265625,0.006108652334660292,-0.08246681094169617,0.05253441259264946
1788678777271791000,0.977791015625,-0.016493361443281174,-0.13255776464939117,0.06414084881544113
1788678777287843300,0.99384326171875,-0.07635815441608429,-0.152105450630188,0.03237585723400116
1788678777303682000,1.00968212890625,-0.0959058403968811,-0.1319468915462494,-0.02076941914856434
1788678777319581700,1.025581787109375,-0.07819075137376785,-0.08124507963657379,-0.08124507963657379
1788678777335481300,1.0414814453125,-0.05619960278272629,-0.06108652427792549,-0.10384709388017654
1788678777351381000,1.057381103515625,-0.031154127791523933,-0.06536258012056351,-0.0910189226269722
1788678777367402800,1.07340283203125,-0.036041051149368286,-0.08857546001672745,-0.06169738993048668
1788678777383363300,1.08936328125,-0.03481931984424591,-0.11667526513338089,-0.009773843921720982
1788678777399232500,1.105232421875,-0.02015855349600315,-0.12889257073402405,0.04092797264456749
1788678777415162600,1.12116259765625,0.001832595793530345,-0.13744467496871948,0.09407325088977814
1788678777431062300,1.137062255859375,0.010995574295520782,-0.11972958594560623,0.10445795953273773
1788678777447084000,1.153083984375,0.015271631069481373,-0.0806342139840126,0.08185594528913498
1788678777463014100,1.16901416015625,0.006108652334660292,-0.0403171069920063,0.042760565876960754
1788678777478975000,1.18497509765625,-0.012217304669320583,-0.025045474991202354,0.007941247895359993
1788678777494905000,1.200905029296875,-0.01038470957428217,-0.045204028487205505,-0.015882495790719986
1788678777510804700,1.2168046875,-0.0024434609804302454,-0.05375614017248154,-0.00427605677396059
1788678777526857000,1.23285693359375,0,-0.07757988572120667,0.03481931984424591
1788678777542756600,1.248756591796875,-0.022602014243602753,-0.09529497474431992,0.04459316283464432
1788678777558748000,1.264747802734375,-0.06169738993048668,-0.0806342139840126,0.012828170321881771
1788678777574708500,1.28070849609375,-0.06475171446800232,-0.056810468435287476,-0.003054326167330146
1788678777590699800,1.29669970703125,-0.04703662544488907,-0.004886921960860491,0.014049900695681572
1788678777606660400,1.312660400390625,-0.04337143152952194,0.06414084881544113,0.025656340643763542
1788678777622529500,1.328529541015625,-0.031154127791523933,0.06841690838336945,0.0024434609804302454
1788678777638520800,1.344520751953125,-0.02626720629632473,0.006719517521560192,-0.02382374368607998
1788678777654512000,1.36051220703125,-0.03787364438176155,-0.059864792972803116,-0.010995574295520782
1788678777670472700,1.37647265625,-0.033597588539123535,-0.09346238523721695,0.031154127791523933
1788678777686494500,1.392494384765625,-0.031154127791523933,-0.07941248267889023,0.04459316283464432
1788678777702455000,1.408455078125,-0.03420845419168472,-0.04459316283464432,0.022602014243602753
1788678777718416000,1.424415771484375,-0.03787364438176155,0.001832595793530345,-0.01710422709584236
1788678777734407000,1.440406982421875,-0.051312681287527084,0.012217304669320583,-0.04214970022439957
1788678777750367700,1.45636767578125,-0.05009094998240471,-0.00733038317412138,-0.06719517707824707
1788678777766359000,1.472359130859375,-0.033597588539123535,-0.018936822190880775,-0.07330382615327835
1788678777782289200,1.4882890625,-0.013439035043120384,-0.010995574295520782,-0.039095375686883926
1788678777798188800,1.504188720703125,0.012217304669320583,-0.04764748737215996,0.010995574295520782
1788678777814119000,1.520118896484375,0.015271631069481373,-0.09468411654233932,0.07635815441608429
1788678777837922600,1.543922607421875,-0.07452555745840073,-0.1765400618314743,0.15577064454555511
1788678777853822200,1.559822265625,-0.07819075137376785,-0.1722639948129654,0.16737708449363708
1788678777869721900,1.575721923828125,-0.03420845419168472,-0.18081611394882202,0.1459967941045761
1788678777885774300,1.5917744140625,0.0012217304902151227,-0.15454891324043274,0.12889257073402405
1788678777901674000,1.607674072265625,0.04398229718208313,-0.09162978827953339,0.11911872029304504
1788678777917634600,1.623634521484375,0.06414084881544113,-0.0757472887635231,0.1014036312699318
1788678777933595100,1.63959521484375,0.06719517707824707,-0.0708603709936142,0.08002334833145142
1788678777949586400,1.65558642578125,0.0659734457731247,-0.05497787147760391,0.06780604273080826
1788678777965638700,1.671638671875,0.07635815441608429,-0.03298672288656235,0.07635815441608429
1788678777981507800,1.6875078125,0.08979719132184982,-0.015271631069481373,0.10018189996480942
1788678777997377000,1.703376953125,0.09346238523721695,-0.025656340643763542,0.10690141469240189
1788678778013276700,1.719276611328125,0.09346238523721695,-0.05192354694008827,0.11545353382825851
1788678778029145900,1.735145751953125,0.09346238523721695,-0.08674286305904388,0.09957103431224823
1788678778045106400,1.7511064453125,0.08918632566928864,-0.10262536257505417,0.05375614017248154
1788678778060975600,1.7669755859375,0.07757988572120667,-0.07513642311096191,0.01038470957428217
1788678778076936200,1.782936279296875,0.08185594528913498,-0.01771509274840355,-0.04214970022439957
1788678778092897000,1.79889697265625,0.07330382615327835,0.022602014243602753,-0.08307767659425735
1788678778108827100,1.8148271484375,0.03848451003432274,0.03237585723400116,-0.1111774742603302
1788678778124757200,1.83075732421875,-0.007941247895359993,-0.00855211354792118,-0.10812314599752426
1788678778140626400,1.84662646484375,-0.030543262138962746,-0.06352998316287994,-0.059864792972803116
1788678778156587300,1.862587158203125,-0.030543262138962746,-0.09712757170200348,-0.009162978269159794
1788678778172578300,1.878578369140625,-0.09896016865968704,-0.16432274878025055,-0.26145032048225403
1788678778188447500,1.894447509765625,0.01771509274840355,0.042760565876960754,-0.1417207419872284
1788678778204377600,1.910377685546875,-0.015882495790719986,-0.015882495790719986,-0.10384709388017654
1788678778220216300,1.92621630859375,-0.025045474991202354,0.04703662544488907,-0.06169738993048668
1788678778236177200,1.94217724609375,-0.02687807008624077,0.00366519158706069,-0.10323622822761536
1788678778252137700,1.9581376953125,-0.04581489413976669,0.01160643994808197,-0.16310101747512817
1788678778268098300,1.974098388671875,-0.06291911751031876,-0.01038470957428217,-0.2064724564552307
1788678778284120000,1.9901201171875,-0.09224065393209457,-0.009773843921720982,-0.21563543379306793
1788678778300081000,2.006080810546875,-0.14049901068210602,-0.04337143152952194,-0.15271630883216858
1788678778316041500,2.02204150390625,-0.20952677726745605,-0.06352998316287994,-0.03787364438176155
1788678778332002300,2.038002197265625,-0.1918116807937622,-0.02076941914856434,0.006719517521560192
1788678778347932400,2.053932373046875,-0.10567969083786011,0.010995574295520782,-0.01038470957428217
1788678778363984600,2.069984619140625,-0.06780604273080826,0.014049900695681572,-0.059864792972803116
1788678778379853800,2.085853759765625,-0.05742133408784866,0.018325956538319588,-0.09773843735456467
1788678778395753500,2.10175341796875,-0.054367005825042725,0.009162978269159794,-0.1215621829032898
1788678778411744800,2.117744873046875,-0.07941248267889023,-0.009773843921720982,-0.11667526513338089
1788678778427705300,2.133705322265625,-0.07880161702632904,0.024434609338641167,-0.07880161702632904
1788678778443757600,2.149757568359375,-0.04581489413976669,0.06414084881544113,-0.0757472887635231
1788678778459657200,2.1656572265625,0.006719517521560192,0.13805554807186127,-0.09285151958465576
1788678778475618000,2.1816181640625,0.029932396486401558,0.17348572611808777,-0.11545353382825851
1788678778491578600,2.19757861328125,0.0507018156349659,0.18936823308467865,-0.1319468915462494
1788678778507539500,2.21353955078125,0.0555887371301651,0.1508837193250656,-0.11850785464048386
1788678778523561000,2.22956103515625,0.033597588539123535,0.08857546001672745,-0.06414084881544113
1788678778539430100,2.24543017578125,-0.005497787147760391,-0.04886921867728233,0.001832595793530345
1788678778555391000,2.261390869140625,-0.03726277872920036,-0.11850785464048386,0.025656340643763542
1788678778571351600,2.2773515625,-0.019547687843441963,-0.06352998316287994,-0.012217304669320583
1788678778587312400,2.2933125,-0.0024434609804302454,0.003054326167330146,-0.04398229718208313
1788678778603303400,2.309303466796875,-0.012217304669320583,0.11728613078594208,-0.07391469180583954
1788678778619233800,2.32523388671875,-0.04703662544488907,0.18020524084568024,-0.1007927656173706
1788678778635133400,2.341133544921875,-0.09162978827953339,0.2125810980796814,-0.16004669666290283
1788678778651033000,2.357033203125,-0.07635815441608429,0.14538592100143433,-0.2174680233001709
1788678778666993700,2.37299365234375,-0.036651913076639175,0.07208210229873657,-0.17104226350784302
1788678778683015400,2.389015380859375,0.00733038317412138,0.1618792861700058,-0.05009094998240471
1788678778698884600,2.404884521484375,0.00855211354792118,0.3286454975605011,-0.015271631069481373
1788678778714875600,2.420875732421875,-0.033597588539123535,0.5809328556060791,-0.15760323405265808
1788678778730867000,2.436866943359375,-0.054367005825042725,0.7733554244041443,-0.39095374941825867
1788678778746858200,2.452858154296875,0.024434609338641167,0.8759807348251343,-0.6163630485534668
1788678778762910500,2.468910400390625,0.03787364438176155,0.7745771408081055,-0.7440338730812073
1788678778778810000,2.48481005859375,-0.10812314599752426,0.5564982295036316,-0.8594874143600464
1788678778794740200,2.500740234375,-0.19608774781227112,0.3701843321323395,-0.8203920125961304
1788678778810731500,2.5167314453125,-0.19303341209888458,0.0861319974064827,-0.5357288122177124
1788678778826661600,2.53266162109375,-0.1160643994808197,-0.013439035043120384,-0.17409659922122955
1788678778842530800,2.54853076171875,-0.013439035043120384,-0.09040805697441101,0.07330382615327835
1788678778858400000,2.56439990234375,0,-0.1966986060142517,0.1667662113904953
1788678778874299600,2.580299560546875,-0.06719517707824707,-0.04764748737215996,0.12828169763088226
1788678778890138000,2.59613818359375,-0.00733038317412138,0.26022860407829285,0.07757988572120667
1788678778906007300,2.61200732421875,-0.05925392732024193,-0.1264491081237793,-0.021380282938480377
1788678778921968000,2.627968017578125,-0.1661553531885147,-0.16371189057826996,-0.06536258012056351
1788678778937837300,2.64383740234375,-0.1368338167667389,-0.34697145223617554,-0.0555887371301651
1788678778953737000,2.659737060546875,-0.013439035043120384,-0.42760565876960754,0.10384709388017654
1788678778969636600,2.67563671875,0.09896016865968704,-0.48869219422340393,0.2431243658065796
1788678778985505500,2.691505615234375,0.12095131725072861,-0.5064072608947754,0.3732386529445648
1788678779001436000,2.707435791015625,0.05253441259264946,-0.413555771112442,0.3933972120285034
1788678779017305000,2.72330517578125,-0.021991148591041565,-0.2993239760398865,0.32559117674827576
1788678779033204700,2.739204833984375,-0.036041051149368286,-0.2278527319431305,0.24007004499435425
1788678779049104400,2.7551044921875,-0.004886921960860491,-0.20036379992961884,0.15271630883216858
1788678779065004000,2.771004150390625,0.03176499158143997,-0.24984388053417206,0.09285151958465576
1788678779080903700,2.786903564453125,0.021380282938480377,-0.34758231043815613,0.04459316283464432
1788678779096742100,2.8027421875,-0.014049900695681572,-0.4239404797554016,0.06841690838336945
1788678779112641800,2.818641845703125,-0.06291911751031876,-0.4331034719944,0.10873401165008545
1788678779128541400,2.83454150390625,-0.08491026610136032,-0.40256020426750183,0.08429940044879913
1788678779144410600,2.85041064453125,-0.07147123664617538,-0.36102136969566345,0.03848451003432274
1788678779160310300,2.866310302734375,-0.013439035043120384,-0.2877175211906433,0.036041051149368286
1788678779176179500,2.882179443359375,0.036041051149368286,-0.22968533635139465,0.06108652427792549
1788678779192048600,2.898048583984375,0.04764748737215996,-0.1569923609495163,0.06352998316287994
1788678779207917800,2.913917724609375,-0.003054326167330146,-0.05253441259264946,0.01038470957428217
1788678779223787000,2.929787109375,-0.09773843735456467,0.06475171446800232,-0.1215621829032898
1788678779239717000,2.945717041015625,-0.12217304855585098,0.11545353382825851,-0.20525072515010834
1788678779255586300,2.96158642578125,-0.009773843921720982,0.14049901068210602,-0.15393804013729095
1788678779271486000,2.97748583984375,0.08979719132184982,0.09529497474431992,-0.08491026610136032
1788678779287385600,2.993385498046875,0.08857546001672745,0.05375614017248154,-0.13072516024112701
1788678779303224000,3.00922412109375,0.006108652334660292,0.08307767659425735,-0.22357667982578278
1788678779319123700,3.025123779296875,-0.07757988572120667,0.16371189057826996,-0.303600013256073
1788678779334932000,3.040931884765625,-0.03787364438176155,0.23640485107898712,-0.2987131178379059
1788678779350831600,3.05683154296875,-0.0006108652451075613,0.2730567753314972,-0.25595253705978394
1788678779366700800,3.07270068359375,-0.007941247895359993,0.25961771607398987,-0.20525072515010834
1788678779382600400,3.088600341796875,-0.0024434609804302454,0.27061331272125244,-0.10690141469240189
1788678779398469600,3.1044697265625,0.007941247895359993,0.242513507604599,-0.03298672288656235
1788678779414308000,3.12030810546875,-0.00366519158706069,0.09834930300712585,0.042760565876960754
1788678779430177300,3.13617724609375,-0.03481931984424591,-0.11178833991289139,0.09224065393209457
1788678779446077000,3.152076904296875,-0.08002334833145142,-0.2828305959701538,0.11239920556545258
1788678779461976600,3.1679765625,-0.12461651116609573,-0.2974913716316223,0.09224065393209457
1788678779477845800,3.183845703125,-0.16798794269561768,-0.1563815027475357,0.025656340643763542
1788678779493684500,3.1996845703125,-0.18020524084568024,-0.009162978269159794,-0.06536258012056351
1788678779509584100,3.215584228515625,-0.13072516024112701,0.05619960278272629,-0.11667526513338089
1788678779525453000,3.231453125,-0.0507018156349659,0.02321287989616394,-0.09285151958465576
1788678779541322200,3.247322265625,0.016493361443281174,-0.10690141469240189,-0.04337143152952194
1788678779557222000,3.263221923828125,0.0403171069920063,-0.22052235901355743,-0.02015855349600315
1788678779573121500,3.27912158203125,0.04214970022439957,-0.30482175946235657,-0.01466076634824276
1788678779588929800,3.2949296875,0.028099801391363144,-0.3017674386501312,0.013439035043120384
1788678779604829400,3.310829345703125,0.018325956538319588,-0.2840523421764374,0.05253441259264946
1788678779620729000,3.32672900390625,0.05253441259264946,-0.25473082065582275,0.1014036312699318
1788678779636659200,3.3426591796875,0.08368854224681854,-0.22418753802776337,0.1160643994808197
1788678779652528400,3.3585283203125,0.152105450630188,-0.2174680233001709,0.1160643994808197
1788678779668367000,3.3743671875,0.2223549485206604,-0.2015855312347412,0.13927727937698364
1788678779684236000,3.390236083984375,0.2932153046131134,-0.09407325088977814,0.192422553896904
1788678779700105200,3.406105224609375,0.33719760179519653,0.07513642311096191,0.21624629199504852
1788678779716066000,3.422066162109375,0.3683517575263977,0.17104226350784302,0.18875735998153687
1788678779731874000,3.4378740234375,0.40622538328170776,0.11850785464048386,0.18325957655906677
1788678779747773700,3.453773681640625,0.485027015209198,-0.039706241339445114,0.242513507604599
1788678779763673300,3.46967333984375,0.5070181488990784,-0.18814650177955627,0.2779437005519867
1788678779779542500,3.48554248046875,0.4190535545349121,-0.28588494658470154,0.24007004499435425
1788678779795442200,3.501442138671875,0.2919935882091522,-0.23457226157188416,0.15515977144241333
1788678779811281000,3.517281005859375,0.1771509200334549,-0.05375614017248154,0.06475171446800232
1788678779827180500,3.5331806640625,0.18570303916931152,0.12339477986097336,0.09529497474431992
1788678779843080200,3.549080078125,0.4086688458919525,0.26022860407829285,0.2974913716316223
1788678779858949400,3.564949462890625,0.617584764957428,0.2736676335334778,0.45814892649650574
1788678779874879500,3.58087939453125,0.6579018831253052,0.242513507604599,0.44287729263305664
1788678779890718000,3.596718017578125,0.5442809462547302,0.21502456068992615,0.2883284091949463
1788678779906617600,3.61261767578125,0.36102136969566345,0.1667662113904953,0.13377949595451355
1788678779922517200,3.628517333984375,0.25106561183929443,0.04581489413976669,0.05009094998240471
1788678779938386400,3.644386474609375,0.16310101747512817,-0.20097467303276062,0.02076941914856434
1788678779954347300,3.66034716796875,0.12400564551353455,-0.41172316670417786,-0.009162978269159794
1788678779970185700,3.676185791015625,-0.00733038317412138,-0.5210680365562439,-0.13561208546161652
1788678779986055000,3.692054931640625,-0.16982053220272064,-0.4098905920982361,-0.37690386176109314
1788678780001954600,3.70795458984375,-0.14294247329235077,-0.19425514340400696,-0.5461135506629944
1788678780017823700,3.72382373046875,0.04214970022439957,0.051312681287527084,-0.5253441333770752
1788678780033753900,3.73975390625,0.21319197118282318,0.2590068578720093,-0.34636059403419495
1788678780057557800,3.763557861328125,0.37629300355911255,0.7128797173500061,-0.05619960278272629
1788678780073488000,3.77948779296875,0.304210901260376,0.8252789378166199,0.039706241339445114
1788678780089357000,3.795357177734375,0.25106561183929443,0.5571091175079346,0.025656340643763542
1788678780105226200,3.811226318359375,0.17287486791610718,0.20891591906547546,-0.11789698898792267
1788678780121095200,3.82709521484375,0.17898350954055786,-0.08307767659425735,-0.19975294172763824
1788678780136964400,3.84296435546875,0.252287358045578,-0.23457226157188416,-0.22052235901355743
1788678780152894500,3.85889453125,0.1918116807937622,-0.22968533635139465,-0.25045475363731384
1788678780168733200,3.874733154296875,-0.018936822190880775,-0.22113321721553802,-0.23579397797584534
1788678780184602400,3.890602294921875,-0.13866640627384186,-0.12034045159816742,-0.1869247704744339
1788678780200532500,3.906532470703125,-0.09162978827953339,-0.039095375686883926,-0.14966198801994324
1788678780216371200,3.92237109375,-0.04948008432984352,-0.08552113175392151,-0.16737708449363708
1788678780232270800,3.938270751953125,0.007941247895359993,-0.22907446324825287,-0.16493362188339233
1788678780248109300,3.954109375,0.07452555745840073,-0.34086281061172485,-0.04092797264456749
1788678780263978500,3.969978515625,0.07513642311096191,-0.47219884395599365,0.17287486791610718
1788678780279847700,3.98584765625,-0.06780604273080826,-0.5002986192703247,0.2541199326515198
1788678780295716900,4.001716796875,-0.35735616087913513,-0.3646865487098694,0.14966198801994324
1788678780311677400,4.017677490234375,-0.4893030524253845,-0.17592918872833252,0.015271631069481373
1788678780327485700,4.033485595703125,-0.403781920671463,-0.08307767659425735,-0.1258382350206375
1788678780343355000,4.04935498046875,-0.19120082259178162,0.012828170321881771,-0.14416420459747314
1788678780359254500,4.065254638671875,-0.02871066704392433,0.1563815027475357,-0.039706241339445114
1788678780375154200,4.081154296875,0.016493361443281174,0.25534167885780334,0.07819075137376785
1788678780391053800,4.0970537109375,-0.009773843921720982,0.19058994948863983,0.1618792861700058
1788678780406892300,4.112892333984375,-0.11545353382825851,0.09162978827953339,0.10506882518529892
1788678780422761500,4.128761474609375,-0.24129177629947662,0.012828170321881771,-0.03176499158143997
1788678780438600200,4.14460009765625,-0.29504790902137756,0.10690141469240189,-0.15943582355976105
1788678780454499800,4.160499755859375,-0.35124751925468445,0.0659734457731247,-0.17409659922122955
1788678780470430000,4.176429931640625,-0.38240164518356323,-0.042760565876960754,-0.12034045159816742
1788678780486299100,4.192299072265625,-0.3225368559360504,-0.13805554807186127,0.012828170321881771
1788678780502198800,4.20819873046875,-0.2742784917354584,-0.20097467303276062,0.12828169763088226
1788678780518037500,4.22403759765625,-0.27000242471694946,-0.20463985204696655,0.27488934993743896
1788678780533906400,4.239906494140625,-0.26450464129447937,-0.08368854224681854,0.45326200127601624
1788678780549836800,4.2558369140625,-0.2528982162475586,-0.02321287989616394,0.5112941861152649
1788678780565675300,4.27167529296875,-0.21074850857257843,0.015271631069481373,0.44654250144958496
1788678780581514000,4.287513916015625,-0.1661553531885147,0.03726277872920036,0.3182607889175415
1788678780597413600,4.30341357421875,-0.10201449692249298,0.11850785464048386,0.11728613078594208
1788678780613313300,4.319313232421875,-0.08918632566928864,0.17409659922122955,-0.09896016865968704
1788678780629243400,4.335243408203125,-0.1612684279680252,0.029932396486401558,-0.27977627515792847
1788678780645082000,4.35108203125,-0.20586158335208893,-0.1472185254096985,-0.3390302062034607
1788678780660951300,4.366951416015625,-0.25534167885780334,-0.24129177629947662,-0.24984388053417206
1788678780676851000,4.382850830078125,-0.2675589919090271,-0.23640485107898712,-0.08857546001672745
1788678780692720000,4.39872021484375,-0.2028072625398636,-0.10323622822761536,0.09834930300712585
1788678780708589000,4.414589111328125,-0.11239920556545258,-0.018325956538319588,0.1973094791173935
1788678780724427800,4.430427734375,0.009773843921720982,-0.0757472887635231,0.18875735998153687
1788678780740297000,4.446296875,0.04642575979232788,-0.12828169763088226,0.07635815441608429
1788678780756166100,4.462166259765625,0.051312681287527084,-0.06963863968849182,-0.08491026610136032
1788678780772035000,4.47803515625,0.04642575979232788,0.04886921867728233,-0.1918116807937622
1788678780787996000,4.493995849609375,0.029932396486401558,0.18570303916931152,-0.2773328125476837
1788678780803834600,4.509834716796875,0.018936822190880775,0.22907446324825287,-0.29016098380088806
1788678780819734300,4.525734375,0.08307767659425735,0.10506882518529892,-0.20952677726745605
1788678780835603200,4.541603271484375,0.1569923609495163,-0.15577064454555511,-0.12217304855585098
1788678780851472400,4.557472412109375,0.19425514340400696,-0.294437050819397,-0.08124507963657379
1788678780867372000,4.5733720703125,0.20525072515010834,-0.21013765037059784,-0.027488935738801956
1788678780883271700,4.589271728515625,0.18570303916931152,-0.0507018156349659,0.014049900695681572
1788678780899140900,4.605140869140625,0.15943582355976105,-0.01771509274840355,0.014049900695681572
1788678780915040500,4.62104052734375,0.1368338167667389,0.015882495790719986,-0.0024434609804302454
1788678780930940200,4.636940185546875,0.13072516024112701,-0.039706241339445114,0.00855211354792118
1788678780946809300,4.652809326171875,0.19975294172763824,-0.1264491081237793,0.09468411654233932
1788678780962678500,4.668678466796875,0.34758231043815613,-0.16065755486488342,0.24373523890972137
1788678780978547700,4.684547607421875,0.48258355259895325,-0.048258353024721146,0.36224308609962463
1788678780994417000,4.7004169921875,0.513737678527832,0.11911872029304504,0.3182607889175415
1788678781010316500,4.716316650390625,0.4178318381309509,0.2840523421764374,0.13011430203914642
1788678781026246700,4.73224658203125,0.22846360504627228,0.3090978264808655,-0.2730567753314972
1788678781042115800,4.74811572265625,-0.007941247895359993,-0.06902777403593063,-0.7171558141708374
1788678781058015500,4.764015380859375,-0.030543262138962746,-0.18814650177955627,-0.8839219808578491
1788678781073884700,4.779884765625,0.17348572611808777,0.005497787147760391,-0.5748242139816284
1788678781089753600,4.795753662109375,0.4129449129104614,0.23396138846874237,0.1814269721508026
1788678781105653200,4.8116533203125,0.4282165467739105,0.04398229718208313,0.6224716901779175
1788678781121553000,4.827552978515625,0.3170390725135803,-0.2480112910270691,0.6976081132888794
1788678781137422000,4.843422119140625,0.22907446324825287,-0.23273965716362,0.4905247986316681
1788678781153321700,4.85932177734375,0.1007927656173706,-0.23273965716362,0.0806342139840126
1788678781169191000,4.87519091796875,0.10445795953273773,-0.1667662113904953,-0.12217304855585098
1788678781185121000,4.89112109375,0.1514945775270462,-0.2028072625398636,-0.20952677726745605
1788678781200990200,4.906990234375,0.16432274878025055,-0.19792033731937408,-0.1618792861700058
1788678781216859400,4.922859375,0.12828169763088226,-0.07635815441608429,-0.07024950534105301
1788678781232728600,4.938728515625,-0.001832595793530345,0.09957103431224823,-0.06963863968849182
1788678781248597800,4.95459765625,-0.09773843735456467,0.1313360333442688,-0.2028072625398636
1788678781264558300,4.970558349609375,-0.10018189996480942,0.18325957655906677,-0.28466320037841797
1788678781280397000,4.98639697265625,-0.036041051149368286,0.2070833146572113,-0.2376265823841095
1788678781296235500,5.002235595703125,0.02871066704392433,0.11056660860776901,-0.12339477986097336
1788678781312135200,5.01813525390625,0.05497787147760391,-0.19914206862449646,-0.018325956538319588
1788678781328004400,5.03400439453125,0.12034045159816742,-0.19486601650714874,0.09468411654233932
1788678781343873500,5.04987353515625,0.12339477986097336,-0.12767083942890167,0.13500121235847473
1788678781359712300,5.065712158203125,0.05253441259264946,-0.02626720629632473,0.07941248267889023
1788678781375581400,5.08158154296875,-0.02932153269648552,0.02871066704392433,-0.06902777403593063
1788678781391450400,5.097450439453125,-0.12278391420841217,0.05497787147760391,-0.18875735998153687
1788678781407319600,5.113319580078125,-0.17348572611808777,0.0354301854968071,-0.20952677726745605
1788678781423219200,5.12921923828125,-0.16493362188339233,-0.03237585723400116,-0.1014036312699318
1788678781439088400,5.14508837890625,-0.1270599663257599,-0.07269296050071716,0.07819075137376785
1788678781454957600,5.16095751953125,-0.09896016865968704,-0.05009094998240471,0.251676470041275
1788678781470826800,5.17682666015625,-0.12889257073402405,-0.05742133408784866,0.3072652220726013
1788678781486726400,5.192726318359375,-0.2125810980796814,-0.14477506279945374,0.28038713335990906
1788678781502595600,5.208595703125,-0.2919935882091522,-0.2278527319431305,0.1875356286764145
1788678781518434000,5.22443408203125,-0.3494149148464203,-0.28527405858039856,0.07452555745840073
1788678781534272800,5.240272705078125,-0.32559117674827576,-0.2480112910270691,0.06902777403593063
1788678781550142000,5.256141845703125,-0.2125810980796814,-0.027488935738801956,0.1111774742603302
1788678781566041600,5.27204150390625,-0.12828169763088226,0.12828169763088226,0.10384709388017654
1788678781581910800,5.287910888671875,-0.17837265133857727,0.14294247329235077,0.01771509274840355
1788678781597749200,5.303749267578125,-0.30970868468284607,0.0403171069920063,-0.12950342893600464
1788678781613649000,5.31964892578125,-0.5027421116828918,-0.19975294172763824,-0.31581732630729675
1788678781629548500,5.335548583984375,-0.6805039048194885,-0.3549126982688904,-0.44593164324760437
1788678781645448200,5.3514482421875,-0.7330383062362671,-0.2687807083129883,-0.5009095072746277
1788678781661378600,5.367378662109375,-0.5638286471366882,-0.04459316283464432,-0.4306600093841553
1788678781677186600,5.3831865234375,-0.23335053026676178,0.21868975460529327,-0.18631389737129211
1788678781693055700,5.3990556640625,-0.006719517521560192,0.33719760179519653,0.060475658625364304
1788678781708955400,5.414955322265625,0.1062905490398407,0.2687807083129883,0.24556782841682434
1788678781724855000,5.43085498046875,0.0757472887635231,0.10690141469240189,0.3139847218990326
1788678781748750300,5.454750244140625,-0.11728613078594208,-0.24434609711170197,0.2174680233001709
1788678781764562000,5.47056201171875,-0.20463985204696655,-0.38667771220207214,0.0757472887635231
1788678781780431000,5.48643115234375,-0.23457226157188416,-0.39706242084503174,-0.02932153269648552
1788678781796269600,5.50226953125,-0.21319197118282318,-0.30115658044815063,-0.09040805697441101
1788678781812138800,5.518138671875,-0.1362229436635971,-0.1612684279680252,-0.0555887371301651
1788678781828038400,5.534038330078125,-0.036651913076639175,0.04764748737215996,0.09407325088977814
1788678781843938000,5.54993798828125,-0.001832595793530345,0.1264491081237793,0.23029619455337524
1788678781859868200,5.5658681640625,-0.04092797264456749,0.0555887371301651,0.33047810196876526
1788678781875707000,5.581706787109375,-0.07696902006864548,-0.04337143152952194,0.35613444447517395
1788678781891606500,5.5976064453125,-0.0757472887635231,-0.10201449692249298,0.3182607889175415
1788678781907506200,5.613506103515625,-0.04092797264456749,-0.048258353024721146,0.21930062770843506
1788678781923375400,5.629375244140625,0.006719517521560192,0.018936822190880775,0.15454891324043274
1788678781939336000,5.6453359375,0.05925392732024193,0.02015855349600315,0.15454891324043274
1788678781955174700,5.661174560546875,0.06230825558304787,-0.01466076634824276,0.16737708449363708
1788678781971043800,5.6770439453125,-0.02382374368607998,-0.0861319974064827,0.14477506279945374
1788678781986943500,5.692943603515625,-0.11423180252313614,-0.11789698898792267,0.1368338167667389
1788678782002812700,5.708812744140625,-0.10018189996480942,-0.1771509200334549,0.17959438264369965
1788678782018681900,5.724681884765625,0.015882495790719986,-0.27550023794174194,0.2638937830924988
1788678782034520300,5.740520263671875,0.18325957655906677,-0.3695734739303589,0.3579670190811157
1788678782050389500,5.756389404296875,0.2718350291252136,-0.4001167416572571,0.35674530267715454
1788678782066258700,5.7722587890625,0.2730567753314972,-0.3488040566444397,0.23396138846874237
1788678782082128000,5.7881279296875,0.2565633952617645,-0.2968805134296417,0.12217304855585098
1788678782098058000,5.80405810546875,0.26572638750076294,-0.21624629199504852,0.16249015927314758
1788678782113896700,5.819896728515625,0.10690141469240189,0.20341812074184418,0.33658674359321594
1788678782129796400,5.83579638671875,-0.021991148591041565,0.018325956538319588,0.2168571650981903
1788678782145634800,5.851634765625,-0.12217304855585098,0.1716531366109848,0.21930062770843506
1788678782161504000,5.86750390625,-0.1771509200334549,0.11789698898792267,0.4105014503002167
1788678782177434000,5.88343408203125,-0.04398229718208313,-0.07819075137376785,0.35552358627319336
1788678782193303300,5.89930322265625,0.06719517707824707,-0.2021963894367218,0.08979719132184982
1788678782209172500,5.91517236328125,0.09346238523721695,-0.22602014243602753,-0.0012217304902151227
1788678782225072000,5.931072021484375,0.323147714138031,-0.47219884395599365,0.1368338167667389
1788678782240971800,5.9469716796875,0.3604104816913605,-0.7110471725463867,0.25595253705978394
1788678782256841000,5.962841064453125,0.23579397797584534,-0.646906316280365,0.24556782841682434
1788678782272679400,5.978679443359375,0.19608774781227112,-0.5491678714752197,0.11789698898792267
1788678782288548600,5.994548583984375,0.25106561183929443,-0.36651915311813354,-0.08796459436416626
1788678782304448300,6.0104482421875,0.2064724564552307,-0.11301007121801376,-0.24068090319633484
1788678782320317400,6.0263173828125,-0.039706241339445114,-0.10323622822761536,-0.3628539443016052
1788678782336217000,6.042217041015625,-0.14538592100143433,-0.07696902006864548,-0.44593164324760437
1788678782352116700,6.05811669921875,-0.10445795953273773,-0.09834930300712585,-0.4795292317867279
1788678782368047000,6.074047119140625,0.00733038317412138,-0.08307767659425735,-0.4538728892803192
1788678782383916000,6.089916015625,0.04214970022439957,-0.0708603709936142,-0.33292156457901
1788678782399785200,6.10578515625,0.07696902006864548,-0.0861319974064827,-0.11301007121801376
1788678782415684900,6.121684814453125,0.16798794269561768,-0.16554448008537292,0.18325957655906677
1788678782431554000,6.137553955078125,0.26450464129447937,-0.18509216606616974,0.44104471802711487
1788678782447392800,6.153392822265625,0.2742784917354584,-0.18448130786418915,0.44654250144958496
1788678782463292400,6.16929248046875,0.21441370248794556,-0.17959438264369965,0.294437050819397
1788678782479131000,6.185130859375,0.12767083942890167,-0.11850785464048386,0.11423180252313614
1788678782495030500,6.201030517578125,0.029932396486401558,-0.02687807008624077,-0.05009094998240471
1788678782510869200,6.216869140625,-0.0507018156349659,-0.09162978827953339,-0.11178833991289139
1788678782526738400,6.232738525390625,-0.09651670604944229,-0.17898350954055786,-0.1722639948129654
1788678782542638000,6.24863818359375,-0.10262536257505417,-0.09224065393209457,-0.13561208546161652
1788678782558507300,6.26450732421875,-0.15943582355976105,-0.021380282938480377,-0.04337143152952194
1788678782590306600,6.296306640625,-0.36224308609962463,-0.0024434609804302454,0.021380282938480377
1788678782606206200,6.312206298828125,-0.4196644127368927,-0.031154127791523933,0.03176499158143997
1788678782622136300,6.32813623046875,-0.4239404797554016,-0.001832595793530345,0.09224065393209457
1788678782638036000,6.344035888671875,-0.35246923565864563,0.0861319974064827,0.22602014243602753
1788678782653966000,6.359966064453125,-0.24190263450145721,0.2675589919090271,0.394618958234787
1788678782669774300,6.3757744140625,-0.2590068578720093,0.34758231043815613,0.3885102868080139
1788678782685704400,6.391704345703125,-0.3836233615875244,0.2834414839744568,0.10873401165008545
1788678782701573600,6.40757373046875,-0.5277875661849976,0.1661553531885147,-0.36713001132011414
1788678782717473300,6.423473388671875,-0.6206390857696533,0.11362093687057495,-0.7678576111793518
1788678782733373000,6.439373046875,-0.5516113042831421,0.2070833146572113,-0.8429940342903137
1788678782749272600,6.4552724609375,-0.3481931984424591,0.21930062770843506,-0.3933972120285034
1788678782765141800,6.471141845703125,-0.16493362188339233,0.09285151958465576,0.455705463886261
1788678782781072000,6.48707177734375,-0.13561208546161652,-0.07269296050071716,0.9706648588180542
1788678782796941000,6.502941162109375,-0.16493362188339233,-0.22357667982578278,1.0800096988677979
1788678782812871200,6.51887109375,-0.15821409225463867,-0.19975294172763824,0.8710938692092896
1788678782828710000,6.5347099609375,-0.14416420459747314,-0.16310101747512817,0.46303585171699524
1788678782844609500,6.550609619140625,-0.15454891324043274,-0.13500121235847473,0.09224065393209457
1788678782860478700,6.566478759765625,-0.1875356286764145,-0.10018189996480942,-0.24984388053417206
1788678782876347600,6.58234765625,-0.192422553896904,-0.10018189996480942,-0.4331034719944
1788678782892216800,6.598216796875,-0.182648703455925,-0.11728613078594208,-0.4404338300228119
1788678782908055600,6.6140556640625,-0.10201449692249298,-0.0659734457731247,-0.39095374941825867
1788678782923924700,6.6299248046875,-0.019547687843441963,0.02871066704392433,-0.28038713335990906
1788678782939794000,6.6457939453125,0.00733038317412138,0.0403171069920063,-0.09224065393209457
1788678782955693600,6.661693603515625,0.029932396486401558,0.0555887371301651,0.08124507963657379
1788678782971562500,6.6775625,0.10201449692249298,0.08674286305904388,0.06230825558304787
1788678782987370800,6.693370849609375,0.10506882518529892,0.13805554807186127,-0.06719517707824707
1788678783003270400,6.7092705078125,0.021991148591041565,0.21380282938480377,-0.1014036312699318
1788678783019139600,6.7251396484375,-0.030543262138962746,0.13805554807186127,-0.05742133408784866
1788678783035008800,6.7410087890625,-0.10201449692249298,0.1313360333442688,-0.012217304669320583
1788678783050908400,6.756908447265625,-0.0507018156349659,0.051312681287527084,-0.045204028487205505
1788678783066747000,6.772746826171875,-0.03298672288656235,-0.039095375686883926,-0.16798794269561768
1788678783082646500,6.788646484375,-0.03298672288656235,-0.18997909128665924,-0.23151792585849762
1788678783098515700,6.804515625,0.03237585723400116,-0.2871066629886627,-0.13866640627384186
1788678783114385000,6.820385009765625,0.15332718193531036,-0.3286454975605011,0.031154127791523933
1788678783130284500,6.836284423828125,0.21991148591041565,-0.303600013256073,0.18387043476104736
1788678783146123300,6.852123291015625,0.15821409225463867,-0.2174680233001709,0.27550023794174194
1788678783161992200,6.8679921875,0.24984388053417206,-0.29077184200286865,0.22602014243602753
1788678783177861400,6.883861328125,0.3090978264808655,-0.3139847218990326,0.09773843735456467
1788678783193730600,6.89973046875,0.35185837745666504,-0.2321287989616394,-0.02076941914856434
1788678783209660700,6.91566064453125,0.40194934606552124,-0.22052235901355743,-0.09651670604944229
1788678783225529900,6.93152978515625,0.3793473243713379,0.027488935738801956,-0.10323622822761536
1788678783241429500,6.947429443359375,0.3543018400669098,0.1411098688840866,-0.1007927656173706
1788678783257329200,6.9633291015625,0.303600013256073,0.22479841113090515,-0.11056660860776901
1788678783273198300,6.9791982421875,0.2583959996700287,0.25534167885780334,-0.22052235901355743
1788678783289159000,6.995158935546875,0.18997909128665924,0.08491026610136032,-0.5174028873443604
1788678783304997600,7.01099755859375,0.15943582355976105,-0.12950342893600464,-0.66584312915802
1788678783320866800,7.02686669921875,0.1973094791173935,-0.12828169763088226,-0.46303585171699524
1788678783336797000,7.042796875,0.27977627515792847,0.013439035043120384,-0.048258353024721146
1788678783352666000,7.058666015625,0.3878994286060333,0.17959438264369965,0.39584067463874817
1788678783368596200,7.07459619140625,0.4495968222618103,0.21624629199504852,0.53328537940979
1788678783384404500,7.090404541015625,0.4392121136188507,0.0806342139840126,0.3640756905078888
1788678783400243000,7.106242919921875,0.39706242084503174,-0.13011430203914642,0.059864792972803116
1788678783416142600,7.122142578125,0.3194825351238251,-0.38606682419776917,-0.2681698501110077
1788678783432011800,7.13801171875,0.21319197118282318,-0.5277875661849976,-0.40683624148368835
1788678783447911400,7.153911376953125,0.12522737681865692,-0.48197266459465027,-0.35552358627319336
1788678783463750100,7.169750244140625,0.11545353382825851,-0.32498031854629517,-0.192422553896904
1788678783479619300,7.185619384765625,0.1062905490398407,-0.1514945775270462,0.039095375686883926
1788678783495488300,7.20148828125,0.09407325088977814,-0.1007927656173706,0.18814650177955627
1788678783511357400,7.217357421875,0.05803219974040985,-0.1612684279680252,0.22357667982578278
1788678783527257000,7.233257080078125,0.022602014243602753,-0.26450464129447937,0.17959438264369965
1788678783543065300,7.2490654296875,0.012217304669320583,-0.28588494658470154,0.1160643994808197
1788678783558995500,7.264995361328125,0.019547687843441963,-0.19792033731937408,0.05497787147760391
1788678783574834200,7.280834228515625,0.012828170321881771,-0.1111774742603302,0.02015855349600315
1788678783590703000,7.296703125,-0.02076941914856434,-0.04459316283464432,-0.022602014243602753
1788678783606664000,7.312663818359375,-0.0708603709936142,0.01710422709584236,-0.06963863968849182
1788678783622502700,7.328502685546875,-0.1062905490398407,0.08857546001672745,-0.10690141469240189
1788678783638432800,7.344432861328125,-0.12034045159816742,0.08246681094169617,-0.07880161702632904
1788678783654302000,7.360302001953125,-0.14355333149433136,0.08918632566928864,0.013439035043120384
1788678783670201600,7.37620166015625,-0.19364428520202637,0.05192354694008827,0.10323622822761536
1788678783686223400,7.392223388671875,-0.2217440903186798,0.012217304669320583,0.1869247704744339
1788678783702061800,7.408061767578125,-0.2535090744495392,-0.0024434609804302454,0.23090706765651703
1788678783717961500,7.42396142578125,-0.2816088795661926,0.08796459436416626,0.23640485107898712
1788678783733800200,7.43980029296875,-0.2926044464111328,0.18020524084568024,0.25045475363731384
1788678783749699800,7.455699951171875,-0.26939156651496887,0.27611109614372253,0.3188716471195221
1788678783765660400,7.471660400390625,-0.30054569244384766,0.2919935882091522,0.3903428912162781
1788678783781499100,7.4874990234375,-0.4098905920982361,0.23273965716362,0.3182607889175415
1788678783797368300,7.503368408203125,-0.4612032473087311,0.14355333149433136,0.09651670604944229
1788678783813268000,7.51926806640625,-0.5088507533073425,0.05497787147760391,-0.26450464129447937
1788678783829137200,7.53513720703125,-0.5552765130996704,0.03298672288656235,-0.5778785347938538
1788678783845006000,7.551006103515625,-0.5436700582504272,-0.025656340643763542,-0.6243042945861816
1788678783860844800,7.5668447265625,-0.4960225820541382,-0.19853121042251587,-0.27061331272125244
1788678783876775000,7.58277490234375,-0.44165557622909546,-0.32131510972976685,0.23335053026676178
1788678783892705300,7.598705322265625,-0.3744603991508484,-0.2877175211906433,0.6640105247497559
1788678783908574200,7.61457421875,-0.3066543638706207,-0.11911872029304504,0.7171558141708374
1788678783924504600,7.630504638671875,-0.2382374405860901,0.07696902006864548,0.41111230850219727
1788678783940373800,7.646373779296875,-0.20952677726745605,0.19547687470912933,0.006108652334660292
1788678783956242700,7.66224267578125,-0.21807889640331268,0.2638937830924988,-0.3634648323059082
1788678783972142300,7.678142333984375,-0.22968533635139465,0.2577851414680481,-0.5180137157440186
1788678783988011500,7.694011474609375,-0.27000242471694946,0.16004669666290283,-0.5668829679489136
1788678784003911200,7.7099111328125,-0.27488934993743896,-0.003054326167330146,-0.4996877610683441
1788678784019810800,7.725810791015625,-0.2217440903186798,-0.2125810980796814,-0.27550023794174194
1788678784035710500,7.74171044921875,-0.12400564551353455,-0.28527405858039856,-0.03298672288656235
1788678784051610000,7.757610107421875,-0.048258353024721146,-0.26511552929878235,0.20097467303276062
1788678784067448800,7.77344873046875,-0.0354301854968071,-0.192422553896904,0.2889392673969269
1788678784083318000,7.789318115234375,-0.03787364438176155,-0.1875356286764145,0.2321287989616394
1788678784099156500,7.805156494140625,-0.03787364438176155,-0.22540926933288574,0.08796459436416626
1788678784115025700,7.821025634765625,-0.03481931984424591,-0.22663100063800812,-0.07024950534105301
1788678784130925300,7.83692529296875,-0.039095375686883926,-0.21135938167572021,-0.13866640627384186
1788678784146764000,7.852763916015625,-0.013439035043120384,-0.18448130786418915,-0.1313360333442688
1788678784162694100,7.868694091796875,0.04642575979232788,-0.14966198801994324,-0.06414084881544113
1788678784178563300,7.884563232421875,0.11178833991289139,-0.13072516024112701,0.04459316283464432
1788678784194463000,7.900462890625,0.15760323405265808,-0.1264491081237793,0.11239920556545258
1788678784210362600,7.916362548828125,0.19547687470912933,-0.1319468915462494,0.08185594528913498
1788678784226262300,7.93226220703125,0.24678955972194672,-0.07880161702632904,-0.0012217304902151227
1788678784242162000,7.948161865234375,0.3072652220726013,0.03420845419168472,-0.051312681287527084
1788678784258000600,7.964000732421875,0.3445279896259308,0.08185594528913498,-0.04459316283464432
1788678784273839000,7.979839111328125,0.3640756905078888,0.07941248267889023,-0.015271631069481373
1788678784297704000,8.003703857421876,0.39767327904701233,0.07024950534105301,0.12034045159816742
1788678784313512000,8.019511962890626,0.4056145250797272,0.08735372871160507,0.192422553896904
1788678784329411800,8.035411865234375,0.4092797040939331,0.08185594528913498,0.15393804013729095
1788678784345280800,8.05128076171875,0.42699480056762695,0.0012217304902151227,0.01771509274840355
1788678784361180400,8.067180419921876,0.44165557622909546,-0.16249015927314758,-0.20525072515010834
1788678784377019100,8.08301904296875,0.39767327904701233,-0.3017674386501312,-0.4239404797554016
1788678784400853200,8.106853271484376,0.2675589919090271,-0.39217549562454224,-0.3952298164367676
1788678784416692000,8.12269189453125,0.2816088795661926,-0.25045475363731384,0.10995574295520782
1788678784432591600,8.138591552734376,0.394618958234787,-0.18509216606616974,0.8704829812049866
1788678784448521700,8.154521728515626,0.4905247986316681,0.05925392732024193,1.0812314748764038
1788678784464421400,8.17042138671875,0.41661009192466736,0.18448130786418915,0.6688974499702454
1788678784480321000,8.186321044921876,0.3292563557624817,0.19914206862449646,0.0403171069920063
1788678784496159700,8.20215966796875,0.2938261926174164,-0.06902777403593063,-0.18570303916931152
1788678784512029000,8.21802880859375,0.26022860407829285,-0.29016098380088806,-0.22113321721553802
1788678784528783000,8.234783203125,0.2376265823841095,-0.2474004179239273,-0.2431243658065796
1788678784543858700,8.249858642578126,0.22968533635139465,-0.06352998316287994,-0.35246923565864563
1788678784559727900,8.265727783203126,0.21135938167572021,0.13255776464939117,-0.513737678527832
1788678784575566600,8.281566650390625,0.12278391420841217,0.2638937830924988,-0.5607742667198181
1788678784591435800,8.297435791015625,0.06230825558304787,0.2620611786842346,-0.3677408695220947
1788678784607304700,8.3133046875,0.09407325088977814,0.24862214922904968,-0.07880161702632904
1788678784623174000,8.329173828125,0.17470745742321014,0.19792033731937408,0.2168571650981903
1788678784639043000,8.34504296875,0.2480112910270691,0.04459316283464432,0.2724458873271942
1788678784654912300,8.360912353515625,0.2632829248905182,-0.16798794269561768,0.1417207419872284
1788678784670812000,8.37681201171875,0.22602014243602753,-0.18814650177955627,0
1788678784686681000,8.39268115234375,0.1270599663257599,-0.08857546001672745,-0.11911872029304504
1788678784702550300,8.40855029296875,0.019547687843441963,-0.013439035043120384,-0.13866640627384186
1788678784718480400,8.42448046875,-0.07208210229873657,-0.022602014243602753,-0.1215621829032898
1788678784734349600,8.440349609375,-0.12828169763088226,-0.1411098688840866,-0.09224065393209457
1788678784750218500,8.456218505859376,-0.15943582355976105,-0.21441370248794556,-0.0012217304902151227
1788678784774052900,8.480052978515625,-0.152105450630188,-0.03726277872920036,0.10690141469240189
1788678784789952500,8.495952392578126,-0.1466076523065567,0.1612684279680252,0.10751228034496307
1788678784805852200,8.51185205078125,-0.14844025671482086,0.26145032048225403,0.13316862285137177
1788678784821691000,8.52769091796875,-0.16737708449363708,0.24190263450145721,0.19914206862449646
1788678784837590500,8.543590576171875,-0.1966986060142517,0.11789698898792267,0.33169981837272644
1788678784853459500,8.55945947265625,-0.19364428520202637,0.04398229718208313,0.4899139404296875
1788678784869389800,8.575389892578125,-0.13500121235847473,0.05314527451992035,0.6603453159332275
1788678784885289500,8.59128955078125,-0.09834930300712585,0.08918632566928864,0.6884451508522034
1788678784901189000,8.607189208984375,-0.09040805697441101,0.07391469180583954,0.5088507533073425
1788678784917088800,8.6230888671875,-0.11484266817569733,0.013439035043120384,0.24617868661880493
1788678784932958000,8.6389580078125,-0.17104226350784302,0.06658431142568588,-0.1111774742603302
1788678784948796400,8.65479638671875,-0.20952677726745605,0.18020524084568024,-0.32131510972976685
1788678784964696000,8.670696044921876,-0.22418753802776337,0.14844025671482086,-0.2669481039047241
1788678784980534800,8.68653466796875,-0.25106561183929443,-0.06536258012056351,0.007941247895359993
1788678784996404000,8.702404052734375,-0.2626720666885376,-0.2877175211906433,0.33597588539123535
1788678785012242400,8.718242431640626,-0.22418753802776337,-0.3323107063770294,0.513737678527832
1788678785028111600,8.734111572265626,-0.20341812074184418,-0.25961771607398987,0.4948008358478546
1788678785043980800,8.749980712890626,-0.21930062770843506,-0.13744467496871948,0.2687807083129883
1788678785059880400,8.76588037109375,-0.2632829248905182,0.07941248267889023,-0.14844025671482086
1788678785075810600,8.781810546875,-0.3017674386501312,0.23396138846874237,-0.494189977645874
1788678785091649300,8.797649169921876,-0.32986724376678467,0.17287486791610718,-0.7269296646118164
1788678785107488000,8.813488037109375,-0.323147714138031,0.01710422709584236,-0.7440338730812073
1788678785123387600,8.8293876953125,-0.3182607889175415,-0.09834930300712585,-0.5766568183898926
1788678785139256600,8.845256591796876,-0.2987131178379059,-0.18020524084568024,-0.34636059403419495
1788678785155156200,8.86115625,-0.27488934993743896,-0.19303341209888458,-0.15271630883216858
1788678785170995000,8.876994873046876,-0.22907446324825287,-0.15027284622192383,-0.09834930300712585
1788678785186864000,8.892864013671876,-0.16554448008537292,-0.1258382350206375,-0.10934487730264664
1788678785202763800,8.908763671875,-0.16004669666290283,-0.11789698898792267,-0.17043140530586243
1788678785218663400,8.924663330078126,-0.1966986060142517,-0.09529497474431992,-0.27000242471694946
1788678785234563000,8.94056298828125,-0.24373523890972137,-0.07819075137376785,-0.342695415019989
1788678785250432300,8.956432373046875,-0.23579397797584534,-0.08429940044879913,-0.3341432809829712
1788678785266301400,8.972301513671875,-0.15943582355976105,-0.1765400618314743,-0.251676470041275
1788678785282201000,8.988201171875,-0.13805554807186127,-0.2431243658065796,-0.11423180252313614
1788678785298070300,9.0040703125,-0.12889257073402405,-0.2474004179239273,0.019547687843441963
1788678785314000400,9.02000048828125,-0.18997909128665924,-0.37079519033432007,0.08979719132184982
1788678785329869600,9.03586962890625,0.14049901068210602,-0.13927727937698364,0.0354301854968071
1788678785345708000,9.0517080078125,0.1973094791173935,0.3237585723400116,0.005497787147760391
1788678785361607700,9.067607666015626,0.23090706765651703,0.5424483418464661,-0.006108652334660292
1788678785377507300,9.08350732421875,0.2816088795661926,0.4129449129104614,-0.11972958594560623
1788678785393407000,9.099406982421876,0.23151792585849762,0.23518311977386475,-0.13439035415649414
1788678785409245700,9.11524560546875,0.1765400618314743,0.33536502718925476,0.09040805697441101
1788678785425084400,9.13108447265625,0.32559117674827576,0.4105014503002167,0.4746423065662384
1788678785440984000,9.146984130859375,0.48685958981513977,0.4196644127368927,0.7171558141708374
1788678785456853200,9.162853271484375,0.5381723046302795,0.039706241339445114,0.7550294399261475
1788678785472753000,9.1787529296875,0.5174028873443604,-0.46792277693748474,0.6285803318023682
1788678785488591400,9.19459130859375,0.3646865487098694,-0.9370672702789307,0.39584067463874817
1788678785504521500,9.210521484375,0.1007927656173706,-0.9108000993728638,0.2577851414680481
1788678785520451800,9.226451904296875,-0.07269296050071716,-0.3378084897994995,0.3066543638706207
1788678785536351500,9.2423515625,-0.00427605677396059,0.3176499307155609,0.4398229718208313
1788678785552281600,9.258281494140626,0.1722639948129654,0.788016140460968,0.5161811113357544
1788678785568150800,9.27415087890625,0.23335053026676178,0.6969972252845764,0.4141666293144226
1788678785584050400,9.290050537109375,0.2070833146572113,0.323147714138031,0.22602014243602753
1788678785599980500,9.30598046875,0.10323622822761536,-0.16310101747512817,0.003054326167330146
1788678785615819300,9.3218193359375,0.02076941914856434,-0.6133087277412415,-0.0861319974064827
1788678785631749400,9.337749267578126,-0.15577064454555511,-0.7562511563301086,-0.1313360333442688
1788678785647588000,9.353588134765625,-0.1618792861700058,-0.6676757335662842,-0.07757988572120667
1788678785663457000,9.36945703125,-0.10995574295520782,-0.22357667982578278,-0.03176499158143997
1788678785679356700,9.385356689453126,-0.04214970022439957,0.15943582355976105,-0.0757472887635231
1788678785695225900,9.401225830078126,0.030543262138962746,0.39645153284072876,-0.182648703455925
1788678785711125500,9.41712548828125,0.06719517707824707,0.46181413531303406,-0.242513507604599
1788678785726964200,9.432964111328126,0.1007927656173706,0.40256020426750183,-0.2431243658065796
1788678785742864000,9.44886376953125,0.11789698898792267,0.2730567753314972,-0.1918116807937622
1788678785758733000,9.464733154296875,0.07513642311096191,0.00855211354792118,-0.10018189996480942
1788678785774632700,9.4806328125,0.005497787147760391,-0.313373863697052,0.009773843921720982
1788678785790532400,9.496532470703125,-0.07819075137376785,-0.6059783101081848,0.1875356286764145
1788678785806371000,9.51237109375,-0.09712757170200348,-0.656069278717041,0.3237585723400116
1788678785822240000,9.528239990234376,-0.08796459436416626,-0.4239404797554016,0.3274237811565399
1788678785838109200,9.544109130859376,-0.06841690838336945,-0.29016098380088806,0.3549126982688904
1788678785854008800,9.5600087890625,-0.10812314599752426,-0.07330382615327835,0.29504790902137756
1788678785869908500,9.575908447265626,-0.12278391420841217,0.045204028487205505,0.21807889640331268
1788678785885777700,9.591777587890626,-0.19853121042251587,0.14233160018920898,0.05864306539297104
1788678785909642500,9.615642578125,-0.3995058834552765,0.1270599663257599,-0.1661553531885147
1788678785925481000,9.63148095703125,-0.47342056035995483,0.05925392732024193,-0.19303341209888458
1788678785941350100,9.64735009765625,-0.4141666293144226,0.09896016865968704,-0.05497787147760391
1788678785965184500,9.6711845703125,-0.0861319974064827,0.45875978469848633,0.3237585723400116
1788678785981084200,9.687084228515625,0.07330382615327835,0.6224716901779175,0.3897320330142975
1788678785996953300,9.702953369140625,0.08307767659425735,0.5876523852348328,0.17592918872833252
1788678786012853000,9.71885302734375,-0.04092797264456749,0.45265114307403564,-0.16554448008537292
1788678786028722000,9.734721923828126,-0.36224308609962463,0.1508837193250656,-0.5833762884140015
1788678786044560600,9.750560546875,-0.5962044596672058,-0.15577064454555511,-0.7385360598564148
1788678786060429800,9.766429931640625,-0.636521577835083,-0.2834414839744568,-0.5974262356758118
1788678786076329500,9.78232958984375,-0.513126790523529,-0.20525072515010834,-0.3023782968521118
1788678786092229000,9.79822900390625,-0.3066543638706207,0.09346238523721695,0.045204028487205505
1788678786116063200,9.822063232421876,-0.11484266817569733,0.3439171314239502,0.1459967941045761
1788678786131963000,9.837962890625,-0.10262536257505417,0.27550023794174194,-0.0507018156349659
1788678786147832000,9.85383203125,-0.09651670604944229,0.0757472887635231,-0.27611109614372253
1788678786163670800,9.8696708984375,-0.07941248267889023,-0.17959438264369965,-0.3854559659957886
1788678786179540000,9.8855400390625,-0.1062905490398407,-0.5112941861152649,-0.42210787534713745
1788678786195439600,9.901439697265625,-0.1722639948129654,-0.6731734871864319,-0.35246923565864563
1788678786211339300,9.91733935546875,-0.22296582162380219,-0.6969972252845764,-0.19486601650714874
1788678786227269400,9.933269287109376,-0.21991148591041565,-0.6053674817085266,-0.06780604273080826
1788678786243138600,9.949138671875,-0.19058994948863983,-0.40256020426750183,0.039095375686883926
1788678786258977300,9.964977294921875,-0.11850785464048386,-0.23579397797584534,0.06230825558304787
1788678786274877000,9.980876953125,0.02871066704392433,0.039706241339445114,-0.012828170321881771
1788678786290715400,9.99671533203125,0.1814269721508026,0.31459560990333557,-0.1472185254096985
1788678786306584600,10.01258447265625,0.35246923565864563,0.3646865487098694,-0.3738495409488678
1788678786322423300,10.02842333984375,0.3982841372489929,0.384845107793808,-0.504574716091156
1788678786338292200,10.044292236328126,0.3744603991508484,0.41722095012664795,-0.4392121136188507
1788678786354161400,10.060161376953126,0.22907446324825287,0.24190263450145721,-0.2791654169559479
1788678786370030600,10.076030517578126,0.02382374368607998,-0.19853121042251587,-0.036041051149368286
1788678786385930200,10.09193017578125,-0.1569923609495163,-0.665232241153717,0.12767083942890167
1788678786401769000,10.10776904296875,-0.30543261766433716,-1.2999212741851807,0.18570303916931152
1788678786417638100,10.12363818359375,-0.24434609711170197,-1.4312572479248047,0.1869247704744339
1788678786441441800,10.14744189453125,0.20525072515010834,-0.5595525503158569,0.37262779474258423
1788678786457341400,10.163341552734375,0.31459560990333557,-0.20891591906547546,0.3274237811565399
1788678786473241000,10.179240966796876,0.3695734739303589,-0.07635815441608429,0.2376265823841095
1788678786489110300,10.1951103515625,0.37568211555480957,0.19425514340400696,0.29138273000717163
1788678786505010000,10.211010009765625,0.394618958234787,0.4386012554168701,0.45753806829452515
1788678786520909600,10.22690966796875,0.47342056035995483,0.5797111392021179,0.6346889734268188
1788678786536778800,10.24277880859375,0.5094616413116455,0.4893030524253845,0.6511823534965515
1788678786552678400,10.258678466796875,0.5057964324951172,0.14049901068210602,0.48869219422340393
1788678786568578000,10.274578125,0.4746423065662384,-0.2724458873271942,0.25595253705978394
1788678786584447200,10.290447265625,0.3787364661693573,-0.6817256212234497,0.01466076634824276
1788678786600285700,10.30628564453125,0.27611109614372253,-0.6627888083457947,-0.01771509274840355
1788678786616124400,10.32212451171875,0.22663100063800812,-0.24923302233219147,0.14538592100143433
1788678786631993600,10.33799365234375,0.2541199326515198,0.1264491081237793,0.28038713335990906
1788678786647862500,10.353862548828126,0.2675589919090271,0.29077184200286865,0.2571742534637451
1788678786663762400,10.369762451171875,0.2217440903186798,0.24068090319633484,0.09285151958465576
1788678786679601000,10.385600830078126,0.13011430203914642,0.0806342139840126,-0.15821409225463867
1788678786695439600,10.401439697265625,0.04886921867728233,-0.13561208546161652,-0.35674530267715454
1788678786711339300,10.41733935546875,-0.01710422709584236,-0.2993239760398865,-0.4599815309047699
1788678786727208400,10.43320849609375,-0.03420845419168472,-0.3017674386501312,-0.43188172578811646
1788678786743108000,10.449108154296875,-0.031154127791523933,-0.17409659922122955,-0.34147366881370544
1788678786758977000,10.46497705078125,0,-0.02382374368607998,-0.26450464129447937
1788678786774846200,10.48084619140625,0.03726277872920036,0.1264491081237793,-0.2217440903186798
1788678786790715400,10.49671533203125,0.07269296050071716,0.17592918872833252,-0.20036379992961884
1788678786806584600,10.51258447265625,0.14905111491680145,0.2076941877603531,-0.13439035415649414
1788678786822514700,10.5285146484375,0.2376265823841095,0.18325957655906677,-0.029932396486401558
1788678786838353400,10.544353515625,0.2742784917354584,0.09957103431224823,0.08979719132184982
1788678786854253000,10.560253173828125,0.2528982162475586,-0.028099801391363144,0.22418753802776337
1788678786870152700,10.576152587890626,0.19486601650714874,-0.16065755486488342,0.31459560990333557
1788678786886022000,10.59202197265625,0.1264491081237793,-0.2565633952617645,0.4001167416572571
1788678786901921500,10.607921630859375,0.056810468435287476,-0.27000242471694946,0.4245513379573822
1788678786917821200,10.6238212890625,-0.01160643994808197,-0.2370157092809677,0.36590829491615295
1788678786933690400,10.6396904296875,-0.08124507963657379,-0.18081611394882202,0.2919935882091522
1788678786949590000,10.655590087890625,-0.1771509200334549,-0.12217304855585098,0.21135938167572021
1788678786965489700,10.67148974609375,-0.2736676335334778,-0.1319468915462494,0.15943582355976105
1788678786981358800,10.68735888671875,-0.4056145250797272,-0.24556782841682434,0.12522737681865692
1788678786997258500,10.703258544921875,-0.49235737323760986,-0.3341432809829712,0.13561208546161652
1788678787013158100,10.719158203125,-0.5021312236785889,-0.3390302062034607,0.18448130786418915
1788678787029027300,10.73502734375,-0.3683517575263977,-0.14416420459747314,0.23884831368923187
1788678787044896300,10.750896240234376,-0.13866640627384186,0.2370157092809677,0.27611109614372253
1788678787060826600,10.76682666015625,-0.03481931984424591,0.48258355259895325,0.24434609711170197
1788678787076665000,10.7826650390625,-0.06108652427792549,0.6334672570228577,0.11545353382825851
1788678787092564700,10.798564697265626,-0.251676470041275,0.513737678527832,-0.1014036312699318
1788678787108525600,10.814525634765625,-0.5613851547241211,0.11911872029304504,-0.41599923372268677
1788678787124394800,10.830394775390625,-0.6811147332191467,-0.11789698898792267,-0.5363397002220154
1788678787140294400,10.84629443359375,-0.6096435189247131,-0.056810468435287476,-0.4043927788734436
1788678787156132900,10.8621328125,-0.44776421785354614,0.20341812074184418,-0.16371189057826996
1788678787172002000,10.878001953125,-0.2791654169559479,0.49357911944389343,-0.019547687843441963
1788678787187871200,10.893871337890625,-0.11484266817569733,0.7116580009460449,-0.005497787147760391
1788678787203740400,10.909740478515625,-0.06658431142568588,0.6890559792518616,-0.1007927656173706
1788678787219670500,10.92567041015625,-0.07880161702632904,0.4764748811721802,-0.24617868661880493
1788678787235570200,10.941570068359376,-0.12828169763088226,0.15271630883216858,-0.34636059403419495
1788678787251439400,10.957439453125,-0.24556782841682434,-0.29565876722335815,-0.4031710624694824
1788678787267339000,10.973339111328125,-0.32559117674827576,-0.5864306092262268,-0.3695734739303589
1788678787283269000,10.98926904296875,-0.3744603991508484,-0.7006624341011047,-0.21502456068992615
1788678787299260400,11.005260498046875,-0.37690386176109314,-0.6450737118721008,-0.03848451003432274
1788678787315099000,11.021098876953126,-0.33475416898727417,-0.4294382631778717,0.14233160018920898
1788678787330968000,11.036968017578126,-0.25473082065582275,-0.19853121042251587,0.22113321721553802
1788678787346867700,11.05286767578125,-0.19486601650714874,-0.05375614017248154,0.21319197118282318
1788678787362767400,11.068767333984376,-0.16310101747512817,-0.00366519158706069,0.17104226350784302
1788678787378606000,11.084606201171875,-0.1215621829032898,0.001832595793530345,0.12767083942890167
1788678787394475300,11.100475341796875,-0.09773843735456467,-0.03848451003432274,0.11239920556545258
1788678787410344400,11.116344482421875,-0.10690141469240189,-0.15332718193531036,0.1215621829032898
1788678787426274600,11.132274658203125,-0.11911872029304504,-0.2767219543457031,0.14782938361167908
1788678787442113000,11.148113037109376,-0.07330382615327835,-0.28588494658470154,0.21074850857257843
1788678787458012700,11.1640126953125,-0.003054326167330146,-0.19486601650714874,0.2583959996700287
1788678787473851400,11.179851318359376,0.07208210229873657,-0.08246681094169617,0.25534167885780334
1788678787489751000,11.1957509765625,0.11667526513338089,-0.06169738993048668,0.19547687470912933
1788678787505589800,11.21158984375,0.14477506279945374,-0.10934487730264664,0.09346238523721695
1788678787521519900,11.227519775390626,0.16371189057826996,-0.20341812074184418,0.00427605677396059
1788678787537419500,11.24341943359375,0.1918116807937622,-0.28649580478668213,-0.022602014243602753
1788678787553288700,11.259288818359375,0.3029891550540924,-0.3384193480014801,0.003054326167330146
1788678787569158000,11.275157958984375,0.47708576917648315,-0.22907446324825287,0.09224065393209457
1788678787585027000,11.291027099609375,0.7238753437995911,0.07696902006864548,0.24617868661880493
1788678787600896000,11.30689599609375,0.7935139536857605,0.22846360504627228,0.31459560990333557
1788678787616826400,11.322826416015625,0.7360926270484924,0.20036379992961884,0.3017674386501312
1788678787632664800,11.338664794921876,0.6719517707824707,0.09407325088977814,0.2638937830924988
1788678787648534000,11.354533935546876,0.5473352670669556,-0.24190263450145721,0.1667662113904953
1788678787664433700,11.37043359375,0.42210787534713745,-0.5296201705932617,0.07880161702632904
1788678787680272400,11.3862724609375,0.3170390725135803,-0.5155702829360962,0.12034045159816742
1788678787696172000,11.402172119140625,0.30604347586631775,-0.2675589919090271,0.24923302233219147
1788678787712010500,11.418010498046876,0.35063666105270386,-0.03298672288656235,0.34513887763023376
1788678787727940900,11.43394091796875,0.3170390725135803,0.00427605677396059,0.2669481039047241
1788678787743840500,11.449840576171875,0.16493362188339233,-0.05009094998240471,0.02382374368607998
1788678787759740200,11.465740234375,-0.012217304669320583,-0.07452555745840073,-0.22479841113090515
1788678787775670300,11.481670166015626,-0.1472185254096985,-0.06352998316287994,-0.49296826124191284
1788678787791509000,11.497509033203125,-0.19120082259178162,0.02932153269648552,-0.6407976150512695
1788678787807378000,11.5133779296875,-0.1875356286764145,0.2028072625398636,-0.7428121566772461
1788678787823277600,11.529277587890626,-0.17898350954055786,0.2828305959701538,-0.7935139536857605
1788678787839116300,11.5451162109375,-0.14477506279945374,0.30115658044815063,-0.7489207983016968
1788678787855077000,11.5610771484375,-0.09896016865968704,0.27122417092323303,-0.5931501388549805
1788678787870976800,11.576976806640625,0.001832595793530345,0.2791654169559479,-0.32498031854629517
1788678787886876400,11.59287646484375,0.07269296050071716,0.26022860407829285,-0.07330382615327835
1788678787902745300,11.608745361328126,0.07819075137376785,0.12889257073402405,0.06291911751031876
1788678787918645200,11.624645263671875,0.07819075137376785,-0.11667526513338089,0.12767083942890167
1788678787934514200,11.64051416015625,0.09773843735456467,-0.3127630054950714,0.1667662113904953
1788678787950413800,11.656413818359376,0.11423180252313614,-0.403781920671463,0.24007004499435425
1788678787966313500,11.6723134765625,0.09651670604944229,-0.38606682419776917,0.2987131178379059
1788678787982182700,11.6881826171875,0.0555887371301651,-0.2938261926174164,0.34636059403419495
1788678787998051800,11.7040517578125,-0.015882495790719986,-0.22540926933288574,0.3744603991508484
1788678788014012700,11.7200126953125,-0.07208210229873657,-0.12889257073402405,0.43737950921058655
1788678788029851100,11.73585107421875,-0.11789698898792267,-0.05742133408784866,0.4948008358478546
1788678788045720300,11.75172021484375,-0.2321287989616394,-0.1111774742603302,0.45326200127601624
1788678788061620000,11.767619873046876,-0.4001167416572571,-0.29138273000717163,0.3274237811565399
1788678788077519600,11.78351953125,-0.5681046843528748,-0.455705463886261,0.15943582355976105
1788678788093449700,11.79944970703125,-0.5974262356758118,-0.46792277693748474,0.04337143152952194
1788678788109288400,11.815288330078126,-0.5094616413116455,-0.3292563557624817,-0.006108652334660292
1788678788125127200,11.831127197265625,-0.3738495409488678,-0.06536258012056351,0.036041051149368286
1788678788141057300,11.847057373046875,-0.21074850857257843,0.39095374941825867,0.11545353382825851
1788678788156926500,11.862926513671875,-0.1466076523065567,0.7489207983016968,0.07635815441608429
1788678788172856600,11.878856689453125,-0.19853121042251587,0.9437867999076843,-0.10201449692249298
1788678788188695300,11.8946953125,-0.30054569244384766,0.8717046976089478,-0.2376265823841095
1788678788204564200,11.910564208984376,-0.4147774875164032,0.4911356568336487,-0.34574973583221436
1788678788220463900,11.9264638671875,-0.46670106053352356,0.06230825558304787,-0.323147714138031
1788678788236363500,11.942363525390626,-0.46853363513946533,-0.3023782968521118,-0.13805554807186127
1788678788252324400,11.958324462890625,-0.4337143301963806,-0.3842342495918274,0.17837265133857727
1788678788268193500,11.974193603515625,-0.3597996234893799,-0.2583959996700287,0.4386012554168701
1788678788284062700,11.990062744140625,-0.22052235901355743,-0.02871066704392433,0.5815436840057373
1788678788299931600,12.005931640625,-0.1062905490398407,0.13316862285137177,0.4960225820541382
1788678788315831300,12.021831298828126,-0.02382374368607998,0.26022860407829285,0.21441370248794556
1788678788331761700,12.03776171875,0.003054326167330146,0.3017674386501312,-0.1007927656173706
1788678788347630600,12.053630615234376,-0.054367005825042725,0.16004669666290283,-0.4709770977497101
1788678788363530500,12.069530517578125,-0.16249015927314758,-0.09834930300712585,-0.6780604124069214
1788678788379430100,12.08543017578125,-0.2626720666885376,-0.34025195240974426,-0.675616979598999
1788678788395329800,12.101329833984375,-0.28466320037841797,-0.39706242084503174,-0.4740314185619354
1788678788411198700,12.11719873046875,-0.22418753802776337,-0.26939156651496887,-0.12400564551353455
1788678788427098400,12.133098388671876,-0.14905111491680145,-0.0806342139840126,0.1007927656173706
1788678788442967600,12.148967529296876,-0.1319468915462494,-0.03481931984424591,0.17104226350784302
1788678788458867200,12.1648671875,-0.15943582355976105,-0.10751228034496307,0.14355333149433136
1788678788474797600,12.180797607421875,-0.14233160018920898,-0.17592918872833252,0.10873401165008545
1788678788490727700,12.196727783203125,-0.12217304855585098,-0.21624629199504852,0.06169738993048668
1788678788506596900,12.212596923828125,-0.09651670604944229,-0.23029619455337524,-0.003054326167330146
1788678788522496500,12.22849658203125,-0.06658431142568588,-0.2070833146572113,-0.02871066704392433
1788678788538365700,12.24436572265625,-0.06414084881544113,-0.1563815027475357,-0.005497787147760391
1788678788554234600,12.260234619140626,-0.07391469180583954,-0.06902777403593063,0.05925392732024193
1788678788570226000,12.276225830078126,-0.05925392732024193,-0.021380282938480377,0.11484266817569733
1788678788586064600,12.292064697265625,-0.010995574295520782,-0.014049900695681572,0.1270599663257599
1788678788601933600,12.30793359375,0.029932396486401558,-0.05803219974040985,0.05742133408784866
1788678788617833500,12.32383349609375,0.060475658625364304,-0.18997909128665924,-0.07269296050071716
1788678788633702400,12.339702392578126,0.10690141469240189,-0.3225368559360504,-0.13011430203914642
1788678788649541000,12.355541015625,0.21807889640331268,-0.36590829491615295,-0.05619960278272629
1788678788665440800,12.371440673828126,0.33536502718925476,-0.28588494658470154,0.08857546001672745
1788678788681248800,12.387248779296876,0.4612032473087311,-0.12522737681865692,0.2932153046131134
1788678788697148400,12.4031484375,0.5534439086914062,0.0403171069920063,0.4434881806373596
1788678788713048300,12.41904833984375,0.5736024379730225,0.03298672288656235,0.45631635189056396
1788678788728978400,12.434978515625,0.5320636034011841,-0.09040805697441101,0.2932153046131134
1788678788744817000,12.45081689453125,0.35063666105270386,-0.4434881806373596,-0.0757472887635231
1788678788760686000,12.46668603515625,0.1667662113904953,-0.6664539575576782,-0.37568211555480957
1788678788776585700,12.482585693359376,0.04459316283464432,-0.5326744914054871,-0.43799036741256714
1788678788792455000,12.498454833984376,0.09468411654233932,-0.21624629199504852,-0.22907446324825287
1788678788808385000,12.514385009765626,0.30482175946235657,0.15332718193531036,0.13927727937698364
1788678788824223700,12.5302236328125,0.42577308416366577,0.29565876722335815,0.3439171314239502
1788678788840062500,12.5460625,0.37690386176109314,0.2064724564552307,0.3237585723400116
1788678788863866000,12.5698662109375,0.11667526513338089,-0.03848451003432274,-0.00855211354792118
1788678788879735300,12.5857353515625,-0.00366519158706069,-0.19303341209888458,-0.192422553896904
1788678788895635000,12.601635009765625,-0.04581489413976669,-0.28649580478668213,-0.27550023794174194
1788678788911534600,12.61753466796875,-0.042760565876960754,-0.26939156651496887,-0.2889392673969269
1788678788927403800,12.63340380859375,-0.02932153269648552,-0.19364428520202637,-0.29504790902137756
1788678788943272700,12.649272705078126,-0.02871066704392433,-0.07513642311096191,-0.31581732630729675
1788678788959142000,12.665141845703126,-0.0354301854968071,0.11850785464048386,-0.34086281061172485
1788678788975041500,12.68104150390625,-0.027488935738801956,0.27061331272125244,-0.3396410644054413
1788678788990910700,12.69691064453125,0.014049900695681572,0.36529740691185,-0.2919935882091522
1788678789006840800,12.7128408203125,0.07024950534105301,0.33475416898727417,-0.2223549485206604
1788678789022679600,12.728679443359376,0.09040805697441101,0.17776179313659668,-0.11239920556545258
1788678789038548700,12.744548828125,0.06536258012056351,-0.01771509274840355,-0.00855211354792118
1788678789054448400,12.760448486328125,-0.01038470957428217,-0.25961771607398987,0.09285151958465576
1788678789070317600,12.776317626953125,-0.0806342139840126,-0.4196644127368927,0.16493362188339233
1788678789086156000,12.792156005859376,-0.1160643994808197,-0.46364670991897583,0.23029619455337524
1788678789101994800,12.807994873046875,-0.10262536257505417,-0.3952298164367676,0.2626720666885376
1788678789117864000,12.823864013671875,-0.08307767659425735,-0.2223549485206604,0.26145032048225403
1788678789133763600,12.839763671875,-0.10018189996480942,-0.07208210229873657,0.24129177629947662
1788678789149632800,12.8556328125,-0.1661553531885147,-0.006108652334660292,0.22968533635139465
1788678789165532400,12.871532470703125,-0.26083946228027344,-0.01771509274840355,0.22540926933288574
1788678789181371000,12.887370849609376,-0.33108896017074585,-0.05009094998240471,0.192422553896904
1788678789197240000,12.903239990234376,-0.40133845806121826,-0.1362229436635971,0.10690141469240189
1788678789213139700,12.9191396484375,-0.403781920671463,-0.17531833052635193,0.06414084881544113
1788678789229009000,12.9350087890625,-0.3017674386501312,-0.11484266817569733,0.12522737681865692
1788678789244908500,12.950908447265626,-0.13439035415649414,0.04642575979232788,0.2272418737411499
1788678789260808200,12.96680810546875,-0.00427605677396059,0.2767219543457031,0.2724458873271942
1788678789276677400,12.982677490234375,0.0006108652451075613,0.4251621961593628,0.16493362188339233
1788678789300542200,13.006542236328125,-0.2638937830924988,0.31581732630729675,-0.23090706765651703
1788678789316411100,13.0224111328125,-0.5540547966957092,-0.0708603709936142,-0.5418374538421631
1788678789332280300,13.0382802734375,-0.6261368989944458,-0.3219259977340698,-0.6334672570228577
1788678789348149500,13.0541494140625,-0.5070181488990784,-0.32498031854629517,-0.4807509481906891
1788678789364049200,13.070049072265626,-0.37079519033432007,-0.17470745742321014,-0.2382374405860901
1788678789379948800,13.08594873046875,-0.2064724564552307,0.15821409225463867,0.04092797264456749
1788678789395818000,13.10181787109375,-0.1062905490398407,0.3341432809829712,0.13927727937698364
1788678789411748000,13.117748046875,-0.04703662544488907,0.30543261766433716,0.09529497474431992
1788678789427617300,13.1336171875,-0.045204028487205505,0.22907446324825287,0.01038470957428217
1788678789443517000,13.149516845703126,-0.1062905490398407,0.13072516024112701,-0.12217304855585098
1788678789459416600,13.16541650390625,-0.1814269721508026,-0.007941247895359993,-0.25045475363731384
1788678789475316200,13.181316162109376,-0.2480112910270691,-0.15454891324043274,-0.34758231043815613
1788678789491246300,13.197246337890626,-0.29016098380088806,-0.24862214922904968,-0.3640756905078888
1788678789507115500,13.213115478515626,-0.3536909818649292,-0.2938261926174164,-0.31581732630729675
1788678789522984700,13.228984619140626,-0.3799581825733185,-0.22663100063800812,-0.23090706765651703
1788678789538884400,13.24488427734375,-0.3341432809829712,-0.06291911751031876,-0.12217304855585098
1788678789554784000,13.260783935546876,-0.22540926933288574,0.11423180252313614,-0.06475171446800232
1788678789570653200,13.276653076171876,-0.11301007121801376,0.2223549485206604,-0.0659734457731247
1788678789586522400,13.2925224609375,-0.06902777403593063,0.14905111491680145,-0.08918632566928864
1788678789602452500,13.308452392578126,-0.025656340643763542,-0.045204028487205505,-0.015271631069481373
1788678789618291200,13.324291259765625,0.021991148591041565,-0.14477506279945374,0.14844025671482086
1788678789634190800,13.34019091796875,0.051312681287527084,-0.2028072625398636,0.3543018400669098
1788678789650090500,13.356090576171875,0.0354301854968071,-0.22602014243602753,0.43799036741256714
1788678789666020600,13.3720205078125,0.018325956538319588,-0.19425514340400696,0.42210787534713745
1788678789681981200,13.387981201171876,0.033597588539123535,-0.1362229436635971,0.3323107063770294
1788678789697850400,13.403850341796876,0.08674286305904388,-0.08307767659425735,0.21624629199504852
1788678789713719600,13.419719482421876,0.21807889640331268,0.02932153269648552,0.07696902006864548
1788678789729619200,13.435619140625,0.3292563557624817,0.08735372871160507,-0.018325956538319588
1788678789745488400,13.45148828125,0.3836233615875244,0.05009094998240471,-0.06963863968849182
1788678789761357600,13.467357666015625,0.37262779474258423,-0.05864306539297104,-0.03481931984424591
1788678789777257200,13.48325732421875,0.3744603991508484,-0.17776179313659668,0.08429940044879913
1788678789793156900,13.499156982421875,0.42271876335144043,-0.16493362188339233,0.22846360504627228
1788678789809056500,13.515056396484376,0.5088507533073425,-0.08002334833145142,0.35674530267715454
1788678789824956200,13.5309560546875,0.5210680365562439,-0.033597588539123535,0.34636059403419495
1788678789840916700,13.546916748046876,0.5051855444908142,0.0507018156349659,0.2076941877603531
1788678789856755500,13.56275537109375,0.44837507605552673,0.018936822190880775,0.001832595793530345
1788678789872655000,13.578655029296876,0.26572638750076294,-0.2919935882091522,-0.303600013256073
1788678789888524300,13.594524169921876,0.12461651116609573,-0.5143485069274902,-0.44837507605552673
1788678789904393500,13.6103935546875,0.10018189996480942,-0.3903428912162781,-0.35246923565864563
1788678789920293000,13.626293212890625,0.18814650177955627,-0.04581489413976669,-0.08246681094169617
1788678789936131600,13.642131591796876,0.31154128909111023,0.4349360466003418,0.19364428520202637
1788678789952000800,13.658000732421876,0.3378084897994995,0.6359107494354248,0.2620611786842346
1788678789967900400,13.673900390625,0.29626965522766113,0.6151412725448608,0.1966986060142517
1788678789983739100,13.6897392578125,0.25473082065582275,0.4105014503002167,0.10262536257505417
1788678789999669200,13.705669189453126,0.21441370248794556,0.018936822190880775,0.005497787147760391
1788678790015508000,13.721508056640625,0.19486601650714874,-0.2883284091949463,-0.05375614017248154
1788678790031443500,13.737443359375,0.17409659922122955,-0.394008070230484,-0.11545353382825851
1788678790047312600,13.753312744140626,0.10445795953273773,-0.34086281061172485,-0.18387043476104736
1788678790063181800,13.769181884765626,0.07269296050071716,-0.19608774781227112,-0.21930062770843506
1788678790079112000,13.78511181640625,0.10323622822761536,-0.010995574295520782,-0.24129177629947662
1788678790094950400,13.800950439453125,0.13805554807186127,0.0708603709936142,-0.27611109614372253
1788678790110850300,13.816850341796876,0.152105450630188,0.00733038317412138,-0.3017674386501312
1788678790126750000,13.83275,0.14844025671482086,-0.10201449692249298,-0.2638937830924988
1788678790142771500,13.848771484375,0.1258382350206375,-0.23884831368923187,-0.12950342893600464
1788678790158671000,13.864671142578125,0.12278391420841217,-0.3188716471195221,0.012828170321881771
1788678790174509800,13.880509765625,0.11484266817569733,-0.27977627515792847,0.1411098688840866
1788678790190409500,13.896409423828125,0.09407325088977814,-0.19425514340400696,0.1466076523065567
1788678790206370300,13.912370361328126,0.03848451003432274,-0.13988813757896423,0.024434609338641167
1788678790222239200,13.9282392578125,-0.04642575979232788,-0.13072516024112701,-0.08246681094169617
1788678790238108400,13.9441083984375,-0.11789698898792267,-0.11484266817569733,-0.152105450630188
1788678790253977600,13.9599775390625,-0.13805554807186127,-0.0659734457731247,-0.15332718193531036
1788678790269907700,13.97590771484375,-0.13377949595451355,-0.030543262138962746,-0.07024950534105301
1788678790285777000,13.99177685546875,-0.11972958594560623,-0.00733038317412138,0.09285151958465576
1788678790301646000,14.00764599609375,-0.17104226350784302,-0.036041051149368286,0.1918116807937622
1788678790317545700,14.023545654296875,-0.2828305959701538,-0.19058994948863983,0.18814650177955627
1788678790333384400,14.039384521484376,-0.34574973583221436,-0.31642818450927734,0.1569923609495163
1788678790349253600,14.055253662109376,-0.3176499307155609,-0.37690386176109314,0.14294247329235077
1788678790365153300,14.0711533203125,-0.20036379992961884,-0.26633724570274353,0.17898350954055786
1788678790381022200,14.087022216796875,-0.021380282938480377,0.04642575979232788,0.23518311977386475
1788678790396861000,14.10286083984375,0.021380282938480377,0.29626965522766113,0.21380282938480377
1788678790412760600,14.118760498046875,-0.05803219974040985,0.4593706727027893,0.12278391420841217
1788678790428660200,14.13466015625,-0.24678955972194672,0.3982841372489929,-0.03848451003432274
1788678790444560000,14.150559814453125,-0.5742133259773254,0.018325956538319588,-0.3585779070854187
1788678790460429000,14.166428955078125,-0.7348709106445312,-0.294437050819397,-0.5638286471366882
1788678790476328700,14.18232861328125,-0.7171558141708374,-0.33719760179519653,-0.5839871764183044
1788678790492167400,14.19816748046875,-0.5650503635406494,-0.14844025671482086,-0.4550946056842804
1788678790508036400,14.214036376953125,-0.3396410644054413,0.14233160018920898,-0.19792033731937408
1788678790523936000,14.22993603515625,-0.17470745742321014,0.2773328125476837,0.0024434609804302454
1788678790539805200,14.24580517578125,-0.02321287989616394,0.27977627515792847,0.16310101747512817
1788678790555735600,14.261735595703126,0.08429940044879913,0.251676470041275,0.2528982162475586
1788678790571604500,14.2776044921875,0.1215621829032898,0.19058994948863983,0.29016098380088806
1788678790587473700,14.2934736328125,0.07330382615327835,0.12278391420841217,0.2590068578720093
1788678790603373300,14.309373291015625,-0.03176499158143997,0.01466076634824276,0.1569923609495163
1788678790619273000,14.32527294921875,-0.1111774742603302,-0.12217304855585098,0.03298672288656235
1788678790635203300,14.341203369140626,-0.1466076523065567,-0.13072516024112701,-0.07330382615327835
1788678790651041800,14.357041748046875,-0.12034045159816742,0.022602014243602753,-0.10262536257505417
1788678790666911000,14.372910888671875,-0.05864306539297104,0.17348572611808777,-0.07819075137376785
1788678790682810600,14.388810546875,0.02321287989616394,0.28099802136421204,0.00855211354792118
1788678790698710300,14.404710205078125,0.03298672288656235,0.2834414839744568,0.08918632566928864
1788678790714640400,14.420640380859375,-0.006719517521560192,0.13927727937698364,0.13927727937698364
1788678790730448600,14.43644873046875,-0.051312681287527084,-0.04581489413976669,0.1612684279680252
1788678790746317800,14.45231787109375,-0.06536258012056351,-0.23090706765651703,0.19364428520202637
1788678790762217500,14.468217529296876,-0.04948008432984352,-0.30115658044815063,0.22418753802776337
1788678790778117000,14.4841171875,-0.02382374368607998,-0.2993239760398865,0.2217440903186798
1788678790794047200,14.500047119140625,0.00733038317412138,-0.22968533635139465,0.1814269721508026
1788678790809916400,14.51591650390625,0.027488935738801956,-0.1258382350206375,0.09957103431224823
1788678790825785600,14.53178564453125,0.04214970022439957,-0.06108652427792549,0.06658431142568588
1788678790841685200,14.547685302734376,0.06169738993048668,0.031154127791523933,0.08429940044879913
1788678790857585000,14.5635849609375,0.05314527451992035,0.04703662544488907,0.06108652427792549
1788678790881419000,14.5874189453125,0.05253441259264946,-0.04642575979232788,-0.014049900695681572
1788678790897288200,14.6032880859375,0.11972958594560623,-0.12828169763088226,0.024434609338641167
1788678790913187800,14.619187744140625,0.22663100063800812,-0.14782938361167908,0.1215621829032898
1788678790929087500,14.63508740234375,0.39645153284072876,-0.039095375686883926,0.2632829248905182
1788678790944987100,14.650987060546875,0.46242499351501465,0.048258353024721146,0.294437050819397
1788678790968790800,14.674790771484375,0.37201693654060364,0.15943582355976105,0.09712757170200348
1788678790984690400,14.6906904296875,0.19303341209888458,0.07330382615327835,-0.13561208546161652
1788678791000559600,14.7065595703125,-0.03176499158143997,-0.2571742534637451,-0.4050036668777466
1788678791016428800,14.7224287109375,-0.11911872029304504,-0.45875978469848633,-0.4434881806373596
1788678791032328400,14.738328369140625,-0.04459316283464432,-0.42149701714515686,-0.23518311977386475
1788678791048197600,14.75419775390625,0.182648703455925,-0.14477506279945374,0.1264491081237793
1788678791064066800,14.77006689453125,0.34025195240974426,0.08857546001672745,0.32620203495025635
1788678791079966500,14.785966552734376,0.3927863538265228,0.1160643994808197,0.30604347586631775
1788678791095835600,14.801835693359376,0.342695415019989,-0.0012217304902151227,0.15760323405265808
1788678791111704600,14.81770458984375,0.24068090319633484,-0.16249015927314758,-0.04764748737215996
1788678791127543300,14.833543212890625,0.15821409225463867,-0.294437050819397,-0.2125810980796814
1788678791143412500,14.84941259765625,0.07819075137376785,-0.2773328125476837,-0.37568211555480957
1788678791159312100,14.86531201171875,0.015882495790719986,-0.16004669666290283,-0.5241223573684692
1788678791175181300,14.881181396484376,0.006719517521560192,-0.018325956538319588,-0.6688974499702454
1788678791191050500,14.897050537109376,0.03726277872920036,0.04764748737215996,-0.6969972252845764
1788678791214884600,14.920884521484375,0.09834930300712585,0.05864306539297104,-0.4795292317867279
1788678791230814700,14.936814697265625,0.13439035415649414,0.0006108652451075613,-0.2321287989616394
1788678791246653400,14.9526533203125,0.12339477986097336,-0.051312681287527084,-0.06230825558304787
1788678791262553000,14.968552978515625,0.09040805697441101,-0.10995574295520782,0.0507018156349659
1788678791278452700,14.98445263671875,0.05864306539297104,-0.14966198801994324,0.05803219974040985
1788678791294322000,15.000322021484376,0.039706241339445114,-0.17409659922122955,-0.001832595793530345
1788678791310282500,15.016282470703125,0.02687807008624077,-0.1514945775270462,-0.06780604273080826
1788678791350016500,15.0560166015625,0.006108652334660292,-0.1466076523065567,-0.05742133408784866
1788678791365855000,15.07185498046875,-0.030543262138962746,-0.1411098688840866,0.025656340643763542
1788678791381754600,15.087754638671875,-0.09957103431224823,-0.09224065393209457,0.11239920556545258
1788678791397685000,15.10368505859375,-0.1612684279680252,-0.04398229718208313,0.15577064454555511
1788678791413523500,15.1195234375,-0.20341812074184418,0.02932153269648552,0.13561208546161652
1788678791429423000,15.135423095703125,-0.2272418737411499,0.09285151958465576,0.06169738993048668
1788678791445322800,15.15132275390625,-0.26022860407829285,0.06169738993048668,-0.05742133408784866
1788678791461192000,15.16719189453125,-0.2632829248905182,-0.02626720629632473,-0.12095131725072861
1788678791477061000,15.18306103515625,-0.1869247704744339,-0.006719517521560192,-0.05375614017248154
1788678791492960800,15.198960693359375,-0.12278391420841217,0.13011430203914642,0.029932396486401558
1788678791508830000,15.214829833984375,-0.16004669666290283,0.26450464129447937,0.04153883829712868
1788678791524729600,15.2307294921875,-0.30482175946235657,0.4343251883983612,-0.015882495790719986
1788678791540568300,15.246568359375,-0.5748242139816284,0.4306600093841553,-0.20097467303276062
1788678791556468000,15.262468017578126,-0.8038986921310425,0.11239920556545258,-0.40744712948799133
1788678791572306400,15.278306396484375,-0.8124507665634155,-0.24068090319633484,-0.5522221922874451
1788678791588236500,15.294236572265625,-0.6243042945861816,-0.3836233615875244,-0.47830748558044434
1788678791604044800,15.310044921875,-0.2687807083129883,-0.3439171314239502,-0.19975294172763824
1788678791619914000,15.3259140625,-0.010995574295520782,-0.10567969083786011,0.1111774742603302
1788678791635813600,15.341813720703126,0.16798794269561768,0.2535090744495392,0.39584067463874817
1788678791651682800,15.357682861328126,0.22907446324825287,0.40194934606552124,0.4703662395477295
1788678791667582500,15.37358251953125,0.15027284622192383,0.34147366881370544,0.37690386176109314
1788678791683390500,15.389390380859375,0,0.13805554807186127,0.2015855312347412
1788678791699290000,15.4052900390625,-0.1368338167667389,-0.15821409225463867,-0.033597588539123535
1788678791715189800,15.421189697265625,-0.21135938167572021,-0.43799036741256714,-0.192422553896904
1788678791731028500,15.437028564453126,-0.2767219543457031,-0.6676757335662842,-0.2773328125476837
1788678791746958600,15.45295849609375,-0.24129177629947662,-0.6346889734268188,-0.2370157092809677
1788678791762797300,15.46879736328125,-0.11178833991289139,-0.3530801236629486,-0.09407325088977814
1788678791778697000,15.484697021484376,0.031154127791523933,0.00366519158706069,0.05864306539297104
1788678791794566000,15.50056591796875,0.11178833991289139,0.22846360504627228,0.13011430203914642
1788678791810435000,15.51643505859375,0.14538592100143433,0.2974913716316223,0.1258382350206375
1788678791826396000,15.53239599609375,0.1667662113904953,0.23518311977386475,0.07757988572120667
1788678791842234400,15.548234375,0.18631389737129211,0.10323622822761536,0.02015855349600315
1788678791858134000,15.564134033203125,0.18081611394882202,-0.014049900695681572,-0.005497787147760391
1788678791874003200,15.580003173828125,0.1563815027475357,-0.11728613078594208,0.009773843921720982
1788678791889902800,15.59590283203125,0.13866640627384186,-0.16798794269561768,0.06780604273080826
1788678791905833200,15.611833251953126,0.13927727937698364,-0.2168571650981903,0.15882496535778046
1788678791921702100,15.6277021484375,0.1618792861700058,-0.23273965716362,0.23090706765651703
1788678791937601800,15.643601806640625,0.17898350954055786,-0.1661553531885147,0.2565633952617645
1788678791953501400,15.65950146484375,0.18325957655906677,-0.05619960278272629,0.182648703455925
1788678791969431800,15.675431884765626,0.18814650177955627,0.021380282938480377,0.02321287989616394
1788678791985362000,15.69136181640625,0.19547687470912933,0.04886921867728233,-0.07330382615327835
1788678792001231000,15.707231201171876,0.22052235901355743,0.06963863968849182,-0.09285151958465576
1788678792017100300,15.723100341796876,0.25045475363731384,0.07819075137376785,-0.04459316283464432
1788678792033060900,15.739060791015625,0.2840523421764374,0.09468411654233932,0.056810468435287476
1788678792048991000,15.754990966796875,0.35674530267715454,0.16065755486488342,0.17470745742321014
1788678792064890600,15.770890625,0.40622538328170776,0.21807889640331268,0.25595253705978394
1788678792080790300,15.786790283203125,0.3585779070854187,0.23273965716362,0.24373523890972137
1788678792096629000,15.80262890625,0.3072652220726013,0.30970868468284607,0.1459967941045761
1788678792112559000,15.81855908203125,0.16004669666290283,0.34574973583221436,-0.04948008432984352
1788678792128397800,15.834397705078125,-0.010995574295520782,-0.02382374368607998,-0.07391469180583954
1788678792144267000,15.85026708984375,0.07208210229873657,-0.645684540271759,-0.19058994948863983
1788678792160166700,15.866166748046876,0.19364428520202637,-0.4966334402561188,-0.17470745742321014
1788678792176035800,15.882035888671876,0.2571742534637451,-0.11056660860776901,-0.14294247329235077
1788678792191935500,15.897935546875,0.31581732630729675,0.26572638750076294,-0.009773843921720982
1788678792207835100,15.913835205078126,0.3023782968521118,0.23090706765651703,0.13255776464939117
1788678792223857000,15.92985693359375,0.21563543379306793,-0.152105450630188,0.16371189057826996
1788678792239695400,15.9456953125,0.11362093687057495,-0.4917465150356293,0.16798794269561768
1788678792255564500,15.961564453125,0.039706241339445114,-0.6304129362106323,0.09957103431224823
1788678792271464200,15.977464111328125,-0.016493361443281174,-0.5992587804794312,-0.0757472887635231
1788678792287333400,15.99333349609375,-0.039706241339445114,-0.36102136969566345,-0.2431243658065796
1788678792303202600,16.00920263671875,-0.018936822190880775,0.006719517521560192,-0.4080579876899719
1788678792319102200,16.025102294921876,-0.001832595793530345,0.2064724564552307,-0.48808133602142334
1788678792335001900,16.041001953125,-0.01466076634824276,0.26511552929878235,-0.4893030524253845
1788678792350840300,16.05684033203125,-0.024434609338641167,0.23640485107898712,-0.4098905920982361
1788678792366740000,16.072739990234375,-0.02015855349600315,0.12278391420841217,-0.2565633952617645
1788678792382700800,16.08870068359375,0,0.018325956538319588,-0.10873401165008545
1788678792398570000,16.104570068359376,-0.00366519158706069,-0.07941248267889023,0.039706241339445114
1788678792414439200,16.120439208984376,-0.025045474991202354,-0.14905111491680145,0.11484266817569733
1788678792430338800,16.1363388671875,-0.06902777403593063,-0.18448130786418915,0.11301007121801376
1788678792446207700,16.152207763671875,-0.10323622822761536,-0.1612684279680252,0.07208210229873657
1788678792462046500,16.16804638671875,-0.10262536257505417,-0.10567969083786011,0.05925392732024193
1788678792477885200,16.18388525390625,-0.10690141469240189,-0.0659734457731247,0.0910189226269722
1788678792493784800,16.199784912109376,-0.13744467496871948,-0.07635815441608429,0.15393804013729095
1788678792509684500,16.2156845703125,-0.20402899384498596,-0.14538592100143433,0.24373523890972137
1788678792525584100,16.231584228515626,-0.2816088795661926,-0.2028072625398636,0.30054569244384766
1788678792541514200,16.24751416015625,-0.34758231043815613,-0.1722639948129654,0.3084869384765625
1788678792557383400,16.263383544921876,-0.36590829491615295,-0.10323622822761536,0.24862214922904968
1788678792573313500,16.2793134765625,-0.33108896017074585,0.027488935738801956,0.17470745742321014
1788678792589182700,16.2951826171875,-0.21502456068992615,0.1875356286764145,0.16554448008537292
1788678792605052000,16.311052001953126,-0.025656340643763542,0.4105014503002167,0.22602014243602753
1788678792621012500,16.327012451171875,0.0555887371301651,0.5393940210342407,0.22663100063800812
1788678792636851200,16.342851318359376,-0.06108652427792549,0.5424483418464661,0.06780604273080826
1788678792652750800,16.358750732421875,-0.36529740691185,0.3194825351238251,-0.21319197118282318
1788678792668650500,16.374650390625,-0.7837401032447815,-0.19975294172763824,-0.6053674817085266
1788678792684550100,16.390550048828125,-0.9248499870300293,-0.44593164324760437,-0.8057312369346619
1788678792700480300,16.406480224609375,-0.8136724829673767,-0.36651915311813354,-0.8148942589759827
1788678792716380000,16.4223798828125,-0.6230825781822205,-0.07452555745840073,-0.6927211880683899
1788678792732218600,16.438218505859375,-0.39706242084503174,0.32070425152778625,-0.4612032473087311
1788678792748118300,16.4541181640625,-0.19792033731937408,0.5277875661849976,-0.20097467303276062
1788678792763987500,16.469987548828126,-0.05925392732024193,0.4660901725292206,-0.028099801391363144
1788678792779887000,16.48588720703125,0.012828170321881771,0.1472185254096985,0.0861319974064827
1788678792795756300,16.50175634765625,-0.012828170321881771,-0.14049901068210602,0.12034045159816742
1788678792811656000,16.517656005859376,-0.14782938361167908,-0.39706242084503174,0.06291911751031876
1788678792827555600,16.5335556640625,-0.29993483424186707,-0.5528330206871033,-0.07330382615327835
1788678792843455200,16.549455322265626,-0.42638394236564636,-0.5833762884140015,-0.22602014243602753
1788678792859385300,16.56538525390625,-0.4746423065662384,-0.4905247986316681,-0.3066543638706207
1788678792875224000,16.58122412109375,-0.42577308416366577,-0.3585779070854187,-0.2993239760398865
1788678792891123700,16.597123779296876,-0.27061331272125244,-0.2076941877603531,-0.15393804013729095
1788678792906962200,16.612962158203125,-0.036651913076639175,0.03298672288656235,0.12767083942890167
1788678792922831400,16.628831298828125,0.06291911751031876,0.1918116807937622,0.30543261766433716
1788678792938761500,16.644761474609375,0.06414084881544113,0.21502456068992615,0.3481931984424591
1788678792954600200,16.66060009765625,-0.00427605677396059,0.14416420459747314,0.30604347586631775
1788678792970469400,16.676469482421876,-0.06291911751031876,-0.0403171069920063,0.22907446324825287
1788678792986369000,16.692369140625,-0.07391469180583954,-0.2620611786842346,0.16982053220272064
1788678793002299100,16.708299072265625,-0.04948008432984352,-0.3695734739303589,0.15882496535778046
1788678793018229200,16.724229248046875,-0.01038470957428217,-0.37690386176109314,0.22052235901355743
1788678793034068000,16.74006787109375,0.039706241339445114,-0.2938261926174164,0.37140607833862305
1788678793049937200,16.755937255859376,0.08307767659425735,-0.16859880089759827,0.513126790523529
1788678793065836800,16.7718369140625,0.13439035415649414,-0.02687807008624077,0.578489363193512
1788678793081706000,16.7877060546875,0.13072516024112701,-0.015882495790719986,0.5161811113357544
1788678793097575000,16.803574951171875,0.17470745742321014,-0.0708603709936142,0.38667771220207214
1788678793113474800,16.819474853515626,0.2272418737411499,-0.12400564551353455,0.31093040108680725
1788678793129374500,16.83537451171875,0.2779437005519867,-0.15027284622192383,0.32131510972976685
1788678793145335000,16.8513349609375,0.4251621961593628,0.02626720629632473,0.4502076804637909
1788678793161234700,16.867234619140625,0.5968153476715088,0.28466320037841797,0.5791002511978149
1788678793177195500,16.883195556640626,0.6414085030555725,0.40622538328170776,0.5705481171607971
1788678793193034000,16.899033935546875,0.5283984541893005,0.2669481039047241,0.40683624148368835
1788678793208903200,16.914903076171875,0.251676470041275,-0.22663100063800812,0.013439035043120384
1788678793224772400,16.9307724609375,-0.042760565876960754,-0.7195992469787598,-0.3695734739303589
1788678793240641500,16.9466416015625,-0.20036379992961884,-0.8014551997184753,-0.5271766781806946
1788678793256541200,16.962541259765626,-0.07391469180583954,-0.45326200127601624,-0.3689626157283783
1788678793272440800,16.97844091796875,0.2718350291252136,0.0354301854968071,-0.007941247895359993
1788678793288279300,16.994279296875,0.5210680365562439,0.1966986060142517,0.20036379992961884
1788678793304148500,17.0101484375,0.6615670323371887,0.44654250144958496,0.17776179313659668
1788678793320017700,17.026017578125,0.6200281977653503,0.7476990818977356,-0.03176499158143997
1788678793335917300,17.041917236328125,0.44287729263305664,0.5155702829360962,-0.26511552929878235
1788678793351756000,17.057756103515626,0.42210787534713745,0.23518311977386475,-0.2767219543457031
1788678793367655700,17.07365576171875,0.4098905920982361,-0.03848451003432274,-0.19120082259178162
1788678793383555300,17.089555419921876,0.33047810196876526,-0.09040805697441101,-0.19364428520202637
1788678793399424500,17.105424560546876,0.20036379992961884,-0.03237585723400116,-0.304210901260376
1788678793415324200,17.12132421875,0.08185594528913498,0.04092797264456749,-0.43799036741256714
1788678793431223800,17.137223876953126,0.10751228034496307,0.1612684279680252,-0.5522221922874451
1788678793447092700,17.1530927734375,0.34025195240974426,0.38117989897727966,-0.3854559659957886
1788678793462962000,17.1689619140625,0.413555771112442,0.4153883755207062,-0.1618792861700058
1788678793478831000,17.1848310546875,0.3897320330142975,0.31642818450927734,0.16432274878025055
1788678793494730800,17.200730712890625,0.31642818450927734,0.1466076523065567,0.35735616087913513
1788678793510569500,17.216569580078126,0.23335053026676178,-0.12034045159816742,0.40744712948799133
1788678793526438700,17.232438720703126,0.1411098688840866,-0.394618958234787,0.304210901260376
1788678793542368800,17.24836865234375,0.05497787147760391,-0.6114761233329773,0.13744467496871948
1788678793558207500,17.26420751953125,-0.016493361443281174,-0.6542366743087769,0.001832595793530345
1788678793574107100,17.280107177734376,-0.06291911751031876,-0.41172316670417786,-0.13255776464939117
1788678793589945600,17.295945556640625,-0.06414084881544113,-0.00366519158706069,-0.15271630883216858
1788678793605875700,17.311875732421875,-0.11239920556545258,0.2724458873271942,-0.07696902006864548
1788678793621806000,17.32780615234375,-0.1612684279680252,0.37568211555480957,0.010995574295520782
1788678793637705700,17.343705810546876,-0.20341812074184418,0.41172316670417786,0.11056660860776901
1788678793653635800,17.3596357421875,-0.2376265823841095,0.28099802136421204,0.11484266817569733
1788678793669505000,17.375505126953126,-0.2321287989616394,0.12522737681865692,0.09407325088977814
1788678793685435100,17.39143505859375,-0.17348572611808777,0.12461651116609573,0.20463985204696655
1788678793701365200,17.407365234375,-0.13011430203914642,0.07696902006864548,0.394618958234787
1788678793717265000,17.423264892578125,-0.1563815027475357,0.054367005825042725,0.4080579876899719
1788678793733164500,17.43916455078125,-0.2535090744495392,0.04153883829712868,0.2064724564552307
1788678793749033700,17.45503369140625,-0.3891211748123169,0.009162978269159794,-0.15332718193531036
1788678793764903000,17.47090283203125,-0.5064072608947754,0.09773843735456467,-0.6811147332191467
1788678793780833000,17.4868330078125,-0.46792277693748474,0.2889392673969269,-0.9254608750343323
1788678793796763400,17.502763427734376,-0.39706242084503174,0.2993239760398865,-0.7244861721992493
1788678793812663000,17.5186630859375,-0.3188716471195221,0.14966198801994324,-0.17043140530586243
1788678793828562700,17.534562744140626,-0.25106561183929443,-0.08368854224681854,0.2620611786842346
1788678793844431600,17.550431640625,-0.20463985204696655,-0.3585779070854187,0.4593706727027893
1788678793860331300,17.566331298828125,-0.16432274878025055,-0.47219884395599365,0.33475416898727417
1788678793876231200,17.582231201171876,-0.1215621829032898,-0.304210901260376,0.013439035043120384
1788678793892191700,17.598191650390625,-0.12034045159816742,-0.04581489413976669,-0.2932153046131134
1788678793908061000,17.61406103515625,-0.16004669666290283,0.1264491081237793,-0.5791002511978149
1788678793923991000,17.629990966796875,-0.19425514340400696,0.07391469180583954,-0.6811147332191467
1788678793939921200,17.645921142578125,-0.21502456068992615,-0.18814650177955627,-0.6188064813613892
1788678793955851500,17.6618515625,-0.16432274878025055,-0.30115658044815063,-0.40683624148368835
1788678793971781600,17.67778173828125,-0.054367005825042725,-0.23273965716362,-0.06841690838336945
1788678793987589600,17.693589599609375,0.036651913076639175,-0.13255776464939117,0.17837265133857727
1788678794003458800,17.709458740234375,0.06780604273080826,-0.006108652334660292,0.28466320037841797
1788678794019358500,17.7253583984375,0.019547687843441963,0.02687807008624077,0.21441370248794556
1788678794035227600,17.7412275390625,-0.009162978269159794,-0.039706241339445114,0.033597588539123535
1788678794051127300,17.757127197265625,-0.0006108652451075613,-0.12950342893600464,-0.11789698898792267
1788678794066966000,17.772966064453126,0.021380282938480377,-0.1459967941045761,-0.1514945775270462
1788678794082835000,17.7888349609375,0.02871066704392433,-0.12767083942890167,-0.10445795953273773
1788678794098704100,17.8047041015625,0.04886921867728233,-0.11911872029304504,-0.00855211354792118
1788678794114573300,17.8205732421875,0.07024950534105301,-0.12278391420841217,0.07757988572120667
1788678794130473000,17.836472900390625,0.07941248267889023,-0.17837265133857727,0.10567969083786011
1788678794146311700,17.852311767578126,0.11484266817569733,-0.2638937830924988,0.11484266817569733
1788678794162241800,17.86824169921875,0.16798794269561768,-0.27122417092323303,0.12095131725072861
1788678794178141400,17.884141357421875,0.23335053026676178,-0.1569923609495163,0.1215621829032898
1788678794194010600,17.9000107421875,0.28527405858039856,-0.024434609338641167,0.10384709388017654
1788678794209910300,17.91591015625,0.33108896017074585,0.09040805697441101,0.09346238523721695
1788678794225810000,17.931809814453125,0.38728857040405273,0.14905111491680145,0.18448130786418915
1788678794241740000,17.947739990234375,0.4990769028663635,0.23579397797584534,0.39584067463874817
1788678794257670100,17.963670166015625,0.5448917746543884,0.2583959996700287,0.4990769028663635
1788678794273569800,17.97956982421875,0.5155702829360962,0.1319468915462494,0.39095374941825867
1788678794289469700,17.9954697265625,0.4202753007411957,-0.15271630883216858,0.07208210229873657
1788678794305308200,18.01130810546875,0.2669481039047241,-0.43249258399009705,-0.4642575979232788
1788678794321177300,18.02717724609375,0.24923302233219147,-0.31642818450927734,-0.7348709106445312
1788678794337077000,18.043076904296875,0.37751471996307373,0.05742133408784866,-0.5791002511978149
1788678794352946200,18.0589462890625,0.46181413531303406,0.37568211555480957,-0.17043140530586243
1788678794368845800,18.074845703125,0.4862487316131592,0.5650503635406494,0.24678955972194672
1788678794384684300,18.090684326171875,0.4508185386657715,0.42760565876960754,0.34513887763023376
1788678794400523000,18.10652294921875,0.34758231043815613,-0.045204028487205505,0.2015855312347412
1788678794416422700,18.122422607421875,0.2730567753314972,-0.4056145250797272,-0.015882495790719986
1788678794432291800,18.138291748046875,0.24984388053417206,-0.5198463201522827,-0.1569923609495163
1788678794448191500,18.15419140625,0.1722639948129654,-0.48869219422340393,-0.23273965716362
1788678794464091100,18.170091064453125,0.12034045159816742,-0.33719760179519653,-0.2620611786842346
1788678794479990800,18.18599072265625,0.11178833991289139,-0.17348572611808777,-0.28955012559890747
1788678794495860000,18.20185986328125,0.1160643994808197,-0.0507018156349659,-0.28099802136421204
1788678794511729200,18.217729248046876,0.10934487730264664,0.004886921960860491,-0.17959438264369965
1788678794527720200,18.23372021484375,0.0959058403968811,0.024434609338641167,-0.07757988572120667
1788678794543559000,18.249558837890625,0.07024950534105301,-0.0555887371301651,-0.02321287989616394
1788678794559428000,18.265427978515625,0.0507018156349659,-0.17043140530586243,-0.005497787147760391
1788678794575327700,18.28132763671875,0.08552113175392151,-0.2535090744495392,0.06230825558304787
1788678794591227400,18.297227294921875,0.0910189226269722,-0.28466320037841797,0.14844025671482086
1788678794607157500,18.313157470703125,0.02932153269648552,-0.2773328125476837,0.16859880089759827
1788678794622996200,18.328996337890626,-0.06230825558304787,-0.2174680233001709,0.08185594528913498
1788678794638865400,18.344865478515626,-0.18081611394882202,-0.10873401165008545,-0.0555887371301651
1788678794654765000,18.36076513671875,-0.2528982162475586,-0.08246681094169617,-0.11911872029304504
1788678794670664700,18.376664794921876,-0.2816088795661926,-0.1014036312699318,-0.060475658625364304
1788678794686564400,18.392564453125,-0.2834414839744568,-0.08674286305904388,0.06414084881544113
1788678794702402800,18.40840283203125,-0.30543261766433716,-0.022602014243602753,0.15515977144241333
1788678794718302500,18.424302490234375,-0.3072652220726013,0.1014036312699318,0.12522737681865692
1788678794734171600,18.440171630859375,-0.3390302062034607,0.1814269721508026,0.0012217304902151227
1788678794750040800,18.456040771484375,-0.3579670190811157,0.20341812074184418,-0.07880161702632904
1788678794765971000,18.471970947265625,-0.28649580478668213,0.2718350291252136,0.05742133408784866
1788678794781809700,18.4878095703125,-0.20036379992961884,0.22418753802776337,0.38667771220207214
1788678794797678800,18.503678955078126,-0.2119702398777008,0.09896016865968704,0.5619960427284241
1788678794813578500,18.51957861328125,-0.2785545587539673,0.021991148591041565,0.44776421785354614
1788678794829447700,18.53544775390625,-0.31642818450927734,0.003054326167330146,0.1466076523065567
1788678794845377800,18.551377685546875,-0.38117989897727966,0.02626720629632473,-0.24984388053417206
1788678794861247000,18.5672470703125,-0.4178318381309509,0.12217304855585098,-0.4948008358478546
1788678794877116200,18.5831162109375,-0.39217549562454224,0.22113321721553802,-0.47830748558044434
1788678794893046300,18.59904638671875,-0.33108896017074585,0.16004669666290283,-0.16493362188339233
1788678794908946000,18.61494580078125,-0.2480112910270691,-0.02871066704392433,0.3378084897994995
1788678794924906500,18.630906494140625,-0.16859880089759827,-0.16798794269561768,0.5503895878791809
1788678794940745200,18.6467451171875,-0.12095131725072861,-0.24373523890972137,0.41661009192466736
1788678794956614400,18.662614501953126,-0.11911872029304504,-0.2028072625398636,0.09346238523721695
1788678794972514000,18.67851416015625,-0.13805554807186127,-0.04886921867728233,-0.31093040108680725
1788678794988444200,18.694444091796875,-0.15332718193531036,0.12095131725072861,-0.5821545720100403
1788678795004405000,18.710405029296876,-0.16371189057826996,0.2174680233001709,-0.7171558141708374
1788678795020304600,18.7263046875,-0.1661553531885147,0.23090706765651703,-0.6743952035903931
1788678795036173600,18.742173583984375,-0.2278527319431305,0.15332718193531036,-0.5174028873443604
1788678795052042800,18.758042724609375,-0.251676470041275,0.07208210229873657,-0.342695415019989
1788678795067912000,18.773911865234375,-0.21502456068992615,0.04703662544488907,-0.1563815027475357
1788678795083811600,18.7898115234375,-0.15515977144241333,-0.006108652334660292,-0.014049900695681572
1788678795099650300,18.805650390625,-0.11239920556545258,-0.08185594528913498,0.07391469180583954
1788678795115519500,18.82151953125,-0.08246681094169617,-0.13866640627384186,0.14844025671482086
1788678795131419100,18.837419189453126,-0.06536258012056351,-0.16249015927314758,0.15882496535778046
1788678795147288000,18.8532880859375,-0.07330382615327835,-0.18325957655906677,0.09285151958465576
1788678795163218400,18.869218505859376,-0.11239920556545258,-0.19547687470912933,-0.006108652334660292
1788678795179087600,18.885087646484376,-0.12217304855585098,-0.252287358045578,-0.1313360333442688
1788678795194956500,18.90095654296875,-0.06902777403593063,-0.22113321721553802,-0.18631389737129211
1788678795210856200,18.916856201171875,0.028099801391363144,-0.11362093687057495,-0.10567969083786011
1788678795226755800,18.932755859375,0.10506882518529892,-0.0555887371301651,0.06841690838336945
1788678795242655500,18.948655517578125,0.1612684279680252,-0.07147123664617538,0.28955012559890747
1788678795258555100,18.96455517578125,0.2064724564552307,-0.09834930300712585,0.41599923372268677
1788678795274393900,18.980393798828125,0.2480112910270691,-0.13011430203914642,0.4905247986316681
1788678795290293500,18.99629345703125,0.2370157092809677,-0.17837265133857727,0.47708576917648315
1788678795306193200,19.012193115234375,0.18081611394882202,-0.23335053026676178,0.3927863538265228
1788678795322123300,19.028123291015625,0.17531833052635193,-0.21563543379306793,0.39217549562454224
1788678795337992400,19.043992431640625,0.24373523890972137,-0.11667526513338089,0.5204572081565857
1788678795353831200,19.0598310546875,0.28038713335990906,-0.05803219974040985,0.5907067060470581
1788678795369700400,19.075700439453126,0.30054569244384766,-0.13072516024112701,0.4801400899887085
1788678795385600000,19.09160009765625,0.3274237811565399,-0.26572638750076294,0.23884831368923187
1788678795401530000,19.107530029296875,0.28649580478668213,-0.3445279896259308,-0.11850785464048386
1788678795417368800,19.123368896484376,0.2272418737411499,-0.1618792861700058,-0.2834414839744568
1788678795433237800,19.13923779296875,0.22479841113090515,0.14416420459747314,-0.22479841113090515
1788678795449137700,19.1551376953125,0.28038713335990906,0.33108896017074585,-0.05314527451992035
1788678795465006600,19.171006591796875,0.32986724376678467,0.3494149148464203,0.03787364438176155
1788678795480937000,19.18693701171875,0.3445279896259308,0.2620611786842346,0.042760565876960754
1788678795496775400,19.202775390625,0.27550023794174194,0.08918632566928864,0.027488935738801956
1788678795512675000,19.218675048828125,0.16310101747512817,-0.1160643994808197,0.021991148591041565
1788678795528544300,19.234544189453125,0.10567969083786011,-0.26511552929878235,0.013439035043120384
1788678795544474400,19.250474365234375,0.056810468435287476,-0.3390302062034607,-0.0507018156349659
1788678795560374000,19.2663740234375,0.021991148591041565,-0.3090978264808655,-0.17837265133857727
1788678795576273700,19.282273681640625,0.027488935738801956,-0.1563815027475357,-0.3378084897994995
1788678795592173300,19.29817333984375,0.03848451003432274,-0.001832595793530345,-0.42699480056762695
1788678795608073000,19.314072998046875,0.04398229718208313,0.05375614017248154,-0.43127086758613586
1788678795623942100,19.329942138671875,0.05497787147760391,-0.01160643994808197,-0.29993483424186707
1788678795639841800,19.345841796875,0.05864306539297104,-0.13988813757896423,-0.03848451003432274
1788678795655741400,19.361741455078125,0.08735372871160507,-0.23396138846874237,0.1264491081237793
1788678795671610600,19.377610595703125,0.1062905490398407,-0.2730567753314972,0.17104226350784302
1788678795687510300,19.39351025390625,0.1111774742603302,-0.2168571650981903,0.12522737681865692
1788678795703410000,19.409409912109375,0.12217304855585098,-0.11056660860776901,0.039095375686883926
1788678795719340300,19.42534033203125,0.1215621829032898,-0.05619960278272629,-0.036041051149368286
1788678795735178800,19.4411787109375,0.09712757170200348,-0.03481931984424591,-0.07208210229873657
1788678795751078400,19.457078369140625,0.07513642311096191,-0.01466076634824276,-0.0403171069920063
1788678795766917000,19.472917236328126,0.0403171069920063,0.07696902006864548,0.015271631069481373
1788678795782816800,19.488816650390625,-0.05742133408784866,0.09162978827953339,0.04886921867728233
1788678795798716400,19.50471630859375,-0.15271630883216858,0.0024434609804302454,0.04581489413976669
1788678795814616000,19.520615966796875,-0.19792033731937408,-0.060475658625364304,0.05619960278272629
1788678795830424000,19.536424072265625,-0.1820378452539444,-0.05009094998240471,0.0910189226269722
1788678795846323700,19.55232373046875,-0.12950342893600464,0.060475658625364304,0.16249015927314758
1788678795862254000,19.568254150390626,-0.054367005825042725,0.18936823308467865,0.3194825351238251
1788678795878184200,19.58418408203125,0.04886921867728233,0.2785545587539673,0.5833762884140015
1788678795894083800,19.600083740234375,0.00855211354792118,0.22296582162380219,0.6438519954681396
1788678795909983500,19.6159833984375,-0.09162978827953339,0.2064724564552307,0.4404338300228119
1788678795925913600,19.63191357421875,-0.16920967400074005,0.1918116807937622,0.07880161702632904
1788678795941843700,19.64784375,-0.34758231043815613,0.1716531366109848,-0.42149701714515686
1788678795957743600,19.66374365234375,-0.4386012554168701,0.18020524084568024,-0.6511823534965515
1788678795973643300,19.679643310546876,-0.39217549562454224,0.14416420459747314,-0.4660901725292206
1788678795989543000,19.69554296875,-0.3433062732219696,0.016493361443281174,-0.01038470957428217
1788678796005442600,19.711442626953126,-0.28955012559890747,-0.06414084881544113,0.46853363513946533
1788678796021311500,19.7273115234375,-0.2376265823841095,-0.09346238523721695,0.6224716901779175
1788678796037211400,19.74321142578125,-0.20891591906547546,-0.09529497474431992,0.4813618063926697
1788678796053080300,19.759080322265625,-0.21074850857257843,-0.04886921867728233,0.18936823308467865
