time,seconds_elapsed,z,y,x
1788678776502381800,0.2083818359375,-21.35999870300293,-33.47999954223633,-15.239999771118164
1788678776518434000,0.22443408203125,-22.19999885559082,-34.13999938964844,-15.119999885559082
1788678776534333700,0.240333740234375,-22.799999237060547,-34.73999786376953,-15.420000076293945
1788678776550294500,0.25629443359375,-21.899999618530273,-34.79999923706055,-15.479999542236328
1788678776566224600,0.272224609375,-21.35999870300293,-34.380001068115234,-15.420000076293945
1788678776582124300,0.288124267578125,-21.059999465942383,-33.119998931884766,-14.9399995803833
1788678776598115600,0.304115478515625,-20.219999313354492,-33,-14.34000015258789
1788678776614076200,0.320076171875,-20.520000457763672,-33.540000915527344,-14.75999927520752
1788678776630037000,0.336037109375,-20.399999618530273,-33.599998474121094,-15.299999237060547
1788678776645936600,0.3519365234375,-19.31999969482422,-33.41999816894531,-15.359999656677246
1788678776661897200,0.367897216796875,-18.959999084472656,-33.29999923706055,-14.819999694824219
1788678776677949400,0.383949462890625,-19.5,-33.71999740600586,-14.460000038146973
1788678776693910300,0.39991015625,-19.799999237060547,-33.779998779296875,-14.639999389648438
1788678776709810000,0.415809814453125,-19.439998626708984,-33.89999771118164,-14.75999927520752
1788678776725679000,0.43167919921875,-20.399999618530273,-34.2599983215332,-14.639999389648438
1788678776741578800,0.447578857421875,-20.760000228881836,-33.23999786376953,-14.699999809265137
1788678776757478400,0.463478515625,-20.15999984741211,-33.119998931884766,-14.519999504089355
1788678776773347300,0.479347412109375,-20.100000381469727,-33.71999740600586,-15
1788678776789308200,0.49530810546875,-20.399999618530273,-33.36000061035156,-14.9399995803833
1788678776805238300,0.51123828125,-20.399999618530273,-33.18000030517578,-14.039999961853027
1788678776821199000,0.52719921875,-19.619998931884766,-32.7599983215332,-14.219999313354492
1788678776837129200,0.543129150390625,-19.619998931884766,-33,-14.9399995803833
1788678776853028900,0.55902880859375,-19.920000076293945,-33.23999786376953,-15.179999351501465
1788678776868989400,0.574989501953125,-19.619998931884766,-33.71999740600586,-14.699999809265137
1788678776884950300,0.5909501953125,-19.079999923706055,-34.91999816894531,-14.09999942779541
1788678776900880400,0.60688037109375,-19.559999465942383,-34.619998931884766,-14.09999942779541
1788678776916902100,0.622902099609375,-20.219999313354492,-34.07999801635742,-14.579999923706055
1788678776932862700,0.63886279296875,-20.100000381469727,-33.47999954223633,-14.75999927520752
1788678776948823600,0.654823486328125,-19.739999771118164,-33.29999923706055,-14.09999942779541
1788678776964784000,0.6707841796875,-20.03999900817871,-33.779998779296875,-13.25999927520752
1788678776980745000,0.686744873046875,-21.18000030517578,-33.47999954223633,-13.380000114440918
1788678776996797200,0.702797119140625,-20.03999900817871,-33.05999755859375,-15.059999465942383
1788678777012757800,0.7187578125,-18.35999870300293,-32.7599983215332,-15.65999984741211
1788678777028718600,0.734718505859375,-19.020000457763672,-32.52000045776367,-15.359999656677246
1788678777044648700,0.750648681640625,-20.399999618530273,-32.7599983215332,-15.539999961853027
1788678777060609500,0.766609619140625,-20.15999984741211,-32.57999801635742,-15.239999771118164
1788678777076600600,0.7826005859375,-19.260000228881836,-32.15999984741211,-15.359999656677246
1788678777092561400,0.7985615234375,-19.739999771118164,-32.279998779296875,-15.899999618530273
1788678777108583200,0.814583251953125,-19.979999542236328,-32.81999969482422,-15.839999198913574
1788678777124482800,0.83048291015625,-19.139999389648438,-33.65999984741211,-15.65999984741211
1788678777140351700,0.846351806640625,-18.299999237060547,-33.540000915527344,-15.839999198913574
1788678777156343000,0.862343017578125,-18.719999313354492,-33.84000015258789,-15.719999313354492
1788678777172304000,0.878303955078125,-18.65999984741211,-34.2599983215332,-15.479999542236328
1788678777188325400,0.894325439453125,-18.65999984741211,-33.89999771118164,-15.59999942779541
1788678777204194600,0.910194580078125,-18.719999313354492,-33.959999084472656,-15.839999198913574
1788678777220063700,0.926063720703125,-18.899999618530273,-33.599998474121094,-15.65999984741211
1788678777235993900,0.941993896484375,-19.68000030517578,-33.18000030517578,-15.119999885559082
1788678777251893500,0.9578935546875,-19.5,-33.47999954223633,-15.420000076293945
1788678777267854300,0.973854248046875,-19.3799991607666,-33.84000015258789,-15.719999313354492
1788678777283815000,0.98981494140625,-19.3799991607666,-34.380001068115234,-16.079999923706055
1788678777299745300,1.005745361328125,-19.619998931884766,-33.65999984741211,-15.839999198913574
1788678777315675400,1.02167529296875,-20.219999313354492,-33.36000061035156,-15.779999732971191
1788678777331544600,1.037544677734375,-20.03999900817871,-34.20000076293945,-16.079999923706055
1788678777347474700,1.053474609375,-20.219999313354492,-34.380001068115234,-15.719999313354492
1788678777363404800,1.06940478515625,-19.920000076293945,-33.959999084472656,-15.539999961853027
1788678777379365600,1.08536572265625,-19.079999923706055,-33.540000915527344,-15.299999237060547
1788678777395326200,1.101326171875,-18.84000015258789,-33.71999740600586,-15
1788678777411225900,1.117225830078125,-18.84000015258789,-33.779998779296875,-15.239999771118164
1788678777427125500,1.13312548828125,-18.779998779296875,-33.23999786376953,-15.65999984741211
1788678777443086300,1.14908642578125,-18.779998779296875,-33,-15.299999237060547
1788678777459077400,1.165077392578125,-19.139999389648438,-33.71999740600586,-15.119999885559082
1788678777475068700,1.181068603515625,-19.19999885559082,-34.07999801635742,-15.539999961853027
1788678777490968300,1.19696826171875,-19.439998626708984,-34.02000045776367,-15.65999984741211
1788678777506868000,1.212867919921875,-19.439998626708984,-34.68000030517578,-15.299999237060547
1788678777522798000,1.228798095703125,-19.5,-34.97999954223633,-15.119999885559082
1788678777538789400,1.244789306640625,-19.619998931884766,-34.31999969482422,-15.65999984741211
1788678777554780700,1.26078076171875,-20.03999900817871,-34.439998626708984,-16.260000228881836
1788678777570741200,1.2767412109375,-20.100000381469727,-34.5,-16.31999969482422
1788678777586793500,1.29279345703125,-19.439998626708984,-33.779998779296875,-16.3799991607666
1788678777602693000,1.308693115234375,-19.439998626708984,-33.29999923706055,-15.539999961853027
1788678777618562300,1.324562255859375,-19.559999465942383,-34.02000045776367,-15
1788678777634584000,1.340583984375,-20.34000015258789,-35.52000045776367,-15.059999465942383
1788678777650544600,1.356544677734375,-20.939998626708984,-36.119998931884766,-15.59999942779541
1788678777666536000,1.372535888671875,-20.760000228881836,-35.21999740600586,-16.19999885559082
1788678777682496500,1.38849658203125,-21.119998931884766,-34.79999923706055,-16.19999885559082
1788678777698457300,1.404457275390625,-21.53999900817871,-35.21999740600586,-16.3799991607666
1788678777714479000,1.42047900390625,-20.459999084472656,-34.55999755859375,-16.020000457763672
1788678777730439700,1.436439697265625,-19.5,-34.02000045776367,-15.779999732971191
1788678777746431000,1.452430908203125,-19.739999771118164,-33.71999740600586,-15.539999961853027
1788678777762361000,1.468361083984375,-19.5,-33.599998474121094,-15.119999885559082
1788678777778322000,1.484322021484375,-19.260000228881836,-34.07999801635742,-15.420000076293945
1788678777794282500,1.500282470703125,-18.779998779296875,-33.84000015258789,-15.299999237060547
1788678777810182100,1.51618212890625,-18.059999465942383,-33.779998779296875,-14.819999694824219
1788678777826081800,1.532081787109375,-18.53999900817871,-34.68000030517578,-14.639999389648438
1788678777841951000,1.547950927734375,-19.139999389648438,-34.5,-15.059999465942383
1788678777857820200,1.563820068359375,-17.69999885559082,-34.13999938964844,-15.539999961853027
1788678777873780700,1.57978076171875,-16.68000030517578,-33.41999816894531,-15.179999351501465
1788678777889741600,1.595741455078125,-17.459999084472656,-33.119998931884766,-15.299999237060547
1788678777905732600,1.611732666015625,-17.279998779296875,-34.07999801635742,-15.779999732971191
1788678777921632300,1.62763232421875,-16.799999237060547,-34.07999801635742,-15.960000038146973
1788678777937593000,1.643593017578125,-16.979999542236328,-33.540000915527344,-16.19999885559082
1788678777953645300,1.659645263671875,-16.3799991607666,-33.959999084472656,-15.960000038146973
1788678777969636600,1.67563671875,-16.19999885559082,-34.73999786376953,-15.239999771118164
1788678777985536300,1.691536376953125,-16.739999771118164,-35.040000915527344,-15.179999351501465
1788678778001405400,1.707405517578125,-17.03999900817871,-34.73999786376953,-15
1788678778017274400,1.7232744140625,-16.68000030517578,-33.89999771118164,-15.59999942779541
1788678778033204700,1.739204833984375,-16.139999389648438,-33.959999084472656,-16.139999389648438
1788678778049073700,1.75507373046875,-16.920000076293945,-34.20000076293945,-15.420000076293945
1788678778065034500,1.771034423828125,-17.459999084472656,-33.959999084472656,-15.420000076293945
1788678778080934100,1.78693408203125,-17.459999084472656,-33.65999984741211,-15.59999942779541
1788678778096894700,1.802894775390625,-17.520000457763672,-33.540000915527344,-15.479999542236328
1788678778112886000,1.818885986328125,-16.260000228881836,-33.779998779296875,-15
1788678778128755200,1.834755126953125,-15.65999984741211,-33.71999740600586,-15.119999885559082
1788678778144654800,1.85065478515625,-16.739999771118164,-33.41999816894531,-15.59999942779541
1788678778160615400,1.866615478515625,-17.03999900817871,-33.540000915527344,-15.960000038146973
1788678778176576300,1.882576171875,-16.5,-33.540000915527344,-15.839999198913574
1788678778192506400,1.89850634765625,-16.799999237060547,-34.13999938964844,-15.65999984741211
1788678778208345000,1.914344970703125,-17.100000381469727,-33.779998779296875,-15.119999885559082
1788678778224244700,1.93024462890625,-16.920000076293945,-32.880001068115234,-15.059999465942383
1788678778240205300,1.946205322265625,-17.15999984741211,-33.41999816894531,-16.19999885559082
1788678778256135400,1.962135498046875,-16.979999542236328,-34.20000076293945,-16.139999389648438
1788678778272126700,1.978126708984375,-17.520000457763672,-33.599998474121094,-15.899999618530273
1788678778288087600,1.994087646484375,-18.84000015258789,-32.52000045776367,-16.079999923706055
1788678778304109000,2.010109130859375,-19.020000457763672,-33,-16.260000228881836
1788678778320070000,2.02606982421875,-18.119998931884766,-33.84000015258789,-16.5
1788678778336000000,2.042,-17.579999923706055,-34.2599983215332,-15.719999313354492
1788678778351991300,2.0579912109375,-17.8799991607666,-34.2599983215332,-15.179999351501465
1788678778367952000,2.073951904296875,-18.719999313354492,-34.07999801635742,-15.479999542236328
1788678778383882200,2.08988232421875,-19.19999885559082,-34.380001068115234,-15.65999984741211
1788678778399782000,2.105781982421875,-19.619998931884766,-34.5,-15.239999771118164
1788678778415712000,2.1217119140625,-20.34000015258789,-33.89999771118164,-14.519999504089355
1788678778431764200,2.13776416015625,-20.459999084472656,-34.31999969482422,-15.059999465942383
1788678778447724800,2.153724853515625,-19.85999870300293,-34.55999755859375,-15.179999351501465
1788678778463685600,2.169685546875,-19.020000457763672,-33.71999740600586,-15.299999237060547
1788678778479646200,2.185646240234375,-18.35999870300293,-33.71999740600586,-15.899999618530273
1788678778495576600,2.20157666015625,-18.959999084472656,-33.84000015258789,-15.420000076293945
1788678778511598000,2.21759814453125,-19.5,-32.7599983215332,-15
1788678778527559000,2.233558837890625,-18.719999313354492,-32.099998474121094,-14.460000038146973
1788678778543458600,2.24945849609375,-18.119998931884766,-32.880001068115234,-14.639999389648438
1788678778559419100,2.265419189453125,-17.8799991607666,-33.47999954223633,-14.819999694824219
1788678778575349500,2.281349609375,-18.239999771118164,-33.23999786376953,-15.059999465942383
1788678778591340500,2.297340576171875,-18.479999542236328,-33.41999816894531,-15.420000076293945
1788678778607301400,2.31330126953125,-18.420000076293945,-34.02000045776367,-14.039999961853027
1788678778623292400,2.32929248046875,-18.84000015258789,-34.02000045776367,-13.380000114440918
1788678778639131100,2.345131103515625,-18.65999984741211,-33.29999923706055,-13.920000076293945
1788678778655030800,2.36103076171875,-18.779998779296875,-33.05999755859375,-14.219999313354492
1788678778671022000,2.37702197265625,-18.84000015258789,-33.23999786376953,-14.75999927520752
1788678778686982700,2.392982666015625,-19.19999885559082,-32.81999969482422,-14.819999694824219
1788678778702943500,2.408943603515625,-20.579999923706055,-33.29999923706055,-14.399999618530273
1788678778718904000,2.424904052734375,-21.18000030517578,-34.02000045776367,-14.219999313354492
1788678778734865000,2.440864990234375,-21,-34.02000045776367,-14.219999313354492
1788678778750917000,2.456917236328125,-21.420000076293945,-33.29999923706055,-13.799999237060547
1788678778766877700,2.472877685546875,-21.35999870300293,-32.52000045776367,-13.139999389648438
1788678778782838500,2.488838623046875,-21.35999870300293,-32.880001068115234,-12.65999984741211
1788678778798768600,2.5047685546875,-22.020000457763672,-32.459999084472656,-12.479999542236328
1788678778814729200,2.520729248046875,-21.719999313354492,-31.5,-12.65999984741211
1788678778830690000,2.53668994140625,-21.53999900817871,-30.959999084472656,-11.880000114440918
1788678778846528500,2.552528564453125,-21.899999618530273,-30.779998779296875,-12.359999656677246
1788678778862459000,2.568458984375,-22.020000457763672,-30.599998474121094,-13.4399995803833
1788678778878267000,2.584266845703125,-21.600000381469727,-30.84000015258789,-12.479999542236328
1788678778894136000,2.600135986328125,-22.079999923706055,-31.3799991607666,-12.119999885559082
1788678778910066200,2.616066162109375,-22.979999542236328,-31.3799991607666,-12.65999984741211
1788678778925935400,2.631935302734375,-23.459999084472656,-32.279998779296875,-12.359999656677246
1788678778941865500,2.647865478515625,-23.51999855041504,-32.15999984741211,-11.880000114440918
1788678778957734700,2.663734619140625,-23.03999900817871,-31.439998626708984,-11.460000038146973
1788678778973634300,2.67963427734375,-22.020000457763672,-31.619998931884766,-11.699999809265137
1788678778989564400,2.695564453125,-21.239999771118164,-31.439998626708984,-12.239999771118164
1788678779005403100,2.711403076171875,-21.35999870300293,-31.5,-12.899999618530273
1788678779021363700,2.72736376953125,-21,-31.739999771118164,-13.920000076293945
1788678779037233000,2.74323291015625,-20.939998626708984,-31.979999542236328,-13.739999771118164
1788678779053132500,2.759132568359375,-21.059999465942383,-31.979999542236328,-13.739999771118164
1788678779069032200,2.7750322265625,-21.239999771118164,-31.67999839782715,-13.4399995803833
1788678779084901400,2.7909013671875,-20.760000228881836,-32.34000015258789,-12.84000015258789
1788678779100770600,2.8067705078125,-20.459999084472656,-32.279998779296875,-13.139999389648438
1788678779116670200,2.822670166015625,-20.520000457763672,-31.979999542236328,-13.619999885559082
1788678779132539400,2.838539306640625,-20.760000228881836,-32.34000015258789,-13.739999771118164
1788678779148469500,2.854469482421875,-21.119998931884766,-32.34000015258789,-13.139999389648438
1788678779164308200,2.87030810546875,-20.69999885559082,-32.63999938964844,-12.779999732971191
1788678779180238300,2.88623828125,-20.639999389648438,-31.799999237060547,-13.139999389648438
1788678779196046300,2.90204638671875,-20.15999984741211,-31.31999969482422,-13.619999885559082
1788678779211915500,2.91791552734375,-19.739999771118164,-31.85999870300293,-13.679999351501465
1788678779227845600,2.933845703125,-20.459999084472656,-31.3799991607666,-12.960000038146973
1788678779243714800,2.94971484375,-21.18000030517578,-31.31999969482422,-12.65999984741211
1788678779259645200,2.965645263671875,-21.299999237060547,-32.099998474121094,-13.739999771118164
1788678779275483600,2.981483642578125,-20.81999969482422,-32.21999740600586,-14.09999942779541
1788678779291352800,2.997352783203125,-20.939998626708984,-31.979999542236328,-13.739999771118164
1788678779307283000,3.013282958984375,-21.35999870300293,-32.21999740600586,-13.5
1788678779323091200,3.02909130859375,-21.600000381469727,-32.040000915527344,-13.019999504089355
1788678779338960100,3.044960205078125,-21.899999618530273,-31.139999389648438,-13.5
1788678779354829300,3.060829345703125,-21.65999984741211,-30.599998474121094,-13.25999927520752
1788678779370729000,3.07672900390625,-21.65999984741211,-31.01999855041504,-12.119999885559082
1788678779386628600,3.092628662109375,-21.35999870300293,-31.799999237060547,-12.059999465942383
1788678779402436900,3.108436767578125,-21.420000076293945,-31.799999237060547,-12.59999942779541
1788678779418336500,3.12433642578125,-22.5,-31.439998626708984,-12.960000038146973
1788678779434205700,3.140205810546875,-22.31999969482422,-31.01999855041504,-13.199999809265137
1788678779450105300,3.156105224609375,-21.53999900817871,-31.079999923706055,-13.139999389648438
1788678779466005000,3.1720048828125,-21.239999771118164,-31.260000228881836,-12.960000038146973
1788678779481813000,3.18781298828125,-21.53999900817871,-31.31999969482422,-12.779999732971191
1788678779497712600,3.203712646484375,-22.19999885559082,-31.439998626708984,-12.239999771118164
1788678779513612300,3.2196123046875,-22.3799991607666,-32.040000915527344,-12.84000015258789
1788678779529451000,3.235450927734375,-22.020000457763672,-31.920000076293945,-13.319999694824219
1788678779545381000,3.251381103515625,-21.779998779296875,-31.01999855041504,-12.420000076293945
1788678779561219800,3.2672197265625,-21.239999771118164,-31.260000228881836,-12.300000190734863
1788678779577150000,3.28314990234375,-21.53999900817871,-31.01999855041504,-12.899999618530273
1788678779592927500,3.298927490234375,-22.31999969482422,-30.959999084472656,-12.84000015258789
1788678779608827100,3.3148271484375,-22.079999923706055,-31.31999969482422,-12.59999942779541
1788678779624788000,3.3307880859375,-22.19999885559082,-31.260000228881836,-13.139999389648438
1788678779640657000,3.346656982421875,-21.600000381469727,-31.139999389648438,-13.199999809265137
1788678779656556800,3.362556884765625,-21.420000076293945,-30.899999618530273,-12.84000015258789
1788678779672364800,3.37836474609375,-21.719999313354492,-30.779998779296875,-13.199999809265137
1788678779688234000,3.39423388671875,-21.479999542236328,-30.299999237060547,-13.979999542236328
1788678779704164000,3.4101640625,-21.479999542236328,-30.599998474121094,-14.519999504089355
1788678779720033300,3.426033203125,-21.600000381469727,-31.619998931884766,-14.09999942779541
1788678779735933000,3.441932861328125,-21.059999465942383,-31.799999237060547,-13.199999809265137
1788678779751802000,3.457802001953125,-20.520000457763672,-30.959999084472656,-13.979999542236328
1788678779767671300,3.47367138671875,-21.600000381469727,-30.719999313354492,-15
1788678779783571000,3.489571044921875,-21.959999084472656,-31.079999923706055,-14.219999313354492
1788678779799440000,3.50543994140625,-21.65999984741211,-30.84000015258789,-13.979999542236328
1788678779815339500,3.521339599609375,-21.779998779296875,-30.479999542236328,-15.239999771118164
1788678779831208700,3.537208740234375,-22.079999923706055,-30.899999618530273,-15.119999885559082
1788678779847078000,3.553077880859375,-22.079999923706055,-31.799999237060547,-14.639999389648438
1788678779863008000,3.569008056640625,-21.18000030517578,-31.3799991607666,-14.699999809265137
1788678779878877200,3.584877197265625,-21.299999237060547,-30.65999984741211,-14.519999504089355
1788678779894776800,3.60077685546875,-21.420000076293945,-30.53999900817871,-14.9399995803833
1788678779910646000,3.61664599609375,-21,-30.599998474121094,-15.420000076293945
1788678779926515200,3.63251513671875,-20.8799991607666,-31.079999923706055,-15.359999656677246
1788678779942445300,3.6484453125,-20.8799991607666,-30.84000015258789,-15.179999351501465
1788678779958314500,3.664314453125,-20.579999923706055,-30.35999870300293,-15.899999618530273
1788678779974214100,3.680214111328125,-20.760000228881836,-30.119998931884766,-15.359999656677246
1788678779990052900,3.696052978515625,-20.639999389648438,-30.420000076293945,-14.460000038146973
1788678780005952500,3.711952392578125,-20.459999084472656,-30.959999084472656,-15.479999542236328
1788678780021882600,3.727882568359375,-21.420000076293945,-31.079999923706055,-15.299999237060547
1788678780037721300,3.743721435546875,-21.479999542236328,-31.139999389648438,-14.9399995803833
1788678780053651500,3.7596513671875,-21.059999465942383,-30.599998474121094,-15.65999984741211
1788678780069520600,3.775520751953125,-21.719999313354492,-30.17999839782715,-15.119999885559082
1788678780085420300,3.791420166015625,-22.3799991607666,-30.17999839782715,-14.819999694824219
1788678780101320000,3.80731982421875,-22.3799991607666,-30.059999465942383,-15.359999656677246
1788678780117189000,3.823189208984375,-22.439998626708984,-29.34000015258789,-14.639999389648438
1788678780133058000,3.83905810546875,-22.020000457763672,-29.219999313354492,-14.399999618530273
1788678780148927200,3.85492724609375,-21.600000381469727,-30,-14.880000114440918
1788678780164796400,3.87079638671875,-22.19999885559082,-29.81999969482422,-15.359999656677246
1788678780180726500,3.8867265625,-23.15999984741211,-28.920000076293945,-15.59999942779541
1788678780196565200,3.902565185546875,-23.219999313354492,-29.399999618530273,-14.9399995803833
1788678780212465000,3.91846484375,-23.459999084472656,-29.639999389648438,-15
1788678780228303600,3.9343037109375,-23.51999855041504,-29.51999855041504,-15.65999984741211
1788678780244203300,3.950203369140625,-22.979999542236328,-29.51999855041504,-14.9399995803833
1788678780260103000,3.96610302734375,-22.439998626708984,-29.639999389648438,-14.819999694824219
1788678780275911000,3.981910888671875,-22.260000228881836,-30.299999237060547,-15.119999885559082
1788678780291810600,3.997810546875,-23.459999084472656,-30.53999900817871,-15.719999313354492
1788678780307710200,4.013710205078125,-23.639999389648438,-30.719999313354492,-15.960000038146973
1788678780323549000,4.029548828125,-22.739999771118164,-30.35999870300293,-15.059999465942383
1788678780339479000,4.04547900390625,-22.439998626708984,-30.17999839782715,-14.880000114440918
1788678780355317800,4.06131787109375,-21.899999618530273,-30.65999984741211,-14.699999809265137
1788678780371247900,4.077247802734375,-21.84000015258789,-30.53999900817871,-14.9399995803833
1788678780387086600,4.093086669921875,-22.920000076293945,-30.479999542236328,-15.179999351501465
1788678780402955500,4.10895556640625,-23.760000228881836,-31.19999885559082,-14.460000038146973
1788678780418886000,4.124885986328125,-23.81999969482422,-31.5,-13.739999771118164
1788678780434694000,4.14069384765625,-23.639999389648438,-31.619998931884766,-14.219999313354492
1788678780450593500,4.156593505859375,-23.459999084472656,-31.85999870300293,-14.519999504089355
1788678780466462700,4.172462646484375,-23.219999313354492,-31.31999969482422,-13.619999885559082
1788678780482362400,4.1883623046875,-23.100000381469727,-31.19999885559082,-13.319999694824219
1788678780498292500,4.20429248046875,-23.639999389648438,-31.139999389648438,-13.739999771118164
1788678780514131200,4.220131103515625,-24.059999465942383,-31.139999389648438,-13.739999771118164
1788678780530000400,4.23600048828125,-24.299999237060547,-32.15999984741211,-13.139999389648438
1788678780545869300,4.251869384765625,-23.639999389648438,-32.34000015258789,-13.019999504089355
1788678780561738500,4.267738525390625,-22.19999885559082,-32.52000045776367,-12.59999942779541
1788678780577638100,4.28363818359375,-21.959999084472656,-33.18000030517578,-12.420000076293945
1788678780593476900,4.299476806640625,-22.799999237060547,-33.18000030517578,-12.779999732971191
1788678780609407000,4.315406982421875,-23.579999923706055,-33.18000030517578,-12.479999542236328
1788678780625245700,4.33124560546875,-23.219999313354492,-33.65999984741211,-12.059999465942383
1788678780641145300,4.347145263671875,-22.020000457763672,-33.89999771118164,-12.119999885559082
1788678780657075500,4.363075439453125,-22.260000228881836,-34.02000045776367,-12.539999961853027
1788678780672914200,4.3789140625,-22.559999465942383,-34.02000045776367,-12.359999656677246
1788678780688813800,4.394813720703125,-22.619998931884766,-33.47999954223633,-12
1788678780704621800,4.410621826171875,-22.68000030517578,-33.47999954223633,-12.239999771118164
1788678780720491000,4.426490966796875,-22.920000076293945,-33.23999786376953,-12.119999885559082
1788678780736390700,4.442390625,-23.459999084472656,-33.41999816894531,-11.819999694824219
1788678780752259800,4.458259765625,-23.399999618530273,-33.89999771118164,-12.059999465942383
1788678780768129000,4.47412890625,-23.03999900817871,-34.31999969482422,-12.359999656677246
1788678780784028700,4.490028564453125,-22.31999969482422,-34.380001068115234,-12.300000190734863
1788678780799897900,4.50589794921875,-22.799999237060547,-33.84000015258789,-11.579999923706055
1788678780815828000,4.521827880859375,-24,-33.84000015258789,-10.920000076293945
1788678780831697200,4.537697265625,-23.81999969482422,-34.439998626708984,-10.859999656677246
1788678780847566000,4.553566162109375,-24.35999870300293,-35.040000915527344,-11.399999618530273
1788678780863435300,4.569435302734375,-24.899999618530273,-34.13999938964844,-12.059999465942383
1788678780879335000,4.5853349609375,-23.639999389648438,-34.07999801635742,-11.9399995803833
1788678780895234600,4.601234619140625,-22.979999542236328,-35.34000015258789,-12
1788678780911103700,4.617103759765625,-23.399999618530273,-35.040000915527344,-11.880000114440918
1788678780927033900,4.633033935546875,-23.639999389648438,-34.5,-11.75999927520752
1788678780942842000,4.648842041015625,-23.51999855041504,-34.619998931884766,-12.539999961853027
1788678780958741800,4.66474169921875,-23.03999900817871,-34.68000030517578,-12.719999313354492
1788678780974672000,4.680671875,-22.559999465942383,-35.279998779296875,-12.779999732971191
1788678780990510600,4.696510498046875,-23.100000381469727,-35.39999771118164,-13.019999504089355
1788678781006410200,4.71241015625,-23.639999389648438,-35.099998474121094,-12.539999961853027
1788678781022279400,4.728279541015625,-24.059999465942383,-34.97999954223633,-12.59999942779541
1788678781038209500,4.74420947265625,-23.760000228881836,-35.459999084472656,-13.319999694824219
1788678781054139600,4.7601396484375,-23.939998626708984,-35.939998626708984,-13.139999389648438
1788678781069978400,4.775978271484375,-24.600000381469727,-35.21999740600586,-12.539999961853027
1788678781085847600,4.79184765625,-24.35999870300293,-34.79999923706055,-12.84000015258789
1788678781101686000,4.80768603515625,-24.719999313354492,-34.439998626708984,-12.899999618530273
1788678781117616000,4.8236162109375,-24.239999771118164,-34.619998931884766,-12.84000015258789
1788678781133546500,4.83954638671875,-23.81999969482422,-35.21999740600586,-13.5
1788678781149354500,4.8553544921875,-24.059999465942383,-35.63999938964844,-13.859999656677246
1788678781165284600,4.87128466796875,-23.579999923706055,-35.70000076293945,-13.25999927520752
1788678781181153800,4.88715380859375,-22.799999237060547,-35.939998626708984,-13.619999885559082
1788678781197053400,4.903053466796875,-23.399999618530273,-36.23999786376953,-14.460000038146973
1788678781212983800,4.91898388671875,-24.299999237060547,-35.52000045776367,-14.75999927520752
1788678781228822300,4.934822265625,-24.119998931884766,-36.23999786376953,-14.399999618530273
1788678781244691500,4.95069140625,-24.119998931884766,-36.71999740600586,-13.799999237060547
1788678781260591000,4.966591064453125,-24.119998931884766,-36.05999755859375,-14.15999984741211
1788678781276460300,4.982460205078125,-23.939998626708984,-35.57999801635742,-14.039999961853027
1788678781292360000,4.99835986328125,-23.03999900817871,-35.099998474121094,-13.199999809265137
1788678781308198400,5.014198486328125,-23.579999923706055,-35.57999801635742,-13.4399995803833
1788678781324098300,5.030098388671875,-23.81999969482422,-36.23999786376953,-13.739999771118164
1788678781339906300,5.04590625,-23.279998779296875,-36.05999755859375,-13.920000076293945
1788678781355775500,5.061775390625,-23.760000228881836,-35.880001068115234,-14.15999984741211
1788678781371705600,5.07770556640625,-23.639999389648438,-36.18000030517578,-13.619999885559082
1788678781387513600,5.093513671875,-23.8799991607666,-37.31999969482422,-13.380000114440918
1788678781403413200,5.109413330078125,-24.18000030517578,-36.89999771118164,-14.039999961853027
1788678781419252000,5.125251953125,-23.8799991607666,-35.7599983215332,-14.15999984741211
1788678781435121200,5.14112109375,-24.059999465942383,-35.880001068115234,-12.960000038146973
1788678781451081700,5.157081787109375,-24.35999870300293,-36.65999984741211,-13.079999923706055
1788678781466890000,5.172889892578125,-24.119998931884766,-37.91999816894531,-13.319999694824219
1788678781482820000,5.188820068359375,-23.8799991607666,-38.279998779296875,-13.380000114440918
1788678781498628000,5.204628173828125,-23.399999618530273,-38.57999801635742,-14.15999984741211
1788678781514497300,5.220497314453125,-22.68000030517578,-38.81999969482422,-13.739999771118164
1788678781530397000,5.23639697265625,-22.559999465942383,-38.63999938964844,-13.139999389648438
1788678781546205200,5.252205078125,-23.279998779296875,-38.7599983215332,-13.380000114440918
1788678781562135300,5.26813525390625,-23.8799991607666,-38.81999969482422,-13.4399995803833
1788678781577943300,5.283943359375,-23.81999969482422,-39.599998474121094,-13.199999809265137
1788678781593843000,5.299843017578125,-23.279998779296875,-40.13999938964844,-12.59999942779541
1788678781609773300,5.315773193359375,-22.85999870300293,-39.71999740600586,-12.539999961853027
1788678781625611800,5.33161181640625,-23.15999984741211,-39.89999771118164,-12.420000076293945
1788678781641542100,5.347542236328125,-23.219999313354492,-39.36000061035156,-12.539999961853027
1788678781657411000,5.3634111328125,-23.219999313354492,-39.41999816894531,-12.359999656677246
1788678781673249800,5.379249755859375,-23.579999923706055,-39.779998779296875,-11.9399995803833
1788678781689180000,5.395179931640625,-23.69999885559082,-40.02000045776367,-12.059999465942383
1788678781705018600,5.4110185546875,-23.639999389648438,-40.37999725341797,-11.279999732971191
1788678781720948700,5.42694873046875,-23.760000228881836,-40.37999725341797,-11.039999961853027
1788678781736848400,5.442848388671875,-22.979999542236328,-40.79999923706055,-11.399999618530273
1788678781752660000,5.458659912109375,-22.799999237060547,-41.15999984741211,-11.75999927520752
1788678781768590000,5.474590087890625,-22.559999465942383,-41.21999740600586,-11.819999694824219
1788678781784428800,5.4904287109375,-22.31999969482422,-41.040000915527344,-11.519999504089355
1788678781800328400,5.506328369140625,-22.559999465942383,-40.79999923706055,-11.399999618530273
1788678781816167200,5.522167236328125,-22.439998626708984,-39.540000915527344,-11.639999389648438
1788678781832066800,5.53806689453125,-22.5,-39.779998779296875,-11.399999618530273
1788678781847997000,5.553996826171875,-22.5,-41.15999984741211,-10.800000190734863
1788678781863835600,5.569835693359375,-22.079999923706055,-41.279998779296875,-10.920000076293945
1788678781879735300,5.5857353515625,-21.299999237060547,-40.86000061035156,-11.34000015258789
1788678781895635000,5.601635009765625,-21.479999542236328,-41.099998474121094,-11.15999984741211
1788678781911504100,5.617504150390625,-21.059999465942383,-41.939998626708984,-11.039999961853027
1788678781927434200,5.633434326171875,-20.219999313354492,-42,-11.15999984741211
1788678781943303400,5.649303466796875,-20.579999923706055,-42.18000030517578,-10.859999656677246
1788678781959203000,5.665203125,-21.35999870300293,-42.540000915527344,-10.559999465942383
1788678781975072000,5.681072021484375,-21.059999465942383,-42.29999923706055,-10.739999771118164
1788678781990941200,5.696941162109375,-20.520000457763672,-42.71999740600586,-10.800000190734863
1788678782006840800,5.7128408203125,-21.059999465942383,-42.65999984741211,-10.859999656677246
1788678782022679600,5.728679443359375,-20.520000457763672,-42.29999923706055,-11.34000015258789
1788678782038548700,5.744548828125,-19.260000228881836,-43.5,-11.460000038146973
1788678782054387200,5.76038720703125,-19.079999923706055,-44.040000915527344,-11.699999809265137
1788678782070256400,5.77625634765625,-19.739999771118164,-43.86000061035156,-11.75999927520752
1788678782086186500,5.7921865234375,-19.68000030517578,-43.619998931884766,-11.460000038146973
1788678782102055700,5.8080556640625,-18.65999984741211,-43.2599983215332,-12
1788678782117924900,5.8239248046875,-18.119998931884766,-43.68000030517578,-13.019999504089355
1788678782133794000,5.8397939453125,-18.119998931884766,-44.34000015258789,-12.719999313354492
1788678782149632800,5.8556328125,-18.719999313354492,-44.459999084472656,-12.359999656677246
1788678782165563000,5.87156298828125,-18.84000015258789,-44.459999084472656,-12.479999542236328
1788678782181401300,5.8874013671875,-17.520000457763672,-44.15999984741211,-11.699999809265137
1788678782197331700,5.903331787109375,-16.559999465942383,-44.57999801635742,-11.699999809265137
1788678782213170200,5.919170166015625,-16.440000534057617,-44.52000045776367,-12.239999771118164
1788678782229069800,5.93506982421875,-16.799999237060547,-44.39999771118164,-12.179999351501465
1788678782245000200,5.951000244140625,-17.03999900817871,-44.81999969482422,-12.539999961853027
1788678782260808200,5.96680810546875,-16.5,-45.05999755859375,-13.4399995803833
1788678782276707800,5.982707763671875,-15.899999618530273,-44.939998626708984,-13.559999465942383
1788678782292577000,5.998576904296875,-15.65999984741211,-44.63999938964844,-13.4399995803833
1788678782308446200,6.0144462890625,-15.719999313354492,-44.39999771118164,-13.619999885559082
1788678782324345900,6.030345947265625,-15.960000038146973,-44.34000015258789,-13.619999885559082
1788678782340215000,6.046215087890625,-15.960000038146973,-44.15999984741211,-13.5
1788678782356175600,6.062175537109375,-16.079999923706055,-44.39999771118164,-13.319999694824219
1788678782372044800,6.078044921875,-16.619998931884766,-45.23999786376953,-13.319999694824219
1788678782387914000,6.0939140625,-17.219999313354492,-44.81999969482422,-13.25999927520752
1788678782403844000,6.109843994140625,-16.559999465942383,-44.279998779296875,-13.619999885559082
1788678782419652000,6.125652099609375,-16.19999885559082,-44.099998474121094,-13.859999656677246
1788678782435582500,6.14158251953125,-16.68000030517578,-44.15999984741211,-14.34000015258789
1788678782451390500,6.157390380859375,-16.739999771118164,-44.87999725341797,-14.819999694824219
1788678782467290000,6.1732900390625,-16.619998931884766,-45.18000030517578,-15.059999465942383
1788678782483159300,6.1891591796875,-16.3799991607666,-45.05999755859375,-14.75999927520752
1788678782499028500,6.205028564453125,-16.079999923706055,-45.41999816894531,-14.639999389648438
1788678782514897700,6.220897705078125,-15.299999237060547,-44.81999969482422,-15.359999656677246
1788678782530766600,6.2367666015625,-15.539999961853027,-44.39999771118164,-15.239999771118164
1788678782546635800,6.2526357421875,-16.31999969482422,-44.39999771118164,-14.699999809265137
1788678782562535400,6.268535400390625,-16.799999237060547,-45.23999786376953,-14.9399995803833
1788678782586369800,6.292369873046875,-15.420000076293945,-46.439998626708984,-15
1788678782602269400,6.30826953125,-15.779999732971191,-45.71999740600586,-14.880000114440918
1788678782618169000,6.324169189453125,-16.619998931884766,-45.65999984741211,-14.880000114440918
1788678782634129700,6.340129638671875,-16.139999389648438,-45.89999771118164,-15
1788678782649998800,6.355998779296875,-15.719999313354492,-45.53999710083008,-14.579999923706055
1788678782665837600,6.371837646484375,-15.059999465942383,-46.20000076293945,-14.219999313354492
1788678782681798100,6.387798095703125,-14.75999927520752,-47.03999710083008,-14.039999961853027
1788678782697636900,6.403636962890625,-14.699999809265137,-46.5,-13.739999771118164
1788678782713567000,6.41956689453125,-15,-46.2599983215332,-13.25999927520752
1788678782729405700,6.43540576171875,-15.119999885559082,-46.79999923706055,-12.65999984741211
1788678782745335800,6.451335693359375,-16.139999389648438,-46.20000076293945,-12.239999771118164
1788678782761266000,6.467265869140625,-17.100000381469727,-45.29999923706055,-12.359999656677246
1788678782777104600,6.483104736328125,-16.020000457763672,-45.779998779296875,-11.75999927520752
1788678782793034800,6.49903466796875,-14.639999389648438,-46.13999938964844,-11.399999618530273
1788678782808904000,6.514904052734375,-14.460000038146973,-46.73999786376953,-11.699999809265137
1788678782824742700,6.53074267578125,-14.279999732971191,-47.279998779296875,-11.399999618530273
1788678782840703200,6.546703125,-13.319999694824219,-47.15999984741211,-11.219999313354492
1788678782856511200,6.56251123046875,-13.4399995803833,-47.03999710083008,-11.399999618530273
1788678782872441600,6.578441650390625,-13.559999465942383,-47.70000076293945,-11.279999732971191
1788678782888280000,6.594280029296875,-12.899999618530273,-47.70000076293945,-11.039999961853027
1788678782904118800,6.610118896484375,-12.899999618530273,-46.86000061035156,-10.979999542236328
1788678782920018400,6.626018310546875,-13.979999542236328,-47.52000045776367,-10.619999885559082
1788678782935887600,6.6418876953125,-15.299999237060547,-48.119998931884766,-10.619999885559082
1788678782951787300,6.657787353515625,-14.9399995803833,-47.34000015258789,-10.679999351501465
1788678782967595300,6.67359521484375,-14.219999313354492,-46.55999755859375,-10.800000190734863
1788678782983434000,6.68943408203125,-14.579999923706055,-46.91999816894531,-11.09999942779541
1788678782999364000,6.705364013671875,-14.699999809265137,-47.57999801635742,-11.519999504089355
1788678783015233300,6.7212333984375,-14.039999961853027,-47.70000076293945,-11.699999809265137
1788678783031102500,6.7371025390625,-13.799999237060547,-47.459999084472656,-11.34000015258789
1788678783046941000,6.75294091796875,-14.09999942779541,-47.39999771118164,-11.399999618530273
1788678783062810000,6.76881005859375,-13.859999656677246,-47.459999084472656,-10.800000190734863
1788678783078740200,6.784740234375,-14.219999313354492,-47.099998474121094,-10.5
1788678783094609400,6.800609375,-14.699999809265137,-46.79999923706055,-10.800000190734863
1788678783110478600,6.816478515625,-14.039999961853027,-46.97999954223633,-11.039999961853027
1788678783126347800,6.83234765625,-13.25999927520752,-47.52000045776367,-11.699999809265137
1788678783142217000,6.848217041015625,-13.380000114440918,-48,-12
1788678783158116600,6.86411669921875,-13.799999237060547,-48.119998931884766,-12.420000076293945
1788678783173924600,6.879924560546875,-13.920000076293945,-47.87999725341797,-12.420000076293945
1788678783189824300,6.89582421875,-12.960000038146973,-48.29999923706055,-12.719999313354492
1788678783205693400,6.911693359375,-11.819999694824219,-48.36000061035156,-13.319999694824219
1788678783221562600,6.927562744140625,-12.59999942779541,-47.459999084472656,-13.739999771118164
1788678783237523200,6.943523193359375,-13.619999885559082,-47.7599983215332,-13.559999465942383
1788678783253392400,6.959392333984375,-13.079999923706055,-47.81999969482422,-13.380000114440918
1788678783269292000,6.9752919921875,-12.960000038146973,-47.52000045776367,-14.279999732971191
1788678783285191700,6.991191650390625,-13.619999885559082,-47.81999969482422,-14.15999984741211
1788678783301060900,7.007060791015625,-14.219999313354492,-47.099998474121094,-13.739999771118164
1788678783316991000,7.022990966796875,-13.799999237060547,-46.07999801635742,-13.979999542236328
1788678783332829700,7.03882958984375,-14.09999942779541,-46.91999816894531,-14.09999942779541
1788678783348759800,7.054759765625,-14.399999618530273,-47.39999771118164,-14.460000038146973
1788678783364629000,7.07062890625,-14.34000015258789,-46.37999725341797,-14.9399995803833
1788678783380467700,7.0864677734375,-14.519999504089355,-46.02000045776367,-15.359999656677246
1788678783396367400,7.102367431640625,-14.09999942779541,-45.89999771118164,-15.239999771118164
1788678783412205800,7.118205810546875,-14.219999313354492,-45.599998474121094,-15.719999313354492
1788678783428105500,7.13410546875,-14.039999961853027,-45.65999984741211,-16.619998931884766
1788678783443974700,7.149974609375,-13.799999237060547,-45.47999954223633,-16.440000534057617
1788678783459843800,7.16584375,-14.460000038146973,-45.84000015258789,-16.020000457763672
1788678783475743500,7.181743408203125,-14.880000114440918,-45.53999710083008,-16.260000228881836
1788678783491551500,7.197551513671875,-14.399999618530273,-45.47999954223633,-16.68000030517578
1788678783507481900,7.21348193359375,-14.09999942779541,-45.89999771118164,-16.799999237060547
1788678783523289900,7.229289794921875,-13.619999885559082,-45.41999816894531,-17.03999900817871
1788678783539128600,7.245128662109375,-13.25999927520752,-45.47999954223633,-16.979999542236328
1788678783555089200,7.261089111328125,-13.679999351501465,-46.31999969482422,-16.079999923706055
1788678783570927900,7.276927978515625,-14.219999313354492,-47.21999740600586,-15.779999732971191
1788678783586797000,7.292797119140625,-13.979999542236328,-47.34000015258789,-16.559999465942383
1788678783602666200,7.308666259765625,-13.079999923706055,-46.37999725341797,-16.979999542236328
1788678783618596400,7.324596435546875,-12.84000015258789,-45.23999786376953,-16.5
1788678783634496000,7.34049609375,-12.960000038146973,-45.779998779296875,-16.559999465942383
1788678783650365200,7.356365234375,-12.719999313354492,-46.37999725341797,-17.69999885559082
1788678783666295300,7.37229541015625,-11.9399995803833,-46.37999725341797,-17.8799991607666
1788678783682256000,7.388255859375,-11.699999809265137,-46.2599983215332,-17.399999618530273
1788678783698125000,7.404125,-12.119999885559082,-45.959999084472656,-16.920000076293945
1788678783714055200,7.42005517578125,-12.539999961853027,-46.37999725341797,-17.15999984741211
1788678783737798000,7.4437978515625,-12.84000015258789,-47.57999801635742,-16.799999237060547
1788678783753758700,7.4597587890625,-12.539999961853027,-47.70000076293945,-15.839999198913574
1788678783769628000,7.4756279296875,-11.819999694824219,-46.68000030517578,-15.359999656677246
1788678783785527600,7.491527587890625,-11.9399995803833,-46.55999755859375,-15.119999885559082
1788678783801366000,7.507365966796875,-11.75999927520752,-46.55999755859375,-14.639999389648438
1788678783817235200,7.523235107421875,-11.639999389648438,-46.79999923706055,-15
1788678783833134800,7.539134765625,-11.9399995803833,-47.7599983215332,-15.119999885559082
1788678783849004000,7.555004150390625,-12.359999656677246,-47.939998626708984,-15.059999465942383
1788678783864903700,7.570903564453125,-12.359999656677246,-48,-14.699999809265137
1788678783880803300,7.58680322265625,-12.239999771118164,-48,-14.399999618530273
1788678783896672500,7.602672607421875,-12.300000190734863,-48,-13.859999656677246
1788678783912633000,7.618633056640625,-12.539999961853027,-48.05999755859375,-13.4399995803833
1788678783928502300,7.634502197265625,-11.9399995803833,-48.119998931884766,-13.619999885559082
1788678783944402000,7.65040185546875,-11.75999927520752,-48.779998779296875,-13.619999885559082
1788678783960240600,7.66624072265625,-12.059999465942383,-48.599998474121094,-13.4399995803833
1788678783976109800,7.68210986328125,-11.699999809265137,-47.70000076293945,-13.139999389648438
1788678783992040000,7.6980400390625,-12,-47.70000076293945,-12.84000015258789
1788678784007909000,7.7139091796875,-12.899999618530273,-48.05999755859375,-12.359999656677246
1788678784023869700,7.72986962890625,-13.199999809265137,-48.23999786376953,-12.960000038146973
1788678784039708400,7.74570849609375,-12.84000015258789,-48,-12.84000015258789
1788678784055577600,7.76157763671875,-13.199999809265137,-47.81999969482422,-12.84000015258789
1788678784071477200,7.777477294921875,-13.319999694824219,-47.52000045776367,-12.59999942779541
1788678784087285200,7.79328515625,-12.420000076293945,-47.63999938964844,-11.880000114440918
1788678784103185000,7.809184814453125,-11.460000038146973,-47.39999771118164,-12
1788678784119054000,7.82505419921875,-11.34000015258789,-47.34000015258789,-11.880000114440918
1788678784134892800,7.840892822265625,-11.699999809265137,-48,-12.179999351501465
1788678784150823000,7.856822998046875,-12,-47.7599983215332,-12.65999984741211
1788678784166661400,7.872661376953125,-11.819999694824219,-48.41999816894531,-12.84000015258789
1788678784182622200,7.888622314453125,-11.819999694824219,-48.41999816894531,-12.420000076293945
1788678784198491400,7.904491455078125,-11.9399995803833,-48.23999786376953,-12.84000015258789
1788678784214391000,7.92039111328125,-11.460000038146973,-48.18000030517578,-13.739999771118164
1788678784230290700,7.936290771484375,-11.34000015258789,-47.87999725341797,-13.319999694824219
1788678784246160000,7.952159912109375,-11.279999732971191,-48,-13.380000114440918
1788678784269963500,7.975963623046875,-11.819999694824219,-47.52000045776367,-13.5
1788678784285802000,7.991802001953125,-11.9399995803833,-47.81999969482422,-13.739999771118164
1788678784301702000,8.007701904296875,-12.65999984741211,-47.279998779296875,-13.979999542236328
1788678784317510000,8.023510009765625,-12.179999351501465,-46.79999923706055,-14.09999942779541
1788678784333409500,8.039409423828126,-11.75999927520752,-46.86000061035156,-14.09999942779541
1788678784349339600,8.055339599609376,-12.420000076293945,-47.15999984741211,-14.9399995803833
1788678784365148000,8.07114794921875,-11.819999694824219,-47.57999801635742,-15.539999961853027
1788678784381078000,8.087078125,-11.15999984741211,-46.619998931884766,-15.539999961853027
1788678784396916500,8.10291650390625,-11.75999927520752,-46.439998626708984,-16.020000457763672
1788678784412755200,8.118755126953126,-12.539999961853027,-47.099998474121094,-16.559999465942383
1788678784428716000,8.134716064453125,-12.479999542236328,-46.55999755859375,-16.68000030517578
1788678784444554500,8.150554443359376,-12.239999771118164,-46.13999938964844,-16.979999542236328
1788678784460515300,8.166515380859375,-11.460000038146973,-46.79999923706055,-17.34000015258789
1788678784476384300,8.18238427734375,-10.4399995803833,-46.86000061035156,-17.279998779296875
1788678784492223000,8.198222900390626,-11.219999313354492,-47.099998474121094,-17.940000534057617
1788678784508153000,8.214153076171876,-11.75999927520752,-46.439998626708984,-18
1788678784523991800,8.22999169921875,-10.4399995803833,-45.41999816894531,-17.459999084472656
1788678784539983000,8.245983154296875,-10.619999885559082,-46.02000045776367,-18.18000030517578
1788678784555760600,8.2617607421875,-11.819999694824219,-45.89999771118164,-19.139999389648438
1788678784571629800,8.2776298828125,-11.880000114440918,-45.47999954223633,-18.959999084472656
1788678784587560000,8.293559814453126,-11.75999927520752,-45.36000061035156,-18.84000015258789
1788678784603368000,8.309367919921876,-11.34000015258789,-44.63999938964844,-19.31999969482422
1788678784619267600,8.325267578125,-11.880000114440918,-44.040000915527344,-19.31999969482422
1788678784635075800,8.341075927734375,-12.65999984741211,-45.23999786376953,-19.260000228881836
1788678784650945000,8.356945068359375,-12.59999942779541,-45.84000015258789,-19.439998626708984
1788678784666905600,8.372905517578126,-12.960000038146973,-45.53999710083008,-19.85999870300293
1788678784682744300,8.388744384765625,-12.779999732971191,-45.53999710083008,-20.399999618530273
1788678784698644000,8.40464404296875,-12.779999732971191,-44.70000076293945,-19.979999542236328
1788678784722447600,8.428447509765626,-12.119999885559082,-44.63999938964844,-19.739999771118164
1788678784738377700,8.444377685546876,-12.59999942779541,-44.34000015258789,-19.799999237060547
1788678784754216400,8.460216552734375,-12.420000076293945,-44.279998779296875,-19.079999923706055
1788678784770116000,8.4761162109375,-12,-44.52000045776367,-19.31999969482422
1788678784786046200,8.492046142578126,-12.779999732971191,-45.47999954223633,-19.68000030517578
1788678784801915400,8.507915283203126,-12.59999942779541,-45.36000061035156,-19.5
1788678784817784600,8.52378466796875,-12.179999351501465,-44.81999969482422,-19.68000030517578
1788678784833623000,8.539623046875,-12,-43.97999954223633,-19.739999771118164
1788678784849553400,8.555553466796875,-12,-44.34000015258789,-19.799999237060547
1788678784865483500,8.5714833984375,-12.179999351501465,-45.36000061035156,-19.799999237060547
1788678784889317600,8.595317626953126,-12.300000190734863,-45.41999816894531,-19.260000228881836
1788678784905248000,8.611248046875,-12.059999465942383,-45.41999816894531,-19.3799991607666
1788678784921056000,8.627055908203126,-11.279999732971191,-45.71999740600586,-19.559999465942383
1788678784936986000,8.642986083984376,-11.09999942779541,-45.18000030517578,-19.020000457763672
1788678784952794400,8.65879443359375,-11.039999961853027,-45.23999786376953,-19.079999923706055
1788678784968663600,8.67466357421875,-11.399999618530273,-46.07999801635742,-18.959999084472656
1788678784984563200,8.690563232421875,-11.399999618530273,-45.599998474121094,-19.19999885559082
1788678785000371200,8.70637109375,-11.880000114440918,-45.23999786376953,-19.139999389648438
1788678785016270800,8.722270751953126,-11.75999927520752,-45.29999923706055,-18.479999542236328
1788678785032109600,8.738109619140625,-11.15999984741211,-45.119998931884766,-18.420000076293945
1788678785047978500,8.753978515625,-11.219999313354492,-45.18000030517578,-18.059999465942383
1788678785063939300,8.769939208984376,-11.519999504089355,-45.959999084472656,-18.35999870300293
1788678785079778000,8.785778076171875,-11.460000038146973,-46.439998626708984,-18.35999870300293
1788678785095677700,8.801677734375,-11.399999618530273,-46.2599983215332,-17.81999969482422
1788678785111485700,8.817485595703126,-12.300000190734863,-46.07999801635742,-17.579999923706055
1788678785127385300,8.83338525390625,-12.719999313354492,-45.65999984741211,-17.100000381469727
1788678785143315500,8.8493154296875,-12.420000076293945,-45.84000015258789,-16.799999237060547
1788678785159123700,8.865123779296875,-12.84000015258789,-45.71999740600586,-17.279998779296875
1788678785175023400,8.8810234375,-12.84000015258789,-46.07999801635742,-17.03999900817871
1788678785190861800,8.89686181640625,-13.079999923706055,-46.68000030517578,-16.920000076293945
1788678785206792200,8.912792236328125,-13.319999694824219,-45.71999740600586,-16.85999870300293
1788678785222691800,8.92869189453125,-13.380000114440918,-45.84000015258789,-16.920000076293945
1788678785238530300,8.9445302734375,-13.739999771118164,-46.07999801635742,-17.279998779296875
1788678785254460700,8.960460693359375,-13.019999504089355,-46.2599983215332,-16.920000076293945
1788678785270299100,8.976299072265626,-14.15999984741211,-46.37999725341797,-16.559999465942383
1788678785286198800,8.99219873046875,-15.179999351501465,-45.18000030517578,-17.219999313354492
1788678785302098400,9.008098388671876,-14.399999618530273,-45.41999816894531,-17.399999618530273
1788678785317967600,9.023967529296876,-14.279999732971191,-46.13999938964844,-16.739999771118164
1788678785333867300,9.0398671875,-14.279999732971191,-45.959999084472656,-16.739999771118164
1788678785349736400,9.055736328125,-14.279999732971191,-45.89999771118164,-16.68000030517578
1788678785365605600,9.071605712890625,-14.579999923706055,-45.84000015258789,-16.619998931884766
1788678785381566200,9.087566162109376,-14.279999732971191,-45.47999954223633,-16.559999465942383
1788678785397374500,9.10337451171875,-14.15999984741211,-45.18000030517578,-16.799999237060547
1788678785413274000,9.119274169921875,-13.679999351501465,-45.29999923706055,-16.85999870300293
1788678785429082000,9.13508203125,-14.039999961853027,-45.65999984741211,-17.279998779296875
1788678785444981800,9.150981689453126,-14.880000114440918,-45.18000030517578,-17.34000015258789
1788678785460881400,9.16688134765625,-13.799999237060547,-44.279998779296875,-17.760000228881836
1788678785476750600,9.18275048828125,-13.079999923706055,-44.459999084472656,-18.420000076293945
1788678785492650200,9.198650146484376,-13.139999389648438,-45.119998931884766,-18.719999313354492
1788678785508519400,9.21451953125,-13.019999504089355,-45.71999740600586,-18.84000015258789
1788678785524480000,9.23047998046875,-12.479999542236328,-45.959999084472656,-19.31999969482422
1788678785540379600,9.246379638671876,-12.059999465942383,-45.47999954223633,-19.439998626708984
1788678785556248800,9.262248779296876,-12.479999542236328,-44.81999969482422,-19.260000228881836
1788678785572179000,9.278178955078126,-12.239999771118164,-44.87999725341797,-19.260000228881836
1788678785588078600,9.29407861328125,-12.239999771118164,-45.23999786376953,-19.260000228881836
1788678785603947800,9.30994775390625,-12.719999313354492,-45.41999816894531,-19.68000030517578
1788678785619878100,9.325878173828125,-12.420000076293945,-45.71999740600586,-19.559999465942383
1788678785635716600,9.341716552734376,-12.119999885559082,-45.47999954223633,-19.31999969482422
1788678785651616300,9.3576162109375,-12.479999542236328,-45.05999755859375,-18.779998779296875
1788678785667485400,9.3734853515625,-12.899999618530273,-44.70000076293945,-18.65999984741211
1788678785683354600,9.389354736328125,-12.179999351501465,-44.63999938964844,-19.020000457763672
1788678785699284700,9.40528466796875,-12.119999885559082,-45.41999816894531,-19.260000228881836
1788678785715093000,9.421093017578125,-12,-45.599998474121094,-19.020000457763672
1788678785730992600,9.43699267578125,-12.119999885559082,-45.119998931884766,-18.600000381469727
1788678785746892300,9.452892333984375,-13.380000114440918,-45.23999786376953,-19.260000228881836
1788678785762761200,9.46876123046875,-13.739999771118164,-45.71999740600586,-19.979999542236328
1788678785778660900,9.484660888671876,-14.219999313354492,-45.18000030517578,-19.619998931884766
1788678785794530000,9.500530029296876,-13.619999885559082,-44.81999969482422,-19.31999969482422
1788678785810429700,9.5164296875,-12.179999351501465,-45.29999923706055,-19.559999465942383
1788678785826238000,9.532238037109375,-12.59999942779541,-45.41999816894531,-19.979999542236328
1788678785842107100,9.548107177734375,-13.4399995803833,-45.89999771118164,-20.34000015258789
1788678785858037200,9.564037353515625,-12.899999618530273,-45.71999740600586,-20.760000228881836
1788678785873906400,9.579906494140625,-11.880000114440918,-44.939998626708984,-20.399999618530273
1788678785889836500,9.59583642578125,-11.219999313354492,-45,-19.739999771118164
1788678785905675300,9.61167529296875,-11.15999984741211,-45.65999984741211,-19.739999771118164
1788678785921544200,9.627544189453126,-11.519999504089355,-45.05999755859375,-19.19999885559082
1788678785937474600,9.643474609375,-12.479999542236328,-45.779998779296875,-18.420000076293945
1788678785953282600,9.659282470703126,-12.719999313354492,-46.2599983215332,-18.65999984741211
1788678785969212700,9.675212646484376,-11.699999809265137,-45,-18.420000076293945
1788678785985081900,9.691081787109376,-11.75999927520752,-45,-17.81999969482422
1788678786000981500,9.7069814453125,-11.75999927520752,-45.05999755859375,-18.18000030517578
1788678786016881200,9.722881103515626,-12,-45.29999923706055,-18.479999542236328
1788678786032689400,9.738689453125,-12.420000076293945,-45.119998931884766,-18.53999900817871
1788678786048589000,9.754589111328125,-12.539999961853027,-45.119998931884766,-18.059999465942383
1788678786064458000,9.7704580078125,-14.279999732971191,-45.05999755859375,-17.399999618530273
1788678786080327200,9.7863271484375,-15.059999465942383,-44.7599983215332,-17.219999313354492
1788678786096288000,9.8022880859375,-14.639999389648438,-45.41999816894531,-17.03999900817871
1788678786112096000,9.818095947265626,-14.15999984741211,-45.959999084472656,-17.100000381469727
1788678786128056800,9.834056884765625,-14.219999313354492,-45.959999084472656,-17.219999313354492
1788678786143895300,9.849895263671876,-14.519999504089355,-45.599998474121094,-16.5
1788678786159734000,9.865734130859375,-14.519999504089355,-45.119998931884766,-16.31999969482422
1788678786175633700,9.881633544921876,-14.579999923706055,-45.29999923706055,-16.440000534057617
1788678786191502800,9.8975029296875,-14.460000038146973,-46.20000076293945,-16.020000457763672
1788678786207433000,9.913432861328126,-14.219999313354492,-46.86000061035156,-15.839999198913574
1788678786223302100,9.92930224609375,-15.119999885559082,-46.55999755859375,-16.020000457763672
1788678786239201800,9.945201904296875,-15.239999771118164,-45.65999984741211,-16.139999389648438
1788678786255101400,9.961101318359376,-14.75999927520752,-45.47999954223633,-16.5
1788678786270909400,9.976909423828126,-15.119999885559082,-45.23999786376953,-17.100000381469727
1788678786286839800,9.99283984375,-14.219999313354492,-45.119998931884766,-16.559999465942383
1788678786302617300,10.008617431640625,-14.15999984741211,-45.84000015258789,-16.19999885559082
1788678786318486500,10.024486572265625,-15.719999313354492,-45.53999710083008,-16.619998931884766
1788678786334416600,10.040416748046875,-16.619998931884766,-44.87999725341797,-16.920000076293945
1788678786350224600,10.056224609375,-16.799999237060547,-44.57999801635742,-16.85999870300293
1788678786366124300,10.072124267578126,-16.3799991607666,-44.57999801635742,-16.979999542236328
1788678786381993500,10.087993408203126,-16.19999885559082,-44.15999984741211,-17.639999389648438
1788678786397832200,10.103832275390625,-15.839999198913574,-43.91999816894531,-18.18000030517578
1788678786413762300,10.11976220703125,-15.359999656677246,-43.97999954223633,-17.760000228881836
1788678786429570300,10.1355703125,-15,-43.73999786376953,-17.760000228881836
1788678786445500700,10.151500732421875,-14.519999504089355,-44.279998779296875,-18.65999984741211
1788678786461369900,10.167369873046875,-14.519999504089355,-44.459999084472656,-18.779998779296875
1788678786477238800,10.18323876953125,-14.519999504089355,-44.21999740600586,-18.959999084472656
1788678786493169200,10.199169189453125,-14.279999732971191,-44.099998474121094,-19.020000457763672
1788678786509007600,10.215007568359376,-14.09999942779541,-44.81999969482422,-19.139999389648438
1788678786524937700,10.230937744140626,-14.579999923706055,-44.39999771118164,-19.260000228881836
1788678786540807000,10.246806884765626,-13.979999542236328,-43.2599983215332,-19.31999969482422
1788678786556706600,10.26270654296875,-13.079999923706055,-43.55999755859375,-19.739999771118164
1788678786572606200,10.278606201171876,-12.719999313354492,-43.439998626708984,-20.520000457763672
1788678786588414500,10.29441455078125,-12.479999542236328,-43.86000061035156,-21
1788678786604314000,10.310314208984375,-12.960000038146973,-44.15999984741211,-20.8799991607666
1788678786620122000,10.3261220703125,-12.719999313354492,-43.55999755859375,-21
1788678786635991300,10.3419912109375,-12.719999313354492,-43.68000030517578,-21.239999771118164
1788678786651921400,10.35792138671875,-12.719999313354492,-43.73999786376953,-21
1788678786667729700,10.373729736328125,-12.65999984741211,-43.439998626708984,-21.18000030517578
1788678786683659800,10.38965966796875,-13.319999694824219,-43.86000061035156,-20.579999923706055
1788678786699437300,10.405437255859376,-12.719999313354492,-43.68000030517578,-20.34000015258789
1788678786715337000,10.4213369140625,-12.539999961853027,-43.13999938964844,-20.939998626708984
1788678786731267000,10.43726708984375,-13.079999923706055,-43.86000061035156,-21.779998779296875
1788678786747105800,10.453105712890626,-13.619999885559082,-43.2599983215332,-21.779998779296875
1788678786763036000,10.469035888671876,-13.380000114440918,-42.47999954223633,-21.239999771118164
1788678786778844200,10.48484423828125,-12.84000015258789,-42.65999984741211,-21.65999984741211
1788678786794713300,10.50071337890625,-13.559999465942383,-42.65999984741211,-21.600000381469727
1788678786810643500,10.5166435546875,-14.279999732971191,-42.41999816894531,-21.779998779296875
1788678786826482000,10.53248193359375,-14.34000015258789,-42.29999923706055,-21.779998779296875
1788678786842381600,10.548381591796876,-13.979999542236328,-42.41999816894531,-21.779998779296875
1788678786858281500,10.564281494140625,-14.09999942779541,-42.41999816894531,-22.020000457763672
1788678786874150400,10.580150390625,-13.979999542236328,-42.84000015258789,-22.260000228881836
1788678786890050000,10.596050048828126,-13.619999885559082,-43.07999801635742,-22.260000228881836
1788678786905919200,10.611919189453126,-13.25999927520752,-42.599998474121094,-22.19999885559082
1788678786921849300,10.627849365234376,-12.899999618530273,-42.599998474121094,-22.799999237060547
1788678786937718500,10.643718505859376,-13.25999927520752,-42.47999954223633,-22.920000076293945
1788678786953618200,10.6596181640625,-12.65999984741211,-42.41999816894531,-22.260000228881836
1788678786969517800,10.675517822265626,-12.179999351501465,-43.20000076293945,-22.31999969482422
1788678786985356500,10.6913564453125,-12.65999984741211,-42.89999771118164,-22.3799991607666
1788678787001286700,10.70728662109375,-13.380000114440918,-42.41999816894531,-22.439998626708984
1788678787017155800,10.72315576171875,-12.59999942779541,-42.599998474121094,-22.920000076293945
1788678787033025000,10.73902490234375,-12.420000076293945,-42.84000015258789,-22.079999923706055
1788678787048955100,10.754955078125,-12.59999942779541,-42.71999740600586,-21.35999870300293
1788678787064824300,10.77082421875,-11.34000015258789,-43.37999725341797,-21.420000076293945
1788678787080693500,10.786693603515625,-11.880000114440918,-43.86000061035156,-21.600000381469727
1788678787096593200,10.80259326171875,-13.5,-44.099998474121094,-21.239999771118164
1788678787112492800,10.818492919921875,-13.139999389648438,-44.81999969482422,-20.639999389648438
1788678787128423000,10.8344228515625,-12.899999618530273,-43.55999755859375,-19.979999542236328
1788678787144261600,10.85026171875,-13.859999656677246,-43.439998626708984,-19.31999969482422
1788678787160191700,10.866191650390626,-14.09999942779541,-44.279998779296875,-19.739999771118164
1788678787175999700,10.881999755859376,-14.09999942779541,-44.279998779296875,-19.739999771118164
1788678787191869000,10.897868896484376,-13.319999694824219,-44.21999740600586,-19.619998931884766
1788678787207768600,10.9137685546875,-13.139999389648438,-43.97999954223633,-19.559999465942383
1788678787223668200,10.929668212890626,-13.979999542236328,-43.5,-19.439998626708984
1788678787239598600,10.9455986328125,-14.09999942779541,-43.20000076293945,-19.139999389648438
1788678787255467500,10.961467529296876,-14.279999732971191,-43.97999954223633,-19.139999389648438
1788678787271367200,10.9773671875,-14.9399995803833,-43.97999954223633,-18.65999984741211
1788678787287328000,10.993327880859376,-15.359999656677246,-43.619998931884766,-18.18000030517578
1788678787303227600,11.0092275390625,-15.539999961853027,-43.91999816894531,-18.299999237060547
1788678787319157800,11.02515771484375,-14.880000114440918,-44.15999984741211,-18.299999237060547
1788678787334966000,11.040966064453125,-14.819999694824219,-43.86000061035156,-18.239999771118164
1788678787350896000,11.056896240234375,-14.639999389648438,-43.91999816894531,-17.69999885559082
1788678787366765300,11.072765380859375,-13.979999542236328,-43.91999816894531,-18.119998931884766
1788678787382573300,11.0885732421875,-13.859999656677246,-43.97999954223633,-18.119998931884766
1788678787398534100,11.1045341796875,-13.859999656677246,-44.34000015258789,-17.8799991607666
1788678787414342100,11.120342041015626,-13.559999465942383,-43.91999816894531,-18.35999870300293
1788678787430241800,11.13624169921875,-14.399999618530273,-44.099998474121094,-18.35999870300293
1788678787446172000,11.152171875,-15,-44.57999801635742,-17.760000228881836
1788678787461980200,11.167980224609375,-13.979999542236328,-44.70000076293945,-18.059999465942383
1788678787477879800,11.1838798828125,-13.920000076293945,-45.23999786376953,-18.35999870300293
1788678787493749000,11.1997490234375,-13.799999237060547,-44.70000076293945,-17.81999969482422
1788678787509618000,11.215617919921876,-13.739999771118164,-43.73999786376953,-18.479999542236328
1788678787525548300,11.23154833984375,-13.619999885559082,-44.21999740600586,-18.719999313354492
1788678787541417200,11.247417236328126,-13.380000114440918,-44.279998779296875,-18.53999900817871
1788678787557347600,11.26334765625,-13.559999465942383,-43.91999816894531,-18.479999542236328
1788678787573186000,11.27918603515625,-13.5,-44.52000045776367,-19.31999969482422
1788678787589024800,11.295024658203126,-13.199999809265137,-44.459999084472656,-20.34000015258789
1788678787604955000,11.310954833984376,-12.899999618530273,-43.91999816894531,-19.920000076293945
1788678787620793600,11.326793701171875,-12.84000015258789,-43.97999954223633,-19.85999870300293
1788678787636723700,11.3427236328125,-12.59999942779541,-43.73999786376953,-20.219999313354492
1788678787652531700,11.35853173828125,-12.65999984741211,-43.37999725341797,-20.939998626708984
1788678787668401000,11.37440087890625,-12.059999465942383,-43.439998626708984,-21.719999313354492
1788678787684331300,11.390331298828125,-11.460000038146973,-43.73999786376953,-21.959999084472656
1788678787700169700,11.406169677734376,-11.75999927520752,-43.37999725341797,-22.020000457763672
1788678787716069400,11.4220693359375,-12.239999771118164,-43.07999801635742,-21.65999984741211
1788678787731938600,11.4379384765625,-12.119999885559082,-43.07999801635742,-22.020000457763672
1788678787747868700,11.45386865234375,-12.239999771118164,-42.599998474121094,-22.619998931884766
1788678787763768300,11.469768310546876,-11.880000114440918,-42,-22.619998931884766
1788678787779637500,11.485637451171876,-11.460000038146973,-41.63999938964844,-22.19999885559082
1788678787795537200,11.501537109375,-11.880000114440918,-41.57999801635742,-22.439998626708984
1788678787811375900,11.5173759765625,-12.420000076293945,-41.81999969482422,-22.920000076293945
1788678787827245000,11.5332451171875,-12.59999942779541,-42.05999755859375,-22.5
1788678787843175200,11.549175048828126,-12.779999732971191,-41.939998626708984,-21.719999313354492
1788678787859044400,11.56504443359375,-13.859999656677246,-41.34000015258789,-21.899999618530273
1788678787875005000,11.5810048828125,-14.519999504089355,-41.15999984741211,-22.079999923706055
1788678787890874000,11.5968740234375,-14.460000038146973,-41.70000076293945,-21.420000076293945
1788678787906743300,11.612743408203125,-14.039999961853027,-41.279998779296875,-21.35999870300293
1788678787922673400,11.62867333984375,-14.09999942779541,-40.79999923706055,-22.260000228881836
1788678787938512100,11.64451220703125,-14.819999694824219,-41.34000015258789,-22.619998931884766
1788678787954442200,11.660442138671876,-13.920000076293945,-41.34000015258789,-22.260000228881836
1788678787970311400,11.6763115234375,-13.139999389648438,-41.279998779296875,-22.5
1788678787986180600,11.6921806640625,-13.079999923706055,-41.279998779296875,-21.959999084472656
1788678788002110700,11.70811083984375,-13.739999771118164,-41.099998474121094,-21.35999870300293
1788678788017980000,11.72397998046875,-13.799999237060547,-41.21999740600586,-21.84000015258789
1788678788033879600,11.739879638671875,-12.779999732971191,-40.86000061035156,-21.899999618530273
1788678788049718000,11.755718017578126,-12.65999984741211,-41.279998779296875,-22.139999389648438
1788678788065648400,11.7716484375,-12.420000076293945,-42.18000030517578,-22.559999465942383
1788678788081548000,11.787548095703125,-11.039999961853027,-41.57999801635742,-21.84000015258789
1788678788097417200,11.803417236328125,-11.279999732971191,-41.459999084472656,-21.299999237060547
1788678788113316900,11.81931689453125,-12.179999351501465,-41.459999084472656,-21.479999542236328
1788678788129155300,11.8351552734375,-12,-41.39999771118164,-21.35999870300293
1788678788145055000,11.851054931640626,-11.15999984741211,-41.21999740600586,-20.279998779296875
1788678788160954600,11.86695458984375,-10.800000190734863,-40.31999969482422,-20.100000381469727
1788678788176823800,11.88282373046875,-11.819999694824219,-41.15999984741211,-20.399999618530273
1788678788192754000,11.89875390625,-12.719999313354492,-41.939998626708984,-20.219999313354492
1788678788208562200,11.914562255859375,-12.59999942779541,-41.279998779296875,-19.260000228881836
1788678788224492300,11.9304921875,-12.779999732971191,-40.91999816894531,-18.779998779296875
1788678788240422400,11.94642236328125,-13.019999504089355,-41.099998474121094,-19.19999885559082
1788678788256291600,11.96229150390625,-12.119999885559082,-41.040000915527344,-18.35999870300293
1788678788272252400,11.97825244140625,-11.460000038146973,-41.21999740600586,-17.760000228881836
1788678788288091000,11.9940908203125,-12.119999885559082,-41.81999969482422,-18.18000030517578
1788678788303929600,12.0099296875,-12.239999771118164,-41.57999801635742,-18.059999465942383
1788678788319890200,12.02589013671875,-11.219999313354492,-41.57999801635742,-17.639999389648438
1788678788335729000,12.04172900390625,-11.639999389648438,-42,-17.279998779296875
1788678788351689500,12.057689453125,-12.059999465942383,-41.21999740600586,-17.399999618530273
1788678788367558700,12.07355859375,-11.579999923706055,-40.20000076293945,-17.399999618530273
1788678788383458300,12.089458251953126,-11.880000114440918,-41.21999740600586,-16.979999542236328
1788678788399358000,12.10535791015625,-12.420000076293945,-41.34000015258789,-17.219999313354492
1788678788415196700,12.12119677734375,-12.960000038146973,-40.619998931884766,-16.739999771118164
1788678788431126800,12.137126708984376,-12.899999618530273,-40.619998931884766,-16.920000076293945
1788678788446996000,12.152995849609376,-12.65999984741211,-40.5,-17.279998779296875
1788678788462895600,12.1688955078125,-12.059999465942383,-40.2599983215332,-17.100000381469727
1788678788478856200,12.184856201171876,-11.880000114440918,-40.55999755859375,-17.100000381469727
1788678788494725400,12.200725341796876,-12.59999942779541,-40.31999969482422,-17.03999900817871
1788678788510625000,12.216625,-12.359999656677246,-40.07999801635742,-16.739999771118164
1788678788526494200,12.232494140625,-12,-40.13999938964844,-16.139999389648438
1788678788542363400,12.24836328125,-12.179999351501465,-40.20000076293945,-16.799999237060547
1788678788558293500,12.26429345703125,-12.539999961853027,-39.65999984741211,-17.15999984741211
1788678788574223600,12.2802236328125,-12.539999961853027,-39.23999786376953,-15.960000038146973
1788678788590123500,12.29612353515625,-12.479999542236328,-39.18000030517578,-15.059999465942383
1788678788605931500,12.311931640625,-11.880000114440918,-38.87999725341797,-15.539999961853027
1788678788621800700,12.32780078125,-11.819999694824219,-39,-16.19999885559082
1788678788637700400,12.343700439453125,-12.719999313354492,-38.81999969482422,-15.779999732971191
1788678788653508400,12.35950830078125,-13.079999923706055,-38.87999725341797,-15.899999618530273
1788678788669438500,12.3754384765625,-12.479999542236328,-38.57999801635742,-16.440000534057617
1788678788685246700,12.391246826171875,-11.9399995803833,-37.97999954223633,-16.559999465942383
1788678788701176800,12.4071767578125,-11.519999504089355,-37.79999923706055,-17.100000381469727
1788678788717076500,12.423076416015626,-11.460000038146973,-38.21999740600586,-17.459999084472656
1788678788732976000,12.43897607421875,-11.699999809265137,-38.52000045776367,-17.81999969482422
1788678788748845300,12.45484521484375,-11.639999389648438,-38.39999771118164,-17.03999900817871
1788678788764684000,12.47068408203125,-11.579999923706055,-37.55999755859375,-16.68000030517578
1788678788780583700,12.486583740234375,-10.979999542236328,-36.779998779296875,-17.399999618530273
1788678788796513800,12.502513671875,-11.09999942779541,-36.71999740600586,-18.059999465942383
1788678788812352500,12.5183525390625,-11.15999984741211,-37.20000076293945,-18.35999870300293
1788678788828252200,12.534252197265625,-11.279999732971191,-37.439998626708984,-18
1788678788844060200,12.55006005859375,-11.579999923706055,-37.439998626708984,-17.69999885559082
1788678788867894300,12.573894287109376,-10.619999885559082,-36,-18.18000030517578
1788678788883763500,12.589763427734376,-10.859999656677246,-35.21999740600586,-17.760000228881836
1788678788899663000,12.6056630859375,-11.279999732971191,-36.05999755859375,-17.69999885559082
1788678788915562800,12.621562744140626,-11.639999389648438,-36.36000061035156,-17.579999923706055
1788678788931401500,12.6374013671875,-12.119999885559082,-36.23999786376953,-17.459999084472656
1788678788947331600,12.65333154296875,-12,-35.34000015258789,-17.69999885559082
1788678788963170300,12.66917041015625,-12.359999656677246,-34.73999786376953,-17.639999389648438
1788678788979070000,12.685070068359375,-12.479999542236328,-34.73999786376953,-17.34000015258789
1788678788994969600,12.700969482421876,-12.300000190734863,-34.439998626708984,-17.100000381469727
1788678789010808300,12.716808349609375,-12.359999656677246,-34.5,-16.440000534057617
1788678789026708000,12.7327080078125,-12.65999984741211,-34.31999969482422,-16.31999969482422
1788678789042546400,12.74854638671875,-13.679999351501465,-34.5,-17.100000381469727
1788678789058415600,12.76441552734375,-13.679999351501465,-34.68000030517578,-17.219999313354492
1788678789074315300,12.780315185546876,-13.319999694824219,-35.34000015258789,-17.03999900817871
1788678789090123300,12.796123291015626,-12.899999618530273,-36.18000030517578,-17.279998779296875
1788678789106053600,12.8120537109375,-12.300000190734863,-35.459999084472656,-17.520000457763672
1788678789121861600,12.827861572265626,-12.65999984741211,-34.86000061035156,-17.219999313354492
1788678789137730800,12.843730712890626,-13.019999504089355,-34.68000030517578,-16.739999771118164
1788678789153661000,12.859660888671876,-12.239999771118164,-34.13999938964844,-16.079999923706055
1788678789169530000,12.875530029296876,-11.9399995803833,-33.959999084472656,-15.299999237060547
1788678789185399300,12.8913994140625,-11.9399995803833,-34.439998626708984,-15.420000076293945
1788678789201268500,12.9072685546875,-12.65999984741211,-34.55999755859375,-16.260000228881836
1788678789217137700,12.9231376953125,-13.319999694824219,-34.97999954223633,-16.31999969482422
1788678789233067800,12.93906787109375,-12.65999984741211,-34.86000061035156,-15.899999618530273
1788678789248906200,12.95490625,-12.719999313354492,-34.31999969482422,-15.420000076293945
1788678789264836600,12.970836669921875,-12.65999984741211,-34.619998931884766,-15.719999313354492
1788678789280705800,12.986705810546875,-12.65999984741211,-35.040000915527344,-15.65999984741211
1788678789304600800,13.010600830078126,-13.25999927520752,-35.040000915527344,-14.9399995803833
1788678789320409000,13.0264091796875,-12.479999542236328,-35.040000915527344,-15.239999771118164
1788678789336278300,13.0422783203125,-12.65999984741211,-36,-14.579999923706055
1788678789352208400,13.05820849609375,-13.319999694824219,-35.21999740600586,-14.279999732971191
1788678789368047000,13.074047119140625,-13.979999542236328,-35.34000015258789,-14.460000038146973
1788678789383977200,13.089977294921875,-14.219999313354492,-35.57999801635742,-14.09999942779541
1788678789399846400,13.105846435546875,-14.09999942779541,-35.21999740600586,-13.4399995803833
1788678789415746000,13.12174609375,-14.219999313354492,-35.880001068115234,-13.859999656677246
1788678789431645700,13.137645751953125,-14.279999732971191,-35.7599983215332,-13.199999809265137
1788678789447514600,13.1535146484375,-13.979999542236328,-36,-12.300000190734863
1788678789463445000,13.169445068359375,-14.519999504089355,-35.459999084472656,-12.84000015258789
1788678789479314200,13.185314208984375,-14.639999389648438,-34.619998931884766,-12.719999313354492
1788678789495213800,13.2012138671875,-15,-34.55999755859375,-12.779999732971191
1788678789511144000,13.21714404296875,-15.59999942779541,-35.040000915527344,-12.899999618530273
1788678789526982400,13.232982421875,-15.420000076293945,-34.86000061035156,-12.59999942779541
1788678789542912800,13.248912841796875,-15.359999656677246,-34.79999923706055,-12.359999656677246
1788678789558782000,13.264781982421875,-15.539999961853027,-34.86000061035156,-12.179999351501465
1788678789574651000,13.28065087890625,-15.299999237060547,-34.380001068115234,-12.059999465942383
1788678789590581200,13.296581298828125,-14.34000015258789,-34.97999954223633,-12.119999885559082
1788678789606419700,13.312419677734376,-14.880000114440918,-34.20000076293945,-12.119999885559082
1788678789622350000,13.32835009765625,-15.960000038146973,-34.07999801635742,-11.75999927520752
1788678789638219000,13.344218994140626,-15.779999732971191,-34.79999923706055,-11.9399995803833
1788678789654118700,13.36011865234375,-15.65999984741211,-35.34000015258789,-12.420000076293945
1788678789670079500,13.37607958984375,-15.59999942779541,-35.39999771118164,-11.9399995803833
1788678789685948700,13.39194873046875,-15.539999961853027,-34.97999954223633,-11.399999618530273
1788678789701909200,13.4079091796875,-15.239999771118164,-35.39999771118164,-12.179999351501465
1788678789717717500,13.423717529296875,-14.579999923706055,-35.63999938964844,-12.179999351501465
1788678789733586400,13.43958642578125,-14.699999809265137,-35.34000015258789,-12
1788678789749516800,13.455516845703125,-15.119999885559082,-34.5,-11.9399995803833
1788678789765355300,13.471355224609376,-15.059999465942383,-34.5,-12.479999542236328
1788678789781285400,13.487285400390626,-14.639999389648438,-34.619998931884766,-13.079999923706055
1788678789805119700,13.51111962890625,-15,-35.70000076293945,-12.84000015258789
1788678789821049900,13.5270498046875,-14.639999389648438,-36.05999755859375,-12.960000038146973
1788678789836949500,13.542949462890626,-14.34000015258789,-35.15999984741211,-13.139999389648438
1788678789860783900,13.566783935546875,-14.880000114440918,-34.07999801635742,-13.5
1788678789884587500,13.59058740234375,-15,-34.20000076293945,-13.559999465942383
1788678789900487200,13.606487060546876,-15.299999237060547,-34.2599983215332,-13.5
1788678789916356400,13.6223564453125,-14.9399995803833,-34.619998931884766,-12.779999732971191
1788678789932194800,13.63819482421875,-15.719999313354492,-34.20000076293945,-13.5
1788678789948125200,13.654125244140625,-15.420000076293945,-34.13999938964844,-14.279999732971191
1788678789963963600,13.669963623046876,-15.65999984741211,-34.31999969482422,-13.920000076293945
1788678789979832800,13.685832763671876,-16.260000228881836,-34.380001068115234,-14.15999984741211
1788678789995671600,13.701671630859375,-16.079999923706055,-34.2599983215332,-14.34000015258789
1788678790011571200,13.7175712890625,-16.079999923706055,-34.380001068115234,-14.219999313354492
1788678790027501300,13.733501220703126,-16.260000228881836,-34.13999938964844,-14.34000015258789
1788678790043375900,13.7493759765625,-15.899999618530273,-34.380001068115234,-14.34000015258789
1788678790059275500,13.765275634765626,-15.299999237060547,-34.380001068115234,-14.279999732971191
1788678790075114000,13.781114013671875,-15.960000038146973,-33.959999084472656,-14.34000015258789
1788678790091013600,13.797013671875,-16.139999389648438,-34.5,-14.460000038146973
1788678790106944000,13.812944091796876,-15.59999942779541,-34.31999969482422,-14.639999389648438
1788678790122843600,13.82884375,-15.960000038146973,-33.71999740600586,-15.239999771118164
1788678790138743300,13.844743408203126,-16.440000534057617,-33.65999984741211,-15.59999942779541
1788678790154704000,13.860703857421875,-17.03999900817871,-33.779998779296875,-15.239999771118164
1788678790170573000,13.876572998046875,-17.15999984741211,-33.779998779296875,-14.399999618530273
1788678790186503200,13.892503173828125,-16.19999885559082,-34.20000076293945,-14.699999809265137
1788678790202433500,13.90843359375,-15.539999961853027,-34.73999786376953,-15.420000076293945
1788678790218333200,13.924333251953126,-15.299999237060547,-34.02000045776367,-15.59999942779541
1788678790234141200,13.94014111328125,-16.19999885559082,-34.07999801635742,-15.539999961853027
1788678790250071300,13.9560712890625,-16.19999885559082,-33.779998779296875,-15.359999656677246
1788678790266001700,13.972001708984376,-15.359999656677246,-33.779998779296875,-14.579999923706055
1788678790281840000,13.987840087890625,-15.719999313354492,-34.2599983215332,-14.880000114440918
1788678790297739800,14.00373974609375,-16.31999969482422,-33.71999740600586,-15.539999961853027
1788678790313578500,14.01957861328125,-15.839999198913574,-34.02000045776367,-14.699999809265137
1788678790337412600,14.04341259765625,-16.19999885559082,-33.84000015258789,-14.75999927520752
1788678790353251300,14.059251220703125,-16.260000228881836,-33.65999984741211,-14.460000038146973
1788678790369120500,14.07512060546875,-16.020000457763672,-34.2599983215332,-14.699999809265137
1788678790385020200,14.091020263671876,-15.65999984741211,-34.86000061035156,-15.359999656677246
1788678790400858600,14.106858642578125,-15.65999984741211,-35.040000915527344,-15.059999465942383
1788678790416789000,14.1227890625,-15.479999542236328,-34.73999786376953,-15.239999771118164
1788678790432688600,14.138688720703126,-15.839999198913574,-34.55999755859375,-15.239999771118164
1788678790448557800,14.154557861328126,-16.19999885559082,-34.73999786376953,-15
1788678790464488000,14.170488037109376,-15.239999771118164,-34.619998931884766,-15
1788678790480326400,14.186326416015625,-15.299999237060547,-34.439998626708984,-14.880000114440918
1788678790496226000,14.20222607421875,-16.440000534057617,-35.040000915527344,-14.460000038146973
1788678790512064800,14.218064697265625,-17.219999313354492,-35.21999740600586,-13.799999237060547
1788678790527934000,14.233933837890625,-17.399999618530273,-34.619998931884766,-13.380000114440918
1788678790543864000,14.249864013671875,-17.279998779296875,-34.55999755859375,-12.84000015258789
1788678790559702800,14.265702880859376,-17.03999900817871,-34.31999969482422,-12.239999771118164
1788678790575663400,14.281663330078125,-16.440000534057617,-34.31999969482422,-12.719999313354492
1788678790591471600,14.2974716796875,-16.19999885559082,-34.68000030517578,-13.679999351501465
1788678790607401700,14.313401611328125,-16.31999969482422,-34.619998931884766,-13.619999885559082
1788678790623301400,14.32930126953125,-16.440000534057617,-34.79999923706055,-13.979999542236328
1788678790639170600,14.345170654296876,-16.020000457763672,-35.63999938964844,-13.679999351501465
1788678790655070200,14.3610703125,-16.19999885559082,-35.939998626708984,-13.139999389648438
1788678790670908700,14.37690869140625,-16.85999870300293,-35.52000045776367,-13.859999656677246
1788678790686839000,14.392839111328126,-16.079999923706055,-35.15999984741211,-13.799999237060547
1788678790702769200,14.40876904296875,-15.59999942779541,-34.97999954223633,-13.079999923706055
1788678790718608000,14.42460791015625,-16.079999923706055,-35.15999984741211,-12.84000015258789
1788678790734476800,14.440476806640625,-16.260000228881836,-34.97999954223633,-13.079999923706055
1788678790750315500,14.4563154296875,-15.960000038146973,-35.21999740600586,-13.019999504089355
1788678790766245600,14.47224560546875,-16.260000228881836,-35.81999969482422,-13.25999927520752
1788678790782145300,14.488145263671875,-16.31999969482422,-35.39999771118164,-13.619999885559082
1788678790798014500,14.504014404296875,-15.839999198913574,-35.279998779296875,-13.799999237060547
1788678790813975300,14.519975341796876,-16.020000457763672,-35.52000045776367,-13.920000076293945
1788678790829783300,14.535783203125,-16.559999465942383,-35.459999084472656,-13.679999351501465
1788678790845713400,14.55171337890625,-16.139999389648438,-35.81999969482422,-13.4399995803833
1788678790861613000,14.567613037109375,-15.960000038146973,-36.41999816894531,-13.319999694824219
1788678790877512700,14.5835126953125,-15.719999313354492,-36.29999923706055,-13.559999465942383
1788678790893382000,14.5993818359375,-15.539999961853027,-35.70000076293945,-13.920000076293945
1788678790909220600,14.615220703125,-16.3799991607666,-35.7599983215332,-14.15999984741211
1788678790925150700,14.631150634765625,-15.839999198913574,-36.119998931884766,-13.920000076293945
1788678790941050400,14.64705029296875,-15.65999984741211,-35.34000015258789,-14.09999942779541
1788678790956919600,14.66291943359375,-15.359999656677246,-34.86000061035156,-14.519999504089355
1788678790972819200,14.678819091796875,-14.460000038146973,-34.86000061035156,-14.519999504089355
1788678790988688400,14.6946884765625,-15,-34.619998931884766,-14.819999694824219
1788678791004557600,14.7105576171875,-15.299999237060547,-34.79999923706055,-15
1788678791020487700,14.72648779296875,-14.880000114440918,-34.13999938964844,-15.239999771118164
1788678791036326100,14.742326171875,-15.239999771118164,-34.07999801635742,-15.179999351501465
1788678791052225800,14.758225830078125,-15.65999984741211,-34.619998931884766,-14.880000114440918
1788678791068095000,14.774094970703125,-15.239999771118164,-34.619998931884766,-14.75999927520752
1788678791083933700,14.78993359375,-14.699999809265137,-34.07999801635742,-14.880000114440918
1788678791099863800,14.80586376953125,-14.880000114440918,-34.31999969482422,-15.59999942779541
1788678791115702500,14.82170263671875,-15.539999961853027,-34.97999954223633,-16.139999389648438
1788678791131571700,14.83757177734375,-15.479999542236328,-34.5,-16.260000228881836
1788678791147410200,14.85341015625,-15.239999771118164,-34.02000045776367,-16.139999389648438
1788678791163279400,14.869279296875,-15.59999942779541,-33.84000015258789,-15.779999732971191
1788678791179209500,14.88520947265625,-15.420000076293945,-33.959999084472656,-15.719999313354492
1788678791195048200,14.901048095703125,-15.65999984741211,-33.71999740600586,-15.65999984741211
1788678791210978300,14.916978271484375,-15.839999198913574,-33.41999816894531,-15.779999732971191
1788678791226847500,14.932847412109375,-15.239999771118164,-33.23999786376953,-16.020000457763672
1788678791242716700,14.948716552734375,-15.359999656677246,-33.47999954223633,-15.899999618530273
1788678791258646800,14.964646728515625,-16.31999969482422,-34.07999801635742,-16.020000457763672
1788678791274516000,14.980515869140625,-17.15999984741211,-33.71999740600586,-16.079999923706055
1788678791290415600,14.99641552734375,-17.520000457763672,-33.540000915527344,-16.739999771118164
1788678791306315300,15.012315185546875,-17.520000457763672,-33.540000915527344,-17.219999313354492
1788678791346018600,15.0520185546875,-16.19999885559082,-33.84000015258789,-15.960000038146973
1788678791361918200,15.067918212890625,-17.279998779296875,-33.71999740600586,-16.079999923706055
1788678791377848600,15.0838486328125,-18.65999984741211,-33.779998779296875,-16.260000228881836
1788678791393717500,15.099717529296875,-17.399999618530273,-33.540000915527344,-16.31999969482422
1788678791409617200,15.1156171875,-16.079999923706055,-33.71999740600586,-16.19999885559082
1788678791425486300,15.131486328125,-16.079999923706055,-33,-16.260000228881836
1788678791441386000,15.147385986328125,-15.779999732971191,-33.36000061035156,-16.3799991607666
1788678791457316400,15.16331640625,-15.420000076293945,-33.23999786376953,-15.359999656677246
1788678791473124400,15.179124267578125,-15.719999313354492,-32.939998626708984,-15.119999885559082
1788678791489054500,15.195054443359375,-16.85999870300293,-34.13999938964844,-15.059999465942383
1788678791504862700,15.21086279296875,-17.15999984741211,-34.20000076293945,-15.059999465942383
1788678791528727300,15.234727294921875,-15.899999618530273,-33.41999816894531,-14.819999694824219
1788678791544566000,15.25056591796875,-16.559999465942383,-33.05999755859375,-14.09999942779541
1788678791560435200,15.266435302734376,-17.100000381469727,-33.36000061035156,-14.09999942779541
1788678791576334800,15.2823349609375,-17.03999900817871,-34.20000076293945,-13.979999542236328
1788678791592204000,15.2982041015625,-17.69999885559082,-34.380001068115234,-13.199999809265137
1788678791608073000,15.314072998046875,-17.639999389648438,-33.84000015258789,-12.899999618530273
1788678791623911700,15.32991162109375,-17.34000015258789,-34.02000045776367,-13.619999885559082
1788678791639780900,15.34578076171875,-17.34000015258789,-34.439998626708984,-13.199999809265137
1788678791655680500,15.361680419921875,-16.979999542236328,-34.619998931884766,-13.139999389648438
1788678791671549700,15.3775498046875,-17.15999984741211,-34.619998931884766,-12.960000038146973
1788678791687449300,15.393449462890626,-17.399999618530273,-34.20000076293945,-12.479999542236328
1788678791703318500,15.409318603515626,-17.520000457763672,-34.20000076293945,-12.65999984741211
1788678791719187700,15.425187744140626,-17.459999084472656,-34.439998626708984,-12.779999732971191
1788678791735087400,15.44108740234375,-17.219999313354492,-34.07999801635742,-12.539999961853027
1788678791750925800,15.45692578125,-16.559999465942383,-34.02000045776367,-12.420000076293945
1788678791766825500,15.472825439453125,-16.799999237060547,-34.79999923706055,-12.779999732971191
1788678791782694700,15.488694580078125,-17.399999618530273,-34.91999816894531,-12.719999313354492
1788678791798563800,15.504563720703125,-17.940000534057617,-34.68000030517578,-12.65999984741211
1788678791814494000,15.520493896484375,-17.81999969482422,-34.97999954223633,-12.479999542236328
1788678791830363100,15.536363037109375,-17.279998779296875,-35.39999771118164,-12.59999942779541
1788678791846262800,15.5522626953125,-18,-35.279998779296875,-12.65999984741211
1788678791862132000,15.568132080078126,-18.600000381469727,-34.5,-12.359999656677246
1788678791878001200,15.584001220703126,-17.279998779296875,-33.779998779296875,-12.539999961853027
1788678791893961700,15.599961669921875,-16.920000076293945,-34.380001068115234,-12.59999942779541
1788678791909831000,15.615830810546875,-17.639999389648438,-34.79999923706055,-12.300000190734863
1788678791925730600,15.63173046875,-17.459999084472656,-34.5,-12.539999961853027
1788678791941599700,15.647599853515626,-17.639999389648438,-34.86000061035156,-12.59999942779541
1788678791957529900,15.66352978515625,-18.119998931884766,-35.040000915527344,-12.719999313354492
1788678791973490700,15.67949072265625,-18,-34.79999923706055,-13.25999927520752
1788678791989329200,15.6953291015625,-17.459999084472656,-35.099998474121094,-12.960000038146973
1788678792005259300,15.71125927734375,-17.579999923706055,-35.459999084472656,-12.59999942779541
1788678792021128400,15.72712841796875,-18.299999237060547,-34.97999954223633,-12.65999984741211
1788678792037089300,15.74308935546875,-18.65999984741211,-34.380001068115234,-12.899999618530273
1788678792053049900,15.7590498046875,-18.719999313354492,-34.380001068115234,-12.84000015258789
1788678792068888600,15.774888671875,-18.239999771118164,-34.55999755859375,-12.779999732971191
1788678792084788200,15.790788330078126,-18.53999900817871,-34.31999969482422,-12.960000038146973
1788678792100626700,15.806626708984375,-18.959999084472656,-35.040000915527344,-12.779999732971191
1788678792116496000,15.822495849609375,-18.719999313354492,-36.18000030517578,-12.84000015258789
1788678792132426200,15.83842626953125,-19.020000457763672,-35.7599983215332,-12.300000190734863
1788678792148264700,15.8542646484375,-19.739999771118164,-35.880001068115234,-12.479999542236328
1788678792164194800,15.87019482421875,-20.579999923706055,-35.70000076293945,-13.319999694824219
1788678792180064000,15.88606396484375,-19.979999542236328,-34.73999786376953,-13.380000114440918
1788678792195963600,15.901963623046875,-19.3799991607666,-34.91999816894531,-13.5
1788678792211893800,15.917893798828125,-19.559999465942383,-34.91999816894531,-13.25999927520752
1788678792227854600,15.9338544921875,-19.19999885559082,-34.439998626708984,-12.899999618530273
1788678792243754200,15.949754150390625,-18.899999618530273,-34.86000061035156,-12.779999732971191
1788678792259562200,15.965562255859375,-18.84000015258789,-35.459999084472656,-13.619999885559082
1788678792275431400,15.981431396484375,-19.3799991607666,-35.63999938964844,-13.739999771118164
1788678792291361500,15.997361572265625,-19.979999542236328,-34.91999816894531,-13.079999923706055
1788678792307200300,16.0132001953125,-19.619998931884766,-34.68000030517578,-13.199999809265137
1788678792323130400,16.02913037109375,-19.559999465942383,-35.63999938964844,-12.59999942779541
1788678792338999600,16.04499951171875,-20.279998779296875,-35.459999084472656,-13.079999923706055
1788678792354868700,16.06086865234375,-21.059999465942383,-34.86000061035156,-13.799999237060547
1788678792370798800,16.076798828125,-21.899999618530273,-34.439998626708984,-13.559999465942383
1788678792386668000,16.09266796875,-21.299999237060547,-35.040000915527344,-12.479999542236328
1788678792402628900,16.10862890625,-20.81999969482422,-35.52000045776367,-11.880000114440918
1788678792418436900,16.124436767578125,-21.35999870300293,-35.21999740600586,-12.779999732971191
1788678792434306000,16.14030615234375,-22.079999923706055,-35.52000045776367,-12.779999732971191
1788678792450205700,16.156205810546876,-22.799999237060547,-35.39999771118164,-12.359999656677246
1788678792466044200,16.172044189453125,-21.84000015258789,-35.52000045776367,-12.84000015258789
1788678792481943800,16.18794384765625,-21.18000030517578,-35.939998626708984,-13.079999923706055
1788678792497813000,16.20381298828125,-21.779998779296875,-35.57999801635742,-12.84000015258789
1788678792513712600,16.219712646484375,-21.779998779296875,-34.97999954223633,-12.059999465942383
1788678792529643000,16.23564306640625,-21.35999870300293,-35.459999084472656,-11.9399995803833
1788678792545512000,16.251511962890625,-22.020000457763672,-36.599998474121094,-12.179999351501465
1788678792561442300,16.2674423828125,-21.779998779296875,-36.71999740600586,-12.239999771118164
1788678792577311500,16.2833115234375,-21.420000076293945,-36.84000015258789,-12.539999961853027
1788678792593180400,16.299180419921875,-21.84000015258789,-37.02000045776367,-12.300000190734863
1788678792609110800,16.31511083984375,-21.959999084472656,-36.84000015258789,-11.880000114440918
1788678792625010400,16.331010498046876,-21.420000076293945,-37.2599983215332,-11.219999313354492
1788678792640910000,16.34691015625,-21.600000381469727,-38.21999740600586,-10.559999465942383
1788678792656779300,16.362779296875,-21.84000015258789,-38.459999084472656,-10.199999809265137
1788678792672679000,16.378678955078126,-22.19999885559082,-37.86000061035156,-10.139999389648438
1788678792688609000,16.394609130859376,-23.399999618530273,-37.20000076293945,-10.199999809265137
1788678792704447500,16.410447509765625,-24.479999542236328,-37.20000076293945,-9.479999542236328
1788678792720408300,16.426408203125,-24.65999984741211,-37.20000076293945,-9.300000190734863
1788678792736216300,16.44221630859375,-24.600000381469727,-37.2599983215332,-8.9399995803833
1788678792752116000,16.458115966796875,-25.439998626708984,-38.040000915527344,-8.34000015258789
1788678792768046300,16.47404638671875,-25.439998626708984,-37.86000061035156,-8.15999984741211
1788678792783884800,16.489884765625,-25.559999465942383,-38.099998474121094,-7.559999942779541
1788678792799815000,16.50581494140625,-25.439998626708984,-38.52000045776367,-7.37999963760376
1788678792815684000,16.52168408203125,-24.420000076293945,-37.619998931884766,-6.599999904632568
1788678792831583700,16.537583740234375,-24.600000381469727,-37.31999969482422,-7.079999923706055
1788678792847483400,16.5534833984375,-25.559999465942383,-38.15999984741211,-8.399999618530273
1788678792863383000,16.569383056640625,-26.34000015258789,-38.7599983215332,-8.460000038146973
1788678792879252200,16.585252197265625,-26.639999389648438,-38.81999969482422,-7.199999809265137
1788678792895121400,16.601121337890625,-25.920000076293945,-38.39999771118164,-6.960000038146973
1788678792910960000,16.616960205078126,-25.68000030517578,-38.099998474121094,-7.559999942779541
1788678792926890200,16.63289013671875,-26.219999313354492,-38.57999801635742,-7.319999694824219
1788678792942729000,16.64872900390625,-25.799999237060547,-38.70000076293945,-6.960000038146973
1788678792958628600,16.664628662109376,-25.920000076293945,-39.119998931884766,-6.839999675750732
1788678792974497500,16.68049755859375,-25.979999542236328,-40.07999801635742,-7.199999809265137
1788678792990397200,16.696397216796875,-26.34000015258789,-39.779998779296875,-7.319999694824219
1788678793006358000,16.71235791015625,-25.85999870300293,-39.36000061035156,-7.139999866485596
1788678793022196700,16.72819677734375,-25.260000228881836,-40.37999725341797,-6.899999618530273
1788678793038126800,16.744126953125,-25.3799991607666,-40.97999954223633,-7.440000057220459
1788678793053934800,16.759934814453125,-25.260000228881836,-40.68000030517578,-7.980000019073486
1788678793069804000,16.775803955078125,-25.68000030517578,-40.73999786376953,-7.5
1788678793085734100,16.791734130859375,-25.5,-41.63999938964844,-7.679999828338623
1788678793101572900,16.80757275390625,-25.19999885559082,-42.71999740600586,-8.15999984741211
1788678793117503000,16.8235029296875,-24.65999984741211,-42.599998474121094,-7.739999771118164
1788678793133402600,16.839402587890625,-24.479999542236328,-42.959999084472656,-8.460000038146973
1788678793149363500,16.855363525390626,-24.779998779296875,-43.5,-9
1788678793165293600,16.87129345703125,-24.779998779296875,-43.20000076293945,-8.519999504089355
1788678793181193200,16.887193115234375,-24.119998931884766,-43.20000076293945,-8.880000114440918
1788678793197062400,16.9030625,-24.35999870300293,-43.68000030517578,-9.119999885559082
1788678793212931600,16.918931640625,-24.18000030517578,-45,-9.119999885559082
1788678793228770000,16.93477001953125,-23.51999855041504,-44.81999969482422,-9.119999885559082
1788678793244700200,16.9507001953125,-24.600000381469727,-43.55999755859375,-9.420000076293945
1788678793260539000,16.966538818359375,-24.84000015258789,-43.73999786376953,-9.539999961853027
1788678793276469000,16.982468994140625,-23.939998626708984,-44.099998474121094,-9.719999313354492
1788678793292277200,16.99827734375,-24,-44.040000915527344,-10.139999389648438
1788678793308146400,17.014146484375,-23.939998626708984,-44.099998474121094,-9.960000038146973
1788678793324076500,17.03007666015625,-24.059999465942383,-43.79999923706055,-10.079999923706055
1788678793339915000,17.0459150390625,-24.299999237060547,-44.099998474121094,-10.139999389648438
1788678793355814700,17.061814697265625,-24.84000015258789,-44.040000915527344,-10.4399995803833
1788678793371683800,17.077683837890625,-25.01999855041504,-44.040000915527344,-10.4399995803833
1788678793387583500,17.09358349609375,-24.35999870300293,-44.040000915527344,-10.380000114440918
1788678793403483100,17.109483154296875,-24.600000381469727,-44.099998474121094,-10.739999771118164
1788678793419291400,17.12529150390625,-25.31999969482422,-43.5,-11.519999504089355
1788678793435252000,17.141251953125,-25.439998626708984,-42.41999816894531,-11.579999923706055
1788678793451090700,17.157090576171875,-25.799999237060547,-42.71999740600586,-11.15999984741211
1788678793466960000,17.1729599609375,-26.279998779296875,-43.31999969482422,-10.380000114440918
1788678793482890000,17.188889892578125,-26.099998474121094,-43.37999725341797,-10.199999809265137
1788678793498698000,17.204697998046875,-26.219999313354492,-43.02000045776367,-11.039999961853027
1788678793514628400,17.22062841796875,-26.279998779296875,-43.02000045776367,-11.460000038146973
1788678793530436400,17.236436279296875,-26.03999900817871,-43.97999954223633,-11.519999504089355
1788678793546336000,17.2523359375,-25.559999465942383,-44.39999771118164,-11.639999389648438
1788678793562266000,17.26826611328125,-25.439998626708984,-44.040000915527344,-12.300000190734863
1788678793578104800,17.284104736328125,-25.619998931884766,-44.459999084472656,-12.65999984741211
1788678793594004500,17.30000439453125,-25.5,-44.279998779296875,-12.179999351501465
1788678793609904000,17.315904052734375,-25.68000030517578,-44.099998474121094,-11.819999694824219
1788678793625803800,17.3318037109375,-25.559999465942383,-45.18000030517578,-11.639999389648438
1788678793641764600,17.3477646484375,-25.799999237060547,-45.119998931884766,-11.519999504089355
1788678793657603000,17.36360302734375,-25.559999465942383,-44.099998474121094,-11.639999389648438
1788678793673564000,17.37956396484375,-24.959999084472656,-43.86000061035156,-10.920000076293945
1788678793689432800,17.395432861328125,-25.079999923706055,-44.34000015258789,-10.380000114440918
1788678793705393700,17.4113935546875,-25.260000228881836,-45.18000030517578,-10.920000076293945
1788678793721323800,17.42732373046875,-25.5,-45.71999740600586,-10.800000190734863
1788678793737162500,17.44316259765625,-24.84000015258789,-46.31999969482422,-10.4399995803833
1788678793753092600,17.459092529296875,-24.84000015258789,-46.619998931884766,-10.019999504089355
1788678793768900600,17.474900634765625,-25.260000228881836,-45.959999084472656,-9.59999942779541
1788678793784861400,17.490861328125,-25.139999389648438,-45.89999771118164,-9.719999313354492
1788678793800822000,17.506822021484375,-25.260000228881836,-46.02000045776367,-8.9399995803833
1788678793816660700,17.52266064453125,-25.920000076293945,-45.41999816894531,-8.579999923706055
1788678793832590800,17.5385908203125,-26.760000228881836,-45.599998474121094,-7.679999828338623
1788678793848429600,17.5544296875,-26.03999900817871,-46.13999938964844,-7.199999809265137
1788678793864359700,17.570359619140625,-25.139999389648438,-45.23999786376953,-8.519999504089355
1788678793880289800,17.586289794921875,-25.68000030517578,-45.47999954223633,-8.699999809265137
1788678793896159000,17.602158935546875,-25.3799991607666,-46.13999938964844,-8.9399995803833
1788678793912119800,17.618119873046876,-25.260000228881836,-46.02000045776367,-9.179999351501465
1788678793928019500,17.63401953125,-25.920000076293945,-45.599998474121094,-8.399999618530273
1788678793943949600,17.649949462890625,-26.099998474121094,-45.47999954223633,-7.440000057220459
1788678793959879700,17.665879638671875,-26.03999900817871,-45.41999816894531,-7.559999942779541
1788678793975748900,17.681748779296875,-26.03999900817871,-45.23999786376953,-7.859999656677246
1788678793991618000,17.6976181640625,-25.920000076293945,-45.41999816894531,-7.37999963760376
1788678794007456500,17.71345654296875,-25.799999237060547,-45.71999740600586,-7.199999809265137
1788678794023356200,17.729356201171875,-26.219999313354492,-45.84000015258789,-7.739999771118164
1788678794039286500,17.74528662109375,-26.03999900817871,-45.71999740600586,-7.919999599456787
1788678794055094500,17.761094482421875,-25.19999885559082,-46.20000076293945,-7.980000019073486
1788678794071024600,17.777024658203125,-25.260000228881836,-46.2599983215332,-7.799999713897705
1788678794094797800,17.8007978515625,-26.34000015258789,-46.13999938964844,-7.799999713897705
1788678794110667000,17.8166669921875,-25.920000076293945,-46.31999969482422,-8.34000015258789
1788678794126505700,17.832505615234375,-24.53999900817871,-45.84000015258789,-8.519999504089355
1788678794142405400,17.8484052734375,-24.779998779296875,-45.29999923706055,-7.799999713897705
1788678794158335500,17.86433544921875,-25.979999542236328,-45.53999710083008,-7.739999771118164
1788678794174204700,17.88020458984375,-25.559999465942383,-45.71999740600586,-7.859999656677246
1788678794190104300,17.896104248046875,-25.01999855041504,-45.53999710083008,-8.399999618530273
1788678794205943000,17.911943115234376,-25.139999389648438,-46.31999969482422,-8.34000015258789
1788678794229868800,17.935868896484376,-24.600000381469727,-46.2599983215332,-7.859999656677246
1788678794245768400,17.9517685546875,-24.53999900817871,-45.53999710083008,-8.639999389648438
1788678794261698600,17.967698486328125,-24.059999465942383,-45.47999954223633,-9.119999885559082
1788678794277628700,17.983628662109375,-24.35999870300293,-45.29999923706055,-9.300000190734863
1788678794293467400,17.99946728515625,-24.35999870300293,-45.71999740600586,-8.639999389648438
1788678794309367000,18.015366943359375,-24.18000030517578,-46.31999969482422,-8.880000114440918
1788678794325175000,18.031175048828125,-24.479999542236328,-46.20000076293945,-9.899999618530273
1788678794341074700,18.04707470703125,-24.35999870300293,-45.53999710083008,-10.199999809265137
1788678794357005000,18.063005126953126,-24.53999900817871,-45.29999923706055,-10.260000228881836
1788678794372843500,18.078843505859375,-25.01999855041504,-45.41999816894531,-10.260000228881836
1788678794388712700,18.094712646484375,-24.600000381469727,-45.53999710083008,-9.779999732971191
1788678794404551400,18.110551513671876,-24.35999870300293,-45.599998474121094,-9.65999984741211
1788678794420390000,18.126389892578125,-24.899999618530273,-45.65999984741211,-10.319999694824219
1788678794436320300,18.1423203125,-24.35999870300293,-46.2599983215332,-10.619999885559082
1788678794452189200,18.158189208984375,-24.420000076293945,-46.13999938964844,-11.34000015258789
1788678794468119600,18.17411962890625,-25.01999855041504,-45.599998474121094,-11.9399995803833
1788678794483988700,18.18998876953125,-24.600000381469727,-45.84000015258789,-11.9399995803833
1788678794499857700,18.205857666015625,-24.420000076293945,-45.47999954223633,-11.519999504089355
1788678794515788000,18.2217880859375,-24.299999237060547,-44.57999801635742,-11.09999942779541
1788678794531718100,18.23771826171875,-24.53999900817871,-44.7599983215332,-11.699999809265137
1788678794547617800,18.25361767578125,-25.01999855041504,-44.7599983215332,-12.179999351501465
1788678794563425800,18.26942578125,-24.65999984741211,-44.7599983215332,-11.699999809265137
1788678794579356200,18.285356201171876,-23.939998626708984,-45.05999755859375,-11.699999809265137
1788678794595286300,18.301286376953126,-23.51999855041504,-45.05999755859375,-11.819999694824219
1788678794611124700,18.317124755859375,-24.18000030517578,-44.39999771118164,-12.059999465942383
1788678794627055000,18.33305517578125,-24.479999542236328,-44.81999969482422,-11.639999389648438
1788678794642863000,18.348863037109375,-24.600000381469727,-45.53999710083008,-11.460000038146973
1788678794658793200,18.364793212890625,-24.420000076293945,-45.36000061035156,-11.639999389648438
1788678794674723600,18.3807236328125,-23.639999389648438,-45.53999710083008,-11.279999732971191
1788678794690562000,18.39656201171875,-23.399999618530273,-45.779998779296875,-11.519999504089355
1788678794706431200,18.41243115234375,-23.219999313354492,-45.65999984741211,-11.279999732971191
1788678794722331000,18.428330810546875,-22.979999542236328,-45.41999816894531,-10.739999771118164
1788678794738169600,18.444169677734376,-22.799999237060547,-45.89999771118164,-10.800000190734863
1788678794754099700,18.460099609375,-23.219999313354492,-46.31999969482422,-11.039999961853027
1788678794769969000,18.475968994140626,-23.15999984741211,-46.07999801635742,-10.380000114440918
1788678794785868500,18.49186865234375,-22.799999237060547,-46.02000045776367,-9.59999942779541
1788678794801707000,18.50770703125,-22.920000076293945,-46.619998931884766,-9.84000015258789
1788678794817576200,18.523576171875,-22.31999969482422,-47.21999740600586,-9.539999961853027
1788678794833506600,18.539506591796876,-21.779998779296875,-47.099998474121094,-9.179999351501465
1788678794849345000,18.555344970703125,-21.420000076293945,-47.52000045776367,-9.300000190734863
1788678794865275100,18.571275146484375,-21.65999984741211,-47.70000076293945,-8.880000114440918
1788678794881113900,18.58711376953125,-22.139999389648438,-46.79999923706055,-7.919999599456787
1788678794897074400,18.603074462890625,-22.3799991607666,-46.619998931884766,-7.919999599456787
1788678794913004800,18.6190048828125,-22.5,-46.91999816894531,-8.220000267028809
1788678794928874000,18.6348740234375,-22.3799991607666,-48,-7.739999771118164
1788678794944804000,18.65080419921875,-22.68000030517578,-48.05999755859375,-7.679999828338623
1788678794960612000,18.666612060546875,-22.020000457763672,-47.21999740600586,-7.679999828338623
1788678794976542200,18.682542236328125,-21.239999771118164,-47.34000015258789,-7.679999828338623
1788678794992503000,18.6985029296875,-21.119998931884766,-47.57999801635742,-7.919999599456787
1788678795008372200,18.714372314453126,-21.600000381469727,-47.34000015258789,-7.619999885559082
1788678795024332800,18.730332763671875,-22.439998626708984,-47.099998474121094,-7.440000057220459
1788678795040171500,18.746171630859376,-22.85999870300293,-47.7599983215332,-7.37999963760376
1788678795056040700,18.762040771484376,-22.439998626708984,-48.36000061035156,-6.899999618530273
1788678795071970800,18.777970703125,-22.5,-47.34000015258789,-6.420000076293945
1788678795087778800,18.79377880859375,-22.85999870300293,-47.099998474121094,-6.299999713897705
1788678795103678500,18.809678466796875,-22.979999542236328,-47.39999771118164,-6.239999771118164
1788678795119547600,18.825547607421875,-23.939998626708984,-47.459999084472656,-6.659999847412109
1788678795135416800,18.841416748046875,-23.219999313354492,-47.39999771118164,-6.599999904632568
1788678795151347000,18.857346923828125,-22.799999237060547,-46.86000061035156,-6.299999713897705
1788678795167216000,18.873216064453125,-22.68000030517578,-46.91999816894531,-6.599999904632568
1788678795183115800,18.88911572265625,-21.779998779296875,-47.39999771118164,-6.899999618530273
1788678795198985000,18.90498486328125,-21.719999313354492,-47.15999984741211,-6.539999961853027
1788678795214854100,18.920854248046876,-22.139999389648438,-46.37999725341797,-6.480000019073486
1788678795230814700,18.936814697265625,-22.260000228881836,-46.31999969482422,-6.779999732971191
1788678795246653400,18.9526533203125,-21.53999900817871,-46.86000061035156,-7.139999866485596
1788678795262583600,18.96858349609375,-21.53999900817871,-46.439998626708984,-7.139999866485596
1788678795278422300,18.98442236328125,-21.299999237060547,-46.86000061035156,-7.319999694824219
1788678795294322000,19.000322021484376,-20.8799991607666,-47.279998779296875,-7.37999963760376
1788678795310221600,19.0162216796875,-21.35999870300293,-46.86000061035156,-7.019999980926514
1788678795326121200,19.032121337890626,-20.939998626708984,-46.79999923706055,-7.619999885559082
1788678795342051300,19.04805126953125,-19.68000030517578,-47.099998474121094,-7.440000057220459
1788678795357828900,19.063828857421875,-19.31999969482422,-47.099998474121094,-7.619999885559082
1788678795373728500,19.079728515625,-18,-47.70000076293945,-8.34000015258789
1788678795389659000,19.095658935546876,-17.219999313354492,-47.939998626708984,-7.739999771118164
1788678795405527800,19.11152783203125,-18.119998931884766,-47.70000076293945,-8.15999984741211
1788678795421427500,19.127427490234375,-18.899999618530273,-47.81999969482422,-9
1788678795437235700,19.143235595703125,-18.479999542236328,-47.279998779296875,-8.819999694824219
1788678795453105000,19.15910498046875,-18.059999465942383,-47.34000015258789,-9.719999313354492
1788678795469035000,19.175034912109375,-18.719999313354492,-46.79999923706055,-10.5
1788678795484904200,19.190904296875,-19.619998931884766,-46.20000076293945,-9.479999542236328
1788678795500803800,19.206803955078126,-19.5,-46.68000030517578,-9.179999351501465
1788678795516673000,19.222673095703126,-18.53999900817871,-46.79999923706055,-9.539999961853027
1788678795532572700,19.23857275390625,-17.81999969482422,-47.03999710083008,-9.479999542236328
1788678795548533200,19.254533203125,-18,-47.099998474121094,-9.899999618530273
1788678795564341500,19.270341552734376,-18.18000030517578,-46.439998626708984,-10.5
1788678795580302000,19.286302001953125,-17.8799991607666,-45.779998779296875,-10.260000228881836
1788678795596201700,19.30220166015625,-17.940000534057617,-45.65999984741211,-9.899999618530273
1788678795612071000,19.31807080078125,-18.65999984741211,-45.599998474121094,-9.960000038146973
1788678795628001000,19.3340009765625,-19.079999923706055,-45.23999786376953,-10.380000114440918
1788678795643839700,19.34983984375,-18.53999900817871,-45.71999740600586,-10.319999694824219
1788678795659769900,19.365769775390625,-17.520000457763672,-45.53999710083008,-9.779999732971191
1788678795675639000,19.38163916015625,-17.940000534057617,-45.65999984741211,-10.260000228881836
1788678795691508200,19.39750830078125,-18.959999084472656,-46.20000076293945,-10.979999542236328
1788678795707468800,19.41346875,-18.239999771118164,-46.13999938964844,-10.979999542236328
1788678795723307500,19.4293076171875,-17.520000457763672,-45.84000015258789,-11.219999313354492
1788678795739207200,19.445207275390626,-17.8799991607666,-46.02000045776367,-11.460000038146973
1788678795755076400,19.461076416015626,-18.059999465942383,-45.779998779296875,-11.219999313354492
1788678795770945300,19.4769453125,-17.520000457763672,-45.23999786376953,-12
1788678795786845200,19.49284521484375,-17.399999618530273,-45.36000061035156,-12.359999656677246
1788678795802714000,19.508714111328125,-16.979999542236328,-45.779998779296875,-12.059999465942383
1788678795818613800,19.52461376953125,-17.279998779296875,-45.84000015258789,-12.059999465942383
1788678795834422000,19.540422119140626,-17.15999984741211,-45.41999816894531,-11.639999389648438
1788678795850352000,19.55635205078125,-16.31999969482422,-44.70000076293945,-11.519999504089355
1788678795866312700,19.572312744140625,-16.31999969482422,-44.34000015258789,-11.279999732971191
1788678795882151400,19.5881513671875,-16.079999923706055,-45.05999755859375,-10.920000076293945
1788678795898112300,19.6041123046875,-15.899999618530273,-45.959999084472656,-10.679999351501465
1788678795914012000,19.620011962890626,-16.260000228881836,-45.36000061035156,-10.260000228881836
1788678795929942000,19.63594189453125,-16.260000228881836,-45.53999710083008,-10.380000114440918
1788678795945902600,19.651902587890625,-16.19999885559082,-46.619998931884766,-9.960000038146973
1788678795961710800,19.6677109375,-16.139999389648438,-45.41999816894531,-9.539999961853027
1788678795977671400,19.68367138671875,-16.68000030517578,-44.63999938964844,-9.539999961853027
1788678795993571000,19.699571044921875,-17.03999900817871,-44.87999725341797,-9.65999984741211
1788678796009440300,19.715440185546875,-16.3799991607666,-45.29999923706055,-9.779999732971191
1788678796025370400,19.731370361328125,-15.899999618530273,-46.07999801635742,-9.719999313354492
1788678796041178600,19.7471787109375,-15.119999885559082,-45.959999084472656,-9.479999542236328
1788678796057139200,19.76313916015625,-15.119999885559082,-45.23999786376953,-9.119999885559082
1788678796073008400,19.77900830078125,-15.420000076293945,-44.7599983215332,-8.699999809265137
1788678796088847000,19.79484716796875,-15.719999313354492,-44.70000076293945,-8.279999732971191
1788678796104807700,19.8108076171875,-16.139999389648438,-45.23999786376953,-8.15999984741211
1788678796120646400,19.826646484375,-16.799999237060547,-44.57999801635742,-8.279999732971191
1788678796136546000,19.842546142578126,-16.920000076293945,-44.279998779296875,-8.279999732971191
1788678796152384500,19.858384521484375,-16.979999542236328,-44.7599983215332,-8.760000228881836
1788678796168284200,19.8742841796875,-17.219999313354492,-43.79999923706055,-8.279999732971191
1788678796184245000,19.890244873046875,-17.520000457763672,-43.68000030517578,-7.199999809265137
1788678796200114200,19.9061142578125,-17.8799991607666,-43.79999923706055,-7.799999713897705
1788678796216044300,19.922044189453125,-17.219999313354492,-44.459999084472656,-8.220000267028809
1788678796231852300,19.937852294921875,-16.68000030517578,-45.18000030517578,-7.919999599456787
1788678796247721500,19.953721435546875,-16.5,-44.70000076293945,-7.259999752044678
1788678796263682300,19.969682373046876,-17.03999900817871,-44.21999740600586,-7.319999694824219
1788678796279490300,19.985490234375,-16.799999237060547,-43.91999816894531,-7.199999809265137
1788678796295420400,20.00142041015625,-17.100000381469727,-44.21999740600586,-7.079999923706055
1788678796311198200,20.0171982421875,-17.100000381469727,-44.39999771118164,-7.619999885559082
1788678796327067100,20.033067138671875,-16.440000534057617,-45.119998931884766,-7.679999828338623
1788678796342997500,20.04899755859375,-16.619998931884766,-45.41999816894531,-8.15999984741211
1788678796358836000,20.0648359375,-16.739999771118164,-44.70000076293945,-8.15999984741211
1788678796374735600,20.080735595703125,-16.3799991607666,-44.279998779296875,-7.679999828338623
1788678796390544000,20.0965439453125,-16.440000534057617,-44.099998474121094,-7.980000019073486
1788678796406412800,20.112412841796875,-16.559999465942383,-43.79999923706055,-8.220000267028809
1788678796422312700,20.128312744140626,-16.020000457763672,-43.68000030517578,-8.039999961853027
1788678796438181600,20.144181640625,-16.020000457763672,-44.040000915527344,-8.279999732971191
1788678796454050800,20.16005078125,-15.65999984741211,-44.099998474121094,-8.639999389648438
1788678796469950500,20.175950439453125,-14.819999694824219,-44.040000915527344,-9.300000190734863
1788678796485880600,20.191880615234375,-15.59999942779541,-43.97999954223633,-9.59999942779541
1788678796501811000,20.20781103515625,-16.139999389648438,-43.31999969482422,-8.9399995803833
1788678796517680000,20.22368017578125,-16.19999885559082,-42.47999954223633,-9.539999961853027
1788678796533640700,20.239640625,-16.739999771118164,-42.599998474121094,-10.619999885559082
1788678796549510000,20.255510009765626,-16.31999969482422,-42.65999984741211,-10.739999771118164
1788678796565379000,20.271379150390626,-15.59999942779541,-42.36000061035156,-10.5
1788678796581278700,20.28727880859375,-15.59999942779541,-42.540000915527344,-10.559999465942383
1788678796597117200,20.3031171875,-15.779999732971191,-42.29999923706055,-11.039999961853027
1788678796613047600,20.319047607421876,-15.779999732971191,-41.39999771118164,-11.34000015258789
1788678796628886000,20.334885986328125,-15.839999198913574,-41.63999938964844,-11.639999389648438
1788678796644755200,20.350755126953125,-16.139999389648438,-42.540000915527344,-11.460000038146973
1788678796676554500,20.382554443359375,-15.839999198913574,-41.459999084472656,-10.979999542236328
1788678796692484600,20.398484619140625,-16.31999969482422,-41.81999969482422,-11.34000015258789
1788678796708323300,20.4143232421875,-16.5,-42.05999755859375,-12.119999885559082
1788678796724192500,20.430192626953126,-16.799999237060547,-42,-11.880000114440918
1788678796740122600,20.44612255859375,-16.5,-41.63999938964844,-11.75999927520752
1788678796755991800,20.46199169921875,-16.3799991607666,-41.279998779296875,-11.880000114440918
1788678796771891500,20.477891357421875,-16.85999870300293,-41.15999984741211,-11.699999809265137
1788678796787760600,20.4937607421875,-16.440000534057617,-41.57999801635742,-11.279999732971191
1788678796803660300,20.509660400390626,-15.59999942779541,-41.15999984741211,-10.859999656677246
1788678796819560000,20.525559814453125,-15.899999618530273,-40.79999923706055,-11.15999984741211
1788678796835398400,20.5413984375,-16.020000457763672,-41.099998474121094,-11.15999984741211
