time,seconds_elapsed,z,y,x
1788678776514375200,0.220375244140625,9.35893440246582,1.2186486721038818,-0.4381389021873474
1788678776530274800,0.23627490234375,9.569623947143555,1.1899182796478271,-0.3998316824436188
1788678776546205200,0.252205078125,9.830592155456543,1.1180921792984009,-0.4596867263317108
1788678776562135300,0.26813525390625,10.005369186401367,1.0797849893569946,-0.47165772318840027
1788678776586061000,0.29206103515625,9.943120002746582,1.0989385843276978,-0.47644615173339844
1788678776602022000,0.30802197265625,9.701305389404297,1.1540051698684692,-0.4668693244457245
1788678776617982500,0.323982421875,9.452308654785156,1.194706678390503,-0.4572925269603729
1788678776633912600,0.33991259765625,9.457097053527832,1.2306196689605713,-0.3902548849582672
1788678776649873400,0.355873291015625,9.452308654785156,1.173158884048462,-0.3974374830722809
1788678776665864400,0.371864501953125,9.528923034667969,1.1180921792984009,-0.524330198764801
1788678776681855700,0.387855712890625,9.684545516967773,1.1180921792984009,-0.4572925269603729
1788678776697816300,0.40381640625,9.99100399017334,1.1540051698684692,-0.42616790533065796
1788678776713685500,0.419685546875,10.11550235748291,1.1468225717544556,-0.4884171485900879
1788678776729554700,0.4355546875,9.880870819091797,1.2306196689605713,-0.5937620401382446
1788678776745454300,0.451454345703125,9.59835433959961,1.1516109704971313,-0.45010992884635925
1788678776761354000,0.46735400390625,9.47146224975586,1.2976573705673218,-0.4596867263317108
1788678776777223200,0.48322314453125,9.296685218811035,0.7326257228851318,-1.1228805780410767
1788678776793214500,0.49921435546875,9.576807022094727,0.9217676520347595,-0.5817909836769104
1788678776809205500,0.51520556640625,9.931148529052734,1.0749965906143188,-0.304063618183136
1788678776825074700,0.53107470703125,10.04846477508545,1.0845733880996704,-0.2777273952960968
1788678776840974300,0.546974365234375,9.99339771270752,1.0534487962722778,-0.26336219906806946
1788678776856996000,0.56299609375,9.799467086791992,1.1468225717544556,-0.4812345504760742
1788678776872895700,0.578895751953125,9.464279174804688,1.2186486721038818,-0.5674257874488831
1788678776888917500,0.59491748046875,9.466673851013184,1.237802267074585,-0.507570743560791
1788678776904817200,0.610817138671875,9.569623947143555,1.2832920551300049,-0.3232172429561615
1788678776920808400,0.626808349609375,9.672574996948242,1.3192051649093628,-0.19393034279346466
1788678776936799500,0.642799560546875,9.634267807006836,1.3551181554794312,-0.16759411990642548
1788678776952729900,0.658729736328125,9.5624418258667,1.3694833517074585,-0.16519992053508759
1788678776968721000,0.674720947265625,9.658209800720215,1.314416766166687,-0.16998831927776337
1788678776984712200,0.690712158203125,9.840168952941895,1.2473790645599365,-0.14365209639072418
1788678777000703500,0.706703369140625,9.96945571899414,1.2114660739898682,-0.15801730751991272
1788678777016664000,0.7226640625,10.012551307678223,1.2306196689605713,-0.15801730751991272
1788678777032594200,0.73859423828125,10.002974510192871,1.2497732639312744,-0.033518824726343155
1788678777048585500,0.75458544921875,10.041281700134277,1.2449848651885986,0.011971008032560349
1788678777064546300,0.77054638671875,9.959878921508789,1.3263877630233765,0.05267243832349777
1788678777080507000,0.7865068359375,9.923966407775879,1.414973258972168,0.06703764945268631
1788678777096498200,0.802498291015625,9.739612579345703,1.455674648284912,0.07422025501728058
1788678777112458800,0.818458740234375,10.034099578857422,1.414973258972168,-0.1364694982767105
1788678777128388900,0.834388916015625,9.852140426635742,1.3311761617660522,0.1843535304069519
1788678777144288500,0.85028857421875,9.433155059814453,1.50355863571167,0.16998831927776337
1788678777160219000,0.866218994140625,9.38048267364502,1.4077905416488647,-0.17238251864910126
1788678777176240600,0.88224072265625,9.339780807495117,1.2330138683319092,0.019153613597154617
1788678777192201200,0.898201171875,9.284713745117188,1.3551181554794312,-0.14365209639072418
1788678777208070400,0.9140703125,9.643844604492188,1.194706678390503,-0.524330198764801
1788678777223970000,0.929969970703125,9.940725326538086,1.0534487962722778,-0.6512228846549988
1788678777239869700,0.94586962890625,9.9000244140625,1.173158884048462,-0.40701428055763245
1788678777255769300,0.961769287109375,9.72285270690918,1.338358759880066,-0.2968810200691223
1788678777271760600,0.9777607421875,9.512163162231445,1.436521053314209,-0.026336219161748886
1788678777287782100,0.9937822265625,9.402029991149902,1.5849615335464478,-0.014365210197865963
1788678777303651300,1.0096513671875,9.337387084960938,1.5682021379470825,-0.21787235140800476
1788678777319551000,1.025551025390625,9.445125579833984,1.4532804489135742,-0.2082955539226532
1788678777335420200,1.041420166015625,9.66539192199707,1.4293384552001953,-0.2298433631658554
1788678777351350300,1.057350341796875,9.854534149169922,1.3934253454208374,-0.11252748221158981
1788678777367341600,1.073341552734375,10.098742485046387,1.338358759880066,-0.16998831927776337
1788678777383302400,1.089302490234375,10.15141487121582,1.2282254695892334,-0.2513911724090576
1788678777399202000,1.1052021484375,10.177751541137695,1.1492167711257935,-0.3423708379268646
1788678777415132200,1.121132080078125,9.911994934082031,1.1779472827911377,-0.2513911724090576
1788678777431031800,1.13703173828125,9.68694019317627,1.2761094570159912,-0.15322890877723694
1788678777447023000,1.153023193359375,9.550470352172852,1.381454348564148,-0.023942016065120697
1788678777462983700,1.168983642578125,9.5408935546875,1.4724340438842773,0.038307227194309235
1788678777478944300,1.1849443359375,9.634267807006836,1.479616641998291,-0.1388636976480484
1788678777494874600,1.20087451171875,9.691728591918945,1.400607943534851,-0.21787235140800476
1788678777510774300,1.216774169921875,9.909601211547852,1.3503297567367554,-0.12449848651885986
1788678777526765300,1.232765380859375,9.90241813659668,1.3120225667953491,-0.011971008032560349
1788678777542726100,1.24872607421875,9.732429504394531,1.4676456451416016,0.19871874153614044
1788678777558686700,1.264686767578125,9.694122314453125,1.4293384552001953,0.08140286058187485
1788678777574678000,1.280677978515625,9.864110946655273,1.3407529592514038,-0.07661445438861847
1788678777590669300,1.29666943359375,9.823410034179688,1.3263877630233765,0.033518824726343155
1788678777606599400,1.312599365234375,9.579200744628906,1.414973258972168,0
1788678777622499000,1.3284990234375,9.514557838439941,1.3886369466781616,-0.14365209639072418
1788678777638490400,1.344490478515625,9.718064308166504,1.3407529592514038,-0.11971008777618408
1788678777654481400,1.3604814453125,9.916783332824707,1.3407529592514038,-0.2106897532939911
1788678777670411800,1.376411865234375,9.775525093078613,1.2832920551300049,-0.1843535304069519
1788678777686433300,1.392433349609375,9.57441234588623,1.3503297567367554,-0.07661445438861847
1788678777702394000,1.40839404296875,9.445125579833984,1.3335703611373901,-0.05506663769483566
1788678777718385400,1.424385498046875,9.478644371032715,1.3192051649093628,-0.0071826050989329815
1788678777734376400,1.44037646484375,9.543288230895996,1.3072341680526733,-0.1412578970193863
1788678777750306600,1.456306640625,9.502586364746094,1.2425906658172607,-0.2561795711517334
1788678777766297900,1.4722978515625,9.615114212036133,1.1851298809051514,-0.28730419278144836
1788678777782258700,1.4882587890625,9.837775230407715,1.2090718746185303,-0.3423708379268646
1788678777798158300,1.504158447265625,9.979032516479492,1.2401964664459229,-0.3711012601852417
1788678777814058000,1.52005810546875,10.192116737365723,1.5897499322891235,0.05985504388809204
1788678777829927200,1.53592724609375,10.256759643554688,1.434126853942871,0.31364041566848755
1788678777845826800,1.551826904296875,10.005369186401367,1.3910311460494995,-0.1412578970193863
1788678777861695700,1.56769580078125,9.864110946655273,1.4197616577148438,-0.4189853072166443
1788678777877687000,1.58368701171875,9.837775230407715,1.3287819623947144,-0.3902548849582672
1788678777893678300,1.59967822265625,9.797073364257812,1.3096283674240112,-0.4189853072166443
1788678777909608400,1.6156083984375,9.6989107131958,1.292868971824646,-0.33758243918418884
1788678777925569000,1.631569091796875,9.66299819946289,1.335964560508728,-0.26336219906806946
1788678777941560300,1.647560302734375,9.691728591918945,1.357512354850769,-0.22026655077934265
1788678777957551600,1.663551513671875,9.770736694335938,1.3958195447921753,-0.24420857429504395
1788678777973512200,1.67951220703125,9.737217903137207,1.4053963422775269,-0.1628057211637497
1788678777989381400,1.69538134765625,9.660603523254395,1.4437036514282227,-0.12689268589019775
1788678778005281000,1.711281005859375,9.576807022094727,1.4748282432556152,-0.13407529890537262
1788678778021180700,1.7271806640625,9.457097053527832,1.5418659448623657,-0.10055647045373917
1788678778037049900,1.7430498046875,9.385271072387695,1.6184803247451782,-0.0071826050989329815
1788678778052980000,1.75897998046875,9.330204010009766,1.6974890232086182,0.023942016065120697
1788678778068910000,1.77491015625,9.342175483703613,1.764526605606079,0.09816227108240128
1788678778084871000,1.790870849609375,9.406818389892578,1.7621324062347412,0.2561795711517334
1788678778100831500,1.80683154296875,9.550470352172852,1.8148049116134644,0.42856210470199585
1788678778116731100,1.822731201171875,9.804255485534668,1.821987509727478,0.3926490843296051
1788678778132661500,1.83866162109375,9.99339771270752,1.721431016921997,0.23702596127986908
1788678778148561200,1.85456103515625,10.086771965026855,1.6663644313812256,0.1628057211637497
1788678778164552200,1.87055224609375,8.31985092163086,1.9345149993896484,0.47165772318840027
1788678778180451800,1.886451904296875,10.292673110961914,1.3766659498214722,-0.3447650372982025
1788678778196351500,1.9023515625,9.943120002746582,1.1755530834197998,0.16519992053508759
1788678778212251100,1.918251220703125,9.674968719482422,1.659181833267212,-0.13168109953403473
1788678778228151000,1.934151123046875,9.255983352661133,1.5658079385757446,-0.0933738648891449
1788678778244172500,1.950172607421875,9.047688484191895,1.4891934394836426,-0.11971008777618408
1788678778260072200,1.966072265625,9.186552047729492,1.479616641998291,-0.028730420395731926
1788678778276063500,1.9820634765625,9.41400146484375,1.5298948287963867,-0.047884032130241394
1788678778292024300,1.9980244140625,10.321403503417969,1.7262194156646729,0.10295066982507706
1788678778308015400,2.014015380859375,10.74996566772461,1.5969325304031372,0.29209262132644653
1788678778324037000,2.030037109375,10.326191902160645,1.316810965538025,-0.19871874153614044
1788678778339906300,2.04590625,9.959878921508789,1.3694833517074585,-0.507570743560791
1788678778355897600,2.061897705078125,9.801861763000488,1.335964560508728,-0.33039984107017517
1788678778371858200,2.077858154296875,9.818621635437012,1.3335703611373901,-0.33758243918418884
1788678778387788300,2.093788330078125,9.940725326538086,1.2258312702178955,-0.24899697303771973
1788678778403688000,2.10968798828125,10.101137161254883,1.1563993692398071,-0.24181437492370605
1788678778419679200,2.12567919921875,10.11789608001709,1.1109095811843872,-0.4884171485900879
1788678778435670500,2.14167041015625,9.837775230407715,1.1204863786697388,-0.7350199222564697
1788678778451661600,2.15766162109375,9.682151794433594,1.0965443849563599,-0.7805097699165344
1788678778467592000,2.173592041015625,9.612719535827637,1.1516109704971313,-0.667982280254364
1788678778483613400,2.189613525390625,9.610325813293457,1.2018892765045166,-0.6560112833976746
1788678778499513300,2.205513427734375,9.593565940856934,1.2401964664459229,-0.4572925269603729
1788678778515504400,2.22150439453125,9.684545516967773,1.2976573705673218,-0.33518823981285095
1788678778531465200,2.23746533203125,9.761159896850586,1.2641384601593018,-0.2585737705230713
1788678778547364900,2.25336474609375,9.579200744628906,1.3072341680526733,-0.2849099934101105
1788678778563386600,2.26938671875,9.404424667358398,1.2497732639312744,-0.4118026793003082
1788678778579286300,2.285286376953125,9.567230224609375,1.0534487962722778,-0.2801215946674347
1788678778595246800,2.301246826171875,9.531316757202148,1.0342950820922852,-0.14365209639072418
1788678778611238100,2.317238037109375,9.38048267364502,1.113303780555725,-0.10055647045373917
1788678778627137800,2.3331376953125,9.064447402954102,1.2425906658172607,-0.3280056416988373
1788678778643007000,2.349007080078125,9.279925346374512,1.2761094570159912,-0.7422025203704834
1788678778658967600,2.364967529296875,9.806650161743164,1.1180921792984009,-0.7398083209991455
1788678778674928400,2.380928466796875,9.919178009033203,0.8978256583213806,-0.4405331015586853
1788678778690889000,2.396888916015625,9.627084732055664,0.9169792532920837,-0.33039984107017517
1788678778706819000,2.412819091796875,8.949525833129883,1.1683704853057861,-0.49320554733276367
1788678778722840800,2.4288408203125,8.365341186523438,1.170764684677124,-0.7829039692878723
1788678778738832100,2.44483203125,8.269572257995605,0.7613561153411865,-1.0989385843276978
1788678778754823200,2.4608232421875,8.698134422302246,0.8355764150619507,-0.8379706144332886
1788678778770814500,2.476814453125,9.239224433898926,0.993593692779541,-0.7230489253997803
1788678778786744600,2.49274462890625,10.565611839294434,0.7805097699165344,-1.0845733880996704
1788678778802675000,2.508675048828125,11.571176528930664,0.304063618183136,-1.3120225667953491
1788678778818666000,2.524666015625,11.726799964904785,0.3256114423274994,-1.8195933103561401
1788678778834535200,2.54053515625,11.1474027633667,0.15083470940589905,-1.7741034030914307
1788678778850404400,2.556404296875,10.031704902648926,0.3878606855869293,-1.2258312702178955
1788678778866304000,2.572303955078125,9.361329078674316,0.9409212470054626,-1.647210717201233
1788678778882173200,2.588173095703125,9.490615844726562,0.7613561153411865,-1.501164436340332
1788678778898042400,2.60404248046875,9.583989143371582,0.12449848651885986,-0.37828385829925537
1788678778913880800,2.619880859375,9.552865028381348,0.8762778043746948,-1.4389152526855469
1788678778929841700,2.635841552734375,10.369287490844727,0.6272808313369751,-2.0446481704711914
1788678778945741300,2.6517412109375,10.903194427490234,0.26815059781074524,-2.169146776199341
1788678778961610500,2.667610595703125,10.876858711242676,0.3495534360408783,-1.7573440074920654
1788678778977510100,2.68351025390625,10.596736907958984,0.545877993106842,-1.0319008827209473
1788678778993409800,2.699409912109375,9.888052940368652,0.8068459630012512,-0.6727706789970398
1788678779009279000,2.715279052734375,9.394847869873047,0.9959878921508789,-0.8858546018600464
1788678779025209000,2.731208984375,8.999804496765137,1.0007762908935547,-1.0749965906143188
1788678779041108700,2.747108642578125,8.738836288452148,1.0319008827209473,-1.280897855758667
1788678779057008400,2.76300830078125,8.65743350982666,1.0462661981582642,-1.3048399686813354
1788678779072908000,2.778907958984375,9.030928611755371,1.1037269830703735,-1.1444283723831177
1788678779088777200,2.794777099609375,9.610325813293457,1.0031704902648926,-1.0414776802062988
1788678779104646400,2.810646484375,9.674968719482422,0.9002198576927185,-0.7972691655158997
1788678779120546000,2.826546142578125,9.560047149658203,0.8427590131759644,-0.7110779285430908
1788678779136415000,2.8424150390625,9.732429504394531,0.7422025203704834,-0.6871358752250671
1788678779152314600,2.858314697265625,10.072406768798828,0.7326257228851318,-0.6033388376235962
1788678779168183800,2.874183837890625,10.189722061157227,0.6871358752250671,-0.42616790533065796
1788678779184083500,2.89008349609375,10.06043529510498,0.8044517636299133,-0.06224924325942993
1788678779199952600,2.90595263671875,9.691728591918945,0.9744400978088379,0.40462008118629456
1788678779215821800,2.92182177734375,9.53849983215332,1.0654197931289673,0.5530605912208557
1788678779231691000,2.93769091796875,9.93354320526123,1.0127472877502441,0.05506663769483566
1788678779247590700,2.953590576171875,10.266336441040039,0.7972691655158997,-0.40701428055763245
1788678779263490300,2.969490234375,10.02452278137207,0.8667010068893433,-0.17238251864910126
1788678779279390000,2.985389892578125,9.583989143371582,1.4317326545715332,0.37828385829925537
1788678779295259100,3.001259033203125,9.579200744628906,1.764526605606079,0.6847416758537292
1788678779311097600,3.01709765625,9.904812812805176,1.8962076902389526,0.33997663855552673
1788678779326966800,3.032966796875,10.177751541137695,1.7573440074920654,-0.05027823522686958
1788678779342805500,3.048805419921875,10.137049674987793,1.7477672100067139,0.2082955539226532
1788678779358705200,3.064705078125,10.139444351196289,1.8770540952682495,0.16519992053508759
1788678779374604800,3.080604736328125,10.105925559997559,1.867477297782898,0.0694318488240242
1788678779390474000,3.096473876953125,9.81143856048584,1.8602946996688843,0.026336219161748886
1788678779406343200,3.11234326171875,9.5624418258667,1.9153614044189453,-0.019153613597154617
1788678779422212000,3.128212158203125,9.387664794921875,1.900996208190918,-0.11971008777618408
1788678779438081300,3.144081298828125,9.174580574035645,1.8339585065841675,0.035913024097681046
1788678779453981000,3.15998095703125,9.038111686706543,1.766920804977417,0.19393034279346466
1788678779469850000,3.17585009765625,8.815450668334961,1.7070658206939697,0.23702596127986908
1788678779485719300,3.19171923828125,8.793902397155762,1.723825216293335,-0.08140286058187485
1788678779501588500,3.20758837890625,9.191340446472168,1.7190368175506592,-0.5003881454467773
1788678779517488000,3.223488037109375,9.521739959716797,1.6424223184585571,-0.7158663272857666
1788678779541291800,3.247291748046875,9.68933391571045,1.9081788063049316,-0.49799394607543945
1788678779557161000,3.263160888671875,9.77791976928711,1.9728221893310547,-0.38307225704193115
1788678779573060600,3.279060546875,10.127472877502441,2.006340980529785,-0.28969839215278625
1788678779588868600,3.29486865234375,10.453084945678711,1.9776105880737305,-0.23942017555236816
1788678779604799000,3.310799072265625,10.627861022949219,1.9800047874450684,-0.47405192255973816
1788678779620698600,3.32669873046875,10.558429718017578,1.867477297782898,-0.4836287498474121
1788678779636567600,3.342567626953125,10.51054573059082,1.7836803197860718,-0.6607996821403503
1788678779652467200,3.35846728515625,10.781089782714844,1.6639702320098877,-0.8978256583213806
1788678779668336400,3.37433642578125,11.03248119354248,1.5705963373184204,-0.9026140570640564
1788678779684205600,3.39020556640625,10.984597206115723,1.4963760375976562,-0.751779317855835
1788678779700074800,3.40607470703125,10.6709566116333,1.501164436340332,-0.7110779285430908
1788678779715974400,3.421974365234375,10.69489860534668,1.4652514457702637,-0.9002198576927185
1788678779731813000,3.437813232421875,11.013327598571777,1.4245500564575195,-1.3958195447921753
1788678779747743200,3.4537431640625,11.02051067352295,1.3024457693099976,-1.213860273361206
1788678779763612400,3.4696123046875,10.723628997802734,1.0893617868423462,-0.44771572947502136
1788678779779481600,3.485481689453125,10.438719749450684,0.7565677165985107,0.14365209639072418
1788678779795381200,3.50138134765625,10.340557098388672,0.29209262132644653,0.20111294090747833
1788678779811250200,3.517250244140625,10.529699325561523,-0.10773907601833344,-0.3280056416988373
1788678779827149800,3.53314990234375,10.754754066467285,-0.2944868206977844,-1.6328455209732056
1788678779843019000,3.54901904296875,10.283096313476562,-0.2753331959247589,-2.3032219409942627
1788678779858888200,3.56488818359375,8.96149730682373,0.1628057211637497,-1.436521053314209
1788678779874787800,3.580787841796875,7.955932140350342,0.7565677165985107,-0.6129156351089478
1788678779890687500,3.5966875,7.931990146636963,1.0869675874710083,-0.42856210470199585
1788678779906556700,3.612556640625,8.22887134552002,1.1324573755264282,-0.8978256583213806
1788678779922486800,3.62848681640625,8.729259490966797,1.0199298858642578,-1.2497732639312744
1788678779938356000,3.64435595703125,8.882488250732422,0.7110779285430908,-1.338358759880066
1788678779954255600,3.660255615234375,8.779537200927734,0.5291185975074768,-0.6200982332229614
1788678779970155300,3.6761552734375,8.676587104797363,0.7158663272857666,-0.18914192914962769
1788678779985994000,3.691993896484375,8.810662269592285,0.5722141861915588,-0.7158663272857666
1788678780001924000,3.707924072265625,9.636661529541016,0.5530605912208557,-1.5897499322891235
1788678780017793300,3.723793212890625,10.3549222946167,0.6320692300796509,-1.8914192914962769
1788678780033662500,3.739662353515625,10.180145263671875,0.8978256583213806,-2.3080103397369385
1788678780057527000,3.763527099609375,9.229647636413574,1.1683704853057861,-0.36152446269989014
1788678780073396200,3.779396240234375,8.389283180236816,1.316810965538025,-0.47884035110473633
1788678780089296000,3.7952958984375,7.534552574157715,1.6639702320098877,-0.849941611289978
1788678780105195500,3.811195556640625,7.711723804473877,1.9536685943603516,-1.7190368175506592
1788678780121064700,3.827064697265625,8.085219383239746,1.656787633895874,-1.8483237028121948
1788678780136934000,3.842933837890625,8.269572257995605,1.6496049165725708,-0.9528923034667969
1788678780152803000,3.858802978515625,8.767566680908203,1.8411411046981812,0.047884032130241394
1788678780168672300,3.87467236328125,9.311050415039062,1.8076223134994507,-0.16759411990642548
1788678780184572000,3.890572021484375,9.502586364746094,1.723825216293335,-1.4508862495422363
1788678780200440800,3.90644091796875,9.53849983215332,1.3982137441635132,-1.7046716213226318
1788678780216310000,3.92231005859375,9.758766174316406,1.4700398445129395,-1.8100165128707886
1788678780232209700,3.938209716796875,10.651803016662598,1.4460978507995605,-1.8483237028121948
1788678780248078800,3.954078857421875,11.291055679321289,1.4532804489135742,-1.4772224426269531
1788678780263948000,3.969947998046875,11.200075149536133,1.659181833267212,-0.6727706789970398
1788678780279817200,3.985817138671875,10.575188636779785,1.8148049116134644,0.2346317619085312
1788678780295686400,4.001686279296875,10.24239444732666,1.3766659498214722,0.42856210470199585
1788678780311586000,4.0175859375,10.326191902160645,0.6703764796257019,-0.8044517636299133
1788678780327424500,4.033424560546875,10.951078414916992,0.629675030708313,-2.1164743900299072
1788678780343324200,4.04932421875,11.753135681152344,0.5195417404174805,-1.8938134908676147
1788678780359193300,4.065193359375,11.973402976989746,0.8906430602073669,-1.1779472827911377
1788678780375093000,4.081093017578125,11.42752456665039,0.8092401623725891,-0.5650315880775452
1788678780390992600,4.09699267578125,10.515334129333496,1.0654197931289673,-0.304063618183136
1788678780406861800,4.11286181640625,10.168174743652344,1.1563993692398071,-0.3232172429561615
1788678780422700500,4.128700439453125,10.108319282531738,0.8020575642585754,-0.5985504388809204
1788678780438569700,4.14456982421875,10.697293281555176,0.17477671802043915,-0.2322375625371933
1788678780454438700,4.160438720703125,11.279084205627441,-0.0694318488240242,-0.33997663855552673
1788678780470338300,4.17633837890625,11.429919242858887,-0.3878606855869293,-0.507570743560791
1788678780486238000,4.192238037109375,11.23598861694336,-0.6560112833976746,-0.5482721924781799
1788678780502137900,4.208137939453125,11.104307174682617,-0.4189853072166443,-0.31842881441116333
1788678780518006800,4.2240068359375,10.99656867980957,-0.49799394607543945,-0.16519992053508759
1788678780533876000,4.2398759765625,10.146626472473145,-0.3926490843296051,-0.395043283700943
1788678780549745200,4.2557451171875,9.071630477905273,-0.07900865375995636,-0.5889736413955688
1788678780565614300,4.2716142578125,8.212111473083496,0.043095629662275314,-0.5985504388809204
1788678780581483500,4.2874833984375,7.750030994415283,-0.009576806798577309,-0.5267243981361389
1788678780597352700,4.303352783203125,7.453149795532227,0.1867477297782898,-0.40701428055763245
1788678780613282800,4.31928271484375,7.781155586242676,0.2801215946674347,0.004788403399288654
1788678780629182500,4.335182373046875,8.552088737487793,0.42856210470199585,-0.05506663769483566
1788678780645051600,4.3510517578125,9.445125579833984,0.4357447028160095,0.019153613597154617
1788678780660920600,4.366920654296875,10.122684478759766,0.5674257874488831,-0.0454898327589035
1788678780676789800,4.382789794921875,10.070012092590332,0.6248866319656372,-0.2825157940387726
1788678780692659000,4.398658935546875,9.454702377319336,0.6440402865409851,-0.6009446382522583
1788678780708528000,4.414528076171875,8.549694061279297,0.9026140570640564,-0.9720458984375
1788678780724397300,4.430397216796875,7.733271598815918,1.2713210582733154,-0.7852981686592102
1788678780740266500,4.4462666015625,7.4100542068481445,1.5753847360610962,-0.40940847992897034
1788678780756135400,4.462135498046875,7.637503623962402,1.6927006244659424,-0.11971008777618408
1788678780772004600,4.478004638671875,7.948749542236328,1.8626888990402222,-0.05267243832349777
1788678780787904300,4.493904296875,8.492233276367188,1.922544002532959,-0.15562310814857483
1788678780803773400,4.5097734375,9.150638580322266,1.8531121015548706,-0.5746083855628967
1788678780819673000,4.525673095703125,9.514557838439941,1.659181833267212,-0.912190854549408
1788678780835572700,4.54157275390625,9.512163162231445,1.8507179021835327,-0.5817909836769104
1788678780851411500,4.557411376953125,10.019734382629395,1.745373010635376,-0.090979665517807
1788678780867311000,4.57331103515625,10.323798179626465,1.8267759084701538,-0.05267243832349777
1788678780883210800,4.589210693359375,10.311826705932617,1.802833914756775,-0.002394201699644327
1788678780899110400,4.6051103515625,10.462661743164062,1.7549498081207275,-0.19871874153614044
1788678780914979600,4.6209794921875,10.802638053894043,1.5682021379470825,-0.4357447028160095
1788678780930879200,4.636879150390625,11.513715744018555,1.2258312702178955,-1.0247182846069336
1788678780946748400,4.65274853515625,11.980585098266602,0.9409212470054626,-1.5298948287963867
1788678780962617300,4.668617431640625,12.126631736755371,0.7996633648872375,-1.8531121015548706
1788678780978517200,4.684517333984375,11.264719009399414,0.8930372595787048,-1.4293384552001953
1788678780994386200,4.70038623046875,10.189722061157227,1.0582371950149536,-0.8786720037460327
1788678781010255400,4.71625537109375,9.311050415039062,1.1324573755264282,-0.6272808313369751
1788678781026155000,4.732155029296875,9.102754592895508,0.3926490843296051,-0.11252748221158981
1788678781042085000,4.748085205078125,10.96304988861084,-0.1173158809542656,-0.9911994934082031
1788678781057985000,4.763985107421875,13.421895027160645,-0.6344634294509888,-2.011129379272461
1788678781073854000,4.77985400390625,15.109807014465332,-1.0869675874710083,-2.121262788772583
1788678781089723100,4.79572314453125,13.48414421081543,-1.0678139925003052,-1.039083480834961
1788678781105592300,4.81159228515625,10.505757331848145,-0.5650315880775452,-0.6440402865409851
1788678781121492000,4.827491943359375,8.111555099487305,-0.2082955539226532,-0.7541735172271729
1788678781137361200,4.843361083984375,6.914454460144043,-0.011971008032560349,-0.6248866319656372
1788678781153260800,4.8592607421875,7.350199222564697,0.24420857429504395,-1.4197616577148438
1788678781169130000,4.8751298828125,8.085219383239746,0.1628057211637497,-1.5514427423477173
1788678781185060000,4.89106005859375,9.026140213012695,-0.021547814831137657,-1.139639973640442
1788678781200929300,4.90692919921875,9.332598686218262,0.09576806426048279,-0.7565677165985107
1788678781216829000,4.922828857421875,8.757989883422852,0.14604631066322327,-0.26096799969673157
1788678781232667600,4.938667724609375,8.219294548034668,0.49320554733276367,-0.16519992053508759
1788678781248567300,4.9545673828125,8.078036308288574,0.4189853072166443,-0.5554547905921936
1788678781264497400,4.970497314453125,8.542511940002441,0.5817909836769104,-1.2258312702178955
1788678781280366600,4.98636669921875,8.87291145324707,0.8403648138046265,-1.8986018896102905
1788678781296205000,5.002205078125,8.992621421813965,0.7350199222564697,-0.6440402865409851
1788678781312074200,5.01807421875,8.937555313110352,0.8188169598579407,-1.0606313943862915
1788678781327943400,5.033943359375,8.868123054504395,1.113303780555725,-0.9528923034667969
1788678781343812600,5.0498125,8.451532363891602,1.113303780555725,-0.45250412821769714
1788678781359681800,5.065681884765625,8.027758598327637,1.1971008777618408,-0.24181437492370605
1788678781375520300,5.081520263671875,8.26239013671875,1.194706678390503,-0.21308395266532898
1788678781391420000,5.097419921875,8.990227699279785,1.194706678390503,-0.4644751250743866
1788678781407289000,5.1132890625,9.9000244140625,1.173158884048462,-0.9840168952941895
1788678781423158300,5.129158203125,10.788272857666016,0.9433154463768005,-1.2856862545013428
1788678781439058000,5.145057861328125,10.936713218688965,0.8331822156906128,-1.2425906658172607
1788678781454896600,5.160896728515625,10.551246643066406,0.9074024558067322,-1.0127472877502441
1788678781470796300,5.17679638671875,10.158597946166992,0.9193734526634216,-0.811634361743927
1788678781486665200,5.192665283203125,9.99100399017334,0.8236053586006165,-0.8331822156906128
1788678781502504000,5.20850390625,10.235212326049805,0.6703764796257019,-1.0271124839782715
1788678781518403600,5.224403564453125,11.073183059692383,0.3663128614425659,-1.3431471586227417
1788678781534211600,5.240211669921875,11.492168426513672,0.24420857429504395,-1.6663644313812256
1788678781550111500,5.256111572265625,11.219228744506836,0.44532153010368347,-1.800439715385437
1788678781565980400,5.27198046875,10.745177268981934,0.3447650372982025,-1.1444283723831177
1788678781581849600,5.287849609375,10.062829971313477,0.2082955539226532,-0.31124621629714966
1788678781597718800,5.30371875,9.923966407775879,0.13407529890537262,0.1364694982767105
1788678781613618400,5.319618408203125,10.38604736328125,-0.19153612852096558,0.3902548849582672
1788678781629487600,5.335487548828125,11.183316230773926,-0.6177040338516235,-0.026336219161748886
1788678781645387300,5.35138720703125,11.942277908325195,-1.1180921792984009,-1.1228805780410767
1788678781661287000,5.367286865234375,12.464214324951172,-1.3934253454208374,-1.8052281141281128
1788678781677125600,5.383125732421875,12.224793434143066,-1.2689268589019775,-1.5083470344543457
1788678781693025300,5.399025390625,11.12346076965332,-0.6416460275650024,-0.7637503147125244
1788678781708894200,5.414894287109375,9.99100399017334,-0.2082955539226532,-0.05506663769483566
1788678781724793900,5.4307939453125,9.062053680419922,0.10295066982507706,0.3447650372982025
1788678781748689200,5.454689208984375,8.391676902770996,0.2992752194404602,0.09816227108240128
1788678781764500700,5.470500732421875,8.611943244934082,0.33518823981285095,-0.22505496442317963
1788678781780370000,5.486369873046875,8.927978515625,0.22026655077934265,-0.2849099934101105
1788678781796239000,5.502239013671875,9.435548782348633,0.23702596127986908,-0.48602294921875
1788678781812108300,5.5181083984375,9.873687744140625,0.4381389021873474,-0.5386953949928284
1788678781827977500,5.5339775390625,9.763554573059082,0.790086567401886,-0.272938996553421
1788678781843907600,5.549907470703125,9.30386734008789,1.1683704853057861,-0.035913024097681046
1788678781859776800,5.56577685546875,8.669404029846191,1.460463047027588,-0.090979665517807
1788678781875646000,5.58164599609375,8.212111473083496,1.4987702369689941,-0.3471592366695404
1788678781891545600,5.597545654296875,7.965508937835693,1.5969325304031372,-0.5746083855628967
1788678781907475700,5.613475830078125,8.092401504516602,1.6089035272598267,-0.6919242739677429
1788678781923345000,5.629344970703125,8.60236644744873,1.599326729774475,-0.7852981686592102
1788678781939275000,5.64527490234375,9.042900085449219,1.6735470294952393,-0.646434485912323
1788678781955144200,5.661144287109375,9.138668060302734,1.766920804977417,-0.1149216815829277
1788678781971013400,5.677013427734375,9.35893440246582,1.9033904075622559,0.17956513166427612
1788678781986882300,5.69288232421875,9.787496566772461,1.889025092124939,-0.36152446269989014
1788678782002751500,5.70875146484375,10.29746150970459,1.625662922859192,-1.1635819673538208
1788678782018620700,5.72462060546875,10.556035041809082,1.400607943534851,-1.525106430053711
1788678782034489900,5.74048974609375,10.42195987701416,1.2880805730819702,-1.2832920551300049
1788678782050328600,5.75632861328125,10.137049674987793,1.2856862545013428,-0.5530605912208557
1788678782066228200,5.772228271484375,10.225635528564453,1.3479355573654175,-0.2298433631658554
1788678782082097200,5.78809716796875,11.0300874710083,1.1563993692398071,-0.42856210470199585
1788678782097966300,5.80396630859375,11.255142211914062,0.9409212470054626,-0.6200982332229614
1788678782113835500,5.81983544921875,12.15296745300293,1.1468225717544556,1.0606313943862915
1788678782129735200,5.835735107421875,11.113883972167969,1.1109095811843872,0.40222588181495667
1788678782145574000,5.851573974609375,11.690886497497559,0.395043283700943,-0.5530605912208557
1788678782161473500,5.8674736328125,11.803414344787598,0.1364694982767105,-1.45806884765625
1788678782177373200,5.883373291015625,10.99896240234375,-0.14844051003456116,-1.4844050407409668
1788678782193272800,5.89927294921875,10.254365921020508,0.07422025501728058,-1.6376339197158813
1788678782209111600,5.915111572265625,10.42195987701416,-0.07182604819536209,-3.0190882682800293
1788678782225041700,5.931041748046875,10.098742485046387,-0.6871358752250671,-1.7836803197860718
1788678782240941300,5.94694140625,9.045293807983398,-0.2346317619085312,-1.1300631761550903
1788678782256779800,5.96277978515625,8.085219383239746,-0.2585737705230713,-1.3766659498214722
1788678782272649000,5.97864892578125,7.910442352294922,-0.7445967197418213,-1.0845733880996704
1788678782288518100,5.99451806640625,8.255207061767578,-0.31124621629714966,-0.15083470940589905
1788678782304387300,6.01038720703125,8.765172004699707,1.0893617868423462,0.8762778043746948
1788678782320256500,6.026256591796875,8.628703117370605,1.0319008827209473,0.17238251864910126
1788678782336156200,6.04215625,8.796297073364258,0.6440402865409851,-0.9481038451194763
1788678782352055800,6.058055908203125,9.138668060302734,0.6919242739677429,-1.2521674633026123
1788678782367986000,6.07398583984375,9.378087997436523,0.7613561153411865,-0.9552865028381348
1788678782383885600,6.089885498046875,9.560047149658203,1.1683704853057861,-0.8475474119186401
1788678782399754800,6.105754638671875,9.885659217834473,1.6400281190872192,-0.9097966551780701
1788678782415624000,6.1216240234375,9.708487510681152,1.659181833267212,-0.5267243981361389
1788678782431493000,6.1374931640625,8.542511940002441,2.0661959648132324,-0.07900865375995636
1788678782447362000,6.153362060546875,7.654263019561768,2.142810583114624,0.033518824726343155
1788678782463231200,6.169231201171875,7.42681360244751,2.233790159225464,-0.07661445438861847
1788678782479070000,6.185070068359375,7.6782050132751465,2.3343467712402344,-0.07182604819536209
1788678782494969600,6.200969482421875,8.394071578979492,2.5043349266052246,-0.1173158809542656
1788678782510838800,6.2168388671875,8.537723541259766,2.1092917919158936,0.1173158809542656
1788678782526677200,6.23267724609375,9.521739959716797,1.8962076902389526,-0.20111294090747833
1788678782542607600,6.248607666015625,10.618284225463867,1.889025092124939,0.07422025501728058
1788678782558476500,6.2644765625,11.094730377197266,1.8531121015548706,0.43095630407333374
1788678782590245400,6.296245361328125,11.384428977966309,1.522712230682373,0.19393034279346466
1788678782606145000,6.31214501953125,11.836933135986328,0.993593692779541,0.0071826050989329815
1788678782622075400,6.328075439453125,12.205639839172363,0.8834604024887085,-0.3974374830722809
1788678782637975000,6.34397509765625,12.11705493927002,1.3886369466781616,-0.4141969084739685
1788678782653874700,6.359874755859375,11.128249168395996,1.4628572463989258,0.26815059781074524
1788678782669713200,6.375713134765625,10.007762908935547,1.194706678390503,0.768538773059845
1788678782685643500,6.3916435546875,9.607931137084961,0.912190854549408,0.7876923680305481
1788678782701512400,6.407512451171875,10.122684478759766,0.10773907601833344,0.6919242739677429
1788678782717412000,6.423412109375,11.90157699584961,-0.7230489253997803,-0.11252748221158981
1788678782733311700,6.439311767578125,14.389152526855469,-0.9888052940368652,-1.158793568611145
1788678782749211600,6.455211669921875,15.490485191345215,-0.8427590131759644,-1.0558429956436157
1788678782765080600,6.47108056640625,13.646949768066406,-0.6320692300796509,-0.18914192914962769
1788678782781011000,6.487010986328125,10.390835762023926,-0.5650315880775452,0.11971008777618408
1788678782796880000,6.5028798828125,7.580042362213135,-0.21787235140800476,-0.033518824726343155
1788678782812779500,6.518779541015625,5.937620162963867,0.44532153010368347,-0.19393034279346466
1788678782828679400,6.534679443359375,5.2480902671813965,0.9481038451194763,0.043095629662275314
1788678782844518000,6.550517822265625,5.540182590484619,0.9840168952941895,0.3208230137825012
1788678782860417500,6.56641748046875,6.457161903381348,0.751779317855835,0.24899697303771973
1788678782876286700,6.58228662109375,7.850587368011475,0.7182605266571045,0.031124621629714966
1788678782892156000,6.598156005859375,8.927978515625,0.8164227604866028,-0.2106897532939911
1788678782908025000,6.614025146484375,9.095572471618652,0.9481038451194763,-0.44771572947502136
1788678782923894300,6.629894287109375,9.306262016296387,1.1875240802764893,-0.2537853717803955
1788678782939763200,6.64576318359375,8.966285705566406,1.3623007535934448,-0.040701430290937424
1788678782955632400,6.66163232421875,8.08043098449707,1.5298948287963867,-0.40462008118629456
1788678782971471000,6.67747119140625,7.5968017578125,1.2976573705673218,0.3423708379268646
1788678782987340300,6.69334033203125,7.953537940979004,2.126051187515259,0.6823474764823914
1788678783003209200,6.709209228515625,8.769960403442383,2.5977089405059814,0.016759412363171577
1788678783019108900,6.72510888671875,9.004592895507812,2.454056739807129,-0.44532153010368347
1788678783034947600,6.740947509765625,8.877699851989746,2.3343467712402344,-0.586579442024231
1788678783050847200,6.75684716796875,9.026140213012695,2.121262788772583,-0.42616790533065796
1788678783066716400,6.77271630859375,9.583989143371582,1.9105730056762695,-0.2968810200691223
1788678783082585600,6.788585693359375,10.65898609161377,1.9273324012756348,-0.6057330369949341
1788678783098454800,6.804454833984375,11.228805541992188,1.8602946996688843,-0.9768342971801758
1788678783114323700,6.82032373046875,11.190498352050781,1.625662922859192,-0.4141969084739685
1788678783130223600,6.8362236328125,10.891223907470703,1.173158884048462,0.5506663918495178
1788678783146092500,6.852092529296875,10.611102104187012,1.6280571222305298,-0.13168109953403473
1788678783161961700,6.867961669921875,10.347740173339844,1.5682021379470825,-0.17717093229293823
1788678783177831000,6.883830810546875,10.467450141906738,1.259350061416626,0.05027823522686958
1788678783193700000,6.8997001953125,10.647014617919922,1.235408067703247,0.2082955539226532
1788678783209569300,6.9155693359375,10.615890502929688,1.8986018896102905,0.4620809257030487
1788678783225499400,6.93149951171875,10.680533409118652,1.8315643072128296,0.45250412821769714
1788678783241368600,6.94736865234375,10.896012306213379,1.525106430053711,0.395043283700943
1788678783257298700,6.963298583984375,10.63743782043457,1.1851298809051514,0.026336219161748886
1788678783273168000,6.97916796875,10.359710693359375,0.7206547260284424,-0.06464344263076782
1788678783289067500,6.995067626953125,11.243170738220215,0.24420857429504395,-0.4429273009300232
1788678783304936700,7.010936767578125,12.60307788848877,-0.1604115068912506,-0.9983820915222168
1788678783320806000,7.026805908203125,13.254301071166992,-0.49799394607543945,-1.3239935636520386
1788678783336736000,7.042736083984375,12.442666053771973,-0.6703764796257019,-1.4628572463989258
1788678783352605200,7.058605224609375,10.369287490844727,-0.5386953949928284,-1.3886369466781616
1788678783368504800,7.0745048828125,8.487444877624512,-0.2561795711517334,-1.278503656387329
1788678783384373800,7.090373779296875,7.295132637023926,0.10773907601833344,-1.2018892765045166
1788678783400212500,7.10621240234375,7.204153060913086,0.4572925269603729,-1.0654197931289673
1788678783416081700,7.12208154296875,8.068459510803223,0.2849099934101105,-0.3998316824436188
1788678783431981300,7.137981201171875,8.942343711853027,0.22266076505184174,-0.23942017555236816
1788678783447850500,7.1538505859375,9.48343276977539,0.3734954595565796,-0.3974374830722809
1788678783463719700,7.1697197265625,9.57441234588623,0.5578489899635315,-0.2992752194404602
1788678783479588600,7.185588623046875,9.095572471618652,0.8379706144332886,-0.22026655077934265
1788678783495457800,7.201457763671875,8.506598472595215,1.0654197931289673,-0.11013327538967133
1788678783511327000,7.217326904296875,8.051700592041016,1.2521674633026123,-0.11013327538967133
1788678783527165700,7.233165771484375,7.733271598815918,1.5322890281677246,-0.11971008777618408
1788678783543004200,7.249004150390625,7.682993412017822,1.8794482946395874,-0.0694318488240242
1788678783558934500,7.2649345703125,7.829039573669434,2.0853497982025146,0.10773907601833344
1788678783574803500,7.280803466796875,8.14028549194336,2.166752576828003,0.33518823981285095
1788678783590672600,7.296672607421875,8.513781547546387,2.10210919380188,0.4118026793003082
1788678783606603000,7.31260302734375,9.090784072875977,1.9321208000183105,0.12928688526153564
1788678783622472000,7.328471923828125,9.813833236694336,1.7717092037200928,-0.0694318488240242
1788678783638371600,7.34437158203125,10.493785858154297,1.6879122257232666,-0.016759412363171577
1788678783654271200,7.360271240234375,10.917559623718262,1.4867992401123047,0.0933738648891449
1788678783670140400,7.376140380859375,11.168951034545898,1.7357962131500244,0.002394201699644327
1788678783686162200,7.392162109375,11.142614364624023,1.161187767982483,-0.06224924325942993
1788678783702001000,7.4080009765625,11.075576782226562,0.9864110946655273,0.11971008777618408
1788678783717900500,7.423900634765625,11.444284439086914,0.9648633003234863,0.24181437492370605
1788678783733769700,7.439769775390625,11.827356338500977,1.1899182796478271,-0.05267243832349777
1788678783749638700,7.455638671875,11.75792407989502,1.7094600200653076,0.17956513166427612
1788678783765569000,7.471569091796875,11.05642318725586,1.680729627609253,0.6751648783683777
1788678783781438200,7.487438232421875,10.321403503417969,1.6089035272598267,0.5123591423034668
1788678783797337900,7.503337890625,10.029311180114746,1.2473790645599365,0.31364041566848755
1788678783813206800,7.519206787109375,10.560823440551758,0.24420857429504395,0.3519476354122162
1788678783829076000,7.535075927734375,11.944672584533691,-0.48602294921875,0.06464344263076782
1788678783844945200,7.550945068359375,13.412318229675293,-0.8403648138046265,-0.09816227108240128
1788678783860783900,7.566783935546875,13.7666597366333,-0.8307880163192749,-0.05267243832349777
1788678783876714000,7.5827138671875,12.358869552612305,-0.9409212470054626,0.031124621629714966
1788678783892644000,7.59864404296875,9.871294021606445,-0.569819986820221,-0.038307227194309235
1788678783908513300,7.61451318359375,7.682993412017822,0.08858546614646912,-0.2082955539226532
1788678783924413000,7.630412841796875,6.524199485778809,0.5482721924781799,-0.16759411990642548
1788678783940343000,7.646343017578125,6.904877662658691,0.6488286852836609,-0.1628057211637497
1788678783956212200,7.662212158203125,7.879317760467529,0.6224924325942993,-0.16519992053508759
1788678783972081400,7.678081298828125,8.588001251220703,0.35913026332855225,-0.12210428714752197
1788678783987950600,7.69395068359375,9.327810287475586,0.20350714027881622,-0.3663128614425659
1788678784003819800,7.70981982421875,9.888052940368652,0.26575639843940735,-0.7565677165985107
1788678784019750000,7.72575,9.794678688049316,0.49320554733276367,-0.9648633003234863
1788678784035680000,7.741679931640625,9.253589630126953,0.6847416758537292,-0.5578489899635315
1788678784051549200,7.757549072265625,8.125920295715332,0.9097966551780701,-0.16998831927776337
1788678784067418400,7.77341845703125,7.180211067199707,1.1971008777618408,-0.23942017555236816
1788678784083256800,7.7892568359375,6.777985095977783,1.5729905366897583,-0.4668693244457245
1788678784099126000,7.8051259765625,6.9024834632873535,1.9752163887023926,-0.4572925269603729
1788678784114995200,7.8209951171875,7.493851184844971,2.097320795059204,-0.19632454216480255
1788678784130864400,7.836864501953125,8.35097599029541,1.8555063009262085,-0.12210428714752197
1788678784146733600,7.852733642578125,9.136273384094238,1.6735470294952393,-0.33997663855552673
1788678784162602800,7.868602783203125,9.531316757202148,1.764526605606079,-0.3471592366695404
1788678784178502400,7.88450244140625,9.5408935546875,1.886630892753601,-0.16759411990642548
1788678784194432500,7.9004326171875,9.370905876159668,1.9081788063049316,-0.16998831927776337
1788678784210301700,7.9163017578125,9.607931137084961,1.7166426181793213,-0.26815059781074524
1788678784226201300,7.932201416015625,10.1753568649292,1.3982137441635132,-0.5578489899635315
1788678784242101000,7.94810107421875,11.188104629516602,1.1420341730117798,-0.4429273009300232
1788678784257970200,7.96397021484375,11.817779541015625,1.1755530834197998,-0.38546648621559143
1788678784273808600,7.97980859375,12.27267837524414,1.1683704853057861,-0.47884035110473633
1788678784297643000,8.00364306640625,12.279860496520996,1.3096283674240112,-0.3734954595565796
1788678784313481500,8.0194814453125,11.647790908813477,1.1492167711257935,-0.47405192255973816
1788678784329381000,8.035381103515626,11.109095573425293,1.256955862045288,-0.6775590777397156
1788678784345250300,8.051250244140626,10.833763122558594,1.3192051649093628,-0.6847416758537292
1788678784361119500,8.067119384765626,11.08994197845459,0.730231523513794,-0.4189853072166443
1788678784376988700,8.08298876953125,12.085929870605469,-0.12689268589019775,-0.20111294090747833
1788678784392857900,8.09885791015625,13.582305908203125,-0.7206547260284424,-0.3208230137825012
1788678784408726800,8.114726806640626,13.828908920288086,-1.01753568649292,-0.5267243981361389
1788678784424626700,8.130626708984375,12.78264331817627,-0.6057330369949341,-0.871489405632019
1788678784440526300,8.1465263671875,8.951920509338379,-0.49799394607543945,-0.45250412821769714
1788678784456426000,8.162426025390625,6.327875137329102,-0.05506663769483566,-0.14844051003456116
1788678784472325600,8.17832568359375,6.275202751159668,0.6703764796257019,-0.5219359993934631
1788678784488194600,8.194194580078126,7.51779317855835,0.7445967197418213,-0.5841852426528931
1788678784504063700,8.210063720703126,7.565677165985107,0.5386953949928284,-0.5099649429321289
1788678784519933000,8.225932861328126,7.513004779815674,0.181959331035614,-0.38067805767059326
1788678784535893800,8.241893798828125,7.532158374786377,0.26815059781074524,-0.4596867263317108
1788678784551732200,8.257732177734376,8.070854187011719,0.6823474764823914,-0.3926490843296051
1788678784567601400,8.273601318359376,8.87291145324707,1.2186486721038818,-0.17717093229293823
1788678784583470600,8.289470703125,9.452308654785156,1.3646949529647827,-0.3734954595565796
1788678784599309000,8.30530908203125,9.627084732055664,1.3407529592514038,-0.730231523513794
1788678784615178200,8.32117822265625,9.334992408752441,1.2761094570159912,-1.0031704902648926
1788678784631017000,8.337016845703126,8.468291282653809,1.5753847360610962,-1.170764684677124
1788678784646916600,8.35291650390625,7.814674377441406,2.0901381969451904,-0.7206547260284424
1788678784662816300,8.368816162109376,7.6566572189331055,2.4875755310058594,-0.19871874153614044
1788678784678685400,8.384685546875,8.161833763122559,2.5665841102600098,0.40701428055763245
1788678784694554600,8.4005546875,8.935160636901855,2.360682964324951,0.3423708379268646
1788678784710454300,8.416454345703125,9.720458984375,2.0159177780151367,-0.23942017555236816
1788678784726323500,8.432323486328125,10.41956615447998,1.845929503440857,-0.6129156351089478
1788678784742223000,8.44822314453125,10.924742698669434,1.8914192914962769,-0.6943184733390808
1788678784758153200,8.4641533203125,10.989385604858398,1.8555063009262085,-0.6560112833976746
1788678784773991700,8.47999169921875,10.982203483581543,1.6974890232086182,-0.5195417404174805
1788678784789922000,8.495922119140625,11.370063781738281,1.3263877630233765,-0.4189853072166443
1788678784805791200,8.511791259765625,11.865663528442383,0.993593692779541,-0.3663128614425659
1788678784821660200,8.52766015625,12.595894813537598,0.6177040338516235,-0.37828385829925537
1788678784837529300,8.543529296875,12.945448875427246,0.5985504388809204,-0.44532153010368347
1788678784853429000,8.559428955078126,12.51449203491211,1.3000515699386597,-0.6631938815116882
1788678784869328600,8.57532861328125,11.401188850402832,1.6041151285171509,-0.3902548849582672
1788678784885259000,8.591259033203125,10.170568466186523,1.6543933153152466,-0.09816227108240128
1788678784901128000,8.6071279296875,9.497797966003418,1.8770540952682495,0.043095629662275314
1788678784917027600,8.623027587890626,9.306262016296387,1.4867992401123047,0.3256114423274994
1788678784932896800,8.638896728515626,9.983820915222168,0.4644751250743866,0.36152446269989014
1788678784948766000,8.654765869140626,11.32457447052002,-0.12928688526153564,0.10534487664699554
1788678784964635100,8.67063525390625,12.18409252166748,-0.363918662071228,0.16998831927776337
1788678784980504300,8.68650439453125,11.765107154846191,-0.5985504388809204,0.2537853717803955
1788678784996342800,8.7023427734375,10.431536674499512,-0.4381389021873474,0.090979665517807
1788678785012181500,8.718181396484376,8.71728801727295,0.021547814831137657,0.2849099934101105
1788678785028050700,8.73405078125,7.022193431854248,0.5482721924781799,0.6584054827690125
1788678785043950300,8.749950439453125,5.928043365478516,1.0127472877502441,0.8858546018600464
1788678785059850000,8.76585009765625,5.7772088050842285,1.1348515748977661,0.7374141216278076
1788678785075749600,8.78174951171875,6.873753070831299,0.8810662031173706,0.3495534360408783
1788678785091618800,8.797618896484375,8.425195693969727,0.7350199222564697,-0.0454898327589035
1788678785107457300,8.813457275390626,9.318233489990234,0.6440402865409851,-0.016759412363171577
1788678785123357000,8.82935693359375,9.706093788146973,0.7589619159698486,-0.1388636976480484
1788678785139195600,8.845195556640626,9.0859956741333,0.9816226959228516,-0.11971008777618408
1788678785155064800,8.86106494140625,8.195352554321289,1.1468225717544556,-0.33039984107017517
1788678785170934000,8.87693408203125,7.769184589385986,1.3263877630233765,-0.5506663918495178
1788678785186833700,8.892833740234375,7.273584842681885,1.824381709098816,-0.2346317619085312
1788678785202702800,8.908702880859375,7.187393665313721,2.183511972427368,0.12928688526153564
1788678785218602500,8.9246025390625,7.661445617675781,2.298433542251587,0.2753331959247589
1788678785234502100,8.940502197265625,8.573636054992676,2.2577321529388428,-0.09816227108240128
1788678785250371000,8.95637109375,9.564835548400879,2.255337953567505,-0.5530605912208557
1788678785266240300,8.972240234375,10.426748275756836,2.1739351749420166,-0.3974374830722809
1788678785282170600,8.988170654296875,10.733205795288086,2.011129379272461,-0.1628057211637497
1788678785298009000,9.004009033203126,10.702081680297852,1.8076223134994507,0.009576806798577309
1788678785313908700,9.01990869140625,10.520122528076172,2.7102363109588623,-1.0319008827209473
1788678785329808400,9.035808349609376,9.782708168029785,1.968033790588379,-0.10055647045373917
1788678785345647000,9.051647216796875,10.304644584655762,1.699883222579956,0.05985504388809204
1788678785361577200,9.0675771484375,11.051634788513184,1.9105730056762695,-0.4812345504760742
1788678785377446400,9.0834462890625,12.437877655029297,1.41257905960083,-0.4596867263317108
1788678785393315600,9.099315673828125,14.494497299194336,1.039083480834961,-0.26096799969673157
1788678785409215200,9.11521533203125,15.047557830810547,1.4077905416488647,-1.3072341680526733
1788678785425053700,9.1310537109375,13.998897552490234,1.5275006294250488,-1.6879122257232666
1788678785440923000,9.1469228515625,12.571952819824219,1.6543933153152466,-1.2330138683319092
1788678785456822500,9.162822509765626,11.566388130187988,1.9752163887023926,-0.9217676520347595
1788678785472691700,9.178691650390626,11.372458457946777,1.9943699836730957,-0.2059013396501541
1788678785488561000,9.194560791015626,11.714828491210938,1.235408067703247,1.05105459690094
1788678785504460500,9.21046044921875,12.121843338012695,0.33997663855552673,0.8667010068893433
1788678785520390700,9.226390625,11.73398208618164,-0.3519476354122162,-0.23702596127986908
1788678785536290300,9.242290283203126,10.57040023803711,-0.5267243981361389,-1.2617442607879639
1788678785552190000,9.25818994140625,9.174580574035645,-0.33997663855552673,-1.4269442558288574
1788678785568089600,9.274089599609376,7.879317760467529,0.21547815203666687,-1.5418659448623657
1788678785583989200,9.2899892578125,7.3669586181640625,0.751779317855835,-1.4915876388549805
1788678785599919600,9.305919677734375,7.706935405731201,1.05105459690094,-1.1875240802764893
1788678785615788800,9.321788818359375,8.008605003356934,0.849941611289978,-0.5722141861915588
1788678785631688400,9.3376884765625,8.595184326171875,0.9193734526634216,-0.6224924325942993
1788678785647527000,9.35352685546875,8.69334602355957,0.7469909191131592,-0.5770025849342346
1788678785663426600,9.369426513671876,8.365341186523438,0.7565677165985107,-0.608127236366272
1788678785679295700,9.385295654296876,7.996633529663086,0.993593692779541,-0.8331822156906128
1788678785695195400,9.4011953125,7.8314337730407715,1.2018892765045166,-0.8451532125473022
1788678785711064600,9.417064697265625,7.939172744750977,1.3862427473068237,-0.8858546018600464
1788678785726903300,9.4329033203125,8.070854187011719,1.5394717454910278,-0.9289502501487732
1788678785742803000,9.448802978515625,8.197746276855469,1.6879122257232666,-0.6991068720817566
1788678785758702600,9.46470263671875,8.425195693969727,1.8698714971542358,-0.49320554733276367
1788678785774571500,9.480571533203126,8.892065048217773,1.922544002532959,-0.4405331015586853
1788678785790471200,9.49647119140625,9.035717010498047,1.9081788063049316,-0.5386953949928284
1788678785806340400,9.51234033203125,8.652645111083984,1.6639702320098877,-0.4213795065879822
1788678785822179000,9.528178955078126,9.069235801696777,1.8124107122421265,-0.33518823981285095
1788678785838078700,9.54407861328125,8.932766914367676,1.9297266006469727,-0.17477671802043915
1788678785853948000,9.559947998046875,9.07641887664795,2.051830768585205,-0.31842881441116333
1788678785869847600,9.57584765625,9.047688484191895,1.9776105880737305,-0.10773907601833344
1788678785885747200,9.591747314453125,9.255983352661133,1.9129672050476074,0.1173158809542656
1788678785909581300,9.615581298828126,10.225635528564453,1.580173134803772,-0.12449848651885986
1788678785925450500,9.631450439453126,11.377246856689453,1.0103530883789062,-0.6560112833976746
1788678785941319700,9.647319580078126,12.409147262573242,0.7733271718025208,-1.5155296325683594
1788678785965153800,9.67115380859375,11.90157699584961,1.3096283674240112,-2.126051187515259
1788678785981023000,9.68702294921875,10.680533409118652,1.4628572463989258,-1.5203180313110352
1788678785996892200,9.70289208984375,9.780313491821289,1.5945383310317993,-0.8547300100326538
1788678786012791800,9.718791748046876,9.545681953430176,1.4939818382263184,0.05267243832349777
1788678786028661000,9.734660888671876,10.642226219177246,1.0055646896362305,0.3758896589279175
1788678786044499700,9.750499755859375,11.987768173217773,0.49559974670410156,-0.22505496442317963
1788678786060368600,9.76636865234375,12.684480667114258,0.07900865375995636,-0.8547300100326538
1788678786076299000,9.782299072265625,12.215216636657715,-0.26815059781074524,-0.8954314589500427
1788678786092198700,9.79819873046875,10.788272857666016,-0.13168109953403473,-0.8643068075180054
1788678786116002300,9.822002197265626,8.322244644165039,0.5410895943641663,-0.586579442024231
1788678786131902000,9.83790185546875,7.587224960327148,0.9696516990661621,-0.7757213711738586
1788678786147771100,9.853771240234375,7.8098859786987305,1.1276689767837524,-0.9959878921508789
1788678786163609600,9.869609619140626,8.269572257995605,1.1276689767837524,-0.7015010714530945
1788678786179509500,9.885509521484375,8.937555313110352,1.1468225717544556,-0.14365209639072418
1788678786195378400,9.90137841796875,9.502586364746094,1.2449848651885986,0.06464344263076782
1788678786211308800,9.917308837890625,9.543288230895996,1.292868971824646,-0.05985504388809204
1788678786227177700,9.933177734375,9.251194953918457,1.292868971824646,-0.009576806798577309
1788678786243077400,9.949077392578126,8.59997272491455,1.4317326545715332,-0.19393034279346466
1788678786258946600,9.964946533203126,7.795520782470703,1.558625340461731,-0.37828385829925537
1788678786274815700,9.980815673828126,7.16584587097168,1.5658079385757446,-0.5650315880775452
1788678786290685000,9.996684814453126,7.067683219909668,1.7501614093780518,-0.7613561153411865
1788678786306523600,10.012523681640625,7.491456985473633,1.623268723487854,-0.8858546018600464
1788678786322392600,10.028392578125,8.628703117370605,2.4205379486083984,-1.0103530883789062
1788678786338261800,10.04426171875,9.481039047241211,2.1284453868865967,-0.2849099934101105
1788678786354131000,10.060130859375,10.192116737365723,2.0853497982025146,0.17717093229293823
1788678786369969700,10.0759697265625,10.24239444732666,1.9991583824157715,0.13168109953403473
1788678786385869300,10.091869384765625,10.067618370056152,1.577778935432434,-0.17477671802043915
1788678786401738500,10.107738525390625,10.08198356628418,1.5418659448623657,-0.8762778043746948
1788678786417577000,10.123576904296876,10.66137981414795,1.292868971824646,-1.6663644313812256
1788678786441411300,10.147411376953125,10.690110206604004,1.0271124839782715,-0.4620809257030487
1788678786457311000,10.16331103515625,11.073183059692383,1.3886369466781616,-0.2992752194404602
1788678786473180200,10.17918017578125,11.99255657196045,1.3670891523361206,0.021547814831137657
1788678786489079800,10.195079833984375,12.773066520690918,1.2856862545013428,-0.05985504388809204
1788678786504948700,10.21094873046875,12.495338439941406,1.3934253454208374,-0.8355764150619507
1788678786520848400,10.226848388671876,11.731588363647461,1.41257905960083,-1.3263877630233765
1788678786536748000,10.242748046875,10.896012306213379,1.455674648284912,-1.558625340461731
1788678786552617200,10.2586171875,10.393229484558105,1.4532804489135742,-1.4676456451416016
1788678786568516900,10.274516845703126,10.539276123046875,1.2258312702178955,-0.8906430602073669
1788678786584386000,10.290385986328126,11.202469825744629,0.727837324142456,-0.31124621629714966
1788678786600224800,10.306224853515625,11.669339179992676,0.3878606855869293,-0.2537853717803955
1788678786616094000,10.322093994140625,11.15697956085205,0.40940847992897034,-0.5937620401382446
1788678786631963000,10.337962890625,10.120290756225586,0.6200982332229614,-0.8834604024887085
1788678786647832000,10.35383203125,8.959102630615234,0.8643068075180054,-0.8140285611152649
1788678786663670800,10.3696708984375,8.200140953063965,1.0773907899856567,-0.6512228846549988
1788678786679570400,10.3855703125,8.073247909545898,1.1851298809051514,-0.6057330369949341
1788678786695378400,10.40137841796875,8.53293514251709,1.0797849893569946,-0.5410895943641663
1788678786711308800,10.417308837890625,9.10993766784668,0.9840168952941895,-0.44771572947502136
1788678786727177700,10.433177734375,9.318233489990234,0.9696516990661621,-0.33758243918418884
1788678786743047000,10.449046875,9.184157371520996,0.9648633003234863,-0.3016694188117981
1788678786758946600,10.464946533203126,8.81784439086914,1.0007762908935547,-0.304063618183136
1788678786774815700,10.480815673828126,8.667010307312012,1.0558429956436157,-0.4620809257030487
1788678786790685000,10.496684814453126,8.669404029846191,1.1563993692398071,-0.7206547260284424
1788678786806554000,10.51255419921875,8.628703117370605,1.314416766166687,-0.9361328482627869
1788678786822453800,10.528453857421875,8.827422142028809,1.5442601442337036,-0.8906430602073669
1788678786838292200,10.544292236328126,8.860940933227539,1.6855180263519287,-0.5578489899635315
1788678786854191900,10.56019189453125,8.858546257019043,1.7573440074920654,-0.27054479718208313
1788678786870122200,10.576122314453125,8.971074104309082,1.8387469053268433,-0.19153612852096558
1788678786885960700,10.591960693359376,8.93037223815918,1.8770540952682495,-0.11252748221158981
1788678786901860400,10.6078603515625,8.774748802185059,2.0183119773864746,-0.12689268589019775
1788678786917760000,10.623760009765626,8.884882926940918,2.0470423698425293,-0.10055647045373917
1788678786933659600,10.63965966796875,9.17936897277832,1.941697597503662,0.011971008032560349
1788678786949528800,10.65552880859375,9.624691009521484,1.8171991109848022,-0.016759412363171577
1788678786965428500,10.671428466796876,10.192116737365723,1.577778935432434,0.033518824726343155
1788678786981297700,10.687297607421876,10.862493515014648,1.290474772453308,-0.05267243832349777
1788678786997197300,10.703197265625,11.310209274291992,1.039083480834961,-0.22266076505184174
1788678787013097000,10.719096923828126,11.429919242858887,1.0462661981582642,-0.768538773059845
1788678787028996600,10.73499658203125,11.228805541992188,1.3096283674240112,-1.1994950771331787
1788678787044865800,10.75086572265625,10.99896240234375,1.4221558570861816,-0.8643068075180054
1788678787060765400,10.766765380859376,10.6925048828125,1.6376339197158813,-0.18914192914962769
1788678787076634600,10.782634521484376,10.340557098388672,1.702277421951294,0.6560112833976746
1788678787092503800,10.79850390625,10.302249908447266,1.2306196689605713,1.2018892765045166
1788678787108464400,10.81446435546875,10.900800704956055,0.6584054827690125,0.6991068720817566
1788678787124333600,10.83033349609375,11.868058204650879,0.10295066982507706,0.15322890877723694
1788678787140202800,10.84620263671875,12.033257484436035,-0.395043283700943,-0.026336219161748886
1788678787156102400,10.862102294921876,11.250353813171387,-0.5339069962501526,-0.11971008777618408
1788678787171971600,10.8779716796875,9.919178009033203,-0.06703764945268631,-0.29209262132644653
1788678787187840800,10.8938408203125,8.743624687194824,0.35673606395721436,-0.1412578970193863
1788678787203709700,10.909709716796876,8.063671112060547,0.7948749661445618,-0.12210428714752197
1788678787219579000,10.925578857421876,7.910442352294922,1.2306196689605713,-0.17238251864910126
1788678787235509200,10.94150927734375,8.327033042907715,1.2832920551300049,0.0071826050989329815
1788678787251409000,10.957408935546875,8.887276649475098,1.2665326595306396,0.09816227108240128
1788678787267308500,10.97330859375,9.605537414550781,1.2258312702178955,0.0933738648891449
1788678787283238700,10.98923876953125,10.04846477508545,1.3192051649093628,-0.06464344263076782
1788678787299199200,11.00519921875,10.000580787658691,1.3886369466781616,-0.15083470940589905
1788678787315068400,11.021068359375,9.370905876159668,1.501164436340332,-0.272938996553421
1788678787330937600,11.0369375,8.83699893951416,1.601720929145813,-0.24660277366638184
1788678787346806800,11.052806884765625,8.564059257507324,1.7549498081207275,-0.2825157940387726
1788678787362706400,11.06870654296875,8.415618896484375,2.0398597717285156,-0.5195417404174805
1788678787378545000,11.084544921875,8.40843677520752,2.233790159225464,-0.6177040338516235
1788678787394444800,11.10044482421875,8.51138687133789,2.1499931812286377,-0.42856210470199585
1788678787410283300,11.116283203125,8.786720275878906,2.0207061767578125,-0.3734954595565796
1788678787426213400,11.13221337890625,9.090784072875977,1.9704279899597168,-0.6057330369949341
1788678787442082600,11.14808251953125,9.222464561462402,1.922544002532959,-0.7086837291717529
1788678787457921300,11.16392138671875,9.102754592895508,1.8555063009262085,-0.6703764796257019
1788678787473790500,11.17979052734375,9.014169692993164,1.867477297782898,-0.6727706789970398
1788678787489690000,11.195690185546875,9.081207275390625,1.8722656965255737,-0.768538773059845
1788678787505559300,11.211559326171875,9.569623947143555,1.8387469053268433,-0.7781155705451965
1788678787521459000,11.227458984375,10.230423927307129,1.6950948238372803,-0.8427590131759644
1788678787537358600,11.243358642578125,10.90558910369873,1.556231141090393,-1.137245774269104
1788678787553258200,11.25925830078125,11.5065336227417,1.3215993642807007,-1.3718775510787964
1788678787569127400,11.27512744140625,11.805809020996094,1.4389152526855469,-1.5298948287963867
1788678787584996400,11.290996337890626,11.654973983764648,1.6663644313812256,-0.9002198576927185
1788678787600865500,11.306865478515626,11.372458457946777,1.8076223134994507,-0.35673606395721436
1788678787616734700,11.322734619140626,11.085153579711914,2.1954829692840576,-0.4836287498474121
1788678787632604000,11.33860400390625,10.891223907470703,2.0805611610412598,-0.35673606395721436
1788678787648503600,11.354503662109375,10.94150161743164,1.6855180263519287,-0.12928688526153564
1788678787664372700,11.370372802734375,11.372458457946777,1.2665326595306396,0.043095629662275314
1788678787680242000,11.386241943359375,11.42752456665039,0.8547300100326538,-0.19153612852096558
1788678787696110800,11.40211083984375,10.92953109741211,0.9026140570640564,-0.6033388376235962
1788678787711980000,11.41797998046875,9.904812812805176,1.2545616626739502,-0.5626373887062073
1788678787727879700,11.433879638671876,8.887276649475098,1.5442601442337036,-0.14604631066322327
1788678787743809800,11.449809814453126,8.276755332946777,1.7118542194366455,0.26096799969673157
1788678787759709700,11.465709716796875,8.14028549194336,1.7190368175506592,0.19871874153614044
1788678787775578600,11.48157861328125,8.315062522888184,1.4508862495422363,-0.0071826050989329815
1788678787791478300,11.497478271484376,8.494627952575684,1.115697979927063,-0.12210428714752197
1788678787807347500,11.513347412109376,8.597578048706055,0.933738648891449,-0.14844051003456116
1788678787823216600,11.529216552734376,8.920795440673828,0.9768342971801758,-0.29209262132644653
1788678787839085800,11.5450859375,9.493009567260742,0.9433154463768005,-0.47165772318840027
1788678787855016000,11.561015869140626,9.713275909423828,1.05105459690094,-0.6943184733390808
1788678787870915600,11.57691552734375,9.47146224975586,1.2425906658172607,-0.6919242739677429
1788678787886815200,11.592815185546876,9.02135181427002,1.3287819623947144,-0.47884035110473633
1788678787902715000,11.60871484375,8.547300338745117,1.4772224426269531,-0.5219359993934631
1788678787918584000,11.624583984375,8.53293514251709,1.5634137392044067,-0.6392518281936646
1788678787934453200,11.640453369140625,8.7268648147583,1.6424223184585571,-0.569819986820221
1788678787950353000,11.656352783203126,8.949525833129883,1.678335428237915,-0.22266076505184174
1788678787966252500,11.67225244140625,9.030928611755371,1.8507179021835327,0.009576806798577309
1788678787982152200,11.688152099609376,9.148244857788086,1.920149803161621,0.26096799969673157
1788678787998021400,11.704021484375,9.452308654785156,1.9153614044189453,0.1604115068912506
1788678788013921000,11.719921142578125,9.619902610778809,1.9967641830444336,-0.09816227108240128
1788678788029820700,11.735820556640626,9.344569206237793,2.099714994430542,0.004788403399288654
1788678788045689900,11.75168994140625,9.119514465332031,2.0207061767578125,0.27054479718208313
1788678788061559000,11.76755908203125,9.423578262329102,1.824381709098816,0.3232172429561615
1788678788077458700,11.783458740234375,9.835380554199219,1.5945383310317993,-0.090979665517807
1788678788093358300,11.7993583984375,10.745177268981934,1.2617442607879639,-0.3423708379268646
1788678788109258000,11.815258056640625,11.473014831542969,1.1971008777618408,-0.5602431893348694
1788678788125096400,11.831096435546876,11.72201156616211,1.3048399686813354,-0.5027823448181152
1788678788140965600,11.846965576171876,11.027692794799805,1.6376339197158813,-0.23702596127986908
1788678788156865300,11.862865234375,10.390835762023926,1.8722656965255737,-0.021547814831137657
1788678788172765000,11.878764892578126,10.381258964538574,1.9704279899597168,-0.181959331035614
1788678788188634000,11.894634033203126,10.527304649353027,1.723825216293335,-0.4189853072166443
1788678788204533800,11.91053369140625,11.168951034545898,1.2761094570159912,-0.6919242739677429
1788678788220403000,11.92640283203125,11.911153793334961,0.7829039692878723,-0.5937620401382446
1788678788236302600,11.942302490234376,12.442666053771973,0.24899697303771973,-0.2537853717803955
1788678788252263200,11.95826318359375,12.231976509094238,0.08140286058187485,-0.23702596127986908
1788678788268162800,11.974162841796876,11.224017143249512,0.15801730751991272,-0.40462008118629456
1788678788284032000,11.990031982421876,9.615114212036133,0.4118026793003082,-0.4836287498474121
1788678788299901200,12.005901123046876,8.183381080627441,0.7374141216278076,-0.3423708379268646
1788678788315800800,12.02180078125,7.232883453369141,1.3120225667953491,-0.23942017555236816
1788678788331700500,12.037700439453126,6.897695064544678,1.522712230682373,0.1412578970193863
1788678788347600100,12.05360009765625,7.450755596160889,1.5083470344543457,0.5027823448181152
1788678788363499800,12.069499755859376,8.628703117370605,1.4508862495422363,0.5482721924781799
1788678788379399400,12.0853994140625,9.734824180603027,1.4197616577148438,0.2801215946674347
1788678788395268600,12.1012685546875,10.29746150970459,1.5729905366897583,-0.1149216815829277
1788678788411137800,12.1171376953125,9.734824180603027,1.5945383310317993,-0.17717093229293823
1788678788427037400,12.133037353515626,8.652645111083984,1.7046716213226318,0.07900865375995636
1788678788442937000,12.14893701171875,8.200140953063965,1.987187385559082,0.12449848651885986
1788678788458806300,12.16480615234375,7.994239330291748,2.2840683460235596,-0.1867477297782898
1788678788474736400,12.180736328125,8.010998725891113,2.3080103397369385,-0.1628057211637497
1788678788490636000,12.196635986328126,8.08282470703125,2.3056161403656006,-0.10295066982507706
1788678788506535700,12.21253564453125,8.401253700256348,2.3582887649536133,-0.09816227108240128
1788678788522435300,12.228435302734376,8.83699893951416,2.3127987384796143,0.07422025501728058
1788678788538335000,12.2443349609375,9.275136947631836,2.2577321529388428,0.23942017555236816
1788678788554204200,12.2602041015625,9.509769439697266,2.1571757793426514,0.13168109953403473
1788678788570165000,12.2761650390625,9.442731857299805,2.2218191623687744,-0.26575639843940735
1788678788586034000,12.292033935546876,9.23682975769043,2.2673089504241943,-0.5003881454467773
1788678788601903000,12.307903076171876,9.282320022583008,2.121262788772583,-0.47405192255973816
1788678788617772300,12.323772216796876,9.895236015319824,1.9847931861877441,-0.7038952708244324
1788678788633641500,12.339641357421876,10.90798282623291,1.8171991109848022,-0.9720458984375
1788678788649480200,12.355480224609375,11.686098098754883,1.7812861204147339,-1.1061211824417114
1788678788665379800,12.3713798828125,12.169727325439453,1.680729627609253,-1.0103530883789062
1788678788681218300,12.38721826171875,12.100295066833496,1.8363527059555054,-1.1252747774124146
1788678788697087500,12.40308740234375,11.523292541503906,2.0446481704711914,-1.05105459690094
1788678788712987100,12.418987060546876,10.647014617919922,2.2888567447662354,-0.9409212470054626
1788678788728886800,12.43488671875,10.034099578857422,2.169146776199341,-0.26575639843940735
1788678788744756000,12.450755859375,10.079588890075684,1.7094600200653076,0.2992752194404602
1788678788760625200,12.466625244140625,11.061211585998535,1.048660397529602,0.28730419278144836
1788678788776524800,12.48252490234375,12.107478141784668,0.40940847992897034,-0.3016694188117981
1788678788792394000,12.49839404296875,12.255918502807617,0.24899697303771973,-1.173158884048462
1788678788808293600,12.514293701171875,11.245565414428711,0.40701428055763245,-1.2425906658172607
1788678788824193300,12.530193359375,9.80904483795166,0.7469909191131592,-0.5937620401382446
1788678788840031700,12.54603173828125,8.65743350982666,1.158793568611145,-0.14844051003456116
1788678788863805000,12.569804931640626,8.159439086914062,1.3838485479354858,-0.12689268589019775
1788678788879704600,12.58570458984375,8.631096839904785,1.2617442607879639,-0.47165772318840027
1788678788895573800,12.60157373046875,8.916007041931152,1.0079588890075684,-0.4572925269603729
1788678788911473400,12.617473388671876,9.006986618041992,1.072602391242981,-0.38546648621559143
1788678788927342600,12.633342529296876,8.87051773071289,1.161187767982483,-0.1843535304069519
1788678788943242200,12.6492421875,8.669404029846191,1.1971008777618408,0.019153613597154617
1788678788959111400,12.665111328125,8.635885238647461,1.235408067703247,0.021547814831137657
1788678788974980600,12.680980712890625,8.676587104797363,1.290474772453308,-0.26336219906806946
1788678788990880300,12.69688037109375,8.686163902282715,1.4532804489135742,-0.6584054827690125
1788678789006749400,12.71274951171875,8.779537200927734,1.6065093278884888,-0.6991068720817566
1788678789022649000,12.728649169921875,8.96389102935791,1.723825216293335,-0.48602294921875
1788678789038518300,12.744518310546875,9.08838939666748,1.8531121015548706,-0.2537853717803955
1788678789054387200,12.76038720703125,9.30386734008789,1.9033904075622559,-0.1412578970193863
1788678789070256400,12.77625634765625,9.44752025604248,1.86508309841156,-0.21787235140800476
1788678789086095000,12.79209521484375,9.514557838439941,1.7190368175506592,-0.21787235140800476
1788678789101964300,12.80796435546875,9.497797966003418,1.6615760326385498,-0.13168109953403473
1788678789117833500,12.82383349609375,9.53849983215332,1.680729627609253,0.023942016065120697
1788678789133702400,12.839702392578126,9.742006301879883,1.7310078144073486,0.12689268589019775
1788678789149571600,12.855571533203126,9.914389610290527,1.6639702320098877,0.1412578970193863
1788678789165440800,12.871440673828126,9.890447616577148,1.6112977266311646,-0.05746084079146385
1788678789181310000,12.88731005859375,9.909601211547852,1.482010841369629,-0.19871874153614044
1788678789197179100,12.90317919921875,10.180145263671875,1.1899182796478271,-0.3711012601852417
1788678789213109200,12.919109130859376,10.757147789001465,1.0342950820922852,-0.7326257228851318
1788678789228978400,12.934978515625,11.142614364624023,1.2066776752471924,-1.292868971824646
1788678789244847600,12.95084765625,10.934319496154785,1.455674648284912,-1.2018892765045166
1788678789260747300,12.966747314453125,10.053253173828125,1.7310078144073486,-0.6823474764823914
1788678789276647000,12.98264697265625,9.495404243469238,2.1045033931732178,-0.17477671802043915
1788678789300481000,13.00648095703125,9.493009567260742,1.37906014919281,0.9911994934082031
1788678789316380700,13.022380615234376,10.462661743164062,0.7445967197418213,0.49799394607543945
1788678789332249900,13.038249755859376,11.568782806396484,0.31842881441116333,-0.181959331035614
1788678789348119000,13.054119140625,12.090718269348145,-0.16759411990642548,-0.12928688526153564
1788678789363988200,13.06998828125,11.882423400878906,-0.21308395266532898,0.0071826050989329815
1788678789379887900,13.085887939453125,10.888829231262207,-0.026336219161748886,0.19393034279346466
1788678789395757000,13.101757080078125,9.864110946655273,0.3974374830722809,0.1604115068912506
1788678789411717600,13.117717529296876,9.167398452758789,0.8667010068893433,0.18914192914962769
1788678789427586800,13.1335869140625,8.686163902282715,1.213860273361206,0.37828385829925537
1788678789443456000,13.1494560546875,8.456320762634277,1.434126853942871,0.5363011956214905
1788678789459355600,13.165355712890625,8.51138687133789,1.4413094520568848,0.545877993106842
1788678789475255300,13.18125537109375,8.880094528198242,1.3958195447921753,0.586579442024231
1788678789491185400,13.197185302734376,9.397241592407227,1.3694833517074585,0.6607996821403503
1788678789507054600,13.2130546875,9.63187313079834,1.4748282432556152,0.5578489899635315
1788678789522923800,13.228923828125,9.59835433959961,1.556231141090393,0.22026655077934265
1788678789538823400,13.244823486328125,9.186552047729492,1.5873557329177856,-0.15801730751991272
1788678789554723000,13.26072314453125,8.736441612243652,1.6735470294952393,-0.28730419278144836
1788678789570622700,13.276622802734375,8.561665534973145,1.7693150043487549,-0.24899697303771973
1788678789586492000,13.292491943359375,9.097966194152832,1.946485996246338,-0.4118026793003082
1788678789602391600,13.3083916015625,9.591172218322754,2.1571757793426514,-0.5626373887062073
1788678789618260500,13.324260498046876,9.710882186889648,2.207453966140747,-0.4213795065879822
1788678789634160400,13.340160400390625,9.339780807495117,2.188300371170044,-0.016759412363171577
1788678789650029300,13.356029296875,8.932766914367676,2.140416383743286,0.1149216815829277
1788678789665990100,13.371990234375,8.786720275878906,2.1284453868865967,-0.05985504388809204
1788678789681920300,13.387920166015626,8.793902397155762,1.8962076902389526,-0.2968810200691223
1788678789697820000,13.40381982421875,8.884882926940918,1.9393033981323242,-0.7972691655158997
1788678789713689000,13.419689208984375,9.150638580322266,1.9393033981323242,-0.8571242094039917
1788678789729558300,13.435558349609375,9.677363395690918,1.922544002532959,-0.47884035110473633
1788678789745427500,13.451427490234375,10.41956615447998,1.9273324012756348,-0.21547815203666687
1788678789761296400,13.46729638671875,11.176133155822754,1.9632453918457031,-0.26096799969673157
1788678789777196000,13.483196044921876,11.547234535217285,1.968033790588379,-0.5195417404174805
1788678789793095700,13.499095703125,11.465831756591797,2.0638017654418945,-0.811634361743927
1788678789809026000,13.515026123046875,10.99656867980957,2.0231003761291504,-0.7015010714530945
1788678789824925700,13.53092578125,10.357316970825195,2.1523873805999756,-0.768538773059845
1788678789840825300,13.546825439453125,9.911994934082031,2.2361843585968018,-0.6344634294509888
1788678789856725000,13.56272509765625,9.864110946655273,1.6974890232086182,0.12928688526153564
1788678789872594200,13.57859423828125,10.565611839294434,1.2545616626739502,0.48602294921875
1788678789888493800,13.594493896484375,11.695674896240234,0.7781155705451965,0.10534487664699554
1788678789904363000,13.610363037109375,12.375628471374512,0.42616790533065796,-0.5219359993934631
1788678789920232000,13.62623193359375,11.760318756103516,0.24181437492370605,-0.7422025203704834
1788678789936070700,13.642070556640626,10.450690269470215,0.2059013396501541,-0.586579442024231
1788678789951970300,13.65797021484375,9.332598686218262,0.42377370595932007,-0.7086837291717529
1788678789967839500,13.673839599609375,8.638279914855957,0.6823474764823914,-0.9265560507774353
1788678789983708700,13.689708740234375,8.468291282653809,0.9026140570640564,-1.3072341680526733
1788678789999608300,13.7056083984375,8.487444877624512,0.8882488012313843,-1.357512354850769
1788678790015477500,13.7214775390625,8.38449478149414,0.8690952062606812,-0.9385270476341248
1788678790031382500,13.737382568359376,8.425195693969727,0.9696516990661621,-0.3519476354122162
1788678790047282200,13.7532822265625,8.513781547546387,0.993593692779541,-0.16998831927776337
1788678790063151000,13.769151123046875,8.62391471862793,1.0079588890075684,-0.4357447028160095
1788678790079050800,13.78505078125,8.394071578979492,1.0797849893569946,-0.6512228846549988
1788678790094920000,13.800919921875,8.334216117858887,1.2042834758758545,-0.7422025203704834
1788678790110819600,13.816819580078125,8.633491516113281,1.3862427473068237,-0.7589619159698486
1788678790126719200,13.83271923828125,9.141061782836914,1.4844050407409668,-0.6368576288223267
1788678790142710500,13.84871044921875,9.53849983215332,1.601720929145813,-0.7469909191131592
1788678790158579700,13.864579833984376,9.461885452270508,1.7190368175506592,-0.629675030708313
1788678790174449000,13.880448974609376,9.023746490478516,1.8387469053268433,-0.42616790533065796
1788678790190348500,13.8963486328125,8.44434928894043,1.965639591217041,-0.18914192914962769
1788678790206309000,13.91230908203125,8.51138687133789,1.9393033981323242,0.05985504388809204
1788678790222178300,13.92817822265625,8.9064302444458,1.889025092124939,-0.033518824726343155
1788678790238047500,13.944047607421876,9.38048267364502,1.845929503440857,-0.272938996553421
1788678790253947100,13.959947021484375,9.96945571899414,1.7764976024627686,-0.4572925269603729
1788678790269846800,13.9758466796875,10.60152530670166,1.742978811264038,-0.6057330369949341
1788678790285746400,13.991746337890625,10.690110206604004,1.7094600200653076,-0.3064578175544739
1788678790301615600,14.00761572265625,10.515334129333496,1.5610195398330688,0.016759412363171577
1788678790317484800,14.02348486328125,10.647014617919922,1.3838485479354858,-0.028730420395731926
1788678790333353700,14.039353759765625,10.970232009887695,1.1468225717544556,-0.30885201692581177
1788678790349192400,14.0551923828125,11.386823654174805,1.0749965906143188,-0.7374141216278076
1788678790365092000,14.071092041015625,11.405977249145508,1.280897855758667,-0.9911994934082031
1788678790380961300,14.086961181640625,11.077971458435059,1.41257905960083,-0.4213795065879822
1788678790396800000,14.102800048828126,10.76193618774414,1.7573440074920654,0.10295066982507706
1788678790412699600,14.11869970703125,10.17296314239502,1.98958158493042,0.608127236366272
1788678790428599300,14.134599365234376,9.423578262329102,1.5490485429763794,1.3407529592514038
1788678790444529400,14.150529296875,9.497797966003418,1.015141487121582,1.0678139925003052
1788678790460398600,14.166398681640626,10.575188636779785,0.3998316824436188,0.5051765441894531
1788678790476267800,14.182267822265626,11.341333389282227,-0.3208230137825012,0.12449848651885986
1788678790492136700,14.19813671875,11.927912712097168,-0.6105214357376099,-0.07900865375995636
1788678790508006000,14.214005859375,11.853693008422852,-0.6967126727104187,-0.15083470940589905
1788678790523905500,14.229905517578125,11.307814598083496,-0.5027823448181152,-0.19632454216480255
1788678790539774700,14.245774658203125,10.606313705444336,0,-0.3758896589279175
1788678790555644000,14.261643798828125,9.916783332824707,0.49799394607543945,-0.1604115068912506
1788678790571574000,14.277573974609375,9.229647636413574,0.828393816947937,0.3902548849582672
1788678790587443200,14.293443115234375,8.710105895996094,0.9552865028381348,0.7350199222564697
1788678790603312400,14.3093125,8.518569946289062,1.1659762859344482,0.6536170840263367
1788678790619212000,14.3252119140625,8.65982723236084,1.3239935636520386,0.40222588181495667
1788678790635111700,14.341111572265625,8.87291145324707,1.3694833517074585,0.19153612852096558
1788678790651011300,14.35701123046875,9.006986618041992,1.460463047027588,-0.0694318488240242
1788678790666880500,14.372880615234376,9.05247688293457,1.6041151285171509,-0.16998831927776337
1788678790682749700,14.388749755859376,8.841787338256836,1.7310078144073486,0.05506663769483566
1788678790698649300,14.4046494140625,8.465897560119629,2.0590133666992188,0.20111294090747833
1788678790714549000,14.420549072265626,8.343792915344238,2.403778553009033,0.07661445438861847
1788678790730387500,14.436387451171875,8.418013572692871,2.5306711196899414,-0.14844051003456116
1788678790746287000,14.452287109375,8.564059257507324,2.4372973442077637,-0.28969839215278625
1788678790762156300,14.46815625,8.597578048706055,2.343923568725586,-0.22505496442317963
1788678790778056000,14.484055908203125,8.585607528686523,2.3798365592956543,-0.1388636976480484
1788678790793955600,14.49995556640625,8.544905662536621,2.403778553009033,0.0071826050989329815
1788678790809886000,14.515885986328126,8.918401718139648,2.3511061668395996,0.0694318488240242
1788678790825755000,14.5317548828125,9.44991397857666,2.3535003662109375,0.021547814831137657
1788678790841624000,14.5476240234375,9.5408935546875,2.3247697353363037,0.05506663769483566
1788678790857523700,14.563523681640625,9.634267807006836,2.2194249629974365,-0.019153613597154617
1788678790873423400,14.57942333984375,10.1753568649292,2.008735179901123,-0.28969839215278625
1788678790889292500,14.59529248046875,10.922348022460938,1.8100165128707886,-0.7038952708244324
1788678790905161700,14.61116162109375,11.523292541503906,1.7142484188079834,-1.1444283723831177
1788678790921061400,14.627061279296875,11.544840812683105,1.920149803161621,-1.2641384601593018
1788678790936961000,14.6429609375,10.946290016174316,1.9776105880737305,-0.6703764796257019
1788678790952891100,14.65889111328125,10.326191902160645,2.164358377456665,-0.3208230137825012
1788678790968760300,14.67476025390625,9.938331604003906,2.0398597717285156,0.07900865375995636
1788678790984629500,14.69062939453125,10.041281700134277,1.5466543436050415,0.1412578970193863
1788678791000529200,14.706529052734375,10.943896293640137,0.8786720037460327,-0.31842881441116333
1788678791016398300,14.7223984375,11.954249382019043,0.14604631066322327,-0.9050082564353943
1788678791032267500,14.738267578125,12.236764907836914,-0.15801730751991272,-1.5729905366897583
1788678791048136400,14.754136474609375,11.307814598083496,-0.2777273952960968,-1.556231141090393
1788678791064036000,14.7700361328125,9.84256362915039,0.0694318488240242,-1.2210428714752197
1788678791079905300,14.7859052734375,8.722076416015625,0.6775590777397156,-0.950498104095459
1788678791095774500,14.8017744140625,8.101978302001953,1.0582371950149536,-0.6009446382522583
1788678791111643600,14.8176435546875,8.018181800842285,1.1683704853057861,-0.4908113479614258
1788678791127482400,14.833482421875,8.08282470703125,1.1061211824417114,-0.31842881441116333
1788678791143351300,14.849351318359375,8.066065788269043,0.9576807022094727,-0.1604115068912506
1788678791159251000,14.8652509765625,8.178592681884766,0.8451532125473022,-0.2777273952960968
1788678791175120100,14.8811201171875,8.628703117370605,0.7709329724311829,-0.5339069962501526
1788678791190989300,14.8969892578125,9.30386734008789,0.7230489253997803,-0.5291185975074768
1788678791214854100,14.920854248046876,9.832986831665039,0.9481038451194763,-0.5626373887062073
1788678791230723300,14.936723388671876,9.557653427124023,1.2090718746185303,-0.4405331015586853
1788678791246592300,14.95259228515625,9.119514465332031,1.50355863571167,-0.4118026793003082
1788678791262492000,14.968491943359375,8.638279914855957,1.6855180263519287,-0.48602294921875
1788678791278422300,14.98442236328125,8.339004516601562,1.702277421951294,-0.545877993106842
1788678791294291500,15.00029150390625,8.250418663024902,1.625662922859192,-0.43335050344467163
1788678791310221600,15.0162216796875,8.544905662536621,1.5083470344543457,-0.31842881441116333
1788678791326121200,15.032121337890626,9.07641887664795,1.4987702369689941,-0.3878606855869293
1788678791349955300,15.055955322265625,9.746794700622559,1.5490485429763794,-0.20111294090747833
1788678791365794000,15.0717939453125,10.096348762512207,1.6065093278884888,-0.026336219161748886
1788678791381693700,15.087693603515625,10.213664054870605,1.6041151285171509,-0.05985504388809204
1788678791397623800,15.103623779296875,10.093954086303711,1.4724340438842773,-0.2513911724090576
1788678791413493000,15.119492919921875,10.029311180114746,1.2330138683319092,-0.40222588181495667
1788678791429362200,15.135362060546875,10.199298858642578,0.9983820915222168,-0.44532153010368347
1788678791445261800,15.15126171875,10.623072624206543,0.8188169598579407,-0.5554547905921936
1788678791461131000,15.167131103515626,11.372458457946777,0.828393816947937,-0.8834604024887085
1788678791477030700,15.18303076171875,11.499350547790527,1.0678139925003052,-0.8092401623725891
1788678791492899800,15.19889990234375,11.188104629516602,1.2449848651885986,-0.2585737705230713
1788678791508768800,15.214768798828125,10.807426452636719,1.2210428714752197,0.667982280254364
1788678791524668400,15.23066845703125,10.460267066955566,1.1755530834197998,0.9864110946655273
1788678791540507100,15.246507080078125,10.472238540649414,0.7015010714530945,0.8164227604866028
1788678791556406800,15.26240673828125,10.778696060180664,-0.07661445438861847,-0.24660277366638184
1788678791572276000,15.27827587890625,11.75553035736084,-0.8044517636299133,-1.194706678390503
1788678791588145200,15.294145263671876,12.648567199707031,-1.2545616626739502,-1.434126853942871
1788678791604014300,15.310014404296876,12.868834495544434,-1.41257905960083,-0.9289502501487732
1788678791619883300,15.32588330078125,12.162544250488281,-1.1683704853057861,-0.13168109953403473
1788678791635752400,15.34175244140625,10.855310440063477,-0.40462008118629456,0.19153612852096558
1788678791651621600,15.35762158203125,9.402029991149902,0.17956513166427612,0.6536170840263367
1788678791667490800,15.37349072265625,8.271966934204102,0.5482721924781799,1.01753568649292
1788678791683360000,15.389360107421876,7.618350028991699,0.9241618514060974,0.7206547260284424
1788678791699259600,15.405259765625,7.884106159210205,1.070208191871643,0.3471592366695404
1788678791715159300,15.4211591796875,8.62391471862793,0.768538773059845,0.33758243918418884
1788678791730998000,15.436998046875,9.351752281188965,0.6320692300796509,0.06224924325942993
1788678791746897700,15.452897705078126,9.84256362915039,0.5937620401382446,-0.18914192914962769
1788678791762736000,15.468736083984375,9.84495735168457,0.6560112833976746,-0.2753331959247589
1788678791778635800,15.4846357421875,9.425971984863281,0.9648633003234863,-0.23702596127986908
1788678791794535400,15.500535400390625,8.822632789611816,1.2090718746185303,-0.19393034279346466
1788678791810404600,15.516404541015625,8.248024940490723,1.5945383310317993,-0.3423708379268646
1788678791826334700,15.532334716796875,8.01339340209961,1.9584569931030273,-0.5770025849342346
1788678791842173400,15.54817333984375,8.01339340209961,2.121262788772583,-0.4836287498474121
1788678791858073000,15.564072998046875,8.291120529174805,2.142810583114624,-0.28969839215278625
1788678791873972700,15.57997265625,8.650250434875488,2.1116859912872314,-0.16998831927776337
1788678791889872400,15.595872314453125,9.074024200439453,2.027888774871826,-0.15562310814857483
1788678791905741600,15.611741455078125,9.445125579833984,1.944091796875,-0.22266076505184174
1788678791921641200,15.62764111328125,9.521739959716797,1.965639591217041,-0.12449848651885986
1788678791937540900,15.643540771484375,9.169792175292969,2.0470423698425293,0.08379705995321274
1788678791953471000,15.659470947265625,8.956708908081055,2.2002713680267334,0.028730420395731926
1788678791969370600,15.67537060546875,9.39245319366455,2.1739351749420166,-0.028730420395731926
1788678791985270300,15.691270263671875,10.139444351196289,1.9776105880737305,-0.05027823522686958
1788678792001170000,15.707169921875,10.960655212402344,1.8124107122421265,-0.047884032130241394
1788678792017039000,15.7230390625,11.621455192565918,1.4987702369689941,-0.05027823522686958
1788678792033000000,15.739,11.93748950958252,1.436521053314209,-0.4165911078453064
1788678792048960500,15.75496044921875,11.688492774963379,1.5873557329177856,-0.5339069962501526
1788678792064829700,15.77082958984375,11.377246856689453,1.5825673341751099,-0.33997663855552673
1788678792080729300,15.786729248046875,10.924742698669434,1.6328455209732056,-0.4381389021873474
1788678792096598500,15.8025986328125,10.228029251098633,1.216254472732544,-0.07182604819536209
1788678792112467700,15.8184677734375,10.553641319274902,0.31124621629714966,0.26815059781074524
1788678792128336600,15.834336669921875,10.989385604858398,-0.021547814831137657,-1.5610195398330688
1788678792144205800,15.850205810546875,10.903194427490234,-0.29209262132644653,-1.45806884765625
1788678792160105500,15.86610546875,10.788272857666016,-0.3926490843296051,-0.6991068720817566
1788678792176005000,15.882005126953125,10.436325073242188,-0.1412578970193863,-0.5339069962501526
1788678792191904800,15.89790478515625,10.101137161254883,-0.004788403399288654,-0.5841852426528931
1788678792207804400,15.913804443359375,9.552865028381348,0.3232172429561615,-0.7254431247711182
1788678792223795700,15.929795654296875,9.071630477905273,0.6200982332229614,-0.7948749661445618
1788678792239665000,15.945664794921875,8.662221908569336,0.6033388376235962,-0.6200982332229614
1788678792255534000,15.9615341796875,8.226476669311523,0.6368576288223267,-0.4668693244457245
1788678792271403300,15.9774033203125,7.987056732177734,0.6655880808830261,-0.22744916379451752
1788678792287272200,15.993272216796875,7.91283655166626,0.6057330369949341,-0.1867477297782898
1788678792303141400,16.009141357421875,8.17141056060791,0.6655880808830261,-0.28969839215278625
1788678792319041000,16.025041015625,8.556877136230469,0.7876923680305481,-0.3208230137825012
1788678792334940700,16.040940673828125,8.87051773071289,0.9241618514060974,-0.42377370595932007
1788678792350809900,16.056809814453125,9.148244857788086,1.0773907899856567,-0.6584054827690125
1788678792366709500,16.07270947265625,9.287108421325684,1.2234370708465576,-0.8403648138046265
1788678792382639600,16.0886396484375,9.229647636413574,1.280897855758667,-0.7637503147125244
1788678792398539500,16.10453955078125,9.028534889221191,1.3718775510787964,-0.6512228846549988
1788678792414408400,16.120408447265625,8.791508674621582,1.4484920501708984,-0.45010992884635925
1788678792430277600,16.136277587890625,8.743624687194824,1.3982137441635132,-0.31603461503982544
1788678792446146800,16.152146728515625,8.925583839416504,1.4724340438842773,-0.4189853072166443
1788678792461985500,16.167985595703126,9.368511199951172,1.460463047027588,-0.38067805767059326
1788678792477854500,16.1838544921875,9.773131370544434,1.3527239561080933,-0.22744916379451752
1788678792493754000,16.199754150390625,10.11550235748291,1.357512354850769,-0.2513911724090576
1788678792509654000,16.215654052734376,10.503362655639648,1.3263877630233765,-0.1867477297782898
1788678792525553700,16.2315537109375,10.556035041809082,1.1013327836990356,-0.14604631066322327
1788678792541453300,16.247453369140626,10.42195987701416,0.9169792532920837,-0.21787235140800476
1788678792557322200,16.263322265625,10.541669845581055,0.5003881454467773,-0.26096799969673157
1788678792573252600,16.279252685546876,10.852916717529297,0.3064578175544739,-0.6967126727104187
1788678792589152300,16.29515234375,11.279084205627441,0.6057330369949341,-1.2856862545013428
1788678792605021400,16.311021484375,10.948684692382812,1.0055646896362305,-1.072602391242981
1788678792620951600,16.32695166015625,10.177751541137695,1.3766659498214722,-0.08619125932455063
1788678792636820700,16.34282080078125,9.57441234588623,1.5490485429763794,0.9696516990661621
1788678792652720400,16.358720458984376,9.59835433959961,1.0773907899856567,1.4077905416488647
1788678792668620000,16.3746201171875,10.35252857208252,0.14604631066322327,0.6368576288223267
1788678792684519700,16.390519775390626,11.231200218200684,-0.6368576288223267,-0.10295066982507706
1788678792700419300,16.40641943359375,11.707646369934082,-1.400607943534851,-0.26815059781074524
1788678792716319000,16.422319091796876,11.801020622253418,-1.6663644313812256,-0.2777273952960968
1788678792732157400,16.438157470703125,11.659762382507324,-1.400607943534851,-0.5099649429321289
1788678792748087800,16.454087890625,10.910377502441406,-0.7541735172271729,-0.8427590131759644
1788678792763957000,16.46995703125,10.103530883789062,-0.16519992053508759,-0.8619126081466675
1788678792779826000,16.485825927734375,9.461885452270508,0.43095630407333374,-0.42856210470199585
1788678792795725600,16.5017255859375,8.89445972442627,0.7996633648872375,0.3423708379268646
1788678792811625200,16.517625244140625,8.504204750061035,1.0055646896362305,0.9002198576927185
1788678792827494400,16.533494384765625,8.650250434875488,1.1324573755264282,0.8212111592292786
1788678792843394000,16.54939404296875,9.026140213012695,1.05105459690094,0.5482721924781799
1788678792859293700,16.565293701171875,9.53849983215332,0.7422025203704834,0.07661445438861847
1788678792875163000,16.581162841796875,10.160991668701172,0.6847416758537292,-0.6033388376235962
1788678792891062500,16.5970625,10.575188636779785,0.8786720037460327,-1.0247182846069336
1788678792906931700,16.612931640625,10.125079154968262,1.194706678390503,-0.5841852426528931
1788678792922801000,16.62880078125,9.157821655273438,1.7118542194366455,-0.13168109953403473
1788678792938670000,16.644670166015626,8.451532363891602,2.0661959648132324,0.090979665517807
1788678792954569700,16.66056982421875,8.099584579467773,2.2625205516815186,-0.09576806426048279
1788678792970439000,16.67643896484375,8.279149055480957,2.3056161403656006,-0.49559974670410156
1788678792986307800,16.692307861328125,8.628703117370605,2.121262788772583,-0.4884171485900879
1788678793002268700,16.7082685546875,9.433155059814453,1.8746598958969116,-0.38546648621559143
1788678793018168300,16.724168212890625,10.247182846069336,1.7764976024627686,-0.3016694188117981
1788678793034037500,16.74003759765625,10.675745010375977,1.6927006244659424,-0.26575639843940735
1788678793049906700,16.75590673828125,10.400412559509277,1.800439715385437,-0.3734954595565796
1788678793065775600,16.771775634765625,9.979032516479492,1.7860745191574097,-0.2537853717803955
1788678793081644800,16.787644775390625,9.804255485534668,1.7501614093780518,-0.5770025849342346
1788678793097514000,16.803513916015625,10.1753568649292,1.580173134803772,-0.6584054827690125
1788678793113413600,16.81941357421875,10.90798282623291,1.338358759880066,-0.586579442024231
1788678793129313300,16.835313232421875,11.683704376220703,1.3000515699386597,-0.8930372595787048
1788678793145274000,16.851274169921876,11.78904914855957,1.4532804489135742,-1.3694833517074585
1788678793161204200,16.867204345703126,10.943896293640137,1.4772224426269531,-0.871489405632019
1788678793177134300,16.88313427734375,9.971850395202637,1.625662922859192,-0.2968810200691223
1788678793193003500,16.89900341796875,9.198522567749023,1.5873557329177856,0.05267243832349777
1788678793208872700,16.914872802734376,9.342175483703613,0.9528923034667969,0.5099649429321289
1788678793224742000,16.930741943359376,10.5344877243042,-0.10773907601833344,0.05746084079146385
1788678793240610800,16.94661083984375,11.817779541015625,-1.2545616626739502,-0.7829039692878723
1788678793256480000,16.96247998046875,12.236764907836914,-1.6280571222305298,-1.987187385559082
1788678793272379600,16.978379638671875,11.355698585510254,-1.4077905416488647,-2.2433669567108154
1788678793288248800,16.994248779296875,9.981427192687988,-1.0893617868423462,-1.53707754611969
1788678793304118000,17.010117919921875,9.167398452758789,-0.8068459630012512,-0.05985504388809204
1788678793319987200,17.0259873046875,8.712499618530273,0.026336219161748886,0.1388636976480484
1788678793335856400,17.0418564453125,8.959102630615234,0.3064578175544739,-0.5746083855628967
1788678793351725300,17.057725341796875,8.848969459533691,0.24420857429504395,-0.7182605266571045
1788678793367625000,17.073625,8.159439086914062,0.5913678407669067,-0.2537853717803955
1788678793383524900,17.08952490234375,7.726089000701904,0.9313444495201111,0.33279404044151306
1788678793399393800,17.105393798828125,7.4555439949035645,1.0007762908935547,0.5626373887062073
1788678793415263000,17.121262939453125,7.690176010131836,0.933738648891449,-0.3256114423274994
1788678793431162600,17.13716259765625,9.591172218322754,0.7781155705451965,-1.7286136150360107
1788678793447031800,17.15303173828125,9.533711433410645,1.0079588890075684,-0.9265560507774353
1788678793462931500,17.168931396484375,10.359710693359375,1.7070658206939697,-0.21787235140800476
1788678793478800600,17.184800537109375,9.923966407775879,1.9153614044189453,0.3232172429561615
1788678793494669800,17.200669921875,8.947132110595703,2.2002713680267334,-0.17477671802043915
1788678793510539000,17.2165390625,7.987056732177734,2.432508945465088,-0.4357447028160095
1788678793526377500,17.23237744140625,7.7428483963012695,2.4636335372924805,-0.5315127968788147
1788678793542307600,17.2483076171875,8.11634349822998,2.3080103397369385,-0.33518823981285095
1788678793558176800,17.2641767578125,8.425195693969727,2.322375535964966,-0.15801730751991272
1788678793574046000,17.2800458984375,9.344569206237793,2.1787235736846924,-0.19153612852096558
1788678793589915100,17.2959150390625,10.51054573059082,1.9081788063049316,-0.15562310814857483
1788678793605814800,17.311814697265625,11.24795913696289,1.5873557329177856,-0.08619125932455063
1788678793621775400,17.327775390625,11.465831756591797,1.4245500564575195,-0.3423708379268646
1788678793637675000,17.343675048828125,11.30302619934082,1.235408067703247,-0.47884035110473633
1788678793653544200,17.359544189453125,11.192893028259277,1.015141487121582,-0.7709329724311829
1788678793669443800,17.37544384765625,11.781867027282715,0.9911994934082031,-1.2282254695892334
1788678793685374200,17.391374267578126,12.315773963928223,1.3551181554794312,-1.1228805780410767
1788678793701304300,17.40730419921875,11.487380027770996,1.7190368175506592,-0.6440402865409851
1788678793717234400,17.423234375,10.33098030090332,2.0853497982025146,-0.17477671802043915
1788678793733103600,17.439103515625,9.313444137573242,1.7693150043487549,0.3878606855869293
1788678793749003300,17.455003173828125,9.035717010498047,0.7015010714530945,0.4405331015586853
1788678793764842000,17.470842041015626,10.228029251098633,-0.17238251864910126,-0.3495534360408783
1788678793780772000,17.486772216796876,12.322956085205078,-1.0103530883789062,-0.7110779285430908
1788678793796732700,17.502732666015625,13.28063678741455,-1.3287819623947144,-0.4429273009300232
1788678793812601900,17.518601806640625,12.260706901550293,-1.0558429956436157,-0.272938996553421
1788678793828501500,17.53450146484375,10.1753568649292,-0.5961562395095825,-0.12210428714752197
1788678793844370700,17.55037060546875,8.216899871826172,-0.12689268589019775,-0.2777273952960968
1788678793860270300,17.566270263671875,6.9024834632873535,0.5171475410461426,-0.16759411990642548
1788678793876170000,17.582169921875,6.426037311553955,0.9074024558067322,0.2513911724090576
1788678793892130800,17.598130859375,6.703764915466309,0.8978256583213806,0.5602431893348694
1788678793908030500,17.614030517578126,7.568071365356445,0.7350199222564697,0.3758896589279175
1788678793923930000,17.62993017578125,8.935160636901855,0.4644751250743866,0.0071826050989329815
1788678793939860200,17.645860107421875,10.038887977600098,0.2753331959247589,-0.5650315880775452
1788678793955820800,17.66182080078125,10.376470565795898,0.4812345504760742,-0.8930372595787048
1788678793971690000,17.67768994140625,9.96945571899414,0.8164227604866028,-0.7589619159698486
1788678793987528700,17.69352880859375,8.757989883422852,1.1324573755264282,-0.28969839215278625
1788678794003428400,17.709428466796876,7.592013359069824,1.414973258972168,0.1412578970193863
1788678794019328000,17.725327880859375,7.0557122230529785,1.7812861204147339,-0.3447650372982025
1788678794035197200,17.741197265625,7.321468830108643,1.8770540952682495,-0.7326257228851318
1788678794051066400,17.75706640625,8.422801971435547,1.8387469053268433,-0.7182605266571045
1788678794066935300,17.772935302734375,9.399636268615723,1.6711528301239014,-0.42616790533065796
1788678794082774000,17.78877392578125,10.17296314239502,1.6280571222305298,-0.4812345504760742
1788678794098673700,17.804673583984375,10.35252857208252,1.5155296325683594,-0.5267243981361389
1788678794114542800,17.82054296875,10.218452453613281,1.2976573705673218,-0.47884035110473633
1788678794130412000,17.836412109375,10.321403503417969,1.2521674633026123,-0.6823474764823914
1788678794146281200,17.85228125,10.381258964538574,1.2689268589019775,-0.6991068720817566
1788678794162180900,17.868180908203126,10.54406452178955,1.2449848651885986,-0.545877993106842
1788678794178111000,17.884111083984376,10.891223907470703,1.1516109704971313,-0.524330198764801
1788678794193980200,17.899980224609376,11.535264015197754,1.0055646896362305,-0.5219359993934631
1788678794209849000,17.91584912109375,12.459425926208496,0.9241618514060974,-0.7757213711738586
1788678794225749000,17.9317490234375,12.9741792678833,1.2114660739898682,-1.1085153818130493
1788678794241679000,17.94767919921875,12.49055004119873,1.335964560508728,-1.0749965906143188
1788678794257609200,17.963609130859375,11.401188850402832,1.2617442607879639,-0.9074024558067322
1788678794273508900,17.9795087890625,10.371682167053223,1.2545616626739502,-0.7829039692878723
1788678794289408500,17.995408447265625,9.799467086791992,0.6320692300796509,-0.5267243981361389
1788678794305277700,18.011277587890625,10.393229484558105,-0.4884171485900879,-0.9361328482627869
1788678794321147000,18.02714697265625,11.90157699584961,-1.235408067703247,-1.680729627609253
1788678794337046500,18.043046630859376,12.51449203491211,-1.5610195398330688,-1.45806884765625
1788678794352915700,18.058915771484376,11.829751014709473,-1.4269442558288574,-1.137245774269104
1788678794368784600,18.07478466796875,10.153809547424316,-1.1300631761550903,-1.292868971824646
1788678794384623400,18.090623291015625,8.990227699279785,-1.0295066833496094,-1.4748282432556152
1788678794400492500,18.106492431640625,8.133103370666504,-0.6057330369949341,-1.8100165128707886
1788678794416361700,18.12236181640625,7.795520782470703,-0.038307227194309235,-1.5921441316604614
1788678794432231000,18.13823095703125,7.927201747894287,0.181959331035614,-0.730231523513794
1788678794448099800,18.154099853515625,7.99184513092041,0.3471592366695404,-0.33997663855552673
1788678794464030200,18.1700302734375,7.91283655166626,0.3878606855869293,-0.5530605912208557
1788678794479929900,18.185929931640626,8.032546997070312,0.3423708379268646,-0.727837324142456
1788678794495829500,18.20182958984375,8.518569946289062,0.3447650372982025,-0.6847416758537292
1788678794511698700,18.21769873046875,8.695740699768066,0.6129156351089478,-0.5889736413955688
1788678794527659300,18.2336591796875,8.315062522888184,0.9145850539207458,-0.5626373887062073
1788678794543528400,18.249528564453126,8.08282470703125,1.2066776752471924,-0.4644751250743866
1788678794559397600,18.265397705078126,8.133103370666504,1.5322890281677246,-0.6153098344802856
1788678794575266800,18.281266845703126,8.616731643676758,1.7405846118927002,-0.395043283700943
1788678794591166500,18.29716650390625,8.757989883422852,1.9369091987609863,0.14604631066322327
1788678794607066000,18.313066162109376,8.492233276367188,2.121262788772583,0.5027823448181152
1788678794622965800,18.3289658203125,8.525752067565918,2.006340980529785,0.49320554733276367
1788678794638834700,18.344834716796875,9.17936897277832,1.702277421951294,0.11252748221158981
1788678794654703900,18.360703857421875,10.235212326049805,1.41257905960083,-0.5219359993934631
1788678794670603500,18.376603515625,11.154585838317871,1.2449848651885986,-0.6607996821403503
1788678794686503200,18.392503173828125,11.283872604370117,1.213860273361206,-0.4405331015586853
1788678794702372400,18.408372314453125,10.958261489868164,1.1492167711257935,-0.4118026793003082
1788678794718272000,18.42427197265625,11.027692794799805,0.9888052940368652,-0.24660277366638184
1788678794734141200,18.44014111328125,11.635820388793945,0.5961562395095825,-0.2322375625371933
1788678794750010400,18.45601025390625,12.811373710632324,0.3519476354122162,-0.7493851184844971
1788678794765879600,18.471879638671876,13.596671104431152,0.8571242094039917,-1.0845733880996704
1788678794781779200,18.487779296875,12.945448875427246,1.2617442607879639,-0.5817909836769104
1788678794797648400,18.5036484375,11.130643844604492,1.1348515748977661,-0.14844051003456116
1788678794813548000,18.519548095703126,9.703699111938477,1.1061211824417114,-0.3687070608139038
1788678794829417000,18.5354169921875,9.301473617553711,0.6105214357376099,-0.181959331035614
1788678794845286100,18.5512861328125,9.883264541625977,-0.26815059781074524,-0.11252748221158981
1788678794861185800,18.567185791015625,11.23598861694336,-0.8403648138046265,-0.47884035110473633
1788678794877055000,18.583054931640625,12.607866287231445,-1.1300631761550903,-0.6272808313369751
1788678794892985000,18.598985107421875,12.643778800964355,-1.0869675874710083,-0.40701428055763245
1788678794908884700,18.614884765625,10.6925048828125,-0.7110779285430908,-0.3064578175544739
1788678794924815000,18.630815185546876,8.221688270568848,-0.2753331959247589,-0.11971008777618408
1788678794940714800,18.64671484375,6.495469093322754,0.09816227108240128,0.07182604819536209
1788678794956584000,18.662583984375,5.961562156677246,0.33997663855552673,0.17717093229293823
1788678794972452900,18.678452880859375,6.31829833984375,0.3902548849582672,0.10295066982507706
1788678794988383200,18.69438330078125,7.536946773529053,0.1867477297782898,-0.1628057211637497
1788678795004313300,18.710313232421875,8.611943244934082,0.05746084079146385,-0.17956513166427612
1788678795020243500,18.726243408203125,9.418789863586426,0.014365210197865963,0.21547815203666687
1788678795036143000,18.74214306640625,9.816226959228516,0.090979665517807,-0.004788403399288654
1788678795052012300,18.75801220703125,9.548076629638672,0.10773907601833344,-0.49559974670410156
1788678795067881500,18.773881591796876,9.078812599182129,0.2825157940387726,-0.8188169598579407
1788678795083750700,18.789750732421876,8.791508674621582,0.5434837937355042,-0.8044517636299133
1788678795099619800,18.805619873046876,8.556877136230469,0.8523358106613159,-0.5746083855628967
1788678795115458300,18.821458251953125,8.35336971282959,1.2449848651885986,-0.45489832758903503
1788678795131388400,18.837388427734375,8.17380428314209,1.721431016921997,-0.2753331959247589
1788678795147257600,18.853257568359375,8.38449478149414,1.9273324012756348,-0.090979665517807
1788678795163126800,18.869126708984375,8.959102630615234,1.7142484188079834,-0.2753331959247589
1788678795179026400,18.8850263671875,9.6989107131958,1.41257905960083,-0.8571242094039917
1788678795194895600,18.9008955078125,10.781089782714844,1.0079588890075684,-1.0821791887283325
1788678795210825700,18.91682568359375,11.939884185791016,0.8930372595787048,-1.0079588890075684
1788678795226725400,18.932725341796875,12.480973243713379,1.0127472877502441,-0.7876923680305481
1788678795242594600,18.948594482421875,12.378023147583008,1.0295066833496094,-0.6416460275650024
1788678795258494200,18.964494140625,12.006921768188477,0.9648633003234863,-0.4692635238170624
1788678795274363400,18.98036328125,11.690886497497559,1.0462661981582642,-0.1173158809542656
1788678795290232600,18.996232666015626,11.429919242858887,1.0247182846069336,0.1628057211637497
1788678795306132200,19.01213232421875,11.707646369934082,0.8738836050033569,-0.16759411990642548
1788678795322031900,19.028031982421876,12.100295066833496,0.9768342971801758,-0.6847416758537292
1788678795337962000,19.0439619140625,11.805809020996094,1.0893617868423462,-0.7757213711738586
1788678795353800700,19.05980078125,10.922348022460938,1.2114660739898682,-0.828393816947937
1788678795369670000,19.075669921875,10.086771965026855,1.4772224426269531,-0.9528923034667969
1788678795385569500,19.091569580078126,9.818621635437012,1.1540051698684692,-0.4189853072166443
1788678795401469200,19.10746923828125,10.271124839782715,0.2777273952960968,-0.06703764945268631
1788678795417338000,19.123338134765625,10.759542465209961,-0.3926490843296051,-0.3256114423274994
1788678795433207300,19.139207275390625,10.76193618774414,-0.608127236366272,-0.9002198576927185
1788678795449076500,19.155076416015625,10.213664054870605,-0.507570743560791,-1.4844050407409668
1788678795464945700,19.170945556640625,9.751583099365234,-0.5171475410461426,-1.8794482946395874
1788678795480845300,19.18684521484375,9.519346237182617,-0.5147533416748047,-1.6376339197158813
1788678795496714500,19.202714599609376,9.05247688293457,-0.2298433631658554,-1.2090718746185303
1788678795512614100,19.2186142578125,8.501810073852539,0.1843535304069519,-1.0223240852355957
1788678795528513800,19.234513671875,7.826645374298096,0.4381389021873474,-0.8571242094039917
1788678795544444000,19.25044384765625,7.184999465942383,0.4596867263317108,-0.7038952708244324
1788678795560313000,19.26631298828125,6.7708024978637695,0.40701428055763245,-0.8834604024887085
1788678795576212700,19.282212646484375,6.947973251342773,0.29209262132644653,-0.8667010068893433
1788678795592112400,19.2981123046875,7.560888767242432,0.2944868206977844,-0.7613561153411865
1788678795608042500,19.31404248046875,8.446743965148926,0.44532153010368347,-0.8858546018600464
1788678795623911700,19.32991162109375,9.208099365234375,0.5793967843055725,-0.7948749661445618
1788678795639780900,19.34578076171875,9.169792175292969,0.7876923680305481,-0.8259995579719543
1788678795655680500,19.361680419921875,8.480262756347656,1.0103530883789062,-0.768538773059845
1788678795671580200,19.377580078125,7.891288757324219,1.1803414821624756,-0.6224924325942993
1788678795687449300,19.393449462890626,7.7428483963012695,1.3024457693099976,-0.6057330369949341
1788678795703379500,19.40937939453125,8.006210327148438,1.4484920501708984,-0.5650315880775452
1788678795719248600,19.42524853515625,8.669404029846191,1.4484920501708984,-0.40940847992897034
1788678795735117800,19.441117919921876,9.567230224609375,1.3910311460494995,-0.47405192255973816
1788678795751017500,19.457017578125,10.249577522277832,1.4508862495422363,-0.5003881454467773
1788678795766856000,19.47285595703125,10.721235275268555,1.45806884765625,-0.2992752194404602
1788678795782755600,19.488755615234375,10.936713218688965,1.278503656387329,-0.2968810200691223
1788678795798655500,19.504655517578126,11.410765647888184,0.9720458984375,-0.6272808313369751
1788678795814555100,19.52055517578125,11.942277908325195,0.6991068720817566,-0.9193734526634216
1788678795830393600,19.5363935546875,12.349292755126953,0.5554547905921936,-0.8858546018600464
1788678795846262800,19.5522626953125,12.952630996704102,0.6943184733390808,-0.9145850539207458
1788678795862223400,19.568223388671875,13.261483192443848,1.4389152526855469,-0.9696516990661621
1788678795878123000,19.584123046875,12.356474876403809,1.7094600200653076,-0.15562310814857483
1788678795894023000,19.60002294921875,10.776301383972168,1.680729627609253,0.28969839215278625
1788678795909922600,19.615922607421876,9.481039047241211,1.7812861204147339,-0.016759412363171577
1788678795925852700,19.631852783203126,9.093177795410156,0.8978256583213806,0.5339069962501526
1788678795941782800,19.64778271484375,10.139444351196289,-0.2082955539226532,0.31124621629714966
1788678795957682400,19.663682373046875,12.155362129211426,-0.524330198764801,-0.4189853072166443
1788678795973582000,19.67958203125,13.510479927062988,-0.6967126727104187,-0.21547815203666687
1788678795989481700,19.695481689453125,12.480973243713379,-0.706289529800415,0.2059013396501541
1788678796005411800,19.711411865234375,10.201693534851074,-0.47165772318840027,0.1364694982767105
1788678796021281000,19.727281005859375,7.982268333435059,-0.16759411990642548,0.07661445438861847
1788678796037150200,19.743150146484375,6.435614109039307,0.15083470940589905,0.16998831927776337
1788678796053049900,19.7590498046875,5.853823184967041,0.5219359993934631,0.2777273952960968
1788678796068949500,19.774949462890625,6.18182897567749,0.730231523513794,0.3016694188117981
1788678796084818700,19.790818603515625,6.943184852600098,0.5985504388809204,0.2849099934101105
1788678796100718300,19.80671826171875,8.037335395812988,0.5410895943641663,0.21547815203666687
1788678796116618000,19.822617919921875,9.167398452758789,0.22505496442317963,0.035913024097681046
1788678796132456700,19.838456787109376,10.105925559997559,0.11252748221158981,-0.5506663918495178
1788678796148356400,19.8543564453125,10.625467300415039,0.28730419278144836,-0.9457096457481384
1788678796164225500,19.8702255859375,10.04846477508545,0.6967126727104187,-0.7972691655158997
1788678796180125200,19.886125244140626,8.554482460021973,1.0462661981582642,-0.24660277366638184
1788678796196055300,19.90205517578125,7.299921035766602,1.137245774269104,-0.05985504388809204
1788678796211985400,19.9179853515625,6.950367450714111,1.115697979927063,-0.08140286058187485
1788678796227824000,19.93382421875,7.85537576675415,1.1061211824417114,-0.38307225704193115
1788678796243693300,19.949693359375,9.224859237670898,1.0558429956436157,-0.3998316824436188
1788678796259593000,19.965593017578126,10.211270332336426,1.0678139925003052,-0.2298433631658554
1788678796275462000,19.9814619140625,10.29746150970459,1.1659762859344482,-0.2322375625371933
1788678796291300600,19.997300537109375,10.000580787658691,1.1899182796478271,-0.3758896589279175
1788678796307139300,20.013139404296876,9.77791976928711,1.1635819673538208,-0.5339069962501526
1788678796323039000,20.0290390625,10.204087257385254,1.0223240852355957,-0.5889736413955688
1788678796338908200,20.044908203125,10.702081680297852,1.0797849893569946,-0.6440402865409851
1788678796354777000,20.060777099609375,10.955866813659668,1.170764684677124,-0.6775590777397156
1788678796370646300,20.076646240234375,11.006145477294922,1.1109095811843872,-0.6488286852836609
1788678796386515500,20.092515380859375,11.207258224487305,1.0007762908935547,-0.9433154463768005
1788678796402384600,20.108384521484375,11.887211799621582,1.0342950820922852,-1.359906554222107
1788678796418253800,20.12425390625,12.660538673400879,1.1204863786697388,-1.6543933153152466
1788678796434123000,20.140123046875,12.358869552612305,1.2258312702178955,-1.7717092037200928
1788678796449961500,20.15596142578125,11.420342445373535,1.3934253454208374,-1.7693150043487549
1788678796465861000,20.171861083984375,10.340557098388672,1.192312479019165,-1.455674648284912
1788678796481791200,20.187791259765625,10.093954086303711,0.17717093229293823,-0.9720458984375
1788678796497691000,20.20369091796875,11.410765647888184,-0.9169792532920837,-1.1228805780410767
1788678796513651700,20.219651611328125,12.7946138381958,-1.359906554222107,-1.9632453918457031
1788678796529551400,20.23555126953125,12.737153053283691,-1.4389152526855469,-2.078166961669922
1788678796545451000,20.251450927734375,10.716446876525879,-0.8978256583213806,-2.1930887699127197
1788678796561350700,20.2673505859375,9.308655738830566,-1.0271124839782715,-2.126051187515259
1788678796577219800,20.2832197265625,7.352593421936035,-0.47405192255973816,-1.580173134803772
1788678796593058600,20.29905859375,6.552929878234863,0.0071826050989329815,-0.6153098344802856
1788678796608958200,20.314958251953126,6.916848659515381,0.10295066982507706,-0.12928688526153564
1788678796624827100,20.3308271484375,7.8314337730407715,0.2106897532939911,-0.22744916379451752
1788678796640726800,20.346726806640625,8.508993148803711,0.23702596127986908,-0.12210428714752197
1788678796656565500,20.3625654296875,8.702922821044922,0.17717093229293823,0.05027823522686958
1788678796688395300,20.394395263671875,8.81784439086914,0.26336219906806946,-0.7182605266571045
1788678796704264400,20.410264404296875,9.222464561462402,0.4884171485900879,-0.9361328482627869
1788678796720164000,20.4261640625,9.215282440185547,0.9097966551780701,-0.5961562395095825
1788678796736033300,20.442033203125,8.96149730682373,1.4437036514282227,-0.26336219906806946
