time,seconds_elapsed,z,y,x
1788681072351396900,0.16439697265625,-0.024377822875976562,-0.07208371162414551,-0.244003564119339
1788681072367296500,0.180296630859375,-0.22179508209228516,-0.08372604846954346,-0.11865296959877014
1788681072383257000,0.196257080078125,-0.21650409698486328,-0.09659558534622192,-0.08625492453575134
1788681072399126300,0.212126220703125,-0.0960245132446289,-0.1186833381652832,-0.16447395086288452
1788681072414995500,0.227995361328125,-0.07349491119384766,-0.0968504548072815,-0.15314733982086182
1788681072430864600,0.24386474609375,0.054778099060058594,-0.05745077133178711,-0.1071644127368927
1788681072446794800,0.259794677734375,0.12145042419433594,-0.022318899631500244,-0.05221417546272278
1788681072462694400,0.2756943359375,0.050048828125,0.03467738628387451,-0.04128378629684448
1788681072478563600,0.2915634765625,-0.16911983489990234,0.11946451663970947,0.025119304656982422
1788681072494432800,0.307432861328125,-0.34267330169677734,0.19291001558303833,0.06673559546470642
1788681072510301700,0.3233017578125,-0.384918212890625,0.14248967170715332,-0.05278575420379639
1788681072526140400,0.339140380859375,-0.39516544342041016,0.04443711042404175,-0.16832894086837769
1788681072542040000,0.3550400390625,-0.36487293243408203,-0.04941415786743164,-0.2763655483722687
1788681072557909200,0.3709091796875,-0.27033424377441406,-0.044784724712371826,-0.27483025193214417
1788681072573778400,0.3867783203125,0.04016876220703125,-0.07278752326965332,-0.04453086853027344
1788681072589647600,0.402647705078125,0.2687835693359375,-0.08616459369659424,0.28457075357437134
1788681072605547300,0.41854736328125,0.3388252258300781,-0.027351856231689453,0.42888781428337097
1788681072621447000,0.434447021484375,0.2911415100097656,0.04120910167694092,0.2757740616798401
1788681072637346600,0.4503466796875,0.3327035903930664,0.05722939968109131,0.14903965592384338
1788681072661150200,0.474150146484375,0.16427135467529297,0.028741836547851562,0.33009353280067444
1788681072684953900,0.497953857421875,-0.043244361877441406,0.1727781891822815,0.2970673143863678
1788681072700823000,0.513822998046875,-0.161590576171875,0.28421705961227417,0.2908465266227722
1788681072716722700,0.52972265625,-0.33931541442871094,0.29835402965545654,0.2985420823097229
1788681072732622300,0.545622314453125,-0.4210624694824219,0.24569916725158691,0.25273409485816956
1788681072748552400,0.561552490234375,-0.25366973876953125,0.22408783435821533,0.38065916299819946
1788681072764421600,0.577421630859375,-0.09721946716308594,0.2576296329498291,0.451656699180603
1788681072780290800,0.593290771484375,-0.02756786346435547,0.33029603958129883,0.29837411642074585
1788681072796160000,0.609159912109375,0.10028076171875,0.3081684112548828,0.09690763056278229
1788681072812059600,0.6250595703125,0.16084575653076172,0.20258426666259766,0.07496228814125061
1788681072827989800,0.64098974609375,0.19047164916992188,0.11931800842285156,0.14462947845458984
1788681072843859000,0.65685888671875,0.23030853271484375,0.11126410961151123,0.4198756515979767
1788681072859789000,0.6727890625,2.2818431854248047,-0.19101810455322266,1.4511481523513794
1788681072875688700,0.688688720703125,-0.46096324920654297,0.8994882106781006,-0.7748541831970215
1788681072891588400,0.70458837890625,-1.9231820106506348,0.14248263835906982,-0.3360561728477478
1788681072907488000,0.720488037109375,-1.6927881240844727,0.16059517860412598,-0.5405502915382385
1788681072923357200,0.736357177734375,-2.666008949279785,0.1865992546081543,-0.46597498655319214
1788681072939196000,0.75219580078125,1.4083261489868164,0.018238067626953125,-0.9444526433944702
1788681072955126000,0.7681259765625,0.4182167053222656,-0.19578450918197632,-0.6387902498245239
1788681072970964700,0.78396484375,-0.9681100845336914,0.0473979115486145,-0.8319455981254578
1788681072986833700,0.799833740234375,0.20734119415283203,-0.4052286148071289,-1.028089165687561
1788681073002702800,0.815702880859375,1.5071439743041992,-0.8199767470359802,-0.7801764011383057
1788681073018572000,0.831572021484375,1.3865928649902344,-1.0818862915039062,-0.6174087524414062
1788681073034441200,0.847441162109375,-0.1617565155029297,-0.8316471576690674,-0.4003204107284546
1788681073050340900,0.8633408203125,0.18729305267333984,-0.11164611577987671,-0.013832628726959229
1788681073074175000,0.887175048828125,2.2562856674194336,1.406524658203125,1.020447850227356
1788681073090044200,0.903044189453125,3.7134017944335938,1.4170457124710083,1.9217487573623657
1788681073105913300,0.918913330078125,0.15964698791503906,1.5417327880859375,1.148852825164795
1788681073121782500,0.934782470703125,-2.784606456756592,2.0730209350585938,-0.647885799407959
1788681073137743000,0.9507431640625,-2.627351760864258,-0.5628453493118286,-0.9481144547462463
1788681073153612300,0.9666123046875,1.100968360900879,-1.4781413078308105,-3.650698184967041
1788681073169512000,0.982511962890625,3.5083065032958984,-1.6717557907104492,-2.2382538318634033
1788681073185381000,0.998381103515625,2.2926015853881836,-1.24174165725708,0.30323758721351624
1788681073201250300,1.014250244140625,0.6453514099121094,-0.5419895648956299,-0.32209888100624084
1788681073217119500,1.030119384765625,-0.9470720291137695,-0.6627627611160278,-0.024149999022483826
1788681073233019100,1.04601904296875,-2.09883451461792,-0.9591970443725586,0.1493336409330368
1788681073248918800,1.061918701171875,-1.7580914497375488,-1.0996729135513306,-0.5170671939849854
1788681073264818400,1.077818359375,0.1642436981201172,-1.0029187202453613,-0.393845796585083
1788681073288683300,1.101683349609375,1.8897514343261719,-0.5415174961090088,-0.27566879987716675
1788681073304613400,1.11761328125,1.076848030090332,-0.3214137554168701,-0.43449634313583374
1788681073320482600,1.133482666015625,0.3477821350097656,-0.1397165060043335,-0.5011330842971802
1788681073336382200,1.14938232421875,-1.0632333755493164,-0.1261376142501831,0.000651136040687561
1788681073360185900,1.173185791015625,-1.6681089401245117,0.45943617820739746,1.5521571636199951
1788681073376055000,1.189054931640625,-1.131922721862793,0.8472248315811157,1.8034119606018066
1788681073391954700,1.20495458984375,-0.5197811126708984,0.8197736740112305,1.6362253427505493
1788681073407824000,1.220823974609375,0.5347070693969727,0.758418083190918,1.2060829401016235
1788681073423754000,1.23675390625,-1.9543614387512207,0.043781399726867676,1.5201247930526733
1788681073439623200,1.252623046875,0.7869415283203125,0.5064476728439331,0.33293890953063965
1788681073455553300,1.26855322265625,0.8194646835327148,0.28088366985321045,-0.22348229587078094
1788681073471422500,1.28442236328125,0.017792701721191406,-0.20089340209960938,0.004686623811721802
1788681073487291600,1.300291748046875,-0.16860389709472656,-0.401389479637146,0.3427642583847046
1788681073503160600,1.31616064453125,-0.3781909942626953,-0.028830647468566895,0.5318949818611145
1788681073526995000,1.339994873046875,-1.899080753326416,0.8709466457366943,1.497233271598816
1788681073542925000,1.355925048828125,-0.724461555480957,1.1260569095611572,1.9381558895111084
1788681073558763800,1.371763671875,-1.708268165588379,0.27559638023376465,0.6460872292518616
1788681073574663400,1.387663330078125,-1.9352364540100098,-0.3770710229873657,-2.0120887756347656
1788681073590563000,1.40356298828125,-0.6408090591430664,-0.45552539825439453,-1.232385516166687
1788681073606493200,1.4194931640625,0.4780550003051758,-0.5832975506782532,-0.17654724419116974
1788681073622423300,1.43542333984375,0.9795913696289062,-0.5137026309967041,0.20619291067123413
1788681073638323000,1.451322998046875,1.1065397262573242,-0.3971669673919678,0.2613268792629242
1788681073654253300,1.46725341796875,1.122732162475586,-0.5465773940086365,-0.1938740313053131
1788681073678057000,1.491056884765625,0.5796442031860352,-0.7828248739242554,-1.1349048614501953
1788681073693987000,1.506987060546875,-0.26216983795166016,-0.9155129790306091,-1.657713532447815
1788681073709856300,1.522856201171875,-0.3425149917602539,-0.5867308378219604,-0.5985623002052307
1788681073725756000,1.538755859375,-0.21087646484375,0.08155202865600586,-0.12261882424354553
1788681073741625000,1.554625,0.6470909118652344,-0.20062649250030518,-0.7976975440979004
1788681073757494300,1.570494384765625,1.3003416061401367,0.08628815412521362,-1.2707912921905518
1788681073773332700,1.586332763671875,1.3855762481689453,-0.29231810569763184,0.17481425404548645
1788681073789232400,1.602232421875,0.6050424575805664,-0.25814855098724365,-0.31197911500930786
1788681073805101600,1.6181015625,1.108774185180664,0.39153027534484863,-0.8685410022735596
1788681073821001200,1.634001220703125,-0.41266632080078125,0.5783883929252625,-1.8100076913833618
1788681073836870400,1.649870361328125,-0.2561779022216797,0.5628353357315063,-0.8151944875717163
1788681073852739600,1.665739501953125,-0.9984779357910156,0.06981402635574341,-0.18634778261184692
1788681073868639200,1.68163916015625,-0.32244300842285156,0.01619577407836914,0.33114510774612427
1788681073884508400,1.69750830078125,-0.8232145309448242,-0.2053031325340271,0.38234007358551025
1788681073900408000,1.713407958984375,-0.9996500015258789,-0.3312445282936096,0.5512751340866089
1788681073916277200,1.72927734375,-0.12784862518310547,-0.1465303897857666,0.9843252301216125
1788681073932207400,1.745207275390625,-0.8534469604492188,0.6638523936271667,2.181698799133301
1788681073948076500,1.76107666015625,0.4134988784790039,0.6376680731773376,-0.11070632934570312
1788681073963945500,1.776945556640625,-0.6971416473388672,0.2031106948852539,-0.8152835369110107
1788681073979814700,1.792814697265625,-0.8425455093383789,-0.15801221132278442,-0.2430124282836914
1788681073995745000,1.8087451171875,-0.22467422485351562,-0.1610240936279297,0.23991256952285767
1788681074011644700,1.824644775390625,0.3753061294555664,-0.13818198442459106,0.27999347448349
1788681074027635700,1.8406357421875,0.1800394058227539,-0.141676664352417,0.07305908203125
1788681074043505000,1.8565048828125,0.2662982940673828,0.030098438262939453,0.06177419424057007
1788681074059374000,1.8723740234375,0.8765687942504883,0.2681402862071991,0.3118106424808502
1788681074075273700,1.888273681640625,1.0636177062988281,0.25612008571624756,0.1378525197505951
1788681074091143000,1.904142822265625,0.5097980499267578,0.3342074453830719,0.12820419669151306
1788681074107012000,1.92001220703125,-0.25343894958496094,0.25848546624183655,0.2655731737613678
1788681074122881000,1.935881103515625,-0.5628499984741211,0.028643399477005005,0.46389588713645935
1788681074138750200,1.951750244140625,-0.3421764373779297,-0.2815598249435425,0.6601946353912354
1788681074154649900,1.96764990234375,0.017991065979003906,-0.045724451541900635,0.4299789071083069
1788681074170519000,1.98351904296875,-0.056822776794433594,0.15521007776260376,0.27315419912338257
1788681074186418700,1.999418701171875,-0.5927228927612305,0.3911011219024658,0.3624442219734192
1788681074202287900,2.015287841796875,-1.176025390625,0.6233842372894287,0.5688503980636597
1788681074218187500,2.0311875,-1.2973785400390625,0.7293685674667358,0.46343088150024414
1788681074234117600,2.04711767578125,-1.0182170867919922,0.4792139530181885,0.6784307360649109
1788681074249986800,2.06298681640625,-0.6119260787963867,0.515905499458313,0.7651828527450562
1788681074265856000,2.07885595703125,0.17638492584228516,0.5049486756324768,0.5771600604057312
1788681074281786000,2.0947861328125,0.9448261260986328,0.4729453921318054,0.37044617533683777
1788681074297624800,2.110624755859375,1.2125463485717773,0.5134551525115967,0.0231076180934906
1788681074313524500,2.1265244140625,1.439295768737793,0.4818165898323059,-0.06939247250556946
1788681074329393700,2.1423935546875,1.4120779037475586,0.5626311898231506,-0.25417912006378174
1788681074345354200,2.158354248046875,1.2679204940795898,0.652271568775177,-0.2212386131286621
1788681074361223400,2.174223388671875,0.9717226028442383,0.8308553695678711,0.10539960861206055
1788681074377123000,2.190123046875,0.24855613708496094,1.018092393875122,0.48371773958206177
1788681074392992300,2.2059921875,-0.45398426055908203,1.2054378986358643,0.2530704140663147
1788681074408922400,2.22192236328125,-1.042832374572754,1.4428277015686035,-0.17710842192173004
1788681074424791600,2.23779150390625,-1.4251623153686523,1.5413273572921753,0.029452115297317505
1788681074440660700,2.25366064453125,-1.8487629890441895,1.4824085235595703,0.4082459807395935
1788681074456560400,2.269560302734375,-1.816901683807373,1.080014705657959,0.41096749901771545
1788681074472460000,2.2854599609375,-1.5237884521484375,0.9618949890136719,0.5176107287406921
1788681074488329200,2.3013291015625,-0.7796230316162109,0.9234921932220459,0.22478650510311127
1788681074504259300,2.31725927734375,-0.05498981475830078,0.7935512065887451,0.24207541346549988
1788681074520128500,2.33312841796875,0.1347637176513672,0.5961906909942627,0.3171738088130951
1788681074535997700,2.348997802734375,0.04799365997314453,0.385135293006897,0.28906968235969543
1788681074551897300,2.3648974609375,-0.047194480895996094,0.10777139663696289,0.14921730756759644
1788681074567827500,2.380827392578125,0.07747077941894531,0.0947575569152832,0.06690952926874161
1788681074583666200,2.396666259765625,0.3288755416870117,0.31402909755706787,-0.0014442503452301025
1788681074599535000,2.41253515625,0.6878929138183594,0.40502476692199707,-0.10341734439134598
1788681074615404300,2.428404296875,0.9238996505737305,0.3665367364883423,-0.06420031189918518
1788681074631304000,2.444303955078125,0.8001708984375,0.42292189598083496,0.128658726811409
1788681074647173000,2.460173095703125,0.6360273361206055,0.3723524808883667,0.07057203352451324
1788681074663042300,2.476042236328125,0.7453908920288086,0.15992224216461182,0.04222725331783295
1788681074678911500,2.491911376953125,0.9234895706176758,-0.013624310493469238,0.07056865096092224
1788681074694811100,2.50781103515625,0.9102783203125,-0.11884951591491699,0.05559946596622467
1788681074710741200,2.5237412109375,0.8041782379150391,-0.16893374919891357,0.29732704162597656
1788681074726610400,2.5396103515625,0.6745023727416992,-0.3419238328933716,0.06761316955089569
1788681074742540500,2.55554052734375,0.686614990234375,-0.38220441341400146,-0.1844366490840912
1788681074758409700,2.57140966796875,0.9345111846923828,-0.5132123231887817,-0.34403112530708313
1788681074774279000,2.58727880859375,1.6555709838867188,-0.4641916751861572,-0.5689105987548828
1788681074790148000,2.603148193359375,2.009955406188965,-0.33081698417663574,-0.6682495474815369
1788681074806017000,2.61901708984375,2.0672245025634766,-0.6381806135177612,-0.5484926700592041
1788681074821886200,2.63488623046875,1.857961654663086,-1.4608170986175537,-0.2384914755821228
1788681074837755400,2.65075537109375,1.6857519149780273,-2.3118581771850586,-0.15209585428237915
1788681074853624600,2.66662451171875,1.6033506393432617,-2.9752585887908936,-0.6341783404350281
1788681074869463300,2.68246337890625,1.9514894485473633,-3.1269407272338867,-1.3753275871276855
1788681074885393400,2.698393310546875,1.5107641220092773,-2.6034562587738037,-1.7610719203948975
1788681074901262600,2.7142626953125,0.2326030731201172,-1.9115619659423828,-1.5703842639923096
1788681074917131500,2.730131591796875,-1.2541179656982422,-1.7606186866760254,-1.152702808380127
1788681074933000700,2.746000732421875,-2.5542244911193848,-1.7508230209350586,-1.1396534442901611
1788681074948900400,2.761900390625,-3.293708324432373,-1.6315358877182007,-1.5856456756591797
1788681074964830700,2.777830810546875,-3.293968677520752,-1.508246898651123,-1.7888429164886475
1788681074980699600,2.79369970703125,-2.5874829292297363,-1.6800861358642578,-1.6417807340621948
1788681074996538400,2.809538330078125,-1.284555435180664,-1.8571629524230957,-1.4376152753829956
1788681075012407600,2.825407470703125,-0.011496543884277344,-2.019055128097534,-1.3640881776809692
1788681075028307200,2.84130712890625,1.0680875778198242,-2.077402114868164,-1.4127824306488037
1788681075044176400,2.85717626953125,1.758610725402832,-1.9955898523330688,-1.6893446445465088
1788681075060045600,2.873045654296875,1.7978696823120117,-1.579458475112915,-1.9059849977493286
1788681075075975700,2.8889755859375,1.0996665954589844,-1.1266944408416748,-1.833959937095642
1788681075091844900,2.904844970703125,0.13239479064941406,-0.6891970634460449,-1.5305944681167603
1788681075107683300,2.920683349609375,-1.0635948181152344,-0.23820853233337402,-1.2341389656066895
1788681075123613400,2.936613525390625,-1.8576831817626953,0.15597951412200928,-1.0934706926345825
1788681075139482600,2.952482666015625,-2.190323829650879,0.38608217239379883,-1.1347320079803467
1788681075155382300,2.96838232421875,-2.341093063354492,0.46840643882751465,-1.1143097877502441
1788681075171282000,2.984281982421875,-2.063990592956543,0.42445921897888184,-1.0700548887252808
1788681075187151000,3.000151123046875,-1.3831100463867188,0.320193886756897,-1.0150701999664307
1788681075203081200,3.016081298828125,-0.6774473190307617,0.19678282737731934,-1.0244693756103516
1788681075218950400,3.031950439453125,-0.1442852020263672,0.25360774993896484,-1.21305251121521
1788681075234819600,3.047819580078125,0.27005863189697266,0.35651910305023193,-1.2179386615753174
1788681075250719200,3.06371923828125,0.5407876968383789,0.2352508306503296,-0.5484519600868225
1788681075266588400,3.07958837890625,0.6002206802368164,0.09091389179229736,-0.2671540379524231
1788681075282518500,3.0955185546875,1.1459503173828125,0.030614256858825684,-0.4733356237411499
1788681075298387700,3.1113876953125,1.7303390502929688,-0.12504446506500244,-0.527677059173584
1788681075314257000,3.1272568359375,2.3064327239990234,-0.4057581424713135,-0.33064013719558716
1788681075330126000,3.1431259765625,2.76495361328125,-0.7914703488349915,-0.20043998956680298
1788681075345934000,3.15893408203125,2.917795181274414,-1.0825514793395996,-0.12259584665298462
1788681075361864200,3.1748642578125,3.0161666870117188,-1.3367682695388794,-0.22140324115753174
1788681075377763800,3.190763916015625,2.677474021911621,-1.4209749698638916,-0.4388663172721863
1788681075393663500,3.20666357421875,1.960465431213379,-1.363889217376709,-0.4143882989883423
1788681075409532700,3.22253271484375,1.05755615234375,-1.3531279563903809,0.001360476016998291
1788681075425432300,3.238432373046875,0.22973060607910156,-1.494279146194458,0.3881397843360901
1788681075441393200,3.25439306640625,-0.38306713104248047,-1.647409200668335,0.4983150362968445
1788681075457262300,3.270262451171875,-0.34758567810058594,-2.0685341358184814,0.27506405115127563
1788681075473131300,3.28613134765625,0.313629150390625,-2.688546657562256,-0.32332688570022583
1788681075489031200,3.30203125,1.0316696166992188,-3.051518678665161,-0.33966493606567383
1788681075504900000,3.317900146484375,1.146254539489746,-3.2888665199279785,0.0487179160118103
1788681075520830500,3.33383056640625,0.8978195190429688,-3.299966812133789,0.15398848056793213
1788681075536730000,3.349730224609375,0.20285987854003906,-3.1986777782440186,0.15813738107681274
1788681075560564200,3.373564208984375,-0.6385822296142578,-2.9010019302368164,0.24733373522758484
1788681075576433400,3.389433349609375,-1.0636672973632812,-2.417264699935913,0.2930578291416168
1788681075592333000,3.4053330078125,-1.4881696701049805,-1.8280977010726929,0.18706008791923523
1788681075640001500,3.45300146484375,-0.7688198089599609,-1.134819507598877,-0.7575529217720032
1788681075655870700,3.46887060546875,-0.07842540740966797,-0.8156135082244873,0.45814505219459534
1788681075671740000,3.484739990234375,0.31925487518310547,-1.3201121091842651,0.7745690941810608
1788681075687608800,3.50060888671875,-0.12020492553710938,-0.908940315246582,0.12404605746269226
1788681075703539200,3.516539306640625,-0.845367431640625,-0.46893811225891113,-0.3862152099609375
1788681075719408000,3.532408203125,-1.643646240234375,-0.1640387773513794,-0.7545455098152161
1788681075735277300,3.54827734375,-2.2461156845092773,0.3311220407485962,0.05913892388343811
1788681075751116000,3.564115966796875,-2.098172187805176,-0.11810362339019775,0.7915854454040527
1788681075767015700,3.580015625,-1.904867172241211,-0.4366205930709839,0.3748188018798828
1788681075782884900,3.595884765625,-1.2801361083984375,-0.0789787769317627,0.00706598162651062
1788681075798754000,3.611754150390625,-0.5220537185668945,-0.18350708484649658,0.42702555656433105
1788681075814623000,3.627623046875,-0.2579784393310547,-0.28885042667388916,0.44807472825050354
1788681075830492200,3.6434921875,-0.23127174377441406,-0.2688150405883789,0.032795339822769165
1788681075846361300,3.659361328125,-0.1729755401611328,-0.3451216220855713,-0.2760993242263794
1788681075862200000,3.675199951171875,0.5917596817016602,-0.4657341241836548,-0.4192429482936859
1788681075878069200,3.6910693359375,1.5724315643310547,-0.6069767475128174,-0.3838965594768524
1788681075893938200,3.706938232421875,2.2980575561523438,-0.703999936580658,-0.728469729423523
1788681075909807400,3.722807373046875,2.6828155517578125,-0.8343411087989807,-1.0187859535217285
1788681075925707000,3.73870703125,2.839463233947754,-1.1013755798339844,-0.9672322869300842
1788681075941606700,3.754606689453125,2.854877471923828,-1.3573076725006104,-0.6929266452789307
1788681075957445400,3.7704453125,2.4810447692871094,-1.2907426357269287,-0.5483143329620361
1788681075973314600,3.786314453125,1.6644964218139648,-1.1567500829696655,-0.8072831630706787
1788681075989183700,3.802183837890625,1.0240411758422852,-1.0206594467163086,-0.8276062607765198
1788681076005083400,3.81808349609375,1.0374317169189453,-0.9064263105392456,-0.6953701972961426
1788681076021013500,3.834013427734375,1.555938720703125,-1.2377749681472778,-0.5094014406204224
1788681076036913200,3.8499130859375,2.3360443115234375,-2.4434337615966797,-1.0467283725738525
1788681076052812800,3.865812744140625,2.5329742431640625,-3.179255247116089,-1.7544827461242676
1788681076068682000,3.881681884765625,1.5356712341308594,-2.9096808433532715,-2.102907657623291
1788681076084612000,3.897612060546875,-0.36615753173828125,-2.8519058227539062,-2.1240384578704834
1788681076100481300,3.913481201171875,-2.1875457763671875,-2.960009813308716,-1.424720287322998
1788681076116381000,3.929380859375,-3.1550683975219727,-2.717923879623413,-1.1235319375991821
1788681076132311000,3.94531103515625,-2.9607725143432617,-1.950381875038147,-1.6843369007110596
1788681076164079900,3.977079833984375,-0.6871185302734375,-1.5377024412155151,-1.5552444458007812
1788681076179979500,3.9929794921875,0.05356597900390625,-1.8113505840301514,-0.9279947280883789
1788681076195909600,4.00890966796875,0.22501277923583984,-1.8154770135879517,-0.7790731191635132
1788681076211778800,4.02477880859375,0.26831722259521484,-1.5714149475097656,-0.947827935218811
1788681076227739600,4.04073974609375,0.24999618530273438,-1.3763760328292847,-0.9692070484161377
1788681076243608600,4.056608642578125,-0.15357685089111328,-1.1201701164245605,-0.7993699312210083
1788681076259447300,4.072447265625,-0.5791034698486328,-0.8602695465087891,-0.4058605432510376
1788681076275347000,4.088346923828125,-0.9061155319213867,-0.48420870304107666,-0.2263890504837036
1788681076291216100,4.104216064453125,-1.2266998291015625,0.05048048496246338,-0.27939531207084656
1788681076307115800,4.12011572265625,-1.593459129333496,0.2771940231323242,-0.3813764154911041
1788681076322985000,4.13598486328125,-1.8537564277648926,0.21220242977142334,-0.2663588523864746
1788681076338823400,4.151823486328125,-1.6110095977783203,0.11749839782714844,-0.4018115997314453
1788681076354723000,4.16772314453125,-0.8950881958007812,0.08045661449432373,-0.4624629616737366
1788681076370653400,4.1836533203125,0.04076957702636719,0.016388654708862305,-0.3027305006980896
1788681076386522600,4.199522705078125,0.8760099411010742,-0.09122943878173828,-0.44656816124916077
1788681076402452700,4.21545263671875,1.6347007751464844,-0.0846325159072876,-0.6222286820411682
1788681076418352400,4.231352294921875,1.710693359375,-0.1334935426712036,-0.5415875911712646
1788681076434221600,4.2472216796875,1.2024660110473633,-0.26146388053894043,-0.2771465480327606
1788681076450151700,4.263151611328125,0.9489364624023438,-0.5517082214355469,-0.34426435828208923
1788681076466020900,4.279020751953125,1.2666730880737305,-0.8177812099456787,-0.6941157579421997
1788681076481890000,4.29489013671875,2.1821718215942383,-0.9166659116744995,-0.8173103332519531
1788681076497759000,4.310759033203125,2.9152631759643555,-0.6968265771865845,-0.650660514831543
1788681076513689300,4.326689453125,2.6877822875976562,-0.4879812002182007,-0.30179741978645325
1788681076529527800,4.34252783203125,1.6760978698730469,-0.7087883949279785,0.13906759023666382
1788681076545397000,4.35839697265625,0.906825065612793,-1.127997636795044,0.3698732256889343
1788681076561266200,4.37426611328125,0.8707876205444336,-1.5031987428665161,-0.02022641897201538
1788681076577165800,4.390165771484375,1.758814811706543,-1.9347968101501465,-0.6781281232833862
1788681076593035000,4.406034912109375,2.4970006942749023,-2.3637304306030273,-0.9933794736862183
1788681076608904200,4.421904296875,2.1297082901000977,-2.792171001434326,-0.8852701187133789
1788681076624773000,4.437773193359375,0.7874059677124023,-3.1154799461364746,-0.6735905408859253
1788681076640642300,4.453642333984375,-0.7499761581420898,-3.1516942977905273,-0.5366816520690918
1788681076656481000,4.46948095703125,-2.017484664916992,-2.9366064071655273,-0.5172253251075745
1788681076672350200,4.48535009765625,-2.463196277618408,-2.729555130004883,-0.726496696472168
1788681076688249900,4.501249755859375,-2.177849769592285,-2.585993766784668,-1.0178356170654297
1788681076704180000,4.517179931640625,-1.4284696578979492,-2.3339180946350098,-1.1170990467071533
1788681076720049200,4.533049072265625,-0.6627016067504883,-2.023684024810791,-0.9226335883140564
1788681076735948800,4.54894873046875,-0.05784320831298828,-1.6586031913757324,-0.4534764289855957
1788681076751848400,4.564848388671875,0.0819234848022461,-1.2893402576446533,-0.3155723214149475
1788681076767778600,4.580778564453125,-0.32941532135009766,-0.8859965801239014,-0.6413676142692566
1788681076783647700,4.596647705078125,-1.1539802551269531,-0.5827807188034058,-0.833169162273407
1788681076799517000,4.612516845703125,-2.056212902069092,-0.4325195550918579,-0.8764162063598633
1788681076815447000,4.628447021484375,-2.4235215187072754,-0.20607078075408936,-0.6560769081115723
1788681076831377200,4.644377197265625,-2.3814697265625,0.015204429626464844,-0.6051576733589172
1788681076847276800,4.66027685546875,-2.021251678466797,0.2531775236129761,-0.6618086695671082
1788681076863146000,4.67614599609375,-1.4848451614379883,0.2985612154006958,-0.6244223117828369
1788681076879015200,4.69201513671875,-0.7828607559204102,0.16309893131256104,-0.6081655025482178
1788681076894914800,4.707914794921875,-0.2996673583984375,0.012535452842712402,-0.49852851033210754
1788681076910784000,4.723783935546875,0.09620857238769531,-0.17218339443206787,-0.4845907986164093
1788681076926653200,4.739653076171875,0.4140024185180664,-0.14078950881958008,-0.3484590947628021
1788681076942552800,4.755552734375,0.5520772933959961,0.011522889137268066,0.007461607456207275
1788681076958422000,4.771422119140625,0.6268501281738281,0.1403980255126953,0.005174398422241211
1788681076974321700,4.78732177734375,0.6274614334106445,0.1419820785522461,-0.18028217554092407
1788681076990160100,4.80316015625,1.002610206604004,-0.021146655082702637,-0.3506421148777008
1788681077006059800,4.819059814453125,1.6958627700805664,-0.3272744417190552,-0.45712703466415405
1788681077021929000,4.834928955078125,2.64456844329834,-0.7541550993919373,-0.5536929965019226
1788681077037828600,4.85082861328125,3.080563545227051,-1.1453208923339844,-0.6657082438468933
1788681077053728300,4.866728271484375,2.8293867111206055,-1.0158205032348633,-0.7012266516685486
1788681077069628000,4.8826279296875,2.0427074432373047,-0.7697888016700745,-0.7175159454345703
1788681077085527600,4.898527587890625,1.3012495040893555,-0.6194378733634949,-0.6526750326156616
1788681077101427200,4.91442724609375,0.9326677322387695,-0.48232972621917725,-0.3356381952762604
1788681077117326800,4.930326904296875,1.4361886978149414,-0.8079620599746704,-0.3347402811050415
1788681077133226500,4.9462265625,2.9923439025878906,-1.8133494853973389,-1.240768551826477
1788681077149126100,4.962126220703125,3.9944982528686523,-2.783902168273926,-1.9812641143798828
1788681077164995300,4.977995361328125,3.279118537902832,-3.05287504196167,-2.1142215728759766
1788681077180864500,4.993864501953125,1.2553024291992188,-2.938553810119629,-1.820431113243103
1788681077196764200,5.00976416015625,-1.0377922058105469,-2.5183050632476807,-1.6347877979278564
1788681077212663800,5.025663818359375,-2.814065933227539,-2.2572360038757324,-1.4321434497833252
1788681077228533000,5.041532958984375,-3.5016679763793945,-1.9858713150024414,-1.6330138444900513
1788681077244402200,5.057402099609375,-2.735659122467041,-1.5037676095962524,-2.1518454551696777
1788681077260301800,5.0733017578125,-1.4113950729370117,-1.407887578010559,-1.9930140972137451
1788681077276171000,5.0891708984375,-0.1656637191772461,-1.781744122505188,-1.40532648563385
1788681077292040200,5.105040283203125,0.822199821472168,-1.5623810291290283,-1.2944658994674683
1788681077315935200,5.128935302734375,1.0415019989013672,-1.305467128753662,-1.3828519582748413
1788681077331835000,5.1448349609375,0.21457767486572266,-1.0414135456085205,-1.187975287437439
1788681077347704000,5.1607041015625,-0.6586980819702148,-0.8638703227043152,-1.0941050052642822
1788681077363603700,5.176603759765625,-1.1260395050048828,-0.6159291863441467,-0.8740686178207397
1788681077379473000,5.192472900390625,-1.5264368057250977,-0.2429652214050293,-0.5868637561798096
1788681077395342000,5.208342041015625,-1.581559181213379,0.107208251953125,-0.4188986122608185
1788681077411180800,5.224180908203125,-1.5940132141113281,0.29970479011535645,-0.4060001075267792
1788681077427111000,5.24011083984375,-1.5162105560302734,0.28277587890625,-0.53789222240448
1788681077442980000,5.25597998046875,-1.140089988708496,0.20973992347717285,-0.5644000172615051
1788681077458849300,5.271849365234375,-0.6928634643554688,0.1503920555114746,-0.7989588379859924
1788681077474718200,5.28771826171875,-0.0076007843017578125,-0.023364901542663574,-0.8516240119934082
1788681077498552600,5.311552490234375,0.41092872619628906,-0.17251801490783691,-0.2571868598461151
1788681077514452200,5.3274521484375,0.3504791259765625,-0.1699298620223999,-0.11591106653213501
1788681077530382300,5.34338232421875,0.060690879821777344,-0.30368661880493164,-0.23824205994606018
1788681077546251500,5.35925146484375,0.3152656555175781,-0.09463882446289062,-0.2781866192817688
1788681077562151200,5.375151123046875,0.7362031936645508,-0.18968641757965088,-0.47180110216140747
1788681077578020400,5.391020263671875,1.2608308792114258,-0.3373945951461792,-0.5728849172592163
1788681077593889500,5.4068896484375,1.3602094650268555,-0.19419586658477783,-0.6667426824569702
1788681077609728000,5.42272802734375,0.7979421615600586,-0.0027147531509399414,-0.37596872448921204
1788681077625627600,5.438627685546875,0.061191558837890625,-0.48881781101226807,0.24507874250411987
1788681077641496800,5.454496826171875,-0.2752256393432617,-1.2318702936172485,0.4816049635410309
1788681077657366000,5.470365966796875,0.6473493576049805,-2.3622756004333496,-0.0051982104778289795
1788681077681071900,5.49407177734375,4.9944915771484375,-4.192178726196289,-1.1683239936828613
1788681077696910300,5.509910400390625,7.07371711730957,-3.838235378265381,-1.2625701427459717
1788681077712810000,5.52581005859375,5.562125205993652,-3.05647611618042,-0.7438708543777466
1788681077728740400,5.541740234375,1.6479692459106445,-2.8728785514831543,-0.36033475399017334
1788681077744670500,5.55767041015625,-1.9798645973205566,-2.6846446990966797,-0.12253354489803314
1788681077760600600,5.5736005859375,-4.251696586608887,-2.0918402671813965,0.07031923532485962
1788681077776500200,5.589500244140625,-4.560526371002197,-1.6306495666503906,0.11707176268100739
1788681077792369400,5.605369384765625,-3.120934009552002,-1.539321780204773,-0.08764605969190598
1788681077808238600,5.621238525390625,-1.3648967742919922,-1.538370132446289,-0.27694085240364075
1788681077824107800,5.637107666015625,0.024292945861816406,-1.425181269645691,-0.1974981129169464
1788681077840007400,5.65300732421875,0.47185707092285156,-1.2121410369873047,-0.011038698256015778
1788681077855907000,5.668906982421875,0.2914562225341797,-1.1024192571640015,0.08410955965518951
1788681077871837200,5.684837158203125,-0.5437040328979492,-0.9964766502380371,0.01986023038625717
1788681077887676000,5.700676025390625,-1.51446533203125,-0.7493601441383362,0.057629071176052094
1788681077903575600,5.716575439453125,-2.251267910003662,-0.45211756229400635,0.05718213692307472
1788681077919444700,5.73244482421875,-2.5766143798828125,-0.08889341354370117,0.09149374812841415
1788681077935283200,5.748283203125,-2.426614761352539,0.17867672443389893,0.17286424338817596
1788681077951182800,5.764182861328125,-2.0670714378356934,0.3485053777694702,0.10019691288471222
1788681077967082500,5.78008251953125,-1.202589988708496,0.3903540372848511,-0.07134465873241425
1788681077982951700,5.79595166015625,-0.6888580322265625,0.4350895881652832,-0.01785239577293396
1788681077998851300,5.811851318359375,-0.6000890731811523,0.44276440143585205,0.18144086003303528
1788681078014720500,5.827720458984375,-0.6616992950439453,0.4521772861480713,0.27500900626182556
1788681078030620200,5.8436201171875,-0.5097227096557617,0.527847170829773,0.38404735922813416
1788681078046519800,5.859519775390625,0.08312416076660156,0.450833797454834,0.4689358174800873
1788681078062389000,5.875388916015625,0.809809684753418,0.2988356351852417,0.35115647315979004
1788681078078288600,5.89128857421875,1.3653078079223633,0.26735854148864746,0.2758941650390625
1788681078094157800,5.90715771484375,1.5794925689697266,0.11142313480377197,0.3416478931903839
1788681078110057500,5.923057373046875,1.8680009841918945,-0.20274829864501953,0.04635981470346451
1788681078125957000,5.93895703125,2.550710678100586,-0.6592199802398682,-0.606031596660614
1788681078141887200,5.95488720703125,3.314448356628418,-1.06255042552948,-0.7209526300430298
1788681078157787000,5.970786865234375,3.5245189666748047,-1.2882413864135742,-0.40188905596733093
1788681078173625600,5.98662548828125,2.90985107421875,-1.1515578031539917,-0.1484307050704956
1788681078189525200,6.002525146484375,1.5781536102294922,-1.0711661577224731,-0.16023243963718414
1788681078205425000,6.0184248046875,0.42357730865478516,-1.273125171661377,-0.19713877141475677
1788681078221294000,6.034294189453125,0.45549774169921875,-1.4337066411972046,-0.02246221899986267
1788681078237163000,6.0501630859375,1.5973834991455078,-1.8356378078460693,-0.10166749358177185
1788681078253032200,6.0660322265625,3.0592031478881836,-2.6920223236083984,-0.8437056541442871
1788681078268871000,6.081870849609375,3.958237648010254,-3.194344997406006,-1.5127843618392944
1788681078284709600,6.097709716796875,3.08699893951416,-3.2397713661193848,-1.5880181789398193
1788681078300639700,6.1136396484375,0.7030830383300781,-3.1551501750946045,-1.4750757217407227
1788681078316509000,6.129509033203125,-1.4946985244750977,-2.6418275833129883,-1.1286879777908325
1788681078332347400,6.145347412109375,-2.3636474609375,-2.4900331497192383,-1.5211386680603027
1788681078348216600,6.161216552734375,-2.530172348022461,-1.9331340789794922,-1.419792652130127
1788681078364024600,6.177024658203125,-2.2022933959960938,-1.588179111480713,-1.1663439273834229
1788681078379924500,6.192924560546875,-1.5099306106567383,-1.6109246015548706,-1.151127815246582
1788681078395793400,6.20879345703125,-0.8733968734741211,-1.5999010801315308,-1.2482367753982544
1788681078411723800,6.224723876953125,-0.7030162811279297,-1.4241186380386353,-1.0125350952148438
1788681078427562200,6.240562255859375,-0.9655027389526367,-1.1451003551483154,-0.8786729574203491
1788681078443462000,6.2564619140625,-1.2473735809326172,-0.9466209411621094,-0.934248149394989
1788681078459392300,6.272392333984375,-1.151200294494629,-0.7886518239974976,-0.7527952194213867
1788681078475230700,6.288230712890625,-0.783411979675293,-0.6709729433059692,-0.7256119251251221
1788681078491100000,6.304099853515625,-0.6071071624755859,-0.35874438285827637,-0.8274235725402832
1788681078506999600,6.31999951171875,-0.9512672424316406,0.06318914890289307,-0.9024155735969543
1788681078522899200,6.335899169921875,-1.6638145446777344,0.364063024520874,-0.8300427198410034
1788681078538768400,6.351768310546875,-2.2874903678894043,0.43960368633270264,-0.6934928894042969
1788681078554637600,6.367637451171875,-2.415618896484375,0.2379152774810791,-0.6055924296379089
1788681078570506800,6.3835068359375,-1.771803855895996,0.0424497127532959,-0.5965805053710938
1788681078586375700,6.399375732421875,-0.8775091171264648,0.013656854629516602,-0.8055422902107239
1788681078602214400,6.41521435546875,0.19227027893066406,-0.012752175331115723,-1.0671062469482422
1788681078618144500,6.43114453125,1.0664443969726562,-0.03969895839691162,-1.1869783401489258
1788681078634074600,6.44707470703125,1.5144262313842773,-0.1335585117340088,-0.9884842038154602
1788681078649943800,6.46294384765625,1.34295654296875,-0.27147531509399414,-0.6706286668777466
1788681078665813000,6.47881298828125,1.1636238098144531,-0.49068713188171387,-0.5465084314346313
1788681078681682200,6.49468212890625,1.4051294326782227,-0.7383554577827454,-0.5992718935012817
1788681078697581800,6.510581787109375,2.2535762786865234,-0.9558926224708557,-0.8916724920272827
1788681078713451000,6.526450927734375,3.145815849304199,-0.7546067833900452,-1.065218448638916
1788681078729350700,6.5423505859375,3.0941457748413086,-0.19813525676727295,-0.8007242679595947
1788681078745219800,6.5582197265625,1.758784294128418,-0.15826618671417236,-0.1274123340845108
1788681078761058300,6.574058349609375,0.048793792724609375,-0.7549861669540405,0.4403371214866638
1788681078776927500,6.589927490234375,-0.5937356948852539,-1.460808277130127,0.5247385501861572
1788681078792827100,6.6058271484375,1.042379379272461,-2.484912872314453,0.015703551471233368
1788681078808696300,6.6216962890625,3.93341064453125,-3.3494739532470703,-0.5802497267723083
1788681078824596000,6.637595947265625,5.519712448120117,-3.4357690811157227,-0.7337246537208557
1788681078840434700,6.6534345703125,3.9310483932495117,-3.2122139930725098,-0.43807321786880493
1788681078856364800,6.66936474609375,0.662632942199707,-3.0657715797424316,-0.18204167485237122
1788681078872234000,6.68523388671875,-2.3284969329833984,-2.8100595474243164,-0.10639204829931259
1788681078888072400,6.701072509765625,-3.998807430267334,-2.272895336151123,-0.15141192078590393
1788681078903972000,6.71697216796875,-4.229677677154541,-1.6833207607269287,-0.03852707892656326
1788681078919871700,6.732871826171875,-3.2406797409057617,-1.320495843887329,-0.08133827149868011
1788681078935741000,6.748740966796875,-1.7557826042175293,-1.2054870128631592,-0.3845658004283905
1788681078951610000,6.764610107421875,-0.20419597625732422,-1.3832461833953857,-0.4938018321990967
1788681078967571000,6.780571044921875,0.7689733505249023,-1.4454370737075806,-0.3489025831222534
1788681078983440000,6.79643994140625,0.9870901107788086,-1.3234657049179077,-0.3645666837692261
1788681078999339500,6.812339599609375,0.3506450653076172,-1.054976224899292,-0.6646134853363037
1788681079015208700,6.828208740234375,-0.9069232940673828,-0.7561527490615845,-0.6677446365356445
1788681079031108400,6.8441083984375,-2.159360408782959,-0.3984997272491455,-0.4395618140697479
1788681079046947000,6.859947021484375,-2.7610039710998535,-0.11313807964324951,-0.37276795506477356
1788681079062816300,6.875816162109375,-2.611276149749756,0.08764708042144775,-0.39308929443359375
1788681079078654700,6.89165478515625,-2.0888304710388184,0.07141125202178955,-0.31720614433288574
1788681079094524000,6.90752392578125,-1.2551298141479492,-0.06849849224090576,-0.22865742444992065
1788681079110393000,6.92339306640625,-0.24505996704101562,-0.19337201118469238,-0.29023903608322144
1788681079126262300,6.93926220703125,0.31857776641845703,-0.28374719619750977,-0.3593808114528656
1788681079142162000,6.955161865234375,0.4797525405883789,-0.3206213712692261,-0.23701494932174683
1788681079158031000,6.971031005859375,0.38271331787109375,-0.32452189922332764,-0.1670299917459488
1788681079173900300,6.986900390625,0.3503856658935547,-0.350075364112854,-0.0842551440000534
1788681079189800000,7.002800048828125,0.6071262359619141,-0.5128684043884277,-0.07011602818965912
1788681079205699600,7.018699462890625,1.008749008178711,-0.5718573927879333,-0.19787952303886414
1788681079221568800,7.03456884765625,1.5470952987670898,-0.4050986170768738,-0.1884642094373703
1788681079237437700,7.050437744140625,2.006314277648926,-0.5748735070228577,-0.16779935359954834
1788681079253337300,7.06633740234375,2.415318489074707,-0.8322706818580627,-0.1951119601726532
1788681079269237000,7.082237060546875,2.386813163757324,-0.6353023648262024,-0.15543676912784576
1788681079285106200,7.098106201171875,1.4772224426269531,-0.45625633001327515,-0.20371957123279572
1788681079300975400,7.113975341796875,0.4796876907348633,-0.8579384088516235,-0.17693988978862762
1788681079316844500,7.129844482421875,0.37418365478515625,-0.9618796110153198,0.09066423773765564
1788681079332774700,7.145774658203125,1.0592718124389648,-1.086449384689331,0.09108918905258179
1788681079348674300,7.16167431640625,2.1914758682250977,-1.6862820386886597,-0.2957834303379059
1788681079364604400,7.1776044921875,3.115891456604004,-2.446221351623535,-0.7467524409294128
1788681079380473600,7.1934736328125,3.107579231262207,-2.685058355331421,-1.1502608060836792
1788681079396312300,7.209312255859375,1.8052959442138672,-2.3387680053710938,-1.3249176740646362
1788681079412212000,7.2252119140625,-0.040343284606933594,-2.0476174354553223,-1.353785514831543
1788681079428111600,7.241111572265625,-1.3249082565307617,-1.7276848554611206,-1.0147590637207031
1788681079444011300,7.25701123046875,-1.948690414428711,-1.3993200063705444,-0.45791468024253845
1788681079459880400,7.27288037109375,-1.7170963287353516,-1.097175121307373,-0.2867715656757355
1788681079475780000,7.288780029296875,-1.4457063674926758,-0.9725129008293152,-0.6264578104019165
1788681079491679700,7.3046796875,-1.3004941940307617,-1.041090965270996,-0.8262282609939575
1788681079507549000,7.320548828125,-1.362259864807129,-1.0438529253005981,-0.45136117935180664
1788681079523418000,7.336418212890625,-1.4570856094360352,-0.8287757635116577,-0.07914328575134277
1788681079539287000,7.352287109375,-0.5463838577270508,-0.7023990750312805,-0.43646112084388733
1788681079555186700,7.368186767578125,-0.9333133697509766,-0.09875863790512085,-0.8063399791717529
1788681079571086600,7.384086669921875,-3.0200681686401367,0.1718839406967163,-0.12546367943286896
1788681079586955500,7.39995556640625,-3.1373419761657715,0.3443310260772705,-0.07487404346466064
1788681079602794200,7.415794189453125,-2.2036304473876953,0.6367064714431763,-0.41856130957603455
1788681079618663400,7.431663330078125,-0.757939338684082,0.6136749982833862,-0.9488332271575928
1788681079634563000,7.44756298828125,-1.2705316543579102,0.2977091073989868,-0.7796571254730225
1788681079650432300,7.463432373046875,-1.716792106628418,-0.009393930435180664,-0.08053269237279892
1788681079666423300,7.47942333984375,-1.675684928894043,0.25469064712524414,-0.22458840906620026
1788681079690196500,7.503196533203125,0.12537097930908203,0.2427074909210205,-0.6032864451408386
1788681079706096000,7.51909619140625,1.9662113189697266,0.013150513172149658,-0.8222242593765259
1788681079721995800,7.534995849609375,3.2487621307373047,-0.16905945539474487,-1.3425763845443726
1788681079737895700,7.550895751953125,2.785220146179199,-0.18038147687911987,-1.2198896408081055
1788681079753764600,7.5667646484375,0.893310546875,0.01310420036315918,-0.427482008934021
1788681079769695000,7.582695068359375,0.23164749145507812,-0.04162275791168213,-0.0841556265950203
1788681079785594600,7.5985947265625,0.9730072021484375,-0.17122423648834229,-0.10207702964544296
1788681079801463600,7.614463623046875,2.0466766357421875,0.0759892463684082,-0.37505507469177246
1788681079817363200,7.63036328125,2.2134952545166016,0.3261524438858032,-0.2799021601676941
1788681079833232400,7.646232421875,1.621042251586914,-0.2656744122505188,0.17761582136154175
1788681079849101600,7.6621015625,1.054636001586914,-0.7479451894760132,0.4157711863517761
1788681079865001200,7.678001220703125,1.161421775817871,-1.353111982345581,0.4732869863510132
1788681079880840000,7.69383984375,2.634042739868164,-2.5873565673828125,0.24855324625968933
1788681079896739600,7.709739501953125,4.586336135864258,-3.3494796752929688,-0.1451144814491272
1788681079912578000,7.725578125,5.008766174316406,-3.0889596939086914,-0.16242119669914246
1788681079928478000,7.74147802734375,2.997354507446289,-2.7384042739868164,0.2936061918735504
1788681079944377600,7.757377685546875,0.025995254516601562,-2.7343616485595703,0.6935825347900391
1788681079960277200,7.77327734375,-2.262575626373291,-2.364266872406006,0.6168212890625
1788681079976146200,7.789146240234375,-3.466341495513916,-1.6811950206756592,0.571840763092041
1788681079992045800,7.8050458984375,-3.6902198791503906,-0.9525259733200073,0.9465888738632202
1788681080007915000,7.8209150390625,-3.2931084632873535,-0.700007975101471,1.0731924772262573
1788681080023753700,7.836753662109375,-2.365384578704834,-0.7924827933311462,0.6247664093971252
1788681080039592400,7.852592529296875,-1.128666877746582,-0.9198416471481323,0.32810351252555847
1788681080055522600,7.8685224609375,-0.1667613983154297,-0.9899844527244568,0.2918955683708191
1788681080071391700,7.884391845703125,0.2159442901611328,-0.9478962421417236,0.26118630170822144
1788681080087291400,7.90029150390625,-0.04771995544433594,-0.7443773150444031,0.16346728801727295
1788681080103160300,7.916160400390625,-0.900543212890625,-0.3842335343360901,0.10930275917053223
1788681080119029500,7.932029541015625,-1.9644708633422852,-0.05262744426727295,0.23316270112991333
1788681080134929200,7.94792919921875,-2.5437846183776855,0.3394104242324829,0.44990119338035583
1788681080150828800,7.963828857421875,-2.555624485015869,0.781967282295227,0.3408487141132355
1788681080166728400,7.979728515625,-2.156184196472168,0.9313679933547974,0.19045186042785645
1788681080182597600,7.99559765625,-1.512648582458496,0.8265100717544556,0.1437099575996399
1788681080198558500,8.011558349609375,-0.8536281585693359,0.5758539438247681,0.19430187344551086
1788681080214427600,8.027427734375,-0.020294189453125,0.2632443904876709,0.3104315996170044
1788681080230266000,8.04326611328125,0.7349224090576172,0.10385990142822266,0.369893342256546
1788681080246165800,8.059165771484375,1.317866325378418,0.13799428939819336,0.2214617133140564
1788681080262065400,8.0750654296875,1.4428777694702148,0.10120117664337158,0.11024437844753265
1788681080277934600,8.0909345703125,1.1544837951660156,0.03441345691680908,0.1804659515619278
1788681080293803800,8.1068037109375,1.0337705612182617,0.010079383850097656,0.19461101293563843
1788681080309673000,8.1226728515625,1.3789787292480469,-0.3582475185394287,0.14890016615390778
1788681080325572600,8.138572509765625,1.966599464416504,-0.791472852230072,0.171451598405838
1788681080341502700,8.154502685546875,2.513296127319336,-0.8889080286026001,0.1586122065782547
1788681080357402400,8.17040234375,2.4232940673828125,-0.5837181210517883,0.14280158281326294
1788681080373271600,8.186271484375,1.5244388580322266,-0.27905571460723877,0.04368292912840843
1788681080389110300,8.2021103515625,0.2493124008178711,-0.46067047119140625,0.09979461133480072
1788681080404979200,8.217979248046875,0.009435653686523438,-1.0323200225830078,0.18317638337612152
1788681080420878800,8.23387890625,1.8405942916870117,-1.9289648532867432,0.14345526695251465
1788681080436748000,8.249748046875,4.110433578491211,-2.8175809383392334,-0.06396550685167313
1788681080452617200,8.2656171875,5.167122840881348,-2.719130039215088,-0.4773799777030945
1788681080468486400,8.281486328125,3.4189767837524414,-2.094710350036621,-1.0650365352630615
1788681080484355600,8.29735546875,0.0948028564453125,-2.1807751655578613,-1.1871724128723145
1788681080500224800,8.313224853515624,-2.5688915252685547,-2.1917765140533447,-1.2071034908294678
1788681080516093700,8.32909375,-4.079641819000244,-1.8342642784118652,-0.9470169544219971
1788681080531993300,8.344993408203125,-4.134071350097656,-1.4349631071090698,-0.7866398096084595
1788681080547832000,8.36083203125,-2.835742950439453,-1.3015810251235962,-0.8577865958213806
1788681080563701200,8.376701171875,-1.3306541442871094,-1.2172826528549194,-0.8807392716407776
1788681080579601000,8.392600830078125,-0.1933441162109375,-1.1458714008331299,-1.0970900058746338
1788681080595500500,8.40850048828125,0.4238395690917969,-1.2240577936172485,-1.069451093673706
1788681080611369700,8.42436962890625,0.47846412658691406,-1.348443627357483,-0.9441243410110474
1788681080627239000,8.440239013671874,0.4469318389892578,-1.3367787599563599,-0.779492974281311
1788681080643138600,8.456138671875,0.2528343200683594,-1.079463005065918,-0.5053093433380127
1788681080659068700,8.472068603515625,-0.048933982849121094,-0.6613255739212036,-0.5228703022003174
1788681080674937900,8.487937744140625,-0.5230731964111328,-0.21914935111999512,-0.8625168204307556
1788681080690807000,8.50380712890625,-1.1578149795532227,0.22045737504959106,-0.9240085482597351
1788681080714671600,8.527671630859375,-2.167302131652832,0.35742276906967163,-0.4985617995262146
1788681080730540800,8.543540771484375,-2.2770447731018066,0.31306129693984985,-0.42320364713668823
1788681080754314000,8.56731396484375,-1.2664871215820312,0.32582753896713257,-0.5290718078613281
1788681080770152700,8.583152587890625,-0.4062976837158203,0.40477055311203003,-0.766961932182312
1788681080786052400,8.59905224609375,0.482513427734375,0.2706120014190674,-0.9227200746536255
1788681080801921500,8.614921630859374,1.4612274169921875,0.20314162969589233,-0.6651052832603455
1788681080817790500,8.63079052734375,1.7172279357910156,0.029344797134399414,-0.48924076557159424
1788681080833659600,8.64665966796875,1.317647933959961,-0.15545856952667236,-0.5933960676193237
1788681080849559300,8.662559326171875,0.9478893280029297,-0.3157966136932373,-0.5663172006607056
1788681080865398000,8.67839794921875,1.163313865661621,-0.5183411836624146,-0.5869530439376831
1788681080881267200,8.69426708984375,1.8367986679077148,-0.6648561954498291,-0.4860999584197998
1788681080897166800,8.710166748046875,2.3457536697387695,-0.8706206679344177,-0.4791982173919678
1788681080913036000,8.7260361328125,2.4795475006103516,-0.6840630173683167,-0.505137026309967
1788681080928905000,8.741905029296875,1.88983154296875,-0.3187856674194336,-0.3465648889541626
1788681080944774100,8.757774169921875,0.7957744598388672,-0.3469531536102295,0.11119662970304489
1788681080960673800,8.773673828125,-0.12514972686767578,-0.6358215808868408,0.436439573764801
1788681080984508200,8.797508056640625,0.08476066589355469,-1.1944780349731445,0.5394505262374878
1788681081000407800,8.81340771484375,1.6019458770751953,-2.1304268836975098,0.3977542221546173
1788681081016277000,8.829277099609374,3.114893913269043,-2.7639822959899902,0.03976404666900635
1788681081032176600,8.8451767578125,3.0857391357421875,-2.8253250122070312,0.2212330400943756
1788681081048045800,8.8610458984375,1.1503067016601562,-2.7068135738372803,0.711954653263092
1788681081063884300,8.87688427734375,-1.2603979110717773,-2.518521308898926,0.8769103288650513
1788681081079784000,8.892783935546875,-2.70107364654541,-2.1396243572235107,0.7835841178894043
1788681081095653000,8.908653076171875,-2.711482524871826,-1.7163437604904175,0.5909442901611328
1788681081119456800,8.932456787109375,-1.784238338470459,-1.341467261314392,0.09474682807922363
1788681081135356400,8.9483564453125,-1.1454715728759766,-1.2290714979171753,-0.06275659799575806
1788681081151225600,8.9642255859375,-0.5297412872314453,-1.1503641605377197,0.10192418098449707
1788681081167094800,8.9800947265625,-0.12781047821044922,-1.1139588356018066,0.14301177859306335
1788681081190898400,9.0038984375,-0.6358165740966797,-0.800593912601471,-0.1083647608757019
1788681081214702000,9.0277021484375,-1.7379393577575684,-0.4220929741859436,-0.24250265955924988
1788681081230601700,9.043601806640625,-2.1414175033569336,-0.09540605545043945,-0.25105178356170654
1788681081246471000,9.059470947265625,-2.0177807807922363,0.3331761360168457,-0.10204765200614929
1788681081262370600,9.07537060546875,-1.7407727241516113,0.6639626026153564,0.03081601858139038
1788681081278301000,9.091301025390624,-1.6362333297729492,0.8244538307189941,0.08074367046356201
1788681081294200600,9.10720068359375,-1.5658740997314453,0.8021347522735596,0.009962677955627441
1788681081310069500,9.123069580078125,-0.9918298721313477,0.5088204145431519,-0.0009180903434753418
1788681081325938700,9.138938720703125,0.14389324188232422,0.2923699617385864,0.20776531100273132
1788681081341777400,9.15477734375,1.0933265686035156,0.21973013877868652,0.32692086696624756
1788681081357677000,9.170677001953125,1.5585479736328125,0.14553499221801758,0.2239595651626587
1788681081373576700,9.18657666015625,1.4088802337646484,0.21383380889892578,-0.019666165113449097
1788681081389446000,9.20244580078125,1.0247554779052734,0.24516654014587402,-0.10315124690532684
1788681081405345500,9.218345458984375,0.7638101577758789,0.04298412799835205,0.00011497735977172852
1788681081421184000,9.23418408203125,0.9993686676025391,-0.2763561010360718,-0.04462364315986633
1788681081437053200,9.25005322265625,1.8259525299072266,-0.726879894733429,0.00038366764783859253
1788681081452922400,9.26592236328125,2.9097089767456055,-0.9995723962783813,-0.07021832466125488
1788681081468761000,9.281760986328125,3.3295021057128906,-0.7803975343704224,-0.2168426513671875
1788681081484660700,9.29766064453125,2.541567802429199,-0.7523022294044495,-0.26049700379371643
1788681081500530000,9.313530029296874,1.4345989227294922,-0.544436514377594,-0.21353140473365784
1788681081516398800,9.32939892578125,0.9517021179199219,-0.5808618664741516,-0.031009692698717117
1788681081532268000,9.34526806640625,1.8546571731567383,-1.6753737926483154,0.1707143634557724
1788681081548198400,9.361198486328124,3.6664628982543945,-3.007707357406616,-0.03821268677711487
1788681081564067300,9.3770673828125,4.698251724243164,-3.15771222114563,-0.6261075139045715
1788681081579875600,9.39287548828125,3.2394638061523438,-2.5755467414855957,-0.8591288924217224
1788681081595775200,9.408775146484375,-0.014563560485839844,-2.3634228706359863,-0.8482915163040161
1788681081611675000,9.4246748046875,-2.792078971862793,-2.001163959503174,-0.7188611030578613
1788681081627574500,9.440574462890625,-4.22573709487915,-1.6178947687149048,-0.6104224920272827
1788681081643504600,9.456504638671875,-4.237453460693359,-1.4045687913894653,-0.5947117805480957
1788681081659313000,9.47231298828125,-2.9557623863220215,-1.340522050857544,-0.8684110045433044
1788681081675212500,9.488212646484374,-1.440129280090332,-1.4449659585952759,-0.7762448191642761
1788681081691112200,9.5041123046875,-0.4067420959472656,-1.6546608209609985,-0.6555236577987671
1788681081707011800,9.52001171875,0.2455921173095703,-1.7134132385253906,-0.7969410419464111
1788681081722850300,9.535850341796875,0.6303024291992188,-1.6250311136245728,-0.8659487366676331
1788681081738719500,9.551719482421875,0.5232181549072266,-1.4616060256958008,-0.8271098136901855
1788681081754588700,9.567588623046875,-0.26201438903808594,-1.0181269645690918,-0.6234573721885681
1788681081770457900,9.583457763671875,-1.1937170028686523,-0.5261048674583435,-0.4108205735683441
1788681081786357500,9.599357421875,-1.8312835693359375,-0.17645859718322754,-0.46300917863845825
1788681081802226700,9.615226806640624,-2.2005419731140137,0.16203010082244873,-0.5019202828407288
1788681081818156800,9.63115673828125,-2.3770627975463867,0.3464125394821167,-0.30466896295547485
1788681081834087000,9.6470869140625,-2.2083425521850586,0.269677996635437,0.05281884968280792
1788681081849956000,9.6629560546875,-1.9218878746032715,0.10940492153167725,0.000500798225402832
1788681081865886200,9.67888623046875,-1.1877164840698242,-0.056285738945007324,-0.3088967204093933
1788681081881725000,9.694724853515625,-0.21829605102539062,-0.16790854930877686,-0.5877104997634888
1788681081897594000,9.710593994140625,0.5547208786010742,-0.22536706924438477,-0.6806115508079529
1788681081913463300,9.72646337890625,1.106318473815918,-0.3704543709754944,-0.5473084449768066
1788681081929332200,9.742332275390625,1.458120346069336,-0.4634628891944885,-0.3892937898635864
1788681081945201400,9.758201416015625,1.7207221984863281,-0.4386180639266968,-0.3466249108314514
1788681081961070600,9.774070556640625,1.808206558227539,-0.3926522135734558,-0.19837325811386108
1788681081976939800,9.789939697265625,1.9088726043701172,-0.4226144552230835,-0.21189981698989868
1788681081992839400,9.80583935546875,2.068216323852539,-0.34391510486602783,-0.26151618361473083
1788681082008708600,9.82170849609375,1.9233989715576172,0.05934345722198486,-0.06956371665000916
1788681082024577800,9.837577880859374,1.0942564010620117,0.22356295585632324,0.18729355931282043
1788681082040477400,9.8534775390625,-0.17428112030029297,-0.061199069023132324,0.2522910237312317
1788681082056377000,9.869377197265624,-0.6804256439208984,-0.3112175464630127,0.8521867990493774
1788681082072246000,9.88524609375,0.2996330261230469,-1.2984017133712769,0.9942307472229004
1788681082088115200,9.901115234375,3.0206756591796875,-2.272250175476074,0.6129343509674072
1788681082103954000,9.916953857421875,5.178519248962402,-2.5738778114318848,0.09746253490447998
1788681082119853600,9.932853515625,4.925233840942383,-2.7901229858398438,0.3369613289833069
1788681082135753200,9.948753173828125,1.7187671661376953,-2.599996566772461,1.0185034275054932
1788681082167583000,9.9805830078125,-3.010593891143799,-1.4974539279937744,1.0599254369735718
1788681082183482600,9.996482666015625,-2.9895520210266113,-1.2545499801635742,1.1425169706344604
1788681082199382300,10.01238232421875,-1.7563414573669434,-1.1923502683639526,0.9478532671928406
1788681082223216600,10.036216552734375,-0.33418750762939453,-1.099966287612915,0.48573464155197144
1788681082239085800,10.0520859375,-0.020009994506835938,-1.045498013496399,0.5915544033050537
1788681082254954800,10.067954833984375,-0.20556926727294922,-0.8398643732070923,0.5035753846168518
1788681082270824000,10.083823974609375,-0.9923133850097656,-0.5006111860275269,0.3812573254108429
1788681082286723600,10.0997236328125,-1.7619986534118652,-0.2506542205810547,0.3346988558769226
1788681082302623200,10.115623291015625,-2.2716383934020996,0.03232705593109131,0.2687756419181824
1788681082318523000,10.13152294921875,-2.3984460830688477,0.3107738494873047,0.3572545349597931
1788681082334422500,10.147422607421875,-2.1911330223083496,0.6979564428329468,0.4053723216056824
1788681082358287400,10.171287353515625,-1.7467474937438965,0.9192087650299072,0.2838468849658966
1788681082374156500,10.187156494140625,-1.4978485107421875,0.8054517507553101,0.4403032958507538
1788681082390056200,10.20305615234375,-1.3061027526855469,0.726380467414856,0.5385619401931763
1788681082405925400,10.21892529296875,-0.874873161315918,0.5610817670822144,0.7121961116790771
1788681082421794600,10.234794677734374,-0.20178699493408203,0.31561434268951416,0.7984925508499146
1788681082437663700,10.250663818359374,0.44378662109375,0.2154175043106079,0.7613337635993958
1788681082453532700,10.26653271484375,0.9901180267333984,0.19819319248199463,0.5800910592079163
1788681082469401900,10.28240185546875,1.1858882904052734,0.1812455654144287,0.5196182131767273
1788681082485271000,10.29827099609375,1.248077392578125,0.12558066844940186,0.3855210244655609
1788681082501140200,10.31414013671875,1.5475578308105469,-0.15672922134399414,0.13240498304367065
1788681082517009400,10.330009521484374,2.091599464416504,-0.5412974953651428,0.08290824294090271
1788681082532909000,10.345908935546875,2.557596206665039,-0.7718362808227539,0.1864684522151947
1788681082548808700,10.36180859375,2.491117477416992,-0.534721851348877,0.2164355367422104
1788681082564678000,10.377677978515624,1.822702407836914,-0.42591291666030884,0.12665706872940063
1788681082580546800,10.393546875,0.9777822494506836,-0.532809853553772,-0.12470550835132599
1788681082596416000,10.409416015625,0.9972200393676758,-0.7464674711227417,-0.006186753511428833
1788681082612285200,10.42528515625,2.214597702026367,-1.9247239828109741,0.1733049750328064
1788681082628154400,10.441154296875,3.866334915161133,-3.255967378616333,-0.07374528795480728
1788681082644054000,10.457053955078125,4.524327278137207,-3.4782586097717285,-0.48584404587745667
1788681082659953700,10.47295361328125,2.8361148834228516,-2.9533896446228027,-0.8502871990203857
1788681082675853300,10.488853271484375,0.015385627746582031,-2.5503129959106445,-0.799315333366394
1788681082691692000,10.504692138671874,-2.499563694000244,-2.147139072418213,-0.5638030171394348
1788681082707561000,10.52056103515625,-3.8295435905456543,-1.588263750076294,-0.34762540459632874
1788681082723460900,10.5364609375,-3.470611095428467,-1.1121543645858765,-0.015066783875226974
1788681082739391000,10.552390869140625,-2.232391834259033,-0.9656673669815063,-0.1998261958360672
1788681082755321000,10.568321044921875,-1.0569572448730469,-0.9336610436439514,-0.6280555129051208
1788681082771159800,10.584159912109374,-0.2723960876464844,-0.8468248248100281,-0.6842594146728516
1788681082786998300,10.599998291015625,0.2207050323486328,-0.908720850944519,-0.5044355392456055
1788681082802898000,10.61589794921875,0.3409233093261719,-1.0023396015167236,-0.14849182963371277
1788681082818767000,10.63176708984375,0.21700096130371094,-0.9473327398300171,-0.04262717068195343
1788681082834636300,10.64763623046875,-0.041420936584472656,-0.5257186889648438,-0.23842927813529968
1788681082850536000,10.663535888671875,-0.5427770614624023,0.03860652446746826,-0.21192605793476105
1788681082866405000,10.679405029296875,-1.2984638214111328,0.3039466142654419,-0.004244215786457062
1788681082882304800,10.6953046875,-1.9594049453735352,0.47110414505004883,0.20902207493782043
1788681082898174000,10.711174072265624,-2.3755388259887695,0.5735752582550049,0.2347927689552307
1788681082914073600,10.727073486328125,-2.509708881378174,0.6419374346733093,0.12983736395835876
1788681082930003700,10.743003662109375,-2.1595993041992188,0.6722062230110168,0.06404229998588562
1788681082945903400,10.7589033203125,-1.365830421447754,0.5741979479789734,-0.11060845106840134
1788681082961803000,10.774802978515625,-0.3548727035522461,0.4358786940574646,-0.22632291913032532
1788681082977672200,10.790672119140625,0.6516304016113281,0.2310604453086853,-0.2557147145271301
1788681082993511000,10.806510986328124,1.4603605270385742,0.14676380157470703,-0.1968640834093094
1788681083009379800,10.8223798828125,1.9242944717407227,0.10862874984741211,-0.18642322719097137
1788681083025249000,10.8382490234375,2.1089534759521484,0.09507113695144653,-0.3473861515522003
1788681083041148700,10.854148681640625,2.0799922943115234,-0.14122557640075684,-0.4320698082447052
1788681083057109500,10.870109619140624,2.1041011810302734,-0.535873293876648,-0.24565821886062622
1788681083073009200,10.886009033203125,2.380258560180664,-0.8114840984344482,-0.020446181297302246
1788681083088908800,10.90190869140625,2.7846975326538086,-0.7420254945755005,-0.20463937520980835
1788681083104808400,10.917808349609375,2.526277542114258,-0.33871930837631226,-0.054192185401916504
1788681083120677600,10.933677734375,1.3243446350097656,-0.23148846626281738,0.313212513923645
1788681083136546600,10.949546630859375,0.19962310791015625,-0.6544512510299683,0.5674067735671997
1788681083152415700,10.965415771484375,0.2955646514892578,-1.210595726966858,0.772429883480072
1788681083168285000,10.981284912109375,1.8237648010253906,-2.114551067352295,0.3523068428039551
1788681083184184600,10.9971845703125,3.8484277725219727,-2.837139129638672,-0.26003116369247437
1788681083200053800,11.0130537109375,4.523158073425293,-2.825854778289795,-0.2169014811515808
1788681083215953400,11.028953369140625,2.325514793395996,-2.4398655891418457,0.33207231760025024
1788681083231853000,11.04485302734375,-0.6947250366210938,-2.4136929512023926,0.7830342054367065
1788681083247691800,11.06069189453125,-3.230739116668701,-2.1126036643981934,0.9709210395812988
1788681083263561000,11.07656103515625,-4.373950004577637,-1.5683311223983765,1.0554850101470947
1788681083279460600,11.092460693359374,-4.073338508605957,-1.293498158454895,0.9962872266769409
1788681083295329500,11.10832958984375,-2.9546637535095215,-1.2769466638565063,0.7168272733688354
1788681083311260000,11.124260009765624,-1.5711727142333984,-1.3652474880218506,0.37170132994651794
1788681083327098400,11.140098388671875,-0.2434215545654297,-1.4413654804229736,0.32381126284599304
1788681083342998000,11.155998046875,0.7844038009643555,-1.4129306077957153,0.15642571449279785
1788681083358836700,11.171836669921875,0.6739320755004883,-1.1552537679672241,0.0850900411605835
1788681083374675500,11.187675537109374,-0.4663839340209961,-0.8306488394737244,0.32179200649261475
1788681083390544400,11.20354443359375,-1.6169681549072266,-0.6077176928520203,0.42560094594955444
1788681083406383000,11.219383056640625,-2.1811113357543945,-0.3887956142425537,0.308187335729599
1788681083422252300,11.235252197265625,-2.154865264892578,-0.02501225471496582,0.19980520009994507
1788681083438152000,11.25115185546875,-1.8656096458435059,0.12415385246276855,0.29506319761276245
1788681083454021000,11.267021240234374,-1.4709339141845703,0.22561413049697876,0.5362330675125122
1788681083469890300,11.282890380859374,-1.2101716995239258,0.3586283326148987,0.6411243677139282
1788681083485759200,11.29875927734375,-1.0332403182983398,0.3199157118797302,0.630341649055481
1788681083501659000,11.314658935546875,-0.739375114440918,0.21149486303329468,0.6956355571746826
1788681083517558500,11.33055859375,-0.199127197265625,0.13381880521774292,0.650109589099884
1788681083533427700,11.346427734375,0.4730987548828125,0.047838032245635986,0.5229368209838867
1788681083549327400,11.362327392578125,1.036813735961914,0.05623507499694824,0.3148273825645447
1788681083565227000,11.37822705078125,1.3721046447753906,0.13412106037139893,0.31849148869514465
1788681083581096200,11.39409619140625,1.3404169082641602,0.05006992816925049,0.22416111826896667
1788681083596965400,11.40996533203125,1.245199203491211,-0.11074262857437134,0.1817225217819214
1788681083612834600,11.42583447265625,1.5615406036376953,-0.3600150942802429,0.21266725659370422
1788681083628703700,11.441703857421874,2.1787586212158203,-0.763346791267395,0.2436164915561676
1788681083644603400,11.457603271484375,2.8246097564697266,-1.173276424407959,0.14278481900691986
1788681083660503000,11.4735029296875,3.222689628601074,-0.9223635792732239,0.04161086678504944
1788681083676433200,11.48943310546875,2.711421012878418,-0.5313600301742554,-0.2759126126766205
1788681083692302300,11.50530224609375,1.566690444946289,-0.23398399353027344,-0.46805301308631897
1788681083708171500,11.521171630859374,0.7308425903320312,-0.027135848999023438,-0.3508806824684143
1788681083724040400,11.53704052734375,0.6800689697265625,-0.4202718138694763,0.08278334885835648
1788681083739940400,11.5529404296875,1.4007635116577148,-1.8735692501068115,0.36560726165771484
1788681083755840000,11.568840087890624,2.254885673522949,-2.926030158996582,0.1555432826280594
1788681083771709000,11.584708984375,2.183530807495117,-2.7584917545318604,-0.30016812682151794
1788681083787547600,11.600547607421875,0.4676980972290039,-2.7475295066833496,-0.4471496045589447
1788681083803447300,11.616447265625,-1.4102935791015625,-2.607093334197998,-0.7915675640106201
1788681083819347000,11.632346923828125,-2.577425479888916,-2.058640956878662,-0.8300217390060425
1788681083835216100,11.648216064453125,-2.8989105224609375,-1.5092449188232422,-0.8038977384567261
1788681083851085300,11.664085205078125,-2.440056800842285,-1.28078293800354,-0.645790696144104
1788681083866985000,11.67998486328125,-1.830965518951416,-1.2707302570343018,-0.5553531646728516
1788681083882915000,11.6959150390625,-1.3482322692871094,-1.2563120126724243,-0.669483482837677
1788681083898784300,11.7117841796875,-0.8510227203369141,-1.3147997856140137,-0.660830020904541
1788681083914684000,11.727683837890625,-0.03456401824951172,-1.3627443313598633,-0.6155858039855957
1788681083930553000,11.743552978515625,0.3288536071777344,-1.0339704751968384,-0.6549740433692932
1788681083946422300,11.75942236328125,0.09950923919677734,-0.2938970625400543,-0.46053624153137207
1788681083962291200,11.775291259765625,-0.4168567657470703,-0.04752516746520996,-0.4496474266052246
1788681083978190800,11.79119091796875,-1.1184272766113281,0.032102882862091064,-0.07839427888393402
1788681083994121200,11.807121337890624,-1.5510845184326172,0.13075578212738037,0.35965695977211
1788681084009990400,11.822990478515624,-1.8256640434265137,0.4166907072067261,0.3365745544433594
1788681084025890000,11.83889013671875,-1.9497742652893066,0.6808735132217407,0.01324906200170517
1788681084041759000,11.854759033203125,-1.7106914520263672,0.7356215119361877,-0.057236313819885254
1788681084057658600,11.87065869140625,-1.1517915725708008,0.6586784720420837,0.03341981768608093
1788681084073527800,11.88652783203125,-0.47620201110839844,0.5123701691627502,-0.05030738562345505
1788681084089427500,11.902427490234375,0.2328195571899414,0.3816976547241211,-0.19836832582950592
1788681084105296600,11.918296630859375,1.1203584671020508,0.18519794940948486,-0.23074521124362946
1788681084121135400,11.93413525390625,1.6818218231201172,0.1197354793548584,-0.3271040916442871
1788681084137035000,11.950034912109375,1.6400136947631836,0.21004217863082886,-0.48147711157798767
1788681084152904200,11.965904296875,1.1479129791259766,0.0690847635269165,-0.1699029803276062
1788681084168742700,11.98174267578125,0.7307834625244141,-0.2280448079109192,0.04619850218296051
1788681084184611800,11.99761181640625,0.8661432266235352,-0.56850266456604,0.09098878502845764
1788681084200481000,12.01348095703125,1.766636848449707,-0.6839429140090942,-0.1347721517086029
1788681084216350200,12.02935009765625,2.418272018432617,-0.3471698760986328,-0.3663821518421173
1788681084232219400,12.045219482421874,2.3416881561279297,-0.038192033767700195,-0.2034437656402588
1788681084248149500,12.0611494140625,1.3864154815673828,-0.374167799949646,0.08556225895881653
1788681084263988000,12.076988037109375,0.5905485153198242,-0.8841958045959473,0.4151664078235626
1788681084279887600,12.0928876953125,0.8933048248291016,-1.7691632509231567,0.5235669612884521
1788681084295756800,12.1087568359375,2.9382810592651367,-2.7598445415496826,-0.07422816753387451
1788681084311717600,12.124717529296875,5.158358573913574,-2.994875192642212,-0.5934481024742126
1788681084327586800,12.1405869140625,5.001249313354492,-2.5796620845794678,-0.1695978045463562
1788681084343486500,12.156486572265624,2.0384902954101562,-2.411714553833008,0.3960995078086853
1788681084359294500,12.17229443359375,-1.5101318359375,-2.2018826007843018,0.8028441667556763
1788681084375163600,12.18816357421875,-3.8363423347473145,-1.960720419883728,0.955268919467926
1788681084391032800,12.20403271484375,-4.56001091003418,-1.61468505859375,0.9995883703231812
1788681084406932500,12.219932373046875,-3.7222580909729004,-1.1654086112976074,1.1427700519561768
1788681084422801700,12.2358017578125,-2.523538112640381,-1.0060144662857056,0.8335171937942505
1788681084438701300,12.251701416015624,-0.9669170379638672,-1.2359426021575928,0.47111910581588745
1788681084454631400,12.26763134765625,0.33710479736328125,-1.3841488361358643,0.5253310203552246
1788681084470500600,12.28350048828125,0.7451868057250977,-1.332115888595581,0.6624208688735962
1788681084486400300,12.299400146484375,0.31168365478515625,-1.05051589012146,0.5497369766235352
1788681084502269400,12.31526953125,-0.6627120971679688,-0.6075793504714966,0.3852077126502991
1788681084518199600,12.331199462890625,-2.014995574951172,-0.24910873174667358,0.5856626033782959
1788681084534099200,12.34709912109375,-2.913320541381836,0.03239858150482178,0.8378322124481201
1788681084549968400,12.362968505859374,-3.030473232269287,0.308006227016449,0.8655197024345398
1788681084565806800,12.378806884765625,-2.1900901794433594,0.5327662825584412,0.6338559985160828
1788681084581706500,12.39470654296875,-1.3083772659301758,0.5785417556762695,0.5960364937782288
1788681084597575700,12.41057568359375,-0.5798282623291016,0.4450879693031311,0.6181173324584961
1788681084613444900,12.42644482421875,-0.12092876434326172,0.3222719430923462,0.6406995058059692
1788681084629344500,12.442344482421875,0.042270660400390625,0.14286428689956665,0.718814492225647
1788681084645183200,12.458183349609374,0.15947532653808594,-0.11856788396835327,0.5313018560409546
1788681084661052400,12.474052490234374,0.6747112274169922,-0.15181082487106323,0.2693294584751129
1788681084676921300,12.48992138671875,1.1457452774047852,0.019214510917663574,0.057795990258455276
1788681084692790500,12.50579052734375,1.321537971496582,0.16169404983520508,0.048246294260025024
1788681084708690200,12.521690185546875,1.1037683486938477,0.16339170932769775,0.21004651486873627
1788681084724589800,12.53758984375,1.0347766876220703,-0.10801392793655396,0.2782325744628906
1788681084740459000,12.553458984375,1.849593162536621,-0.5039504766464233,0.06801639497280121
1788681084756328200,12.569328125,3.0567798614501953,-0.796451985836029,0.03732176125049591
1788681084772197400,12.585197265625,3.463597297668457,-0.7059991359710693,0.0532626211643219
1788681084788035800,12.601035888671875,2.524372100830078,-0.3277437686920166,-0.20943573117256165
1788681084803935500,12.616935546875,0.49446964263916016,-0.42844629287719727,-0.2608320415019989
1788681084819835100,12.632835205078125,-0.6828279495239258,-0.23002266883850098,-0.4383414387702942
1788681084835704300,12.648704345703125,-0.4068317413330078,-0.9607325792312622,-0.24179722368717194
1788681084851604000,12.66460400390625,1.5457448959350586,-2.3587591648101807,-0.11985739320516586
1788681084867503600,12.680503662109375,4.216699600219727,-3.167379379272461,-0.5908885598182678
1788681084883403300,12.6964033203125,5.506277084350586,-3.0303537845611572,-1.0043772459030151
1788681084899242000,12.712241943359375,3.8690576553344727,-2.7883307933807373,-1.0120083093643188
1788681084915141600,12.7281416015625,0.5791187286376953,-2.505544662475586,-0.7409803867340088
1788681084931010800,12.7440107421875,-2.461942672729492,-2.046203851699829,-0.5801988840103149
1788681084946910500,12.759910400390625,-4.546048164367676,-1.3404842615127563,-0.42152249813079834
1788681084962840600,12.775840576171875,-5.000389099121094,-0.8572367429733276,-0.3833295702934265
1788681084978740200,12.791740234375,-3.768266201019287,-0.6303946375846863,-0.4988497197628021
1788681084994640000,12.807639892578125,-1.9812321662902832,-0.7510729432106018,-0.8081499338150024
1788681085010539500,12.82353955078125,-0.6375875473022461,-1.017199993133545,-0.9799177646636963
1788681085026408700,12.83940869140625,0.29742908477783203,-1.269307017326355,-0.894748330116272
1788681085042278000,12.85527783203125,0.7619857788085938,-1.11000394821167,-0.5833642482757568
1788681085058147000,12.87114697265625,0.40390586853027344,-0.7535980939865112,-0.7300292253494263
1788681085074046700,12.887046630859375,-0.4041318893432617,-0.3511870205402374,-0.8291203379631042
1788681085089916000,12.902916015625,-1.2531251907348633,-0.06147289276123047,-0.5822339057922363
1788681085105784800,12.918784912109375,-1.8785171508789062,0.11555302143096924,-0.4502655565738678
1788681085121654000,12.934654052734375,-1.9443387985229492,0.30859267711639404,-0.5345027446746826
1788681085137553700,12.9505537109375,-1.7529163360595703,0.42854762077331543,-0.47564396262168884
1788681085153453300,12.966453369140625,-1.4743881225585938,0.3508948087692261,-0.4136401414871216
1788681085169292000,12.9822919921875,-1.0699710845947266,0.356143593788147,-0.5918771028518677
1788681085185191700,12.998191650390625,-0.49632835388183594,0.3622090816497803,-0.8737690448760986
1788681085201060900,13.014060791015625,0.3338174819946289,0.16806870698928833,-0.9983435869216919
1788681085216960500,13.02996044921875,0.9615287780761719,-0.20927971601486206,-0.6105955243110657
1788681085232799200,13.04579931640625,1.2784347534179688,-0.38330745697021484,-0.2172677367925644
1788681085248699000,13.061698974609374,1.259420394897461,-0.24809974431991577,-0.1771254539489746
1788681085264567800,13.07756787109375,1.1599626541137695,-0.19279110431671143,-0.06645223498344421
1788681085280467500,13.093467529296875,1.1494064331054688,-0.2652224898338318,0.05695748329162598
1788681085296336600,13.109336669921875,1.387786865234375,-0.4834824800491333,0.024996906518936157
1788681085312205800,13.125205810546875,1.9925460815429688,-0.9053982496261597,0.09416654706001282
1788681085328075000,13.141074951171875,2.5812902450561523,-0.880590558052063,0.17611739039421082
1788681085343974700,13.156974609375,2.5431222915649414,-0.40814709663391113,0.2382715344429016
1788681085359874300,13.172874267578125,1.4527816772460938,-0.2161778211593628,0.4459216892719269
1788681085375774000,13.18877392578125,0.2794179916381836,-0.49868255853652954,0.784928023815155
1788681085391673600,13.204673583984375,-0.11140632629394531,-1.1571613550186157,1.020919919013977
1788681085407573200,13.2205732421875,1.263885498046875,-2.2548351287841797,0.9541139602661133
1788681085423503400,13.23650341796875,3.5589447021484375,-3.0758056640625,0.5239020586013794
1788681085439372500,13.25237255859375,4.586879730224609,-3.060671806335449,0.46165990829467773
1788681085455241700,13.26824169921875,2.6652708053588867,-2.828941822052002,0.9739094972610474
1788681085471080400,13.28408056640625,-0.3543710708618164,-2.795243740081787,1.2143518924713135
1788681085486980000,13.29997998046875,-2.6614036560058594,-2.4357011318206787,1.1017546653747559
1788681085502879700,13.315879638671875,-3.7407779693603516,-1.9134385585784912,0.9866281151771545
1788681085518749000,13.3317490234375,-3.3326354026794434,-1.4773478507995605,1.017417550086975
1788681085550517500,13.363517578125,-1.381972312927246,-1.1328487396240234,0.5333744287490845
1788681085566447900,13.37944775390625,-0.9216327667236328,-1.0660005807876587,0.8131507635116577
1788681085582317000,13.395317138671874,-0.6336641311645508,-1.0134323835372925,0.8972765207290649
1788681085598186000,13.41118603515625,-0.5152912139892578,-1.0766772031784058,0.6145061254501343
1788681085614055200,13.42705517578125,-0.4745941162109375,-1.0579302310943604,0.4275642931461334
1788681085629954800,13.442954833984375,-0.5356864929199219,-0.6746946573257446,0.48888441920280457
1788681085645885000,13.458885009765625,-0.8936443328857422,-0.2709023356437683,0.5860894322395325
1788681085661754000,13.474754150390625,-1.3820123672485352,0.03703784942626953,0.6539401412010193
1788681085677623300,13.490623291015625,-1.690629005432129,0.3008592128753662,0.7216272354125977
1788681085693462000,13.5064619140625,-1.4993219375610352,0.4382351040840149,0.8022865056991577
1788681085709361700,13.522361572265625,-0.9662389755249023,0.28061366081237793,0.7800909280776978
1788681085725200100,13.5382001953125,-0.28510379791259766,0.27711546421051025,0.8588825464248657
1788681085741099800,13.554099853515625,0.23878002166748047,0.33933889865875244,0.7335054874420166
1788681085756969000,13.569968994140625,0.4433412551879883,0.3440263271331787,0.4910540282726288
1788681085772838100,13.585838134765625,0.4640235900878906,0.15855681896209717,0.35506874322891235
1788681085788707300,13.601707275390625,0.4988698959350586,0.018364787101745605,0.2613292932510376
1788681085804607000,13.61760693359375,0.6426200866699219,-0.043264925479888916,0.32757335901260376
1788681085820506600,13.633506591796875,0.9518651962280273,-0.09787178039550781,0.23282650113105774
1788681085836375800,13.649375732421875,1.2465028762817383,-0.21418756246566772,0.013627871870994568
1788681085852275500,13.665275390625,1.8656978607177734,-0.42583632469177246,-0.08043207973241806
1788681085868175000,13.681175048828125,2.636106491088867,-0.8674129843711853,-0.14510296285152435
1788681085884044300,13.697044189453125,3.0660438537597656,-1.1514947414398193,-0.03924892097711563
1788681085899882800,13.7128828125,2.4069137573242188,-0.7571901082992554,-0.10607756674289703
1788681085915752000,13.728751953125,0.8309144973754883,-0.2374749779701233,-0.26128876209259033
1788681085931682000,13.74468212890625,-0.27705860137939453,-0.25514090061187744,-0.49576008319854736
1788681085947551200,13.76055126953125,-0.01813507080078125,-0.6586856245994568,-0.5243715643882751
1788681085963451000,13.776450927734375,1.8390560150146484,-1.9501991271972656,-0.27685195207595825
1788681085979350500,13.7923505859375,4.395685195922852,-3.2842788696289062,-0.4620840549468994
1788681085995219700,13.8082197265625,5.587501525878906,-3.4475114345550537,-0.9638513326644897
1788681086011119400,13.824119384765625,3.961475372314453,-2.91831111907959,-1.2957017421722412
1788681086027019000,13.84001904296875,0.4600505828857422,-2.506138801574707,-1.0885717868804932
1788681086042911700,13.855911865234376,-3.0559158325195312,-2.215585708618164,-0.88489830493927
1788681086058811400,13.871811279296875,-5.005337238311768,-1.867618203163147,-0.8098217248916626
1788681086074680600,13.8876806640625,-4.583568572998047,-1.6272960901260376,-0.7087787389755249
1788681086090580200,13.903580322265626,-2.3163671493530273,-1.4502365589141846,-0.8590669631958008
1788681086106419000,13.9194189453125,-0.3569364547729492,-1.3401727676391602,-1.2488985061645508
1788681086122318600,13.935318603515626,0.40169525146484375,-1.1589939594268799,-1.3055164813995361
1788681086138218200,13.95121826171875,0.11082267761230469,-0.9510599374771118,-1.049457311630249
1788681086154118000,13.967117919921876,-0.668121337890625,-0.9026030898094177,-0.7821882963180542
1788681086170017500,13.983017578125,-1.242502212524414,-0.9928680062294006,-0.48673081398010254
1788681086185886700,13.99888671875,-1.0272130966186523,-1.0140899419784546,-0.4888661205768585
1788681086201756000,14.014755859375,-0.2778892517089844,-0.7282999753952026,-0.7057977914810181
1788681086217624800,14.030624755859375,-0.22265052795410156,-0.28700971603393555,-0.6916584372520447
1788681086233494000,14.046493896484375,-0.93505859375,0.1020817756652832,-0.5836958289146423
1788681086249332700,14.062332763671876,-1.8914599418640137,0.23629319667816162,-0.25676295161247253
1788681086265202000,14.078201904296876,-2.534583568572998,0.20574045181274414,-0.08279383182525635
1788681086281132000,14.094132080078126,-2.350403308868408,0.09801483154296875,-0.06275177001953125
1788681086297031700,14.11003173828125,-1.2743148803710938,0.008034229278564453,-0.4140785336494446
1788681086312931300,14.125931396484376,-0.0019054412841796875,-0.06266093254089355,-0.7435687780380249
1788681086328770000,14.14177001953125,1.0626096725463867,-0.08478069305419922,-0.9101762175559998
1788681086344639000,14.157638916015625,1.471003532409668,-0.022284388542175293,-0.8813279867172241
1788681086360538600,14.17353857421875,1.1855783462524414,-0.15763145685195923,-0.7699975371360779
1788681086376407800,14.18940771484375,0.8852519989013672,-0.2787625789642334,-0.6241800785064697
1788681086392307500,14.205307373046875,0.7952203750610352,-0.431522011756897,-0.6476394534111023
1788681086408176600,14.2211767578125,1.493368148803711,-0.6145654320716858,-0.5120331048965454
1788681086424076300,14.237076171875,2.4924373626708984,-0.6782426834106445,-0.2953459620475769
1788681086439915000,14.2529150390625,3.023922920227051,-0.3054298758506775,-0.32122093439102173
1788681086455814700,14.268814697265626,2.5180931091308594,0.22063696384429932,-0.0957472026348114
1788681086471714300,14.28471435546875,1.2115755081176758,0.31812620162963867,0.24929851293563843
1788681086487614000,14.300614013671876,-0.17099380493164062,0.03096592426300049,0.43387898802757263
1788681086503544000,14.3165439453125,-0.12621212005615234,-0.7374199032783508,0.5119653344154358
1788681086519443700,14.332443603515625,1.9873456954956055,-2.011892557144165,0.20301654934883118
1788681086535343400,14.34834326171875,4.9095659255981445,-3.1091971397399902,-0.33662962913513184
1788681086551243000,14.364242919921875,6.273358345031738,-3.2261669635772705,-0.3408411741256714
1788681086567173400,14.38017333984375,4.0959320068359375,-2.779268264770508,-0.14866086840629578
1788681086583011800,14.39601171875,0.2647409439086914,-2.5015103816986084,0.09148458391427994
1788681086598881000,14.411881103515626,-2.8190383911132812,-2.2742490768432617,0.38879692554473877
1788681086614750200,14.427750244140626,-4.462287425994873,-1.7849887609481812,0.8865106105804443
1788681086630589000,14.4435888671875,-4.837545871734619,-1.1840453147888184,1.1071792840957642
1788681086646457900,14.459457763671875,-4.058115005493164,-0.9694342613220215,0.9363085031509399
1788681086662296600,14.475296630859376,-2.609738349914551,-1.1966413259506226,0.44198518991470337
1788681086678165800,14.491165771484376,-0.8497133255004883,-1.4818907976150513,0.2132979929447174
1788681086694126300,14.507126220703125,0.8309621810913086,-1.6946420669555664,0.10778452455997467
1788681086709995500,14.52299560546875,1.395970344543457,-1.6142364740371704,-0.10882678627967834
1788681086725895200,14.538895263671876,0.5257549285888672,-1.1442288160324097,-0.14235839247703552
1788681086741734000,14.55473388671875,-1.1060113906860352,-0.6360195279121399,-0.016961395740509033
1788681086757603000,14.57060302734375,-2.456873893737793,-0.44804584980010986,-0.009427845478057861
1788681086773502700,14.586502685546876,-2.8299789428710938,-0.3831731081008911,0.042267292737960815
1788681086789402400,14.60240234375,-2.016547203063965,-0.37438201904296875,0.17509035766124725
1788681086805271300,14.618271240234375,-0.6619253158569336,-0.29025477170944214,-0.04866214096546173
1788681086821201700,14.63420166015625,0.1783428192138672,-0.029311537742614746,-0.40245193243026733
1788681086837101300,14.650101318359376,0.0664987564086914,0.06004035472869873,-0.46269142627716064
1788681086853001000,14.6660009765625,-0.6527032852172852,-0.2097078561782837,-0.09561313688755035
1788681086868870100,14.6818701171875,-1.083730697631836,-0.48695772886276245,0.13668645918369293
1788681086884769800,14.697769775390626,-0.7434234619140625,-0.6326938271522522,-0.16989678144454956
1788681086900639000,14.713638916015626,0.2556343078613281,-0.4988200068473816,-0.22199685871601105
1788681086916538600,14.72953857421875,0.7430763244628906,-0.2696482539176941,-0.03918762505054474
1788681086932407600,14.745407470703125,0.8506784439086914,-0.15298008918762207,0.08750863373279572
1788681086948307200,14.76130712890625,0.8595848083496094,-0.18832236528396606,0.13508844375610352
1788681086964146000,14.77714599609375,0.8471593856811523,-0.1928120255470276,0.11545823514461517
1788681086980045600,14.793045654296876,0.9601526260375977,-0.1314375400543213,0.04091072082519531
1788681086995914800,14.808914794921876,1.3998298645019531,-0.057715415954589844,0.06728760898113251
1788681087011814400,14.824814453125,1.4182214736938477,0.23222386837005615,0.09923939406871796
1788681087027683600,14.84068359375,0.8706464767456055,0.3550174832344055,-0.07769778370857239
1788681087043552800,14.856552734375,0.6473445892333984,0.34092676639556885,-0.33521026372909546
1788681087059421700,14.872421630859375,1.1984844207763672,0.21137768030166626,-0.6040780544281006
1788681087075352000,14.88835205078125,2.7054529190063477,-0.6720198392868042,-0.4054186940193176
1788681087091221200,14.90422119140625,4.409229278564453,-1.6828579902648926,-0.3895820379257202
1788681087107090200,14.920090087890625,5.170077323913574,-2.0617804527282715,-0.8660157918930054
1788681087123020500,14.9360205078125,3.7759246826171875,-1.9995253086090088,-0.7340691089630127
1788681087138889500,14.951889404296875,0.8239574432373047,-1.8498058319091797,-0.5864347815513611
1788681087154758700,14.967758544921875,-1.7765169143676758,-1.5690038204193115,-0.5230169296264648
1788681087170658300,14.983658203125,-3.183770179748535,-1.2137911319732666,-0.5561898350715637
1788681087186558000,14.999557861328125,-3.4276552200317383,-0.7733306288719177,-0.6934389472007751
1788681087202396700,15.015396728515626,-2.8209433555603027,-0.4675353765487671,-0.7110961675643921
1788681087218296300,15.03129638671875,-2.251253128051758,-0.4483049511909485,-0.7525465488433838
1788681087234196000,15.047196044921876,-1.8126044273376465,-0.707626223564148,-0.8994525671005249
1788681087250065200,15.063065185546876,-1.0497732162475586,-0.9904897212982178,-0.7030371427536011
1788681087273868800,15.086868896484376,0.5902948379516602,-0.9855929613113403,-0.6189786195755005
1788681087289738000,15.102738037109376,0.6406164169311523,-0.6067236661911011,-0.5220130085945129
1788681087305607200,15.118607177734376,-0.17204666137695312,-0.24128931760787964,-0.4701653718948364
1788681087321506800,15.1345068359375,-1.2332496643066406,0.07835376262664795,-0.5401120185852051
1788681087337406500,15.150406494140626,-2.1974525451660156,0.39296483993530273,-0.33367517590522766
1788681087353306000,15.16630615234375,-2.3320651054382324,0.5359604358673096,-0.16418318450450897
1788681087369175300,15.18217529296875,-2.02554988861084,0.6325138807296753,-0.04638758301734924
1788681087385044500,15.19804443359375,-1.5814943313598633,0.7758290767669678,-0.16916656494140625
1788681087400944000,15.213944091796876,-1.1811752319335938,0.7103716731071472,-0.39621618390083313
1788681087416813000,15.22981298828125,-0.6686515808105469,0.572006344795227,-0.5705323815345764
1788681087432682200,15.24568212890625,-0.20632553100585938,0.4471166729927063,-0.5285372734069824
1788681087448551400,15.261551513671876,0.27464866638183594,0.27485567331314087,-0.36032208800315857
1788681087464481500,15.2774814453125,0.5440311431884766,0.08654820919036865,-0.26351213455200195
1788681087480320300,15.2933203125,0.8061017990112305,0.02402675151824951,-0.16064131259918213
1788681087496220000,15.309219970703126,1.038705825805664,-0.10500001907348633,-0.076995849609375
1788681087512150000,15.32514990234375,1.4453248977661133,-0.3727281093597412,0.0009896308183670044
1788681087528019200,15.341019287109376,2.227447509765625,-0.5774937272071838,0.03838089108467102
1788681087543888400,15.356888427734376,2.8929576873779297,-0.6863491535186768,-0.13623224198818207
1788681087559849000,15.372848876953125,2.85860538482666,-0.2819778323173523,-0.2570960521697998
1788681087575748600,15.38874853515625,1.8064613342285156,0.10200929641723633,-0.007656276226043701
1788681087591617800,15.40461767578125,0.48796653747558594,-0.002105236053466797,0.4033178687095642
1788681087607517400,15.420517333984375,-0.24747180938720703,-0.31346428394317627,0.67918860912323
1788681087623386600,15.43638671875,-0.11251258850097656,-0.955428421497345,0.8629255294799805
1788681087639255800,15.452255859375,1.656219482421875,-1.9577066898345947,0.6194369792938232
1788681087655155500,15.468155517578126,4.112846374511719,-2.591784954071045,0.10430273413658142
1788681087671085600,15.48408544921875,5.341190338134766,-2.402163028717041,0.13126125931739807
1788681087686954800,15.499954833984376,3.289825439453125,-2.2280595302581787,0.5202743411064148
1788681087702824000,15.515823974609376,-0.12634754180908203,-2.2241690158843994,0.9045119285583496
1788681087718723600,15.5317236328125,-2.8035507202148438,-2.034172296524048,1.1441314220428467
1788681087734623200,15.547623291015626,-3.831270217895508,-1.5485565662384033,1.2667458057403564
1788681087750492400,15.563492431640626,-3.1284828186035156,-1.0572328567504883,0.9999381899833679
1788681087766361600,15.579361572265626,-1.5068483352661133,-0.8234699964523315,0.3213394284248352
1788681087782261200,15.59526123046875,0.008594512939453125,-0.8323497772216797,0.09739631414413452
1788681087798130200,15.611130126953125,0.8752803802490234,-0.9682972431182861,0.30859309434890747
1788681087813999400,15.626999267578125,0.8540506362915039,-1.1161036491394043,0.28345802426338196
1788681087829868500,15.64286865234375,0.46096134185791016,-1.1091090440750122,0.2851572632789612
1788681087845768200,15.658768310546876,-0.31060123443603516,-0.7835686802864075,0.4281882047653198
1788681087861637400,15.674637451171876,-1.1530265808105469,-0.2827686667442322,0.5372418165206909
1788681087877537000,15.690537109375,-1.9975395202636719,0.1374056339263916,0.6126810312271118
1788681087893436700,15.706436767578126,-2.6223602294921875,0.3281838893890381,0.6930029392242432
1788681087909305900,15.722305908203126,-2.5511598587036133,0.3865962028503418,0.6081613898277283
1788681087925175000,15.738175048828126,-1.7640190124511719,0.44581782817840576,0.6103137135505676
1788681087941074700,15.75407470703125,-0.8438911437988281,0.35260140895843506,0.6020159125328064
1788681087956944000,15.76994384765625,-0.38283252716064453,0.2624441385269165,0.7246577739715576
1788681087972782300,15.7857822265625,-0.34906005859375,0.30004799365997314,0.7863131165504456
1788681087988682000,15.801681884765625,-0.44566917419433594,0.2694389820098877,0.8132352232933044
1788681088004551200,15.81755126953125,-0.3992748260498047,0.17245352268218994,0.6167341470718384
1788681088020420400,15.83342041015625,-0.2524852752685547,0.08832931518554688,0.32872942090034485
1788681088036320000,15.849320068359376,-0.036693572998046875,0.19489169120788574,0.1674382984638214
1788681088052219600,15.8652197265625,0.22427654266357422,0.17621171474456787,0.18861046433448792
1788681088068088800,15.8810888671875,0.6492033004760742,0.02122485637664795,0.17573705315589905
1788681088083988500,15.896988525390626,1.347808837890625,-0.22706937789916992,0.19005867838859558
1788681088099888000,15.91288818359375,2.3136720657348633,-0.5884807109832764,0.11175967752933502
1788681088115787800,15.928787841796876,3.1975231170654297,-0.8215417861938477,0.1592196822166443
1788681088131687400,15.9446875,3.1687002182006836,-0.5513011813163757,0.03200345113873482
1788681088147587000,15.960587158203126,1.8258590698242188,-0.2722194194793701,-0.14051592350006104
1788681088163456300,15.976456298828126,0.3742856979370117,-0.13782882690429688,-0.20019546151161194
1788681088179325400,15.992325439453126,-0.16033363342285156,0.09884178638458252,-0.13967064023017883
1788681088195225000,16.00822509765625,0.6806526184082031,-0.39709997177124023,-0.19729426503181458
1788681088211124700,16.024124755859376,2.801358222961426,-1.9346818923950195,-0.022508986294269562
1788681088227024400,16.0400244140625,4.5289411544799805,-2.9305055141448975,-0.3065938949584961
1788681088242893600,16.0558935546875,3.9831371307373047,-2.783435821533203,-0.7875333428382874
1788681088258762800,16.0717626953125,1.3362627029418945,-2.374528408050537,-0.8968955278396606
1788681088274601200,16.087601318359376,-1.1438817977905273,-2.018883228302002,-0.6642512679100037
1788681088290470400,16.103470458984376,-2.717888832092285,-1.6342769861221313,-0.49516624212265015
1788681088306370000,16.1193701171875,-2.911904811859131,-1.0944290161132812,-0.4184098541736603
1788681088322300200,16.135300048828125,-2.171863079071045,-0.7842381596565247,-0.4858078956604004
1788681088338199800,16.15119970703125,-1.2322559356689453,-0.9459822773933411,-0.5629439949989319
1788681088354038500,16.16703857421875,-0.5522089004516602,-1.307344675064087,-0.5446615815162659
1788681088369938200,16.182938232421876,-0.06776809692382812,-1.4413665533065796,-0.3585933744907379
1788681088385807400,16.198807373046876,0.16930007934570312,-1.378954291343689,-0.1700439155101776
1788681088401676500,16.214676513671876,0.1331310272216797,-1.188897967338562,-0.31286415457725525
1788681088417545500,16.23054541015625,-0.40540313720703125,-0.6453924775123596,-0.49343475699424744
1788681088433414700,16.24641455078125,-1.3049135208129883,-0.12379932403564453,-0.3942278027534485
1788681088449283800,16.262283935546876,-2.116563320159912,0.10296916961669922,-0.2866034209728241
1788681088465153000,16.278153076171876,-2.6605172157287598,0.2756432294845581,-0.1326703280210495
1788681088480991700,16.29399169921875,-2.705996513366699,0.3255012035369873,-0.07910776883363724
1788681088496860700,16.309860595703125,-2.1889266967773438,0.321679949760437,-0.2039465606212616
1788681088512791000,16.325791015625,-1.532297134399414,0.2736687660217285,-0.3741040527820587
1788681088528660000,16.341659912109375,-1.1202974319458008,0.20349419116973877,-0.49991345405578613
1788681088544590300,16.35759033203125,-0.6793594360351562,0.20911157131195068,-0.7184733152389526
1788681088560428800,16.3734287109375,-0.13919639587402344,0.15912401676177979,-0.7716477513313293
1788681088576298000,16.389298095703126,-0.03614997863769531,0.13649523258209229,-0.5779643058776855
1788681088592167200,16.405167236328126,0.699803352355957,0.04323458671569824,-0.34427499771118164
1788681088608066800,16.42106689453125,0.8305931091308594,0.3347541093826294,-0.8506284952163696
1788681088623997000,16.436996826171875,-0.39798450469970703,-0.016346335411071777,-0.35733872652053833
1788681088639866000,16.4528662109375,0.4371633529663086,-0.43788278102874756,-0.4208042025566101
1788681088655735300,16.4687353515625,1.9611940383911133,-0.6250985860824585,-0.43109968304634094
1788681088671635000,16.484635009765626,4.086545944213867,-0.49949365854263306,-0.45250794291496277
1788681088687473700,16.5004736328125,2.669546127319336,-0.395372211933136,-0.29133719205856323
1788681088703373300,16.516373291015626,1.2137155532836914,-0.13127386569976807,0.5748192071914673
1788681088719273000,16.53227294921875,-0.0443267822265625,0.019260406494140625,0.8310530185699463
1788681088743107000,16.556107177734376,0.2011260986328125,-0.03732454776763916,0.6242449879646301
1788681088758976300,16.571976318359376,1.7137117385864258,-0.8560445308685303,0.35482919216156006
1788681088774845400,16.587845458984376,4.161678314208984,-2.2329630851745605,-0.11850902438163757
1788681088790745000,16.6037451171875,6.344940185546875,-2.8161368370056152,-0.5665276050567627
1788681088814518300,16.627518310546876,4.056942939758301,-1.9255170822143555,0.429714560508728
1788681088830387500,16.643387451171876,0.5718059539794922,-1.997483730316162,0.9469825029373169
1788681088846317600,16.659317626953126,-2.202033519744873,-1.9961085319519043,1.0479326248168945
1788681088862217200,16.67521728515625,-3.7497196197509766,-1.5556960105895996,0.9991532564163208
1788681088878086400,16.69108642578125,-3.880016803741455,-1.10699462890625,1.0120022296905518
1788681088893986000,16.706986083984376,-2.678734302520752,-0.9858112335205078,1.196258783340454
1788681088909885700,16.7228857421875,-1.303192138671875,-1.0634729862213135,0.9845966696739197
1788681088925724400,16.738724365234376,0.02708148956298828,-1.226263403892517,0.6956247687339783
1788681088941593300,16.75459326171875,0.9689807891845703,-1.4557387828826904,0.5480214953422546
1788681088957462500,16.770462646484376,1.026214599609375,-1.476111650466919,0.480040043592453
1788681088973331700,16.786331787109376,0.5395565032958984,-1.2246215343475342,0.31120535731315613
1788681088989261800,16.80226171875,-0.3187417984008789,-0.8584770560264587,0.3173660635948181
1788681089005161500,16.818161376953125,-1.2901477813720703,-0.2617219090461731,0.4557061493396759
1788681089021030700,16.83403076171875,-2.295511245727539,0.09204208850860596,0.4749867916107178
1788681089036899800,16.84989990234375,-3.067171096801758,0.23399698734283447,0.42552995681762695
1788681089052738600,16.865738525390626,-2.9953622817993164,0.39722704887390137,0.38694465160369873
1788681089068638200,16.88163818359375,-2.3069581985473633,0.4833794832229614,0.3307669460773468
1788681089084537900,16.897537841796876,-1.2274589538574219,0.4643104076385498,0.29993748664855957
1788681089100407000,16.913406982421876,-0.4341392517089844,0.41257596015930176,0.4692953824996948
1788681089116306700,16.929306640625,-0.0902700424194336,0.3211965560913086,0.4338742196559906
1788681089132206300,16.945206298828126,0.030199050903320312,0.26438307762145996,0.5439148545265198
1788681089148044800,16.961044921875,0.09480571746826172,0.19255197048187256,0.4741479754447937
1788681089163944400,16.9769443359375,0.2707252502441406,0.1463412046432495,0.2711121439933777
1788681089179813600,16.992813720703126,0.3902750015258789,0.2975205183029175,0.34100329875946045
1788681089195713300,17.00871337890625,0.25230884552001953,0.3336207866668701,0.3801931142807007
1788681089211582500,17.02458251953125,0.2369518280029297,0.15649163722991943,0.29600387811660767
1788681089227421200,17.040421142578126,0.8247060775756836,-0.20530164241790771,0.08762520551681519
1788681089243290000,17.0562900390625,1.9055290222167969,-0.7119576334953308,-0.03202749788761139
1788681089259220500,17.072220458984376,2.8543453216552734,-1.065969467163086,-0.17105044424533844
1788681089275089400,17.08808935546875,2.882488250732422,-0.8027089834213257,-0.3649216294288635
1788681089290928000,17.10392822265625,1.6370162963867188,-0.4767361879348755,-0.5528489947319031
1788681089306827800,17.119827880859376,0.2139902114868164,-0.1413884162902832,-0.7034875154495239
1788681089322727400,17.1357275390625,-0.07898139953613281,0.22305738925933838,-0.835762619972229
1788681089338596600,17.1515966796875,0.6570310592651367,-0.32488584518432617,-0.399543821811676
1788681089354465800,17.1674658203125,2.012820243835449,-2.030690908432007,-0.15594832599163055
1788681089370365400,17.183365478515626,3.233487129211426,-2.990628242492676,-0.8737357258796692
1788681089386234600,17.199234619140626,3.1864023208618164,-2.9444870948791504,-1.4404562711715698
1788681089402134300,17.21513427734375,1.4285306930541992,-2.6217784881591797,-1.2995949983596802
1788681089418003500,17.23100341796875,-0.5601720809936523,-2.2121567726135254,-1.2791225910186768
1788681089433842000,17.246842041015626,-1.998307228088379,-1.5743361711502075,-1.2066378593444824
1788681089449772000,17.26277197265625,-2.448965072631836,-1.0752917528152466,-1.2143940925598145
1788681089465641200,17.27864111328125,-1.8835906982421875,-0.9966839551925659,-0.8880960941314697
1788681089481510400,17.294510498046876,-0.948124885559082,-1.0109655857086182,-0.712570309638977
1788681089497410000,17.31041015625,-0.4864978790283203,-0.9295046925544739,-0.8194357752799988
1788681089513279200,17.326279296875,-0.27002620697021484,-0.8115507364273071,-0.8167189955711365
1788681089529148400,17.3421484375,0.0942840576171875,-0.5917668342590332,-0.7235174179077148
1788681089545017600,17.358017578125,0.3508491516113281,-0.45073214173316956,-0.5192599296569824
1788681089560917200,17.373917236328126,0.10024166107177734,-0.34879910945892334,-0.30056482553482056
1788681089576847400,17.389847412109376,-0.511570930480957,-0.03264021873474121,-0.4272514283657074
1788681089592686000,17.40568603515625,-1.0591821670532227,0.31776952743530273,-0.424854040145874
1788681089608555000,17.421554931640625,-1.3588285446166992,0.6116800904273987,-0.3048146963119507
1788681089624424200,17.437424072265625,-1.8300361633300781,0.8547362089157104,-0.3012966513633728
1788681089640263000,17.453262939453126,-2.0745115280151367,0.8707062005996704,-0.2921905219554901
1788681089656193000,17.469193115234376,-1.8091726303100586,0.7617522478103638,-0.413058876991272
1788681089672062200,17.485062255859376,-0.8260688781738281,0.6670670509338379,-0.5601060390472412
1788681089695927000,17.508927001953126,0.48572540283203125,0.37024033069610596,-0.5493103265762329
1788681089711765500,17.524765625,0.9380912780761719,0.14532136917114258,-0.4437074065208435
1788681089735538700,17.54853857421875,0.8343029022216797,0.022528529167175293,-0.29550158977508545
1788681089751438300,17.564438232421875,0.8119707107543945,-0.12234508991241455,0.07362060993909836
1788681089767307500,17.5803076171875,1.0041236877441406,-0.4286233186721802,0.391573965549469
1788681089783176700,17.5961767578125,1.3107004165649414,-0.5936381220817566,0.4329015612602234
1788681089799076400,17.612076416015626,1.7101860046386719,-0.6604729294776917,0.22966605424880981
1788681089814915000,17.6279150390625,2.1579666137695312,-0.6970086097717285,-0.045638665556907654
1788681089830814700,17.643814697265626,2.11830997467041,-0.2824690341949463,0.005026042461395264
1788681089846714400,17.65971435546875,1.2545862197875977,0.055248141288757324,0.5863145589828491
1788681089862583600,17.67558349609375,-0.16756820678710938,0.2651594877243042,0.9752572774887085
1788681089878483200,17.691483154296876,-1.2588081359863281,0.23265790939331055,1.0284883975982666
1788681089894352100,17.70735205078125,-1.1265735626220703,-0.5879001617431641,0.6777685880661011
1788681089910221300,17.72322119140625,1.4623212814331055,-2.2914137840270996,0.014163613319396973
1788681089926090500,17.739090576171876,5.079373359680176,-3.3530101776123047,-0.44303905963897705
1788681089941990100,17.754990234375,6.53010368347168,-3.0025722980499268,-0.28722143173217773
1788681089957889800,17.770889892578126,3.7290258407592773,-2.4766664505004883,0.13221916556358337
1788681089973759000,17.786759033203126,-0.5784568786621094,-2.269904851913452,0.5126833915710449
1788681089989658600,17.80265869140625,-3.553685188293457,-2.06782865524292,0.6806195974349976
1788681090005527800,17.81852783203125,-4.946962833404541,-1.5507129430770874,0.8914934396743774
1788681090021427500,17.834427490234376,-4.706295967102051,-1.0858006477355957,0.9482797384262085
1788681090037296600,17.850296630859376,-3.518773078918457,-0.9543989300727844,0.8436806201934814
1788681090053165800,17.866165771484376,-1.9185948371887207,-1.0627206563949585,0.6702250242233276
1788681090069065500,17.8820654296875,-0.33516597747802734,-1.177959680557251,0.9293602705001831
1788681090084965000,17.897965087890626,0.8443336486816406,-1.3373870849609375,0.8571774959564209
1788681090100803600,17.913803466796875,1.1691169738769531,-1.2681525945663452,0.37656307220458984
1788681090116642300,17.929642333984376,0.7168445587158203,-0.8997145295143127,0.18639609217643738
1788681090132542000,17.9455419921875,-0.30120849609375,-0.4839027225971222,0.3318132162094116
1788681090148380700,17.961380615234376,-1.318202018737793,-0.13625037670135498,0.5529031157493591
1788681090164249600,17.97724951171875,-1.7049894332885742,0.14105921983718872,0.45912885665893555
1788681090180088300,17.99308837890625,-1.4937505722045898,0.4955887198448181,0.154173344373703
1788681090195988000,18.008988037109376,-1.0720462799072266,0.6964120864868164,-0.010758697986602783
1788681090211918000,18.02491796875,-0.7333259582519531,0.6605209708213806,-0.07843092083930969
1788681090227787300,18.040787353515626,-0.5234050750732422,0.5516844987869263,-0.0012185871601104736
1788681090243687000,18.05668701171875,-0.31162261962890625,0.3683231472969055,-0.010795772075653076
1788681090259525600,18.072525634765626,-0.1875600814819336,0.2792050838470459,-0.1526947021484375
1788681090275425300,18.08842529296875,0.06880378723144531,0.19716155529022217,-0.10711586475372314
1788681090291294500,18.10429443359375,0.3524045944213867,0.1898362636566162,-0.057826608419418335
1788681090307194000,18.120194091796876,0.6437263488769531,0.2807670831680298,-0.1605333685874939
1788681090323063000,18.13606298828125,0.6348991394042969,0.29041337966918945,-0.1198345422744751
1788681090338932200,18.15193212890625,0.6012477874755859,0.06052124500274658,0.04049082100391388
1788681090354771000,18.16777099609375,0.7262287139892578,-0.29214680194854736,0.013689577579498291
1788681090370701000,18.183701171875,1.273604393005371,-0.5102362036705017,-0.04109737277030945
1788681090386570200,18.1995703125,1.9629478454589844,-0.5371692180633545,0.20363880693912506
1788681090402470000,18.215469970703126,2.0169153213500977,-0.33852076530456543,0.263595849275589
1788681090418339000,18.231339111328126,1.4258222579956055,0.06764686107635498,-0.17732538282871246
1788681090434177800,18.247177734375,0.8864784240722656,0.08650076389312744,-0.6361391544342041
1788681090450077400,18.263077392578126,0.997035026550293,-0.6309327483177185,-0.3695347011089325
1788681090465916000,18.278916015625,2.9522085189819336,-2.00874924659729,-0.27302902936935425
1788681090481815600,18.294815673828126,5.450381278991699,-3.2848448753356934,-0.5048788189888
1788681090497715200,18.310715087890625,5.9469194412231445,-3.5770435333251953,-0.7912383675575256
1788681090513554000,18.326553955078126,3.561367988586426,-3.068143129348755,-1.264530897140503
1788681090529423000,18.342423095703126,0.5136642456054688,-2.833329200744629,-1.2848336696624756
1788681090545292300,18.358292236328126,-2.367297649383545,-2.6085500717163086,-0.8393839597702026
1788681090561192000,18.37419189453125,-3.6626439094543457,-1.9209169149398804,-0.31501010060310364
1788681090577060900,18.390060791015625,-3.837547779083252,-2.0500993728637695,-1.2252119779586792
1788681090592930000,18.405929931640625,-2.400203227996826,-2.083583116531372,-1.497363567352295
1788681090608829700,18.42182958984375,-0.9067745208740234,-1.7905691862106323,-1.2206406593322754
1788681090624699000,18.437698974609376,-0.055962562561035156,-1.4586544036865234,-0.8543059229850769
1788681090640659700,18.45365966796875,0.04012298583984375,-1.4332395792007446,-0.33575960993766785
1788681090656559400,18.469559326171876,-0.3092947006225586,-1.4447399377822876,0.0968460738658905
1788681090672459000,18.485458984375,-0.3652639389038086,-1.1873458623886108,0.2964634299278259
1788681090688328000,18.501327880859375,-0.7693929672241211,-0.9706696271896362,-0.29642254114151
1788681090704227800,18.517227783203126,-1.383030891418457,-0.5719587206840515,-1.272939682006836
1788681090720158000,18.533157958984376,-2.1798949241638184,-0.5543999671936035,-0.8509209156036377
1788681090736027100,18.549027099609376,-2.6472573280334473,-0.1816784143447876,-0.02793961763381958
1788681090751865600,18.564865478515625,-2.5818448066711426,0.47277045249938965,0.7032968997955322
1788681090767795700,18.580795654296875,-1.9372835159301758,0.40528976917266846,0.7304791212081909
1788681090783695600,18.596695556640626,-0.8222141265869141,0.18519127368927002,0.8118731379508972
1788681090799534000,18.6125341796875,0.08413219451904297,0.33827900886535645,0.16995108127593994
1788681090815403300,18.6284033203125,0.230194091796875,0.22558236122131348,0.011937320232391357
1788681090831272400,18.6442724609375,-0.3246612548828125,-0.029102087020874023,-0.24530279636383057
1788681090847141600,18.6601416015625,-0.14640522003173828,0.03684532642364502,-0.009357750415802002
1788681090863071700,18.67607177734375,0.19112205505371094,0.07860684394836426,-0.10299104452133179
1788681090878941000,18.69194091796875,0.4019155502319336,-0.07411551475524902,0.08304011821746826
1788681090894840600,18.707840576171876,0.7315902709960938,-0.24572932720184326,0.6183781623840332
1788681090910740200,18.723740234375,0.9198808670043945,-0.34819698333740234,0.5379875302314758
1788681090926639900,18.739639892578126,1.3651971817016602,-0.6433200836181641,0.17477454245090485
1788681090942539500,18.75553955078125,1.9167461395263672,-0.8028111457824707,-0.5271568298339844
1788681090958408700,18.77140869140625,2.0876340866088867,-0.4944670796394348,-0.9185723066329956
1788681090974247200,18.7872470703125,1.6377487182617188,-0.2549152374267578,-0.36498087644577026
1788681090990116400,18.803116455078126,1.0943841934204102,-0.3674607276916504,0.8800622224807739
1788681091005985500,18.818985595703126,1.0622835159301758,-0.8512395620346069,2.0570530891418457
1788681091021885200,18.83488525390625,1.9762744903564453,-1.7580702304840088,2.6546072959899902
1788681091037784800,18.850784912109376,3.552027702331543,-2.696751117706299,1.9036448001861572
1788681091053684500,18.8666845703125,4.909524917602539,-3.281095504760742,0.6600906848907471
1788681091069523200,18.882523193359376,4.802299499511719,-3.5364060401916504,-0.3237605392932892
1788681091085392400,18.898392333984376,3.2094526290893555,-3.6268272399902344,-0.7073280811309814
1788681091101322500,18.914322509765626,0.9696998596191406,-3.424691677093506,-0.5905776619911194
1788681091117191700,18.930191650390626,-1.3291206359863281,-2.8076138496398926,-0.3747313618659973
1788681091133091300,18.94609130859375,-3.1810903549194336,-2.067007303237915,-0.052144646644592285
1788681091148960300,18.961960205078125,-4.123493194580078,-1.3594245910644531,0.556538462638855
1788681091164829400,18.977829345703125,-4.0899224281311035,-0.9116158485412598,1.4493005275726318
1788681091180668200,18.993668212890626,-3.115017890930176,-0.5577846765518188,2.1844096183776855
1788681091196567800,19.00956787109375,-1.684126377105713,-0.39337265491485596,2.0720725059509277
1788681091212437000,19.02543701171875,-0.5647974014282227,-0.48754024505615234,1.4629645347595215
1788681091228367000,19.0413671875,0.23403453826904297,-0.7819361686706543,0.9664778709411621
1788681091244297200,19.057297119140625,0.6146011352539062,-0.9302943348884583,0.4279130697250366
1788681091260196900,19.07319677734375,0.6364631652832031,-0.7367057204246521,-0.15530574321746826
1788681091276127200,19.089127197265626,0.21674251556396484,-0.44341564178466797,-0.37832170724868774
1788681091291965700,19.104965576171875,-0.18190479278564453,-0.16861093044281006,-0.19424432516098022
1788681091307865300,19.120865234375,-0.4477882385253906,0.12943851947784424,0.0676087737083435
1788681091323704000,19.1367041015625,-0.3063211441040039,0.42536890506744385,0.4759508967399597
1788681091339603700,19.152603759765626,-0.1641254425048828,0.60469651222229,0.8507567048072815
1788681091355473000,19.168472900390626,-0.14990901947021484,0.6540510654449463,0.9792609810829163
1788681091371372500,19.18437255859375,-0.09150314331054688,0.5211402177810669,0.8232383728027344
1788681091387241700,19.20024169921875,-0.14769935607910156,0.32288026809692383,0.1951209306716919
1788681091403110700,19.216110595703125,-0.23885059356689453,0.15146946907043457,-0.31019967794418335
1788681091418979800,19.231979736328125,-0.202728271484375,0.07560503482818604,-0.4901629090309143
1788681091434849000,19.24784912109375,-0.03101348876953125,0.05400800704956055,-0.5326904058456421
1788681091450718200,19.26371826171875,0.197540283203125,-0.04030036926269531,-0.4259914755821228
1788681091466617900,19.279617919921876,0.6641092300415039,-0.1424856185913086,-0.3172079920768738
1788681091482548000,19.2955478515625,1.2638864517211914,-0.384967565536499,-0.34904980659484863
1788681091498417200,19.311417236328126,1.904489517211914,-0.6570267677307129,-0.5318276286125183
1788681091514286300,19.327286376953126,2.1649646759033203,-0.8046163320541382,-0.883836030960083
1788681091530155500,19.343155517578126,1.9377098083496094,-0.6926999092102051,-1.4086140394210815
1788681091545994000,19.358993896484375,1.5386123657226562,-0.25048327445983887,-1.7640125751495361
1788681091561893600,19.3748935546875,1.3021812438964844,0.31691932678222656,-1.4474895000457764
1788681091577793300,19.390793212890625,1.3326387405395508,0.4908754825592041,0.2741018533706665
1788681091593693000,19.40669287109375,1.5863008499145508,-0.33162736892700195,2.7496418952941895
1788681091609592800,19.4225927734375,2.727532386779785,-1.6308960914611816,3.2537758350372314
1788681091625461800,19.438461669921875,2.8206892013549805,-2.6137263774871826,1.2723734378814697
1788681091641331000,19.4543310546875,1.8819770812988281,-3.025514841079712,-0.641319751739502
1788681091657261000,19.470260986328125,0.19457626342773438,-3.0993692874908447,-1.2953153848648071
1788681091673191400,19.48619140625,-1.5733270645141602,-2.7699971199035645,-1.1060163974761963
1788681091689060400,19.502060302734375,-2.1565704345703125,-2.1790709495544434,-0.6766542792320251
1788681091704899000,19.517899169921876,-1.9118809700012207,-1.8914480209350586,0.1256597638130188
1788681091720768300,19.533768310546876,-1.4780006408691406,-2.036710262298584,1.2015131711959839
1788681091736668000,19.54966796875,-1.2683534622192383,-2.3365280628204346,1.8159794807434082
1788681091752598000,19.565597900390625,-1.0855598449707031,-2.4923274517059326,1.7563025951385498
1788681091768467200,19.58146728515625,-0.9463033676147461,-2.5135130882263184,1.272963523864746
1788681091784366800,19.597366943359376,-0.5684328079223633,-2.4313089847564697,0.7487102746963501
1788681091800236000,19.613236083984376,-0.07306957244873047,-2.2980659008026123,0.3545699715614319
1788681091816105200,19.629105224609376,0.31508541107177734,-2.0002431869506836,0.11427885293960571
1788681091831943700,19.644943603515625,0.4343090057373047,-1.585866928100586,0.13718748092651367
1788681091847782400,19.660782470703126,0.1909656524658203,-1.1303131580352783,0.6079429984092712
1788681091863651600,19.676651611328126,-0.24864482879638672,-0.7767337560653687,1.1619943380355835
1788681091879520800,19.692520751953126,-0.7536697387695312,-0.47851884365081787,1.462374210357666
1788681091895420400,19.70842041015625,-1.0562553405761719,-0.19499468803405762,1.4389300346374512
1788681091911350500,19.7243505859375,-1.2587947845458984,-0.018621206283569336,1.31852126121521
1788681091927219700,19.7402197265625,-1.4379663467407227,-0.13324332237243652,1.3507856130599976
1788681091943058200,19.75605810546875,-1.4435815811157227,-0.47047746181488037,1.3014898300170898
1788681091958957800,19.771957763671875,-1.2330331802368164,-0.8387537002563477,1.057264804840088
1788681091974827000,19.787826904296875,-0.9841337203979492,-1.0090762376785278,0.8004899024963379
1788681091998631000,19.811630859375,-0.6098155975341797,-1.3389344215393066,0.5510974526405334
1788681092014469400,19.827469482421876,-0.3322257995605469,-1.7355914115905762,0.27117908000946045
1788681092030338600,19.843338623046876,0.1939563751220703,-1.9897966384887695,-0.060729026794433594
1788681092046238200,19.85923828125,0.9399595260620117,-2.2043941020965576,-0.4338639974594116
1788681092062137900,19.875137939453126,1.8619966506958008,-1.6691088676452637,-0.7379148006439209
1788681092078007000,19.891007080078126,3.0887346267700195,-1.3760888576507568,-0.7923650741577148
1788681092093937200,19.906937255859376,3.725566864013672,-0.9086049795150757,-0.5084323883056641
1788681092109806300,19.922806396484376,3.3505306243896484,-0.6796458959579468,0.7404977083206177
1788681092125706000,19.9387060546875,2.6706695556640625,-0.954985499382019,2.406733274459839
1788681092141605600,19.954605712890626,2.39483642578125,-1.7392288446426392,3.611237049102783
1788681092157535700,19.97053564453125,2.984529495239258,-2.73189115524292,2.965101480484009
1788681092173435400,19.986435302734375,3.533182144165039,-3.483135223388672,1.5631822347640991
1788681092189365800,20.00236572265625,3.655348777770996,-3.823634624481201,0.8696284294128418
1788681092205265400,20.018265380859376,3.06113338470459,-3.5737664699554443,1.1073665618896484
1788681092221165000,20.0341650390625,1.9134912490844727,-2.8818631172180176,1.7817509174346924
1788681092237064700,20.050064697265626,0.7353401184082031,-2.11863112449646,2.5821070671081543
1788681092252964400,20.06596435546875,-0.3731985092163086,-1.4865964651107788,3.0808229446411133
1788681092268833500,20.08183349609375,-0.8715324401855469,-0.8912072777748108,2.9448273181915283
1788681092284702500,20.097702392578125,-0.8349523544311523,-0.4704761505126953,2.6212430000305176
1788681092300632800,20.1136328125,-0.47212791442871094,-0.5591007471084595,2.530059814453125
1788681092316501800,20.129501708984375,0.05350971221923828,-1.0569404363632202,2.3020803928375244
1788681092332371000,20.145370849609375,0.36876964569091797,-1.5212129354476929,1.8817179203033447
