time,seconds_elapsed,z,y,x
1788681072351396900,0.16439697265625,9.756807327270508,0.9100543260574341,-0.3832772672176361
1788681072367296500,0.180296630859375,9.75550651550293,0.9312734603881836,-0.36497578024864197
1788681072383257000,0.196257080078125,9.757397651672363,0.8986531496047974,-0.3949796259403229
1788681072399126300,0.212126220703125,9.75902271270752,0.8704626560211182,-0.4173170328140259
1788681072414995500,0.227995361328125,9.760435104370117,0.8414471745491028,-0.4430088996887207
1788681072430864600,0.24386474609375,9.761448860168457,0.8188068866729736,-0.46265557408332825
1788681072446794800,0.259794677734375,9.76181411743164,0.8004344701766968,-0.4864812195301056
1788681072462694400,0.2756943359375,9.76138973236084,0.7913221716880798,-0.5093826055526733
1788681072478563600,0.2915634765625,9.760292053222656,0.7927263379096985,-0.5279016494750977
1788681072494432800,0.307432861328125,9.759068489074707,0.8054720759391785,-0.531210720539093
1788681072510301700,0.3233017578125,9.758217811584473,0.8247678279876709,-0.5170342326164246
1788681072526140400,0.339140380859375,9.758888244628906,0.8318406939506531,-0.49247074127197266
1788681072542040000,0.3550400390625,9.759720802307129,0.8347123265266418,-0.4706253707408905
1788681072557909200,0.3709091796875,9.760950088500977,0.830082893371582,-0.4530070722103119
1788681072573778400,0.3867783203125,9.759298324584961,0.8245668411254883,-0.4965587258338928
1788681072589647600,0.402647705078125,9.760527610778809,0.8092135190963745,-0.4976547062397003
1788681072605547300,0.41854736328125,9.762311935424805,0.7958906292915344,-0.48395445942878723
1788681072621447000,0.434447021484375,9.764505386352539,0.7871847152709961,-0.4529449939727783
1788681072637346600,0.4503466796875,9.76603889465332,0.7879238128662109,-0.4171902537345886
1788681072661150200,0.474150146484375,9.766877174377441,0.809228777885437,-0.35164135694503784
1788681072684953900,0.497953857421875,9.766097068786621,0.8495458960533142,-0.2683368921279907
1788681072700823000,0.513822998046875,9.76473331451416,0.8817592263221741,-0.20704945921897888
1788681072716722700,0.52972265625,9.762893676757812,0.9131120443344116,-0.15010157227516174
1788681072732622300,0.545622314453125,9.75844955444336,0.9681611061096191,-0.07556315511465073
1788681072748552400,0.561552490234375,9.753862380981445,1.0161086320877075,-0.009557900950312614
1788681072764421600,0.577421630859375,9.748246192932129,1.0663639307022095,0.07027928531169891
1788681072780290800,0.593290771484375,9.740843772888184,1.1229844093322754,0.15891841053962708
1788681072796160000,0.609159912109375,9.732706069946289,1.1786308288574219,0.23588640987873077
1788681072812059600,0.6250595703125,9.724813461303711,1.2267541885375977,0.30571576952934265
1788681072827989800,0.64098974609375,9.71912956237793,1.250165343284607,0.3820949196815491
1788681072843859000,0.65685888671875,9.712811470031738,1.2749786376953125,0.45400795340538025
1788681072859789000,0.6727890625,9.705924987792969,1.3115044832229614,0.4953378438949585
1788681072875688700,0.688688720703125,9.695399284362793,1.382185935974121,0.5090977549552917
1788681072891588400,0.70458837890625,9.687578201293945,1.4257194995880127,0.5371690988540649
1788681072907488000,0.720488037109375,9.689421653747559,1.4100011587142944,0.5453386902809143
1788681072923357200,0.736357177734375,9.700173377990723,1.3361129760742188,0.5401952266693115
1788681072939196000,0.75219580078125,9.71992301940918,1.2028048038482666,0.49673694372177124
1788681072955126000,0.7681259765625,9.73559284210205,1.0960043668746948,0.4328888952732086
1788681072970964700,0.78396484375,9.747647285461426,0.9964740872383118,0.400989294052124
1788681072986833700,0.799833740234375,9.759720802307129,0.8840689659118652,0.36968371272087097
1788681073002702800,0.815702880859375,9.769545555114746,0.7816694974899292,0.33964332938194275
1788681073018572000,0.831572021484375,9.775175094604492,0.7155733704566956,0.32292190194129944
1788681073034441200,0.847441162109375,9.776870727539062,0.6927834749221802,0.3213117718696594
1788681073050340900,0.8633408203125,9.777374267578125,0.6838603019714355,0.3250788450241089
1788681073074175000,0.887175048828125,9.776971817016602,0.7003729939460754,0.30115148425102234
1788681073090044200,0.903044189453125,9.770742416381836,0.785619854927063,0.292887806892395
1788681073105913300,0.918913330078125,9.754742622375488,0.9458427429199219,0.34752321243286133
1788681073121782500,0.934782470703125,9.734973907470703,1.0969021320343018,0.44437867403030396
1788681073137743000,0.9507431640625,9.72376537322998,1.161395788192749,0.5195523500442505
1788681073153612300,0.9666123046875,9.728006362915039,1.1309820413589478,0.5071112513542175
1788681073169512000,0.982511962890625,9.736417770385742,1.0923590660095215,0.42344895005226135
1788681073185381000,0.998381103515625,9.738262176513672,1.1076663732528687,0.33122584223747253
1788681073201250300,1.014250244140625,9.733512878417969,1.166876196861267,0.2598496377468109
1788681073217119500,1.030119384765625,9.724215507507324,1.246948003768921,0.23483975231647491
1788681073233019100,1.04601904296875,9.714790344238281,1.315933108329773,0.24810384213924408
1788681073248918800,1.061918701171875,9.709235191345215,1.3510640859603882,0.2752528190612793
1788681073264818400,1.077818359375,9.707050323486328,1.3644431829452515,0.28610673546791077
1788681073288683300,1.101683349609375,9.700578689575195,1.4154011011123657,0.25651517510414124
1788681073304613400,1.11761328125,9.689876556396484,1.4921784400939941,0.22380660474300385
1788681073320482600,1.133482666015625,9.674345970153809,1.5929969549179077,0.19946369528770447
1788681073336382200,1.14938232421875,9.656023025512695,1.7015223503112793,0.19088499248027802
1788681073360185900,1.173185791015625,9.636012077331543,1.8078727722167969,0.22194620966911316
1788681073376055000,1.189054931640625,9.633732795715332,1.8175216913223267,0.24123619496822357
1788681073391954700,1.20495458984375,9.63929557800293,1.7875120639801025,0.2432229071855545
1788681073407824000,1.220823974609375,9.647832870483398,1.7435226440429688,0.2232554852962494
1788681073423754000,1.23675390625,9.656508445739746,1.6991974115371704,0.1869410127401352
1788681073439623200,1.252623046875,9.668537139892578,1.633968710899353,0.1411130279302597
1788681073455553300,1.26855322265625,9.674321174621582,1.6033530235290527,0.08461859822273254
1788681073471422500,1.28442236328125,9.673935890197754,1.6062897443771362,0.07192783057689667
1788681073487291600,1.300291748046875,9.67119026184082,1.6224323511123657,0.0786152333021164
1788681073503160600,1.31616064453125,9.667693138122559,1.6425225734710693,0.09059745073318481
1788681073526995000,1.339994873046875,9.663476943969727,1.6669070720672607,0.0949108749628067
1788681073542925000,1.355925048828125,9.666805267333984,1.6488227844238281,0.06818506121635437
1788681073558763800,1.371763671875,9.67617130279541,1.5942751169204712,0.019500838592648506
1788681073574663400,1.387663330078125,9.694844245910645,1.4760096073150635,-0.04213613644242287
1788681073590563000,1.40356298828125,9.717227935791016,1.317438006401062,-0.10118479281663895
1788681073606493200,1.4194931640625,9.738003730773926,1.1507233381271362,-0.13230477273464203
1788681073622423300,1.43542333984375,9.75361442565918,1.0093023777008057,-0.13676106929779053
1788681073638323000,1.451322998046875,9.76313591003418,0.9143145084381104,-0.12485738843679428
1788681073654253300,1.46725341796875,9.768491744995117,0.8578236103057861,-0.1054011881351471
1788681073678057000,1.491056884765625,9.770489692687988,0.8378915190696716,-0.07656119763851166
1788681073693987000,1.506987060546875,9.76954460144043,0.8484753370285034,-0.08047691732645035
1788681073709856300,1.522856201171875,9.768486976623535,0.857275664806366,-0.11012144386768341
1788681073725756000,1.538755859375,9.768529891967773,0.8497924208641052,-0.15510857105255127
1788681073741625000,1.554625,9.77008056640625,0.8183305263519287,-0.21504972875118256
1788681073757494300,1.570494384765625,9.77044677734375,0.7875954508781433,-0.29741087555885315
1788681073773332700,1.586332763671875,9.769009590148926,0.7807352542877197,-0.35677358508110046
1788681073789232400,1.602232421875,9.766639709472656,0.7992381453514099,-0.37994515895843506
1788681073805101600,1.6181015625,9.763296127319336,0.8175415992736816,-0.4243279993534088
1788681073821001200,1.634001220703125,9.757235527038574,0.8653152585029602,-0.46687808632850647
1788681073836870400,1.649870361328125,9.751582145690918,0.9072045087814331,-0.5040106773376465
1788681073852739600,1.665739501953125,9.74449634552002,0.9477216601371765,-0.5630373358726501
1788681073868639200,1.68163916015625,9.719684600830078,1.0013399124145508,-0.8339274525642395
1788681073884508400,1.69750830078125,9.717674255371094,0.997783899307251,-0.8611804246902466
1788681073900408000,1.713407958984375,9.719332695007324,0.9609195590019226,-0.8840691447257996
1788681073916277200,1.72927734375,9.723809242248535,0.8959155082702637,-0.9029223918914795
1788681073932207400,1.745207275390625,9.733541488647461,0.8373120427131653,-0.8529168963432312
1788681073948076500,1.76107666015625,9.742704391479492,0.7868819832801819,-0.7943019270896912
1788681073963945500,1.776945556640625,9.749618530273438,0.7641468048095703,-0.7289766073226929
1788681073979814700,1.792814697265625,9.756158828735352,0.7326205968856812,-0.6715726256370544
1788681073995745000,1.8087451171875,9.76077938079834,0.6853542923927307,-0.6541094779968262
1788681074011644700,1.824644775390625,9.764138221740723,0.6313875317573547,-0.6582773327827454
1788681074027635700,1.8406357421875,9.767868995666504,0.5774213671684265,-0.6524558663368225
1788681074043505000,1.8565048828125,9.772589683532715,0.5205679535865784,-0.6291999816894531
1788681074059374000,1.8723740234375,9.777628898620605,0.46687963604927063,-0.5919322371482849
1788681074075273700,1.888273681640625,9.782115936279297,0.4286215901374817,-0.5448668003082275
1788681074091143000,1.904142822265625,9.785268783569336,0.41757187247276306,-0.494517058134079
1788681074107012000,1.92001220703125,9.787150382995605,0.4238620102405548,-0.4499267041683197
1788681074122881000,1.935881103515625,9.78770923614502,0.4382259249687195,-0.4231944680213928
1788681074138750200,1.951750244140625,9.787302017211914,0.45394232869148254,-0.415986031293869
1788681074154649900,1.96764990234375,9.786264419555664,0.4718923568725586,-0.4204021096229553
1788681074170519000,1.98351904296875,9.784463882446289,0.5008012056350708,-0.4287773072719574
1788681074186418700,1.999418701171875,9.781668663024902,0.5426375269889832,-0.44145289063453674
1788681074202287900,2.015287841796875,9.77839183807373,0.5856876373291016,-0.45871713757514954
1788681074218187500,2.0311875,9.775246620178223,0.7071524858474731,-0.3389323949813843
1788681074234117600,2.04711767578125,9.771418571472168,0.7849245071411133,-0.27141645550727844
1788681074249986800,2.06298681640625,9.772141456604004,0.764992356300354,-0.30070775747299194
1788681074265856000,2.07885595703125,9.773917198181152,0.7280651926994324,-0.33295148611068726
1788681074281786000,2.0947861328125,9.776409149169922,0.6834539771080017,-0.35368674993515015
1788681074297624800,2.110624755859375,9.779233932495117,0.6405500173568726,-0.35590165853500366
1788681074313524500,2.1265244140625,9.782327651977539,0.5979683995246887,-0.34480443596839905
1788681074329393700,2.1423935546875,9.785603523254395,0.5578551888465881,-0.3180350661277771
1788681074345354200,2.158354248046875,9.78850269317627,0.5256757140159607,-0.2815437316894531
1788681074361223400,2.174223388671875,9.790213584899902,0.5122917890548706,-0.24426330626010895
1788681074377123000,2.190123046875,9.790331840515137,0.5237736105918884,-0.21317294239997864
1788681074392992300,2.2059921875,9.788976669311523,0.5566944479942322,-0.19082115590572357
1788681074408922400,2.22192236328125,9.786457061767578,0.6042146682739258,-0.17483921349048615
1788681074424791600,2.23779150390625,9.783320426940918,0.6565498113632202,-0.16113321483135223
1788681074440660700,2.25366064453125,9.780753135681152,0.6963149905204773,-0.1496722251176834
1788681074456560400,2.269560302734375,9.753680229187012,1.0125176906585693,-0.10450968146324158
1788681074472460000,2.2854599609375,9.747871398925781,1.0683879852294922,-0.08904862403869629
1788681074488329200,2.3013291015625,9.750697135925293,1.0421473979949951,-0.09071120619773865
1788681074504259300,2.31725927734375,9.753900527954102,1.0116769075393677,-0.09124071151018143
1788681074520128500,2.33312841796875,9.755683898925781,0.9935592412948608,-0.09930145740509033
1788681074535997700,2.348997802734375,9.732319831848145,1.2046146392822266,-0.03528429940342903
1788681074551897300,2.3648974609375,9.693432807922363,1.4843727350234985,0.06626083701848984
1788681074567827500,2.380827392578125,9.676506996154785,1.5883662700653076,0.11265560239553452
1788681074583666200,2.396666259765625,9.669310569763184,1.6300626993179321,0.13312534987926483
1788681074599535000,2.41253515625,9.662240982055664,1.670747995376587,0.1417245715856552
1788681074615404300,2.428404296875,9.658472061157227,1.6924766302108765,0.14081476628780365
1788681074631304000,2.444303955078125,9.657702445983887,1.6959466934204102,0.1514628678560257
1788681074647173000,2.460173095703125,9.659039497375488,1.686660885810852,0.16884814202785492
1788681074663042300,2.476042236328125,9.655021667480469,1.7075550556182861,0.18761610984802246
1788681074678911500,2.491911376953125,9.654093742370605,1.7111133337020874,0.20237034559249878
1788681074694811100,2.50781103515625,9.652939796447754,1.7157820463180542,0.21733953058719635
1788681074710741200,2.5237412109375,9.651300430297852,1.7227706909179688,0.23418575525283813
1788681074726610400,2.5396103515625,9.651689529418945,1.7185897827148438,0.24842144548892975
1788681074742540500,2.55554052734375,9.656336784362793,1.6918327808380127,0.2514742910861969
1788681074758409700,2.57140966796875,9.657437324523926,1.6863712072372437,0.24586884677410126
1788681074774279000,2.58727880859375,9.65942668914795,1.6756577491760254,0.24090497195720673
1788681074790148000,2.603148193359375,9.659383773803711,1.6739641427993774,0.25405263900756836
1788681074806017000,2.61901708984375,9.657180786132812,1.6820526123046875,0.28273630142211914
1788681074821886200,2.63488623046875,9.653360366821289,1.6930546760559082,0.34144213795661926
1788681074837755400,2.65075537109375,9.650793075561523,1.6893658638000488,0.4226406514644623
1788681074853624600,2.66662451171875,9.6517915725708,1.6608418226242065,0.5048914551734924
1788681074869463300,2.68246337890625,9.655600547790527,1.6233819723129272,0.5517222285270691
1788681074885393400,2.698393310546875,9.655792236328125,1.6146509647369385,0.5735477805137634
1788681074901262600,2.7142626953125,9.64826774597168,1.6553823947906494,0.583973228931427
1788681074917131500,2.730131591796875,9.631429672241211,1.748647689819336,0.5900654196739197
1788681074933000700,2.746000732421875,9.609936714172363,1.865744709968567,0.5818045139312744
1788681074948900400,2.761900390625,9.590458869934082,1.966724157333374,0.5705041289329529
1788681074964830700,2.777830810546875,9.58114242553711,2.0110292434692383,0.5725885033607483
1788681074980699600,2.79369970703125,9.585734367370605,1.986543893814087,0.5811493396759033
1788681074996538400,2.809538330078125,9.602011680603027,1.9050469398498535,0.5852794647216797
1788681075012407600,2.825407470703125,9.624216079711914,1.791606068611145,0.578790009021759
1788681075028307200,2.84130712890625,9.645964622497559,1.679964542388916,0.5508698225021362
1788681075044176400,2.85717626953125,9.664125442504883,1.586181402206421,0.5090031027793884
1788681075060045600,2.873045654296875,9.677538871765137,1.5172091722488403,0.46228131651878357
1788681075075975700,2.8889755859375,9.68142318725586,1.5001899003982544,0.4357461929321289
1788681075091844900,2.904844970703125,9.679043769836426,1.5199850797653198,0.41968485713005066
1788681075107683300,2.920683349609375,9.67074966430664,1.5717788934707642,0.4201103448867798
1788681075123613400,2.936613525390625,9.66278076171875,1.6205180883407593,0.41830581426620483
1788681075139482600,2.952482666015625,9.657838821411133,1.651383399963379,0.411683052778244
1788681075155382300,2.96838232421875,9.655379295349121,1.6648273468017578,0.4152029752731323
1788681075171282000,2.984281982421875,9.656003952026367,1.6608905792236328,0.4164378345012665
1788681075187151000,3.000151123046875,9.659865379333496,1.6382631063461304,0.41651979088783264
1788681075203081200,3.016081298828125,9.66528034210205,1.6060510873794556,0.4163420796394348
1788681075218950400,3.031950439453125,9.67081356048584,1.573168158531189,0.41338908672332764
1788681075234819600,3.047819580078125,9.675455093383789,1.546871304512024,0.4039100706577301
1788681075250719200,3.06371923828125,9.665694236755371,1.6561684608459473,-0.04291585460305214
1788681075266588400,3.07958837890625,9.642173767089844,1.7430446147918701,-0.4008282423019409
1788681075282518500,3.0955185546875,9.630351066589355,1.7602486610412598,-0.5729305744171143
1788681075298387700,3.1113876953125,9.630147933959961,1.7387363910675049,-0.6382992267608643
1788681075314257000,3.1272568359375,9.631056785583496,1.7225691080093384,-0.6677419543266296
1788681075330126000,3.1431259765625,9.627434730529785,1.7395741939544678,-0.6758378148078918
1788681075345934000,3.15893408203125,9.620638847351074,1.7744758129119873,-0.6818559169769287
1788681075361864200,3.1748642578125,9.61085319519043,1.8251854181289673,-0.6859992146492004
1788681075377763800,3.190763916015625,9.5975980758667,1.8926327228546143,-0.6888026595115662
1788681075393663500,3.20666357421875,9.57958698272705,1.9815932512283325,-0.6893386840820312
1788681075409532700,3.22253271484375,9.555939674377441,2.0929362773895264,-0.6884963512420654
1788681075425432300,3.238432373046875,9.529035568237305,2.2125396728515625,-0.6874150037765503
1788681075441393200,3.25439306640625,9.504975318908691,2.312997341156006,-0.6898511648178101
1788681075457262300,3.270262451171875,9.493435859680176,2.3558382987976074,-0.7036261558532715
1788681075473131300,3.28613134765625,9.495415687561035,2.3389933109283447,-0.7325161099433899
1788681075489031200,3.30203125,9.50521183013916,2.2877683639526367,-0.7664562463760376
1788681075504900000,3.317900146484375,9.515125274658203,2.240206003189087,-0.78373783826828
1788681075520830500,3.33383056640625,9.521746635437012,2.217787504196167,-0.7669041156768799
1788681075536730000,3.349730224609375,9.524781227111816,2.219449281692505,-0.7231689691543579
1788681075560564200,3.373564208984375,9.525858879089355,2.2354137897491455,-0.6567422151565552
1788681075576433400,3.389433349609375,9.527170181274414,2.2353053092956543,-0.6378228664398193
1788681075592333000,3.4053330078125,9.527898788452148,2.230323553085327,-0.6443526148796082
1788681075640001500,3.45300146484375,9.557933807373047,2.087711811065674,-0.6765739321708679
1788681075655870700,3.46887060546875,9.576223373413086,2.0031375885009766,-0.6736232042312622
1788681075671740000,3.484739990234375,9.595134735107422,1.9234509468078613,-0.6357054114341736
1788681075687608800,3.50060888671875,9.608426094055176,1.8714094161987305,-0.5885211825370789
1788681075703539200,3.516539306640625,9.612934112548828,1.8599692583084106,-0.5499176383018494
1788681075719408000,3.532408203125,9.611549377441406,1.875892996788025,-0.5191697478294373
1788681075735277300,3.54827734375,9.608285903930664,1.9002739191055298,-0.49009522795677185
1788681075751116000,3.564115966796875,9.608782768249512,1.9089665412902832,-0.44442620873451233
1788681075767015700,3.580015625,9.61419677734375,1.8946894407272339,-0.3843955993652344
1788681075782884900,3.595884765625,9.621535301208496,1.8674474954605103,-0.3302832245826721
1788681075798754000,3.611754150390625,9.627202987670898,1.8450831174850464,-0.28816187381744385
1788681075814623000,3.627623046875,9.628884315490723,1.8402931690216064,-0.26132699847221375
1788681075830492200,3.6434921875,9.626119613647461,1.8561707735061646,-0.2506676912307739
1788681075846361300,3.659361328125,9.622889518737793,1.875016450881958,-0.23386560380458832
1788681075862200000,3.675199951171875,9.621904373168945,1.8831015825271606,-0.20803788304328918
1788681075878069200,3.6910693359375,9.649191856384277,1.732251524925232,-0.25056686997413635
1788681075893938200,3.706938232421875,9.66816234588623,1.616190791130066,-0.2914601266384125
1788681075909807400,3.722807373046875,9.664082527160645,1.638792872428894,-0.3004191517829895
1788681075925707000,3.73870703125,9.655875205993652,1.68316650390625,-0.31845396757125854
1788681075941606700,3.754606689453125,9.645249366760254,1.7427741289138794,-0.31982067227363586
1788681075957445400,3.7704453125,9.633615493774414,1.8102843761444092,-0.2944447100162506
1788681075973314600,3.786314453125,9.621770858764648,1.8797990083694458,-0.24137721955776215
1788681075989183700,3.802183837890625,9.611002922058105,1.942427158355713,-0.16119901835918427
1788681076005083400,3.81808349609375,9.6047945022583,1.9790287017822266,-0.04204392805695534
1788681076021013500,3.834013427734375,9.605829238891602,1.9704006910324097,0.1263292133808136
1788681076036913200,3.8499130859375,9.61341667175293,1.9119209051132202,0.3117084801197052
1788681076052812800,3.865812744140625,9.622387886047363,1.8337138891220093,0.4664021134376526
1788681076068682000,3.881681884765625,9.626096725463867,1.791588544845581,0.5466763973236084
1788681076084612000,3.897612060546875,9.622140884399414,1.8008512258529663,0.5845667719841003
1788681076100481300,3.913481201171875,9.61196517944336,1.8491002321243286,0.6011149883270264
1788681076116381000,3.929380859375,9.602653503417969,1.8967127799987793,0.601595938205719
1788681076132311000,3.94531103515625,9.602288246154785,1.8953152894973755,0.6117345094680786
1788681076164079900,3.977079833984375,9.624673843383789,1.741209626197815,0.710091233253479
1788681076179979500,3.9929794921875,9.640556335449219,1.63178551197052,0.7532179951667786
1788681076195909600,4.00890966796875,9.655858039855957,1.5353554487228394,0.7599195241928101
1788681076211778800,4.02477880859375,9.670014381408691,1.4564932584762573,0.7347440123558044
1788681076227739600,4.04073974609375,9.68115234375,1.4003180265426636,0.6962680220603943
1788681076243608600,4.056608642578125,9.687288284301758,1.3691670894622803,0.6724772453308105
1788681076259447300,4.072447265625,9.689041137695312,1.3606576919555664,0.6644343137741089
1788681076275347000,4.088346923828125,9.688047409057617,1.3676691055297852,0.664527952671051
1788681076291216100,4.104216064453125,9.68541431427002,1.3860405683517456,0.664861798286438
1788681076307115800,4.12011572265625,9.681072235107422,1.4131124019622803,0.6710748076438904
1788681076322985000,4.13598486328125,9.675613403320312,1.4421908855438232,0.6877383589744568
1788681076338823400,4.151823486328125,9.672286987304688,1.4602805376052856,0.6962984204292297
1788681076354723000,4.16772314453125,9.672231674194336,1.461409330368042,0.6947005391120911
1788681076370653400,4.1836533203125,9.674901008605957,1.4512569904327393,0.6786201596260071
1788681076386522600,4.199522705078125,9.677631378173828,1.4439533948898315,0.654863715171814
1788681076402452700,4.21545263671875,9.677902221679688,1.456510066986084,0.6222286820411682
1788681076418352400,4.231352294921875,9.673735618591309,1.4981884956359863,0.5870774388313293
1788681076434221600,4.2472216796875,9.664815902709961,1.563909649848938,0.5620565414428711
1788681076450151700,4.263151611328125,9.654982566833496,1.6243106126785278,0.5597425103187561
1788681076466020900,4.279020751953125,9.648492813110352,1.6557518243789673,0.5791940689086914
1788681076481890000,4.29489013671875,9.645184516906738,1.6660510301589966,0.6042263507843018
1788681076497759000,4.310759033203125,9.642324447631836,1.6760550737380981,0.6219301223754883
1788681076513689300,4.326689453125,9.635173797607422,1.7138124704360962,0.6298030614852905
1788681076529527800,4.34252783203125,9.622139930725098,1.7813907861709595,0.6414421796798706
1788681076545397000,4.35839697265625,9.608509063720703,1.8462581634521484,0.6620276570320129
1788681076561266200,4.37426611328125,9.60145092010498,1.8766942024230957,0.6786319017410278
1788681076577165800,4.390165771484375,9.604066848754883,1.867759108543396,0.6661571264266968
1788681076593035000,4.406034912109375,9.610477447509766,1.8465830087661743,0.6318550109863281
1788681076608904200,4.421904296875,9.611456871032715,1.8488556146621704,0.6099369525909424
1788681076624773000,4.437773193359375,9.603429794311523,1.8896485567092896,0.6113412976264954
1788681076640642300,4.453642333984375,9.58936882019043,1.954593539237976,0.6276613473892212
1788681076656481000,4.46948095703125,9.575979232788086,2.012444496154785,0.648906409740448
1788681076672350200,4.48535009765625,9.573975563049316,2.02087140083313,0.6522764563560486
1788681076688249900,4.501249755859375,9.583115577697754,1.9850492477416992,0.6275807023048401
1788681076704180000,4.517179931640625,9.59988021850586,1.9149327278137207,0.5879803895950317
1788681076720049200,4.533049072265625,9.619410514831543,1.8249653577804565,0.5539265275001526
1788681076735948800,4.54894873046875,9.637043952941895,1.7376118898391724,0.5276966691017151
1788681076751848400,4.564848388671875,9.650506019592285,1.6676241159439087,0.5071084499359131
1788681076767778600,4.580778564453125,9.657225608825684,1.6281991004943848,0.5072923302650452
1788681076783647700,4.596647705078125,9.658185005187988,1.617075800895691,0.5243171453475952
1788681076799517000,4.612516845703125,9.65540885925293,1.624832034111023,0.5508047938346863
1788681076815447000,4.628447021484375,9.654010772705078,1.628226637840271,0.5650972127914429
1788681076831377200,4.644377197265625,9.652660369873047,1.6200352907180786,0.609946072101593
1788681076847276800,4.66027685546875,9.653966903686523,1.5975403785705566,0.6474434733390808
1788681076863146000,4.67614599609375,9.656255722045898,1.5617334842681885,0.6986425518989563
1788681076879015200,4.69201513671875,9.658166885375977,1.5200248956680298,0.7613944411277771
1788681076894914800,4.707914794921875,9.658601760864258,1.481446385383606,0.8289283514022827
1788681076910784000,4.723783935546875,9.657769203186035,1.4530812501907349,0.886816680431366
1788681076926653200,4.739653076171875,9.665586471557617,1.4456294775009155,0.8105400204658508
1788681076942552800,4.755552734375,9.678346633911133,1.444151759147644,0.6437612771987915
1788681076958422000,4.771422119140625,9.675399780273438,1.454140305519104,0.6652020812034607
1788681076974321700,4.78732177734375,9.672394752502441,1.4669214487075806,0.6806703209877014
1788681076990160100,4.80316015625,9.670741081237793,1.472032904624939,0.6930129528045654
1788681077006059800,4.819059814453125,9.67898941040039,1.4429724216461182,0.6366921663284302
1788681077021929000,4.834928955078125,9.68557071685791,1.4125605821609497,0.6039712429046631
1788681077037828600,4.85082861328125,9.685319900512695,1.4134714603424072,0.6058531999588013
1788681077053728300,4.866728271484375,9.682711601257324,1.432411551475525,0.6030643582344055
1788681077069628000,4.8826279296875,9.676909446716309,1.471289873123169,0.602594256401062
1788681077085527600,4.898527587890625,9.66898250579834,1.5148693323135376,0.621550440788269
1788681077101427200,4.91442724609375,9.661674499511719,1.538172721862793,0.6756148338317871
1788681077117326800,4.930326904296875,9.658541679382324,1.523828387260437,0.74893718957901
1788681077133226500,4.9462265625,9.661011695861816,1.4518250226974487,0.8529078960418701
1788681077149126100,4.962126220703125,9.664422035217285,1.3617461919784546,0.9565457701683044
1788681077164995300,4.977995361328125,9.663935661315918,1.3146847486495972,1.02485990524292
1788681077180864500,4.993864501953125,9.657468795776367,1.3368327617645264,1.0566807985305786
1788681077196764200,5.00976416015625,9.644947052001953,1.4217606782913208,1.060179352760315
1788681077212663800,5.025663818359375,9.632752418518066,1.5198220014572144,1.0347059965133667
1788681077228533000,5.041532958984375,9.626035690307617,1.5836454629898071,1.0009446144104004
1788681077244402200,5.057402099609375,9.628565788269043,1.5731995105743408,0.9930518269538879
1788681077260301800,5.0733017578125,9.637871742248535,1.4964730739593506,1.0209681987762451
1788681077276171000,5.0891708984375,9.651491165161133,1.3890950679779053,1.04380202293396
1788681077292040200,5.105040283203125,9.666797637939453,1.284653663635254,1.035892128944397
1788681077308000800,5.121000732421875,9.684247016906738,1.2028461694717407,0.9689785242080688
1788681077323900400,5.136900390625,9.697731971740723,1.1643811464309692,0.8766983151435852
1788681077339769600,5.15276953125,9.70487117767334,1.1605422496795654,0.7993838787078857
1788681077355669200,5.168669189453125,9.707011222839355,1.1717190742492676,0.7559130191802979
1788681077371538400,5.184538330078125,9.706095695495605,1.185770034790039,0.7456769347190857
1788681077387407600,5.20040771484375,9.703843116760254,1.2014744281768799,0.7498579621315002
1788681077403276500,5.216276611328125,9.701664924621582,1.2177462577819824,0.7517848610877991
1788681077419176200,5.23217626953125,9.700072288513184,1.2321501970291138,0.7488664984703064
1788681077435015000,5.248014892578125,9.699349403381348,1.2413333654403687,0.7430365681648254
1788681077450914600,5.26391455078125,9.69954776763916,1.2445292472839355,0.7350481152534485
1788681077466814200,5.279814208984375,9.700230598449707,1.247572660446167,0.7207474112510681
1788681077482683400,5.295683349609375,9.70538330078125,1.2651609182357788,0.6126068234443665
1788681077498552600,5.311552490234375,9.7069673538208,1.3121579885482788,0.472665011882782
1788681077514452200,5.3274521484375,9.697985649108887,1.402943730354309,0.38885006308555603
1788681077530382300,5.34338232421875,9.683710098266602,1.5175468921661377,0.3052797019481659
1788681077546251500,5.35925146484375,9.66855525970459,1.6197452545166016,0.2566387951374054
1788681077562151200,5.375151123046875,9.657026290893555,1.6860624551773071,0.2635055482387543
1788681077578020400,5.391020263671875,9.64954662322998,1.723637342453003,0.292763352394104
1788681077593889500,5.4068896484375,9.64354133605957,1.7552154064178467,0.3028239905834198
1788681077609728000,5.42272802734375,9.63598918914795,1.7983660697937012,0.2897774577140808
1788681077625627600,5.438627685546875,9.628142356872559,1.8415417671203613,0.27925145626068115
1788681077641496800,5.454496826171875,9.626977920532227,1.8471801280975342,0.28214535117149353
1788681077657366000,5.470365966796875,9.640535354614258,1.7756962776184082,0.27813720703125
1788681077681071900,5.49407177734375,9.681964874267578,1.541797161102295,0.2297968864440918
1788681077696910300,5.509910400390625,9.704849243164062,1.393755316734314,0.20912136137485504
1788681077712810000,5.52581005859375,9.708093643188477,1.3685638904571533,0.2243291288614273
1788681077728740400,5.541740234375,9.693364143371582,1.465087890625,0.2502014636993408
1788681077744670500,5.55767041015625,9.667646408081055,1.6240134239196777,0.26379144191741943
1788681077760600600,5.5736005859375,9.645833015441895,1.7494693994522095,0.26008060574531555
1788681077776500200,5.589500244140625,9.638628005981445,1.7934552431106567,0.22529907524585724
1788681077792369400,5.605369384765625,9.647527694702148,1.7524057626724243,0.15707790851593018
1788681077808238600,5.621238525390625,9.665594100952148,1.6556860208511353,0.07343370467424393
1788681077824107800,5.637107666015625,9.684194564819336,1.544891357421875,-0.008403233252465725
1788681077840007400,5.65300732421875,9.698711395263672,1.449167013168335,-0.07275836169719696
1788681077855907000,5.668906982421875,9.709124565124512,1.3753582239151,-0.10805157572031021
1788681077871837200,5.684837158203125,9.715890884399414,1.3268765211105347,-0.1060514897108078
1788681077887676000,5.700676025390625,9.71939468383789,1.302420735359192,-0.08635949343442917
1788681077903575600,5.716575439453125,9.721177101135254,1.290088176727295,-0.06915314495563507
1788681077919444700,5.73244482421875,9.723306655883789,1.2740232944488525,-0.06755173206329346
1788681077935283200,5.748283203125,9.72653579711914,1.2482675313949585,-0.08188457787036896
1788681077951182800,5.764182861328125,9.730911254882812,1.2125141620635986,-0.09780271351337433
1788681077967082500,5.78008251953125,9.735525131225586,1.1730597019195557,-0.11779727041721344
1788681077982951700,5.79595166015625,9.738940238952637,1.1426893472671509,-0.1329823136329651
1788681077998851300,5.811851318359375,9.741150856018066,1.1230435371398926,-0.13834522664546967
1788681078014720500,5.827720458984375,9.74290657043457,1.1088422536849976,-0.1289626955986023
1788681078030620200,5.8436201171875,9.744158744812012,1.1002099514007568,-0.10631996393203735
1788681078046519800,5.859519775390625,9.73789119720459,1.1580697298049927,-0.05234470218420029
1788681078062389000,5.875388916015625,9.719889640808105,1.3004910945892334,0.05346362292766571
1788681078078288600,5.89128857421875,9.717452049255371,1.3176029920578003,0.0736592561006546
1788681078094157800,5.90715771484375,9.713956832885742,1.3418573141098022,0.09409680962562561
1788681078110057500,5.923057373046875,9.710358619689941,1.3663302659988403,0.11165749281644821
1788681078125957000,5.93895703125,9.707601547241211,1.3846631050109863,0.1247970312833786
1788681078141887200,5.95488720703125,9.705220222473145,1.4001328945159912,0.13676738739013672
1788681078157787000,5.970786865234375,9.701050758361816,1.4271050691604614,0.1528920829296112
1788681078173625600,5.98662548828125,9.69322681427002,1.4771692752838135,0.1723727285861969
1788681078189525200,6.002525146484375,9.681777000427246,1.5476123094558716,0.1961454600095749
1788681078205425000,6.0184248046875,9.670376777648926,1.613101840019226,0.22826339304447174
1788681078221294000,6.034294189453125,9.664793014526367,1.6372138261795044,0.28582441806793213
1788681078237163000,6.0501630859375,9.667335510253906,1.6034002304077148,0.37700068950653076
1788681078253032200,6.0660322265625,9.675555229187012,1.5236517190933228,0.4821811616420746
1788681078268871000,6.081870849609375,9.683923721313477,1.43700110912323,0.5718631148338318
1788681078284709600,6.097709716796875,9.686067581176758,1.3986303806304932,0.6279433369636536
1788681078300639700,6.1136396484375,9.680569648742676,1.4289307594299316,0.644287645816803
1788681078316509000,6.129509033203125,9.670897483825684,1.499793291091919,0.6282998323440552
1788681078332347400,6.145347412109375,9.663568496704102,1.565871238708496,0.5778232216835022
1788681078348216600,6.161216552734375,9.66249942779541,1.5787922143936157,0.5602742433547974
1788681078364024600,6.177024658203125,9.665019989013672,1.5570545196533203,0.577370285987854
1788681078379924500,6.192924560546875,9.6693696975708,1.5199449062347412,0.6028556227684021
1788681078395793400,6.20879345703125,9.674482345581055,1.4825851917266846,0.6137733459472656
1788681078411723800,6.224723876953125,9.678878784179688,1.4600316286087036,0.5983381867408752
1788681078427562200,6.240562255859375,9.682790756225586,1.4491639137268066,0.5602441430091858
1788681078443462000,6.2564619140625,9.686934471130371,1.439826488494873,0.510474443435669
1788681078459392300,6.272392333984375,9.691317558288574,1.4255094528198242,0.46549102663993835
1788681078475230700,6.288230712890625,9.69463062286377,1.4107812643051147,0.4407019019126892
1788681078491100000,6.304099853515625,9.695496559143066,1.4074047803878784,0.4323803186416626
1788681078506999600,6.31999951171875,9.692497253417969,1.4283984899520874,0.4307578504085541
1788681078522899200,6.335899169921875,9.686784744262695,1.4675012826919556,0.42781683802604675
1788681078538768400,6.351768310546875,9.680785179138184,1.5092765092849731,0.4181596636772156
1788681078554637600,6.367637451171875,9.67723274230957,1.5361881256103516,0.4020853042602539
1788681078570506800,6.3835068359375,9.677457809448242,1.540117621421814,0.3811023533344269
1788681078586375700,6.399375732421875,9.680988311767578,1.5234206914901733,0.3578265607357025
1788681078602214400,6.41521435546875,9.686205863952637,1.4947630167007446,0.33687475323677063
1788681078618144500,6.43114453125,9.690703392028809,1.469037413597107,0.3202773332595825
1788681078634074600,6.44707470703125,9.692831993103027,1.4599462747573853,0.2965599298477173
1788681078649943800,6.46294384765625,9.691919326782227,1.4709703922271729,0.2707969844341278
1788681078665813000,6.47881298828125,9.689292907714844,1.4914634227752686,0.25202158093452454
1788681078681682200,6.49468212890625,9.687207221984863,1.5068942308425903,0.2401416152715683
1788681078697581800,6.510581787109375,9.686307907104492,1.5137416124343872,0.23326697945594788
1788681078713451000,6.526450927734375,9.684711456298828,1.525539755821228,0.22245939075946808
1788681078729350700,6.5423505859375,9.67892074584961,1.5652244091033936,0.19738544523715973
1788681078745219800,6.5582197265625,9.666346549987793,1.645065426826477,0.16093115508556366
1788681078761058300,6.574058349609375,9.652511596679688,1.7270320653915405,0.12948285043239594
1788681078776927500,6.589927490234375,9.648606300354004,1.7505066394805908,0.10254231095314026
1788681078792827100,6.6058271484375,9.65970230102539,1.6900378465652466,0.06569930911064148
1788681078808696300,6.6216962890625,9.680020332336426,1.5705820322036743,0.029583310708403587
1788681078824596000,6.637595947265625,9.695439338684082,1.47252357006073,0.022646715864539146
1788681078840434700,6.6534345703125,9.694353103637695,1.4788120985031128,0.05500095337629318
1788681078856364800,6.66936474609375,9.677924156188965,1.5813665390014648,0.08627360314130783
1788681078872234000,6.68523388671875,9.652359962463379,1.7302746772766113,0.09202683717012405
1788681078888072400,6.701072509765625,9.629969596862793,1.851515769958496,0.07719167321920395
1788681078903972000,6.71697216796875,9.621419906616211,1.89640474319458,0.04810388758778572
1788681078919871700,6.732871826171875,9.626015663146973,1.87355637550354,-0.002458791481330991
1788681078935741000,6.748740966796875,9.639888763427734,1.7992490530014038,-0.07512092590332031
1788681078951610000,6.764610107421875,9.65650463104248,1.7040692567825317,-0.1358732134103775
1788681078967571000,6.780571044921875,9.672140121459961,1.6106369495391846,-0.16106237471103668
1788681078983440000,6.79643994140625,9.683866500854492,1.538943886756897,-0.15736930072307587
1788681078999339500,6.812339599609375,9.69063663482666,1.4979034662246704,-0.13504990935325623
1788681079015208700,6.828208740234375,9.691248893737793,1.49596107006073,-0.11037095636129379
1788681079031108400,6.8441083984375,9.68673038482666,1.526168704032898,-0.09195099025964737
1788681079046947000,6.859947021484375,9.68264102935791,1.5520533323287964,-0.08931297063827515
1788681079062816300,6.875816162109375,9.681353569030762,1.5595636367797852,-0.09772205352783203
1788681079078654700,6.89165478515625,9.68323802947998,1.5470690727233887,-0.10896175354719162
1788681079094524000,6.90752392578125,9.687508583068848,1.519384741783142,-0.11850180476903915
1788681079110393000,6.92339306640625,9.692580223083496,1.4862409830093384,-0.12395787984132767
1788681079126262300,6.93926220703125,9.696368217468262,1.4616944789886475,-0.11945954710245132
1788681079142162000,6.955161865234375,9.700392723083496,1.4315309524536133,-0.15323993563652039
1788681079158031000,6.971031005859375,9.708847045898438,1.3588169813156128,-0.2495611160993576
1788681079173900300,6.986900390625,9.707655906677246,1.3723994493484497,-0.21980847418308258
1788681079189800000,7.002800048828125,9.7070951461792,1.3819636106491089,-0.1812751442193985
1788681079205699600,7.018699462890625,9.707697868347168,1.3834917545318604,-0.13012611865997314
1788681079221568800,7.03456884765625,9.731988906860352,1.1927909851074219,-0.18981964886188507
1788681079237437700,7.050437744140625,9.739639282226562,1.1303282976150513,-0.17935988306999207
1788681079253337300,7.06633740234375,9.737648963928223,1.153093695640564,-0.13768208026885986
1788681079269237000,7.082237060546875,9.732635498046875,1.1979397535324097,-0.1055312305688858
1788681079285106200,7.098106201171875,9.725247383117676,1.2583138942718506,-0.08119042217731476
1788681079300975400,7.113975341796875,9.717217445373535,1.3200193643569946,-0.060086075216531754
1788681079316844500,7.129844482421875,9.7125883102417,1.3545286655426025,-0.035597603768110275
1788681079332774700,7.145774658203125,9.714635848999023,1.3402347564697266,0.0022846770007163286
1788681079348674300,7.16167431640625,9.722071647644043,1.2840561866760254,0.05396905168890953
1788681079364604400,7.1776044921875,9.73139476776123,1.2084189653396606,0.10031794756650925
1788681079380473600,7.1934736328125,9.737313270568848,1.157557725906372,0.1231483519077301
1788681079396312300,7.209312255859375,9.737150192260742,1.1584266424179077,0.12781678140163422
1788681079412212000,7.2252119140625,9.732071876525879,1.2000699043273926,0.13034848868846893
1788681079428111600,7.241111572265625,9.72616195678711,1.2464503049850464,0.136087104678154
1788681079444011300,7.25701123046875,9.725057601928711,1.2532737255096436,0.15145686268806458
1788681079459880400,7.27288037109375,9.730489730834961,1.2073084115982056,0.17424407601356506
1788681079475780000,7.288780029296875,9.73682689666748,1.1520780324935913,0.19310733675956726
1788681079491679700,7.3046796875,9.742449760437012,1.1033402681350708,0.19415903091430664
1788681079507549000,7.320548828125,9.74675464630127,1.067794919013977,0.17602799832820892
1788681079523418000,7.336418212890625,9.75059986114502,1.0370713472366333,0.1437867283821106
1788681079539287000,7.352287109375,9.754483222961426,1.0040684938430786,0.11084968596696854
1788681079555186700,7.368186767578125,9.753552436828613,1.0109494924545288,0.12878091633319855
1788681079571086600,7.384086669921875,9.747775077819824,1.0611299276351929,0.15898250043392181
1788681079586955500,7.39995556640625,9.745338439941406,1.082613229751587,0.16345950961112976
1788681079602794200,7.415794189453125,9.747759819030762,1.0631767511367798,0.14562231302261353
1788681079618663400,7.431663330078125,9.750560760498047,1.0383241176605225,0.13719886541366577
1788681079634563000,7.44756298828125,9.74839973449707,1.0526206493377686,0.17631825804710388
1788681079650432300,7.463432373046875,9.744550704956055,1.0843905210494995,0.19545437395572662
1788681079666423300,7.47942333984375,9.744144439697266,1.0908507108688354,0.17909857630729675
1788681079690196500,7.503196533203125,9.753105163574219,1.0166425704956055,0.11726349592208862
1788681079706096000,7.51909619140625,9.760588645935059,0.9469243884086609,0.06805077195167542
1788681079721995800,7.534995849609375,9.763724327087402,0.916050374507904,0.03055383637547493
1788681079737895700,7.550895751953125,9.760396957397461,0.9513144493103027,0.006029380019754171
1788681079753764600,7.5667646484375,9.751310348510742,1.0403445959091187,-0.003474288620054722
1788681079769695000,7.582695068359375,9.742596626281738,1.1190135478973389,-0.0020356341265141964
1788681079785594600,7.5985947265625,9.738651275634766,1.1528469324111938,-0.0008736410527490079
1788681079801463600,7.614463623046875,9.737584114074707,1.1618130207061768,-0.005622990895062685
1788681079817363200,7.63036328125,9.735965728759766,1.1750119924545288,-0.02655567042529583
1788681079833232400,7.646232421875,9.73226261138916,1.2042014598846436,-0.057905733585357666
1788681079849101600,7.6621015625,9.728848457336426,1.2291797399520874,-0.0949481651186943
1788681079865001200,7.678001220703125,9.729802131652832,1.2166424989700317,-0.1452813446521759
1788681079880840000,7.69383984375,9.736797332763672,1.1484414339065552,-0.21503442525863647
1788681079896739600,7.709739501953125,9.745355606079102,1.0534404516220093,-0.297812819480896
1788681079912578000,7.725578125,9.749093055725098,0.9964272975921631,-0.36430320143699646
1788681079928478000,7.74147802734375,9.744586944580078,1.0313385725021362,-0.3869800567626953
1788681079944377600,7.757377685546875,9.732770919799805,1.1398231983184814,-0.3799421489238739
1788681079960277200,7.77327734375,9.718119621276855,1.2629342079162598,-0.3654301166534424
1788681079976146200,7.789146240234375,9.705631256103516,1.3579777479171753,-0.35636264085769653
1788681079992045800,7.8050458984375,9.699666023254395,1.400241732597351,-0.3552210330963135
1788681080007915000,7.8209150390625,9.699992179870605,1.3943264484405518,-0.36929717659950256
1788681080023753700,7.836753662109375,9.70600700378418,1.343149185180664,-0.3997114598751068
1788681080039592400,7.852592529296875,9.716668128967285,1.2574241161346436,-0.4190831780433655
1788681080055522600,7.8685224609375,9.729203224182129,1.1599727869033813,-0.4092114567756653
1788681080071391700,7.884391845703125,9.73914623260498,1.081971526145935,-0.3856847882270813
1788681080087291400,7.90029150390625,9.744236946105957,1.0460467338562012,-0.3550034165382385
1788681080103160300,7.916160400390625,9.74472427368164,1.0498216152191162,-0.3295693099498749
1788681080119029500,7.932029541015625,9.740838050842285,1.086922526359558,-0.32414236664772034
1788681080134929200,7.94792919921875,9.735966682434082,1.1258410215377808,-0.3373737037181854
1788681080150828800,7.963828857421875,9.733441352844238,1.140576720237732,-0.360002338886261
1788681080166728400,7.979728515625,9.733832359313965,1.1300395727157593,-0.381987988948822
1788681080182597600,7.99559765625,9.73673152923584,1.0984281301498413,-0.3998895287513733
1788681080198558500,8.011558349609375,9.740904808044434,1.0569915771484375,-0.40978002548217773
1788681080214427600,8.027427734375,9.7455415725708,1.0128650665283203,-0.41098806262016296
1788681080230266000,8.04326611328125,9.749286651611328,0.9783192873001099,-0.40580636262893677
1788681080246165800,8.059165771484375,9.743345260620117,1.0662891864776611,-0.3172297775745392
1788681080262065400,8.0750654296875,9.733255386352539,1.1796966791152954,-0.20601244270801544
1788681080277934600,8.0909345703125,9.731951713562012,1.1938120126724243,-0.18525435030460358
1788681080293803800,8.1068037109375,9.730560302734375,1.2085692882537842,-0.16109219193458557
1788681080309673000,8.1226728515625,9.730116844177246,1.2153717279434204,-0.13453495502471924
1788681080325572600,8.138572509765625,9.731470108032227,1.2080639600753784,-0.09723134338855743
1788681080341502700,8.154502685546875,9.730650901794434,1.2169137001037598,-0.06284414231777191
1788681080357402400,8.17040234375,9.727279663085938,1.2445178031921387,-0.03985091298818588
1788681080373271600,8.186271484375,9.721126556396484,1.291803002357483,-0.03650032356381416
1788681080389110300,8.2021103515625,9.715354919433594,1.3345540761947632,-0.035151172429323196
1788681080404979200,8.217979248046875,9.715811729431152,1.3315953016281128,-0.015582257881760597
1788681080420878800,8.23387890625,9.725793838500977,1.2561942338943481,0.036109864711761475
1788681080436748000,8.249748046875,9.740023612976074,1.1344571113586426,0.12382055073976517
1788681080452617200,8.2656171875,9.748753547668457,1.0407946109771729,0.22120040655136108
1788681080468486400,8.281486328125,9.74673843383789,1.0388673543930054,0.3036803901195526
1788681080484355600,8.29735546875,9.73339557647705,1.1464799642562866,0.3420192301273346
1788681080500224800,8.313224853515624,9.715583801269531,1.289162516593933,0.3404024541378021
1788681080516093700,8.32909375,9.701227188110352,1.3985196352005005,0.3173418939113617
1788681080531993300,8.344993408203125,9.695801734924316,1.4397515058517456,0.2982226312160492
1788681080547832000,8.36083203125,9.702313423156738,1.3973491191864014,0.28796660900115967
1788681080563701200,8.376701171875,9.71514892578125,1.305868148803711,0.28458303213119507
1788681080579601000,8.392600830078125,9.729449272155762,1.1961495876312256,0.27827298641204834
1788681080595500500,8.40850048828125,9.74194049835205,1.094770908355713,0.2578166723251343
1788681080611369700,8.42436962890625,9.751959800720215,1.0108611583709717,0.2186812162399292
1788681080627239000,8.440239013671874,9.759550094604492,0.9441296458244324,0.17375995218753815
1788681080643138600,8.456138671875,9.764505386352539,0.8975037336349487,0.1389964520931244
1788681080659068700,8.472068603515625,9.766998291015625,0.8720153570175171,0.1254328489303589
1788681080674937900,8.487937744140625,9.767086029052734,0.8703722357749939,0.12989109754562378
1788681080690807000,8.50380712890625,9.764969825744629,0.892846405506134,0.13631616532802582
1788681080714671600,8.527671630859375,9.759315490722656,0.9522055983543396,0.13943152129650116
1788681080730540800,8.543540771484375,9.75653076171875,0.9798076748847961,0.14308205246925354
1788681080754314000,8.56731396484375,9.756326675415039,0.9814066290855408,0.14599953591823578
1788681080770152700,8.583152587890625,9.758049964904785,0.9647127985954285,0.142075315117836
1788681080786052400,8.59905224609375,9.759881019592285,0.9480366706848145,0.1278451383113861
1788681080801921500,8.614921630859374,9.760396003723145,0.9460751414299011,0.10007369518280029
1788681080817790500,8.63079052734375,9.758180618286133,0.9714314937591553,0.06786127388477325
1788681080833659600,8.64665966796875,9.753140449523926,1.0221595764160156,0.04272964596748352
1788681080849559300,8.662559326171875,9.74700927734375,1.0795469284057617,0.0276218019425869
1788681080865398000,8.67839794921875,9.74227523803711,1.1216800212860107,0.017133068293333054
1788681080881267200,8.69426708984375,9.739166259765625,1.1484849452972412,-0.002317190868780017
1788681080897166800,8.710166748046875,9.735387802124023,1.1794726848602295,-0.03794931620359421
1788681080913036000,8.7260361328125,9.728487014770508,1.2323352098464966,-0.09101919084787369
1788681080928905000,8.741905029296875,9.71725845336914,1.3123793601989746,-0.15142905712127686
1788681080944774100,8.757774169921875,9.702799797058105,1.4099787473678589,-0.19499368965625763
1788681080960673800,8.773673828125,9.689985275268555,1.4929457902908325,-0.2137788087129593
1788681080984508200,8.797508056640625,9.685976028442383,1.5176953077316284,-0.22102168202400208
1788681081000407800,8.81340771484375,9.69389820098877,1.4648387432098389,-0.23016010224819183
1788681081016277000,8.829277099609374,9.703661918640137,1.39689302444458,-0.24087698757648468
1788681081032176600,8.8451767578125,9.706480979919434,1.3768329620361328,-0.24278084933757782
1788681081048045800,8.8610458984375,9.700215339660645,1.4211273193359375,-0.2379027158021927
1788681081063884300,8.87688427734375,9.68798828125,1.5033798217773438,-0.23047581315040588
1788681081079784000,8.892783935546875,9.677777290344238,1.5674101114273071,-0.23291772603988647
1788681081095653000,8.908653076171875,9.676215171813965,1.5726916790008545,-0.26054441928863525
1788681081111522300,8.924522216796875,9.679577827453613,1.5425125360488892,-0.311139851808548
1788681081127422000,8.940421875,9.686348915100098,1.4856339693069458,-0.3714034855365753
1788681081143291100,8.956291015625,9.694758415222168,1.4153984785079956,-0.42270803451538086
1788681081159160300,8.972160400390624,9.704489707946777,1.3405603170394897,-0.44290104508399963
1788681081175029200,8.988029296875,9.714138984680176,1.2734485864639282,-0.42920982837677
1788681081190898400,9.0038984375,9.72181224822998,1.226761817932129,-0.38962918519973755
1788681081206767600,9.019767578125,9.72632122039795,1.2024612426757812,-0.35092228651046753
1788681081222636800,9.03563671875,9.728114128112793,1.1946914196014404,-0.32695242762565613
1788681081238567000,9.05156689453125,9.729084968566895,1.188613772392273,-0.32011961936950684
1788681081254436000,9.06743603515625,9.729879379272461,1.1808652877807617,-0.3246571123600006
1788681081270366200,9.0833662109375,9.730588912963867,1.1736527681350708,-0.32950836420059204
1788681081286265900,9.099265869140625,9.731636047363281,1.1652661561965942,-0.32833072543144226
1788681081302135000,9.115135009765625,9.733793258666992,1.148795247077942,-0.3223665952682495
1788681081318004200,9.131004150390625,9.737388610839844,1.1210026741027832,-0.3114451467990875
1788681081333873400,9.146873291015625,9.741263389587402,1.0917706489562988,-0.2936018705368042
1788681081349742600,9.16274267578125,9.733013153076172,1.172415852546692,-0.2535439133644104
1788681081365581000,9.1785810546875,9.721668243408203,1.2725036144256592,-0.20070698857307434
1788681081381511200,9.19451123046875,9.717728614807129,1.3060392141342163,-0.17435210943222046
1788681081397380400,9.21038037109375,9.7131929397583,1.3420324325561523,-0.1523907482624054
1788681081413280000,9.226280029296875,9.70876693725586,1.3753643035888672,-0.13638868927955627
1788681081429118700,9.24211865234375,9.706908226013184,1.3896015882492065,-0.12381847202777863
1788681081444988000,9.25798779296875,9.70730972290039,1.3877449035644531,-0.11262524127960205
1788681081460826400,9.273826416015625,9.707724571228027,1.385244369506836,-0.10758271813392639
1788681081476695600,9.289695556640625,9.70518970489502,1.4031039476394653,-0.10479959100484848
1788681081492595200,9.30559521484375,9.69916820526123,1.4448314905166626,-0.0947561115026474
1788681081508464400,9.32146435546875,9.693578720092773,1.4830838441848755,-0.07333090156316757
1788681081524333600,9.33733349609375,9.694154739379883,1.4809342622756958,-0.024127310141921043
1788681081540202800,9.35320263671875,9.70211410522461,1.426904559135437,0.05755823850631714
1788681081556132900,9.3691328125,9.712162971496582,1.350211501121521,0.1455969214439392
1788681081572002000,9.385001953125,9.714848518371582,1.3212589025497437,0.21538536250591278
1788681081587840500,9.400840576171875,9.703779220581055,1.3946431875228882,0.2490483820438385
1788681081603709700,9.416709716796875,9.683627128601074,1.5287286043167114,0.24645522236824036
1788681081619609300,9.432609375,9.663402557373047,1.6559207439422607,0.21671806275844574
1788681081635539700,9.448539794921874,9.651754379272461,1.7258797883987427,0.18803046643733978
1788681081659313000,9.47231298828125,9.657133102416992,1.6972581148147583,0.17169834673404694
1788681081675212500,9.488212646484374,9.671394348144531,1.6125600337982178,0.1848769634962082
1788681081691112200,9.5041123046875,9.686667442321777,1.5157971382141113,0.20301949977874756
1788681081707011800,9.52001171875,9.699921607971191,1.4285032749176025,0.20317897200584412
1788681081722850300,9.535850341796875,9.710254669189453,1.3592747449874878,0.1836012452840805
1788681081738719500,9.551719482421875,9.716782569885254,1.3155597448349,0.15433913469314575
1788681081754588700,9.567588623046875,9.719111442565918,1.300642728805542,0.13264602422714233
1788681081770457900,9.583457763671875,9.71707534790039,1.3161914348602295,0.12830477952957153
1788681081786357500,9.599357421875,9.712995529174805,1.3448290824890137,0.13979192078113556
1788681081802226700,9.615226806640624,9.708758354187012,1.3726532459259033,0.16194365918636322
1788681081818156800,9.63115673828125,9.705714225769043,1.3917778730392456,0.180170476436615
1788681081834087000,9.6470869140625,9.704587936401367,1.3990806341171265,0.18420711159706116
1788681081849956000,9.6629560546875,9.705437660217285,1.3941537141799927,0.1766701340675354
1788681081865886200,9.67888623046875,9.708680152893066,1.3730967044830322,0.16285042464733124
1788681081881725000,9.694724853515625,9.713700294494629,1.3386732339859009,0.14957159757614136
1788681081897594000,9.710593994140625,9.718798637390137,1.3027578592300415,0.13473357260227203
1788681081913463300,9.72646337890625,9.72265625,1.2754626274108887,0.11635211855173111
1788681081929332200,9.742332275390625,9.737166404724121,1.1553871631622314,-0.15179580450057983
1788681081945201400,9.758201416015625,9.745109558105469,1.063504695892334,-0.26868492364883423
1788681081961070600,9.774070556640625,9.746211051940918,1.0414808988571167,-0.3115916848182678
1788681081976939800,9.789939697265625,9.743706703186035,1.0570778846740723,-0.33637237548828125
1788681081992839400,9.80583935546875,9.739986419677734,1.0813292264938354,-0.36576464772224426
1788681082008708600,9.82170849609375,9.733968734741211,1.1209980249404907,-0.404488205909729
1788681082024577800,9.837577880859374,9.725141525268555,1.1794391870498657,-0.448261559009552
1788681082040477400,9.8534775390625,9.712780952453613,1.2535115480422974,-0.510864794254303
1788681082056377000,9.869377197265624,9.704172134399414,1.2952344417572021,-0.5672767758369446
1788681082072246000,9.88524609375,9.7081298828125,1.2481235265731812,-0.6039758324623108
1788681082088115200,9.901115234375,9.718871116638184,1.1397929191589355,-0.6440589427947998
1788681082103954000,9.916953857421875,9.730175018310547,1.0272233486175537,-0.6624941229820251
1788681082119853600,9.932853515625,9.73446273803711,0.9920775890350342,-0.6529959440231323
1788681082135753200,9.948753173828125,9.727910995483398,1.07489013671875,-0.6186717748641968
1788681082167583000,9.9805830078125,9.702387809753418,1.3035235404968262,-0.5786908864974976
1788681082183482600,9.996482666015625,9.695711135864258,1.3455296754837036,-0.5942447781562805
1788681082199382300,10.01238232421875,9.697908401489258,1.3144545555114746,-0.6270302534103394
1788681082223216600,10.036216552734375,9.705093383789062,1.2340415716171265,-0.677270770072937
1788681082239085800,10.0520859375,9.711738586425781,1.1747848987579346,-0.6873224377632141
1788681082254954800,10.067954833984375,9.717732429504395,1.1295627355575562,-0.6783521175384521
1788681082270824000,10.083823974609375,9.721572875976562,1.106344223022461,-0.6613789200782776
1788681082286723600,10.0997236328125,9.722719192504883,1.1053842306137085,-0.6459450721740723
1788681082302623200,10.115623291015625,9.722393989562988,1.1144955158233643,-0.6350885033607483
1788681082318523000,10.13152294921875,9.722309112548828,1.1233530044555664,-0.6206167340278625
1788681082334422500,10.147422607421875,9.723291397094727,1.1264252662658691,-0.5993026494979858
1788681082358287400,10.171287353515625,9.726621627807617,1.1206510066986084,-0.5543916821479797
1788681082374156500,10.187156494140625,9.729113578796387,1.114698052406311,-0.5217061638832092
1788681082390056200,10.20305615234375,9.731298446655273,1.1075780391693115,-0.49546629190444946
1788681082405925400,10.21892529296875,9.733419418334961,1.0957058668136597,-0.47995853424072266
1788681082421794600,10.234794677734374,9.735498428344727,1.0802052021026611,-0.4728810787200928
1788681082437663700,10.250663818359374,9.736358642578125,1.0750572681427002,-0.46684694290161133
1788681082453532700,10.26653271484375,9.735905647277832,1.0898873805999756,-0.44122734665870667
1788681082469401900,10.28240185546875,9.734066009521484,1.1259886026382446,-0.38793712854385376
1788681082485271000,10.29827099609375,9.731731414794922,1.1624999046325684,-0.33524277806282043
1788681082501140200,10.31414013671875,9.729131698608398,1.1910243034362793,-0.3095759153366089
1788681082517009400,10.330009521484374,9.726180076599121,1.2188565731048584,-0.2935979962348938
1788681082532909000,10.345908935546875,9.722264289855957,1.2506766319274902,-0.28941911458969116
1788681082548808700,10.36180859375,9.716917037963867,1.2912895679473877,-0.29065579175949097
1788681082564678000,10.377677978515624,9.710166931152344,1.3428921699523926,-0.28228017687797546
1788681082580546800,10.393546875,9.705145835876465,1.385145664215088,-0.2487899512052536
1788681082596416000,10.409416015625,9.707255363464355,1.3809309005737305,-0.18056097626686096
1788681082612285200,10.42528515625,9.718103408813477,1.3118083477020264,-0.08950791507959366
1788681082628154400,10.441154296875,9.732730865478516,1.20174241065979,-0.012445969507098198
1788681082644054000,10.457053955078125,9.742720603942871,1.1175755262374878,0.02855152077972889
1788681082659953700,10.47295361328125,9.743021011352539,1.11464262008667,0.038652826100587845
1788681082675853300,10.488853271484375,9.733803749084473,1.192800521850586,0.025988172739744186
1788681082691692000,10.504692138671874,9.720476150512695,1.2971973419189453,0.003559811506420374
1788681082707561000,10.52056103515625,9.71209716796875,1.3584203720092773,-0.016293255612254143
1788681082723460900,10.5364609375,9.714689254760742,1.3396035432815552,-0.02563464641571045
1788681082739391000,10.552390869140625,9.726243019104004,1.2529715299606323,-0.025228768587112427
1788681082755321000,10.568321044921875,9.740726470947266,1.1347739696502686,-0.03034994751214981
1788681082771159800,10.584159912109374,9.753435134887695,1.0192073583602905,-0.04597213491797447
1788681082786998300,10.599998291015625,9.763115882873535,0.9206918478012085,-0.06538444012403488
1788681082802898000,10.61589794921875,9.769790649414062,0.8443223237991333,-0.09332253783941269
1788681082818767000,10.63176708984375,9.774003028869629,0.789315402507782,-0.12736114859580994
1788681082834636300,10.64763623046875,9.7762451171875,0.7579562664031982,-0.14464297890663147
1788681082850536000,10.663535888671875,9.777213096618652,0.7466916441917419,-0.13762737810611725
1788681082866405000,10.679405029296875,9.776331901550293,0.7614731788635254,-0.11786007136106491
1788681082882304800,10.6953046875,9.774079322814941,0.7930343151092529,-0.09410039335489273
1788681082898174000,10.711174072265624,9.771227836608887,0.8294268846511841,-0.0743812546133995
1788681082914073600,10.727073486328125,9.768928527832031,0.8568328022956848,-0.06519392132759094
1788681082930003700,10.743003662109375,9.768372535705566,0.8624771237373352,-0.07361910492181778
1788681082945903400,10.7589033203125,9.769478797912598,0.8479579091072083,-0.09289868921041489
1788681082961803000,10.774802978515625,9.771267890930176,0.8234713673591614,-0.12083631008863449
1788681082977672200,10.790672119140625,9.772724151611328,0.800840437412262,-0.1512995809316635
1788681082993511000,10.806510986328124,9.773233413696289,0.7893690466880798,-0.1766313761472702
1788681083009379800,10.8223798828125,9.75940990447998,0.9328489303588867,-0.2325620800256729
1788681083025249000,10.8382490234375,9.756710052490234,0.9559834599494934,-0.2511642873287201
1788681083041148700,10.854148681640625,9.754547119140625,0.9768019914627075,-0.25506606698036194
1788681083057109500,10.870109619140624,9.751985549926758,1.0027426481246948,-0.25233572721481323
1788681083073009200,10.886009033203125,9.748766899108887,1.0317506790161133,-0.25967541337013245
1788681083088908800,10.90190869140625,9.744159698486328,1.0676369667053223,-0.28617197275161743
1788681083104808400,10.917808349609375,9.736824035644531,1.1216232776641846,-0.32648587226867676
1788681083120677600,10.933677734375,9.727290153503418,1.191563367843628,-0.3610965609550476
1788681083136546600,10.949546630859375,9.719554901123047,1.245819091796875,-0.3854474127292633
1788681083152415700,10.965415771484375,9.716986656188965,1.2560855150222778,-0.41569381952285767
1788681083168285000,10.981284912109375,9.721076011657715,1.2071486711502075,-0.4624401032924652
1788681083184184600,10.9971845703125,9.726696014404297,1.1372557878494263,-0.5180844068527222
1788681083200053800,11.0130537109375,9.727130889892578,1.1116063594818115,-0.5636082887649536
1788681083215953400,11.028953369140625,9.719714164733887,1.166150450706482,-0.58106929063797
1788681083231853000,11.04485302734375,9.704106330871582,1.2956007719039917,-0.5675560235977173
1788681083247691800,11.06069189453125,9.685506820678711,1.435044527053833,-0.5495415329933167
1788681083263561000,11.07656103515625,9.672318458557129,1.5228413343429565,-0.5455200672149658
1788681083279460600,11.092460693359374,9.668587684631348,1.5401009321212769,-0.5629367232322693
1788681083295329500,11.10832958984375,9.675188064575195,1.482848048210144,-0.6019055843353271
1788681083311260000,11.124260009765624,9.687516212463379,1.3820068836212158,-0.6422461271286011
1788681083327098400,11.140098388671875,9.702912330627441,1.2570120096206665,-0.6661821007728577
1788681083342998000,11.155998046875,9.716565132141113,1.1423858404159546,-0.6735732555389404
1788681083358836700,11.171836669921875,9.726480484008789,1.0618798732757568,-0.6620926260948181
1788681083374675500,11.187675537109374,9.73194408416748,1.0245791673660278,-0.6402208209037781
1788681083390544400,11.20354443359375,9.733311653137207,1.0243088006973267,-0.6195312738418579
1788681083406383000,11.219383056640625,9.734817504882812,1.0256532430648804,-0.5930973291397095
1788681083422252300,11.235252197265625,9.73730182647705,1.0186059474945068,-0.5637238621711731
1788681083438152000,11.25115185546875,9.74013900756836,1.0059093236923218,-0.5368775725364685
1788681083454021000,11.267021240234374,9.742900848388672,0.9906403422355652,-0.5146852731704712
1788681083469890300,11.282890380859374,9.745500564575195,0.9749420285224915,-0.49507805705070496
1788681083485759200,11.29875927734375,9.74813461303711,0.9585879445075989,-0.4747185707092285
1788681083501659000,11.314658935546875,9.751150131225586,0.9401161074638367,-0.4490327835083008
1788681083517558500,11.33055859375,9.754385948181152,0.9196299910545349,-0.42026621103286743
1788681083533427700,11.346427734375,9.757325172424316,0.9313904643058777,-0.31224706768989563
1788681083549327400,11.362327392578125,9.758642196655273,0.9493296146392822,-0.1951172798871994
1788681083565227000,11.37822705078125,9.758539199829102,0.9576349258422852,-0.15568576753139496
1788681083581096200,11.39409619140625,9.756708145141602,0.9794367551803589,-0.13318145275115967
1788681083596965400,11.40996533203125,9.753763198852539,1.008568286895752,-0.1314442902803421
1788681083612834600,11.42583447265625,9.751062393188477,1.0327857732772827,-0.14323541522026062
1788681083628703700,11.441703857421874,9.749154090881348,1.048256754875183,-0.15981942415237427
1788681083644603400,11.457603271484375,9.747343063354492,1.0631431341171265,-0.17151524126529694
1788681083660503000,11.4735029296875,9.744306564331055,1.0899577140808105,-0.17568616569042206
1788681083676433200,11.48943310546875,9.738428115844727,1.1418814659118652,-0.17180311679840088
1788681083692302300,11.50530224609375,9.729153633117676,1.2203950881958008,-0.15683361887931824
1788681083708171500,11.521171630859374,9.719847679138184,1.296062707901001,-0.12317125499248505
1788681083724040400,11.53704052734375,9.715555191040039,1.3324626684188843,-0.0540529303252697
1788681083739940400,11.5529404296875,9.71790885925293,1.3157203197479248,0.03901281952857971
1788681083755840000,11.568840087890624,9.723305702209473,1.2692426443099976,0.1293667107820511
1788681083771709000,11.584708984375,9.725228309631348,1.2477505207061768,0.18285225331783295
1788681083787547600,11.600547607421875,9.719630241394043,1.2894606590270996,0.1909700334072113
1788681083803447300,11.616447265625,9.708596229553223,1.3740795850753784,0.15949834883213043
1788681083819347000,11.632346923828125,9.697781562805176,1.4529080390930176,0.11176124215126038
1788681083835216100,11.648216064453125,9.693655014038086,1.4829087257385254,0.06648359447717667
1788681083851085300,11.664085205078125,9.696882247924805,1.4627423286437988,0.035269249230623245
1788681083866985000,11.67998486328125,9.70549488067627,1.4048055410385132,0.01665777899324894
1788681083882915000,11.6959150390625,9.715967178344727,1.3305323123931885,0.006289601791650057
1788681083898784300,11.7117841796875,9.72632884979248,1.2525506019592285,-0.004758081398904324
1788681083914684000,11.727683837890625,9.735869407653809,1.1759965419769287,-0.016483407467603683
1788681083930553000,11.743552978515625,9.743553161621094,1.1105849742889404,-0.013008242473006248
1788681083946422300,11.75942236328125,9.776573181152344,0.7440069913864136,-0.18829244375228882
1788681083962291200,11.775291259765625,9.778185844421387,0.7274784445762634,-0.16805659234523773
1788681083978190800,11.79119091796875,9.778254508972168,0.7316474318504333,-0.14426648616790771
1788681083994121200,11.807121337890624,9.77756118774414,0.7455220222473145,-0.11784257739782333
1788681084009990400,11.822990478515624,9.77680778503418,0.7588623762130737,-0.09236596524715424
1788681084025890000,11.83889013671875,9.776419639587402,0.7652243375778198,-0.08028671145439148
1788681084041759000,11.854759033203125,9.77675724029541,0.7607545256614685,-0.08162738382816315
1788681084057658600,11.87065869140625,9.77810001373291,0.7419294714927673,-0.09327486157417297
1788681084073527800,11.88652783203125,9.780069351196289,0.7134611010551453,-0.10770992189645767
1788681084089427500,11.902427490234375,9.782126426696777,0.6813279390335083,-0.12724311649799347
1788681084105296600,11.918296630859375,9.775653839111328,0.7605116963386536,-0.16908647119998932
1788681084121135400,11.93413525390625,9.762462615966797,0.9001944065093994,-0.23313911259174347
1788681084137035000,11.950034912109375,9.758780479431152,0.9319919943809509,-0.2607254087924957
1788681084152904200,11.965904296875,9.755281448364258,0.9652103185653687,-0.2706301212310791
1788681084168742700,11.98174267578125,9.751031875610352,1.0037661790847778,-0.2832244634628296
1788681084184611800,11.99761181640625,9.747352600097656,1.032977819442749,-0.3040727376937866
1788681084200481000,12.01348095703125,9.744685173034668,1.0478615760803223,-0.33688557147979736
1788681084216350200,12.02935009765625,9.741878509521484,1.0606420040130615,-0.3758203685283661
1788681084232219400,12.045219482421874,9.737059593200684,1.0892466306686401,-0.41665446758270264
1788681084248149500,12.0611494140625,9.729863166809082,1.1355239152908325,-0.4590577185153961
1788681084263988000,12.076988037109375,9.723672866821289,1.1691057682037354,-0.5037518739700317
1788681084279887600,12.0928876953125,9.722585678100586,1.153853416442871,-0.5570858120918274
1788681084295756800,12.1087568359375,9.727046012878418,1.0791149139404297,-0.6248787045478821
1788681084311717600,12.124717529296875,9.731182098388672,0.9909284114837646,-0.7018150687217712
1788681084327586800,12.1405869140625,9.727879524230957,0.9827294945716858,-0.7569582462310791
1788681084343486500,12.156486572265624,9.717040061950684,1.0757501125335693,-0.7695949673652649
1788681084359294500,12.17229443359375,9.700695991516113,1.2322309017181396,-0.7405949234962463
1788681084375163600,12.18816357421875,9.68537712097168,1.3693525791168213,-0.6990893483161926
1788681084391032800,12.20403271484375,9.678813934326172,1.4327256679534912,-0.6620059609413147
1788681084406932500,12.219932373046875,9.681426048278809,1.4239823818206787,-0.6423818469047546
1788681084422801700,12.2358017578125,9.691778182983398,1.3507795333862305,-0.6443752646446228
1788681084438701300,12.251701416015624,9.705753326416016,1.2431252002716064,-0.6506842374801636
1788681084454631400,12.26763134765625,9.72093677520752,1.125575065612793,-0.637858510017395
1788681084470500600,12.28350048828125,9.734233856201172,1.025658130645752,-0.6025658249855042
1788681084486400300,12.299400146484375,9.743963241577148,0.9595362544059753,-0.552131175994873
1788681084502269400,12.31526953125,9.74870777130127,0.9331907629966736,-0.5121003985404968
1788681084518199600,12.331199462890625,9.74826717376709,0.9458214044570923,-0.49707716703414917
1788681084534099200,12.34709912109375,9.74637222290039,0.965983510017395,-0.4954614043235779
1788681084549968400,12.362968505859374,9.746209144592285,0.9657090306282043,-0.4992068409919739
1788681084565806800,12.378806884765625,9.748584747314453,0.9372735619544983,-0.506963312625885
1788681084581706500,12.39470654296875,9.752726554870605,0.8914980888366699,-0.5098452568054199
1788681084597575700,12.41057568359375,9.756803512573242,0.845386803150177,-0.5103782415390015
1788681084613444900,12.42644482421875,9.759984970092773,0.810185432434082,-0.5066242218017578
1788681084629344500,12.442344482421875,9.761984825134277,0.7908743619918823,-0.4985479414463043
1788681084645183200,12.458183349609374,9.764491081237793,0.8344342112541199,-0.35891932249069214
1788681084661052400,12.474052490234374,9.766402244567871,0.8748597502708435,-0.14961937069892883
1788681084676921300,12.48992138671875,9.7670259475708,0.878611147403717,-0.060190193355083466
1788681084692790500,12.50579052734375,9.766010284423828,0.8917547464370728,-0.01472746767103672
1788681084708690200,12.521690185546875,9.763513565063477,0.9187874794006348,-0.004145173355937004
1788681084724589800,12.53758984375,9.760679244995117,0.9483787417411804,-0.01008197944611311
1788681084740459000,12.553458984375,9.75989055633545,0.9564546346664429,-0.010555552318692207
1788681084756328200,12.569328125,9.759382247924805,0.9616519212722778,-0.008591338992118835
1788681084772197400,12.585197265625,9.757184028625488,0.9837265610694885,-0.0053785876370966434
1788681084788035800,12.601035888671875,9.750699996948242,1.046004295349121,-0.010830825194716454
1788681084803935500,12.616935546875,9.740742683410645,1.1347358226776123,-0.02647215686738491
1788681084819835100,12.632835205078125,9.73291015625,1.199674367904663,-0.04049892723560333
1788681084835704300,12.648704345703125,9.732247352600098,1.2049411535263062,-0.04311276599764824
1788681084851604000,12.66460400390625,9.742916107177734,1.11616849899292,-0.01182370912283659
1788681084867503600,12.680503662109375,9.758255958557129,0.9718964099884033,0.04740476235747337
1788681084883403300,12.6964033203125,9.768730163574219,0.8540244698524475,0.11373422294855118
1788681084899242000,12.712241943359375,9.768315315246582,0.851421594619751,0.15967252850532532
1788681084915141600,12.7281416015625,9.7566499710083,0.9732555747032166,0.17594879865646362
1788681084931010800,12.7440107421875,9.737921714782715,1.1459839344024658,0.17318463325500488
1788681084946910500,12.759910400390625,9.719918251037598,1.2902060747146606,0.17013131082057953
1788681084962840600,12.775840576171875,9.712178230285645,1.3456538915634155,0.18221662938594818
1788681084978740200,12.791740234375,9.717857360839844,1.2983769178390503,0.21872812509536743
1788681084994640000,12.807639892578125,9.731263160705566,1.1844234466552734,0.2646661102771759
1788681085010539500,12.82353955078125,9.74513053894043,1.0507187843322754,0.31432968378067017
1788681085026408700,12.83940869140625,9.755824089050293,0.9341187477111816,0.3488703668117523
1788681085042278000,12.85527783203125,9.762925148010254,0.8538243174552917,0.3559150993824005
1788681085058147000,12.87114697265625,9.76666259765625,0.8158473372459412,0.34216853976249695
1788681085074046700,12.887046630859375,9.767854690551758,0.8060853481292725,0.3311263918876648
1788681085089916000,12.902916015625,9.76690673828125,0.8156464099884033,0.3356311619281769
1788681085105784800,12.918784912109375,9.76501750946045,0.8301566243171692,0.354497492313385
1788681085121654000,12.934654052734375,9.763801574707031,0.8358356952667236,0.374091237783432
1788681085137553700,12.9505537109375,9.763915061950684,0.8308024406433105,0.38227009773254395
1788681085153453300,12.966453369140625,9.765508651733398,0.8150814771652222,0.37533292174339294
1788681085169292000,12.9822919921875,9.768105506896973,0.7906789779663086,0.35963955521583557
1788681085185191700,12.998191650390625,9.771465301513672,0.7582772970199585,0.33746787905693054
1788681085201060900,13.014060791015625,9.77450180053711,0.7441221475601196,0.27529463171958923
1788681085216960500,13.02996044921875,9.77407169342041,0.7982533574104309,0.026410270482301712
1788681085232799200,13.04579931640625,9.770806312561035,0.804686963558197,-0.23284219205379486
1788681085248699000,13.061698974609374,9.768272399902344,0.810737133026123,-0.3065032958984375
1788681085264567800,13.07756787109375,9.764780044555664,0.8416197896003723,-0.33337944746017456
1788681085280467500,13.093467529296875,9.760971069335938,0.8757439255714417,-0.3562327027320862
1788681085296336600,13.109336669921875,9.757222175598145,0.9072561860084534,-0.3793387711048126
1788681085312205800,13.125205810546875,9.75340747833252,0.9365228414535522,-0.4054127633571625
1788681085328075000,13.141074951171875,9.748848915100098,0.9691760540008545,-0.4370853900909424
1788681085343974700,13.156974609375,9.74152660369873,1.0210627317428589,-0.48008590936660767
1788681085359874300,13.172874267578125,9.730534553527832,1.0972440242767334,-0.5321129560470581
1788681085375774000,13.18877392578125,9.718768119812012,1.1714532375335693,-0.5862092971801758
1788681085391673600,13.204673583984375,9.71215534210205,1.2002569437026978,-0.6354534029960632
1788681085407573200,13.2205732421875,9.713529586791992,1.1606849431991577,-0.6859633326530457
1788681085423503400,13.23650341796875,9.719298362731934,1.0814355611801147,-0.732197642326355
1788681085439372500,13.25237255859375,9.72326374053955,1.0279947519302368,-0.7561467289924622
1788681085455241700,13.26824169921875,9.719934463500977,1.0692036151885986,-0.7416719198226929
1788681085471080400,13.28408056640625,9.710911750793457,1.1743690967559814,-0.6995986104011536
1788681085486980000,13.29997998046875,9.700356483459473,1.2864843606948853,-0.6468563079833984
1788681085502879700,13.315879638671875,9.692763328552246,1.3603780269622803,-0.6083442568778992
1788681085518749000,13.3317490234375,9.691635131835938,1.369608759880066,-0.6056149005889893
1788681085550517500,13.363517578125,9.704216957092285,1.2525588274002075,-0.6554787158966064
1788681085566447900,13.37944775390625,9.713141441345215,1.1665570735931396,-0.6814696788787842
1788681085582317000,13.395317138671874,9.722053527832031,1.080470085144043,-0.6961635947227478
1788681085598186000,13.41118603515625,9.730573654174805,0.9976685643196106,-0.7006973624229431
1788681085614055200,13.42705517578125,9.737760543823242,0.9286434054374695,-0.6957148909568787
1788681085629954800,13.442954833984375,9.750968933105469,0.8207409381866455,-0.6445075273513794
1788681085645885000,13.458885009765625,9.754585266113281,0.7928383350372314,-0.6243966817855835
1788681085661754000,13.474754150390625,9.756930351257324,0.7817791104316711,-0.6012676954269409
1788681085677623300,13.490623291015625,9.759088516235352,0.7741373777389526,-0.575580894947052
1788681085693462000,13.5064619140625,9.761712074279785,0.7588657736778259,-0.5508953332901001
1788681085709361700,13.522361572265625,9.76492977142334,0.7345278263092041,-0.5263055562973022
1788681085725200100,13.5382001953125,9.768536567687988,0.7045072317123413,-0.4997522830963135
1788681085741099800,13.554099853515625,9.773771286010742,0.7045331001281738,-0.3839520812034607
1788681085756969000,13.569968994140625,9.775111198425293,0.7692774534225464,-0.1606541872024536
1788681085772838100,13.585838134765625,9.768794059753418,0.8589788675308228,0.05673395097255707
1788681085788707300,13.601707275390625,9.7650728225708,0.8938260674476624,0.12174297869205475
1788681085804607000,13.61760693359375,9.762580871582031,0.9195427298545837,0.12971915304660797
1788681085820506600,13.633506591796875,9.759793281555176,0.9478133916854858,0.13588055968284607
1788681085836375800,13.649375732421875,9.757247924804688,0.9731494784355164,0.13960103690624237
1788681085852275500,13.665275390625,9.758151054382324,0.9621375203132629,0.15225812792778015
1788681085868175000,13.681175048828125,9.756281852722168,0.9823346734046936,0.14270876348018646
1788681085884044300,13.697044189453125,9.752511978149414,1.0198136568069458,0.1374111920595169
1788681085899882800,13.7128828125,9.746053695678711,1.0804073810577393,0.13241378962993622
1788681085915752000,13.728751953125,9.737092018127441,1.1592426300048828,0.12481927871704102
1788681085931682000,13.74468212890625,9.72936725616455,1.2223984003067017,0.12465883046388626
1788681085947551200,13.76055126953125,9.72901725769043,1.221323013305664,0.15805870294570923
1788681085963451000,13.776450927734375,9.736908912658691,1.145747423171997,0.22417952120304108
1788681085979350500,13.7923505859375,9.749258041381836,1.0169697999954224,0.296884149312973
1788681085995219700,13.8082197265625,9.756937026977539,0.9216287136077881,0.3509356677532196
1788681086011119400,13.824119384765625,9.754905700683594,0.9359121322631836,0.3691457509994507
1788681086027019000,13.84001904296875,9.741642951965332,1.0696178674697876,0.3559460937976837
1788681086042911700,13.855911865234376,9.721373558044434,1.2483280897140503,0.32704928517341614
1788681086058811400,13.871811279296875,9.705155372619629,1.3744126558303833,0.3022509515285492
1788681086074680600,13.8876806640625,9.702371597290039,1.395058512687683,0.2969760596752167
1788681086090580200,13.903580322265626,9.712056159973145,1.3233438730239868,0.30840054154396057
1788681086106419000,13.9194189453125,9.725447654724121,1.2180684804916382,0.3199482262134552
1788681086122318600,13.935318603515626,9.73535442352295,1.135051965713501,0.3238937258720398
1788681086138218200,13.95121826171875,9.741317749023438,1.0875294208526611,0.307254821062088
1788681086154118000,13.967117919921876,9.744540214538574,1.0678030252456665,0.2722233831882477
1788681086170017500,13.983017578125,9.74670696258545,1.0551172494888306,0.2425222247838974
1788681086185886700,13.99888671875,9.749289512634277,1.0332435369491577,0.23268654942512512
1788681086201756000,14.014755859375,9.751745223999023,1.006027340888977,0.24850524961948395
1788681086217624800,14.030624755859375,9.75157356262207,0.9980876445770264,0.28464415669441223
1788681086233494000,14.046493896484375,9.748114585876465,1.0207988023757935,0.3203336298465729
1788681086249332700,14.062332763671876,9.742047309875488,1.0709409713745117,0.34056001901626587
1788681086265202000,14.078201904296876,9.736342430114746,1.1206473112106323,0.3437618315219879
1788681086281132000,14.094132080078126,9.734121322631836,1.142181634902954,0.33569076657295227
1788681086297031700,14.11003173828125,9.735424041748047,1.1339999437332153,0.32549306750297546
1788681086312931300,14.125931396484376,9.739123344421387,1.1041386127471924,0.31740084290504456
1788681086328770000,14.14177001953125,9.742423057556152,1.0783743858337402,0.3044431805610657
1788681086344639000,14.157638916015625,9.743436813354492,1.0757331848144531,0.2803833782672882
1788681086360538600,14.17353857421875,9.741558074951172,1.1009469032287598,0.24566732347011566
1788681086376407800,14.18940771484375,9.737820625305176,1.1406751871109009,0.20998314023017883
1788681086392307500,14.205307373046875,9.734478950500488,1.1737245321273804,0.1807701140642166
1788681086408176600,14.2211767578125,9.733043670654297,1.1891738176345825,0.15529705584049225
1788681086424076300,14.237076171875,9.732356071472168,1.197784423828125,0.13014602661132812
1788681086439915000,14.2529150390625,9.729990005493164,1.2200149297714233,0.0961659848690033
1788681086455814700,14.268814697265626,9.72346019744873,1.273344874382019,0.057439979165792465
1788681086471714300,14.28471435546875,9.713167190551758,1.3506324291229248,0.023640476167201996
1788681086487614000,14.300614013671876,9.704705238342285,1.4103435277938843,0.004259922541677952
1788681086503544000,14.3165439453125,9.705412864685059,1.4054021835327148,-0.013971388339996338
1788681086519443700,14.332443603515625,9.71790599822998,1.3151799440383911,-0.05457604303956032
1788681086535343400,14.34834326171875,9.73337173461914,1.1914416551589966,-0.11108608543872833
1788681086551243000,14.364242919921875,9.741456031799316,1.116875171661377,-0.16433537006378174
1788681086567173400,14.38017333984375,9.737765312194824,1.1440284252166748,-0.19370996952056885
1788681086583011800,14.39601171875,9.721474647521973,1.275679111480713,-0.1896468549966812
1788681086598881000,14.411881103515626,9.699974060058594,1.431490182876587,-0.17810718715190887
1788681086614750200,14.427750244140626,9.681647300720215,1.5503569841384888,-0.18022111058235168
1788681086630589000,14.4435888671875,9.671439170837402,1.6102131605148315,-0.20217099785804749
1788681086646457900,14.459457763671875,9.672517776489258,1.5967150926589966,-0.2515667974948883
1788681086662296600,14.475296630859376,9.682209968566895,1.5270411968231201,-0.30551570653915405
1788681086678165800,14.491165771484376,9.69868278503418,1.412458896636963,-0.3330080807209015
1788681086694126300,14.507126220703125,9.715496063232422,1.2924162149429321,-0.3304452896118164
1788681086709995500,14.52299560546875,9.727490425109863,1.2048280239105225,-0.30776432156562805
1788681086725895200,14.538895263671876,9.733399391174316,1.1633824110031128,-0.27902111411094666
1788681086741734000,14.55473388671875,9.732319831848145,1.1771091222763062,-0.2583718001842499
1788681086757603000,14.57060302734375,9.72806453704834,1.2141903638839722,-0.24675172567367554
1788681086773502700,14.586502685546876,9.725279808044434,1.237903118133545,-0.23859183490276337
1788681086789402400,14.60240234375,9.725876808166504,1.2339004278182983,-0.2349454015493393
1788681086805271300,14.618271240234375,9.728767395019531,1.2120224237442017,-0.22906525433063507
1788681086821201700,14.63420166015625,9.731258392333984,1.195287823677063,-0.2104637175798416
1788681086837101300,14.650101318359376,9.730574607849121,1.204098105430603,-0.19092564284801483
1788681086853001000,14.6660009765625,9.726727485656738,1.2368203401565552,-0.17732585966587067
1788681086868870100,14.6818701171875,9.722010612487793,1.2746500968933105,-0.1678110808134079
1788681086884769800,14.697769775390626,9.71928596496582,1.2958877086639404,-0.1628972589969635
1788681086900639000,14.713638916015626,9.718609809875488,1.300877571105957,-0.16346962749958038
1788681086916538600,14.72953857421875,9.731555938720703,1.1938101053237915,-0.2050209492444992
1788681086932407600,14.745407470703125,9.748452186584473,1.0364404916763306,-0.2527085542678833
1788681086948307200,14.76130712890625,9.753911018371582,0.9831973314285278,-0.2547985315322876
1788681086964146000,14.77714599609375,9.756759643554688,0.9589565396308899,-0.23756252229213715
1788681086980045600,14.793045654296876,9.758687973022461,0.9454661011695862,-0.21089904010295868
1788681086995914800,14.808914794921876,9.759544372558594,0.9411758184432983,-0.18939189612865448
1788681087011814400,14.824814453125,9.757911682128906,0.9600886106491089,-0.17824804782867432
1788681087027683600,14.84068359375,9.754820823669434,0.9905238747596741,-0.1808759868144989
1788681087043552800,14.856552734375,9.753067970275879,1.0070087909698486,-0.18433146178722382
1788681087059421700,14.872421630859375,9.754988670349121,0.9905115962028503,-0.17164328694343567
1788681087075352000,14.88835205078125,9.761155128479004,0.935382068157196,-0.12369988858699799
1788681087091221200,14.90422119140625,9.769232749938965,0.8544641137123108,-0.0485568568110466
1788681087107090200,14.920090087890625,9.774529457092285,0.7928537130355835,0.018468407914042473
1788681087123020500,14.9360205078125,9.772862434387207,0.8120012879371643,0.046933237463235855
1788681087138889500,14.951889404296875,9.763202667236328,0.9208556413650513,0.04773940145969391
1788681087154758700,14.967758544921875,9.749208450317383,1.0590388774871826,0.04178239405155182
1788681087170658300,14.983658203125,9.736700057983398,1.1683013439178467,0.046224869787693024
1788681087186558000,14.999557861328125,9.731588363647461,1.2090753316879272,0.06855229288339615
1788681087202396700,15.015396728515626,9.733003616333008,1.1953727006912231,0.10057473927736282
1788681087218296300,15.03129638671875,9.737921714782715,1.1522002220153809,0.12526574730873108
1788681087234196000,15.047196044921876,9.74459457397461,1.093092679977417,0.13570228219032288
1788681087250065200,15.063065185546876,9.75269603729248,1.0192201137542725,0.12842874228954315
1788681087273868800,15.086868896484376,9.764627456665039,0.8994017243385315,0.11619626730680466
1788681087289738000,15.102738037109376,9.769372940063477,0.8461438417434692,0.11739292740821838
1788681087305607200,15.118607177734376,9.770401000976562,0.8326571583747864,0.1277945339679718
1788681087321506800,15.1345068359375,9.76857852935791,0.8505964875221252,0.14746296405792236
1788681087337406500,15.150406494140626,9.765523910522461,0.8807504177093506,0.17086945474147797
1788681087353306000,15.16630615234375,9.763667106628418,0.8981664180755615,0.18573099374771118
1788681087369175300,15.18217529296875,9.763609886169434,0.8973809480667114,0.1924338936805725
1788681087385044500,15.19804443359375,9.764875411987305,0.8833527565002441,0.19310857355594635
1788681087400944000,15.213944091796876,9.766782760620117,0.8626188635826111,0.19031484425067902
1788681087416813000,15.22981298828125,9.769012451171875,0.8381785154342651,0.1850658804178238
1788681087432682200,15.24568212890625,9.771161079406738,0.8146275877952576,0.17658962309360504
1788681087448551400,15.261551513671876,9.766633033752441,0.8791494965553284,0.10174831002950668
1788681087464481500,15.2774814453125,9.753430366516113,1.0195729732513428,-0.038157299160957336
1788681087480320300,15.2933203125,9.742751121520996,1.1084306240081787,-0.14342230558395386
1788681087496220000,15.309219970703126,9.739990234375,1.127324104309082,-0.1791837215423584
1788681087512150000,15.32514990234375,9.740385055541992,1.1221132278442383,-0.1901315599679947
1788681087528019200,15.341019287109376,9.741167068481445,1.1137949228286743,-0.19879239797592163
1788681087543888400,15.356888427734376,9.738850593566895,1.1316707134246826,-0.21092699468135834
1788681087559849000,15.372848876953125,9.732501029968262,1.179803490638733,-0.23850367963314056
1788681087575748600,15.38874853515625,9.721619606018066,1.2578972578048706,-0.27964791655540466
1788681087591617800,15.40461767578125,9.708938598632812,1.3428581953048706,-0.32191500067710876
1788681087607517400,15.420517333984375,9.699780464172363,1.3980376720428467,-0.36075982451438904
1788681087623386600,15.43638671875,9.698896408081055,1.3959615230560303,-0.3912677764892578
1788681087639255800,15.452255859375,9.70666217803955,1.3304258584976196,-0.4255066514015198
1788681087655155500,15.468155517578126,9.718457221984863,1.2294840812683105,-0.4586445987224579
1788681087671085600,15.48408544921875,9.725521087646484,1.1643608808517456,-0.4784204959869385
1788681087686954800,15.499954833984376,9.722661018371582,1.1913702487945557,-0.4699960947036743
1788681087702824000,15.515823974609376,9.710336685180664,1.2952187061309814,-0.4496136009693146
1788681087718723600,15.5317236328125,9.694063186645508,1.4140740633010864,-0.4426302909851074
1788681087734623200,15.547623291015626,9.682699203491211,1.4839131832122803,-0.4622940719127655
1788681087750492400,15.563492431640626,9.681412696838379,1.4786124229431152,-0.5043384432792664
1788681087766361600,15.579361572265626,9.687835693359375,1.4148378372192383,-0.5607596039772034
1788681087782261200,15.59526123046875,9.69749927520752,1.3255553245544434,-0.6097554564476013
1788681087798130200,15.611130126953125,9.707091331481934,1.2436304092407227,-0.6294161081314087
1788681087813999400,15.626999267578125,9.716349601745605,1.1735644340515137,-0.6210404634475708
1788681087829868500,15.64286865234375,9.72397232055664,1.1258684396743774,-0.5892208814620972
1788681087845768200,15.658768310546876,9.729391098022461,1.099603295326233,-0.5478982925415039
1788681087861637400,15.674637451171876,9.731451034545898,1.099191427230835,-0.5109056234359741
1788681087877537000,15.690537109375,9.73081111907959,1.1171560287475586,-0.4833941161632538
1788681087893436700,15.706436767578126,9.728350639343262,1.1418559551239014,-0.475130558013916
1788681087909305900,15.722305908203126,9.726582527160645,1.155269742012024,-0.4788745045661926
1788681087925175000,15.738175048828126,9.727133750915527,1.1487205028533936,-0.4834210276603699
1788681087941074700,15.75407470703125,9.728774070739746,1.1341978311538696,-0.4847000241279602
1788681087956944000,15.76994384765625,9.729796409606934,1.1261928081512451,-0.48284342885017395
1788681087972782300,15.7857822265625,9.72954273223877,1.13168466091156,-0.4750669002532959
1788681087988682000,15.801681884765625,9.727989196777344,1.1694762706756592,-0.4110093414783478
1788681088004551200,15.81755126953125,9.724690437316895,1.232942819595337,-0.2839401066303253
1788681088020420400,15.83342041015625,9.719159126281738,1.3003076314926147,-0.1324048787355423
1788681088036320000,15.849320068359376,9.716450691223145,1.3230321407318115,-0.10279486328363419
1788681088052219600,15.8652197265625,9.714055061340332,1.3417121171951294,-0.08565978705883026
1788681088068088800,15.8810888671875,9.712902069091797,1.3506526947021484,-0.07518058270215988
1788681088083988500,15.896988525390626,9.71340274810791,1.3475557565689087,-0.06556019186973572
1788681088099888000,15.91288818359375,9.714797019958496,1.3378658294677734,-0.05669303610920906
1788681088115787800,15.928787841796876,9.714406967163086,1.3410835266113281,-0.04669219255447388
1788681088131687400,15.9446875,9.709711074829102,1.3749065399169922,-0.039186056703329086
1788681088147587000,15.960587158203126,9.699828147888184,1.4429841041564941,-0.03904920443892479
1788681088163456300,15.976456298828126,9.688544273376465,1.516888976097107,-0.03922470659017563
1788681088179325400,15.992325439453126,9.682073593139648,1.5579458475112915,-0.0255292858928442
1788681088195225000,16.00822509765625,9.686241149902344,1.5319515466690063,0.015334932133555412
1788681088211124700,16.024124755859376,9.698768615722656,1.4486589431762695,0.07518142461776733
1788681088227024400,16.0400244140625,9.711771011352539,1.3551207780838013,0.12463457137346268
1788681088242893600,16.0558935546875,9.716485023498535,1.31818425655365,0.1506757140159607
1788681088258762800,16.0717626953125,9.708189964294434,1.3785406351089478,0.14511622488498688
1788681088274601200,16.087601318359376,9.693575859069824,1.4801877737045288,0.11837328225374222
1788681088290470400,16.103470458984376,9.680227279663086,1.5672392845153809,0.08575776219367981
1788681088306370000,16.1193701171875,9.675524711608887,1.5972113609313965,0.05927957966923714
1788681088322300200,16.135300048828125,9.680079460144043,1.5695363283157349,0.054851606488227844
1788681088338199800,16.15119970703125,9.688576698303223,1.515802264213562,0.06495002657175064
1788681088354038500,16.16703857421875,9.69805908203125,1.4533909559249878,0.07539806514978409
1788681088369938200,16.182938232421876,9.70682430267334,1.3934825658798218,0.07847177237272263
1788681088385807400,16.198807373046876,9.713964462280273,1.3430413007736206,0.07427585870027542
1788681088401676500,16.214676513671876,9.719009399414062,1.3062138557434082,0.0710497722029686
1788681088417545500,16.23054541015625,9.72124195098877,1.2894327640533447,0.07205525785684586
1788681088433414700,16.24641455078125,9.720532417297363,1.2945640087127686,0.07579897344112396
1788681088449283800,16.262283935546876,9.718153953552246,1.3120040893554688,0.08070208877325058
1788681088465153000,16.278153076171876,9.716229438781738,1.3260776996612549,0.08239208906888962
1788681088480991700,16.29399169921875,9.716218948364258,1.3264979124069214,0.07671356946229935
1788681088496860700,16.309860595703125,9.718690872192383,1.3087713718414307,0.06747706234455109
1788681088512791000,16.325791015625,9.722861289978027,1.2777739763259888,0.060463640838861465
1788681088528660000,16.341659912109375,9.727452278137207,1.2426036596298218,0.054591935127973557
1788681088544590300,16.35759033203125,9.731836318969727,1.2082558870315552,0.04330843314528465
1788681088560428800,16.3734287109375,9.735157012939453,1.181628942489624,0.029445217922329903
1788681088576298000,16.389298095703126,9.735060691833496,1.1827099323272705,-0.013403525575995445
1788681088592167200,16.405167236328126,9.726944923400879,1.2376632690429688,-0.1585073620080948
1788681088608066800,16.42106689453125,9.725441932678223,1.2526016235351562,-0.13099420070648193
1788681088623997000,16.436996826171875,9.721006393432617,1.290061593055725,-0.09037698805332184
1788681088639866000,16.4528662109375,9.721434593200684,1.2878243923187256,-0.07479552924633026
1788681088655735300,16.4687353515625,9.727298736572266,1.242802619934082,-0.07407686114311218
1788681088671635000,16.484635009765626,9.732786178588867,1.1986005306243896,-0.08139906078577042
1788681088687473700,16.5004736328125,9.730024337768555,1.2213717699050903,-0.0725814700126648
1788681088703373300,16.516373291015626,9.722997665405273,1.2757022380828857,-0.07921944558620453
1788681088719273000,16.53227294921875,9.716901779174805,1.3190983533859253,-0.11039828509092331
1788681088743107000,16.556107177734376,9.72044563293457,1.2799152135849,-0.2124423235654831
1788681088758976300,16.571976318359376,9.730572700500488,1.1792618036270142,-0.30933937430381775
1788681088774845400,16.587845458984376,9.741451263427734,1.0478330850601196,-0.4201863706111908
1788681088790745000,16.6037451171875,9.746488571166992,0.9462653398513794,-0.5300167798995972
1788681088814518300,16.627518310546876,9.738447189331055,0.9822015762329102,-0.6068854928016663
1788681088830387500,16.643387451171876,9.725655555725098,1.10684072971344,-0.597429096698761
1788681088846317600,16.659317626953126,9.710249900817871,1.2491176128387451,-0.5666980147361755
1788681088862217200,16.67521728515625,9.696916580200195,1.3569772243499756,-0.546649158000946
1788681088878086400,16.69108642578125,9.690744400024414,1.3990873098373413,-0.5499213337898254
1788681088893986000,16.706986083984376,9.691350936889648,1.3832486867904663,-0.5785547494888306
1788681088909885700,16.7228857421875,9.697263717651367,1.3244409561157227,-0.6158896088600159
1788681088925724400,16.738724365234376,9.705348014831543,1.247811198234558,-0.6477407217025757
1788681088941593300,16.75459326171875,9.713947296142578,1.1732230186462402,-0.6581547856330872
1788681088957462500,16.770462646484376,9.723751068115234,1.1050103902816772,-0.630874752998352
1788681088973331700,16.786331787109376,9.731568336486816,1.0570274591445923,-0.5913269519805908
1788681088989261800,16.80226171875,9.735136985778809,1.0428305864334106,-0.5567862391471863
1788681089005161500,16.818161376953125,9.7344970703125,1.0589910745620728,-0.5371090173721313
1788681089021030700,16.83403076171875,9.729507446289062,1.102664589881897,-0.5396302342414856
1788681089036899800,16.84989990234375,9.723052024841309,1.1498515605926514,-0.5572110414505005
1788681089052738600,16.865738525390626,9.718280792236328,1.175763487815857,-0.585663378238678
1788681089068638200,16.88163818359375,9.717012405395508,1.1734081506729126,-0.6108885407447815
1788681089084537900,16.897537841796876,9.71969223022461,1.1469873189926147,-0.6183663010597229
1788681089100407000,16.913406982421876,9.723641395568848,1.117318868637085,-0.6105532646179199
1788681089116306700,16.929306640625,9.72693157196045,1.0985651016235352,-0.5918915271759033
1788681089132206300,16.945206298828126,9.728567123413086,1.095523476600647,-0.5702510476112366
1788681089148044800,16.961044921875,9.728604316711426,1.107499599456787,-0.5459740161895752
1788681089163944400,16.9769443359375,9.727460861206055,1.1297682523727417,-0.5201091170310974
1788681089179813600,16.992813720703126,9.725227355957031,1.1581541299819946,-0.49902060627937317
1788681089195713300,17.00871337890625,9.721935272216797,1.189091444015503,-0.4903264045715332
1788681089211582500,17.02458251953125,9.715744972229004,1.2824236154556274,-0.3606473207473755
1788681089227421200,17.040421142578126,9.714570045471191,1.313817024230957,-0.2671903371810913
1788681089243290000,17.0562900390625,9.720714569091797,1.274595022201538,-0.23133470118045807
1788681089259220500,17.072220458984376,9.722395896911621,1.26468825340271,-0.214416041970253
1788681089275089400,17.08808935546875,9.720589637756348,1.281549334526062,-0.19532157480716705
1788681089290928000,17.10392822265625,9.71389389038086,1.3338603973388672,-0.17738252878189087
1788681089306827800,17.119827880859376,9.705187797546387,1.3983442783355713,-0.15603089332580566
1788681089322727400,17.1357275390625,9.701277732849121,1.4289417266845703,-0.11712971329689026
1788681089338596600,17.1515966796875,9.705074310302734,1.4070650339126587,-0.045777708292007446
1788681089354465800,17.1674658203125,9.716373443603516,1.3267956972122192,0.04581504687666893
1788681089370365400,17.183365478515626,9.728720664978027,1.2284958362579346,0.11477383226156235
1788681089386234600,17.199234619140626,9.73510456085205,1.1751720905303955,0.1308279037475586
1788681089402134300,17.21513427734375,9.733237266540527,1.1924400329589844,0.1120709702372551
1788681089418003500,17.23100341796875,9.725175857543945,1.2592644691467285,0.07483915239572525
1788681089433842000,17.246842041015626,9.71721363067627,1.320550799369812,0.047844287008047104
1788681089449772000,17.26277197265625,9.715367317199707,1.3338655233383179,0.05320632457733154
1788681089465641200,17.27864111328125,9.722207069396973,1.281593918800354,0.08125011622905731
1788681089481510400,17.294510498046876,9.732450485229492,1.1977132558822632,0.12359664589166641
1788681089497410000,17.31041015625,9.742481231689453,1.10906982421875,0.15624189376831055
1788681089513279200,17.326279296875,9.751065254211426,1.0294231176376343,0.1654961258172989
1788681089529148400,17.3421484375,9.757856369018555,0.9652622938156128,0.15130320191383362
1788681089545017600,17.358017578125,9.762258529663086,0.9223898649215698,0.133793443441391
1788681089560917200,17.373917236328126,9.763869285583496,0.9066480994224548,0.12339388579130173
1788681089576847400,17.389847412109376,9.762765884399414,0.9184948205947876,0.12318781018257141
1788681089592686000,17.40568603515625,9.759711265563965,0.9487631320953369,0.13515563309192657
1788681089608555000,17.421554931640625,9.755293846130371,0.9900408387184143,0.15637418627738953
1788681089624424200,17.437424072265625,9.750055313110352,1.0366830825805664,0.17919234931468964
1788681089640263000,17.453262939453126,9.74553394317627,1.0757797956466675,0.19402824342250824
1788681089656193000,17.469193115234376,9.74355697631836,1.0937540531158447,0.19279231131076813
1788681089672062200,17.485062255859376,9.744470596313477,1.0878827571868896,0.17942795157432556
1788681089695927000,17.508927001953126,9.747092247009277,1.066280722618103,0.16623809933662415
1788681089711765500,17.524765625,9.747230529785156,1.0661447048187256,0.15879739820957184
1788681089727604200,17.540604248046876,9.745490074157715,1.083222508430481,0.14978161454200745
1788681089743504000,17.55650390625,9.727357864379883,1.2404897212982178,-0.10039817541837692
1788681089759373000,17.572373046875,9.723374366760254,1.2682842016220093,-0.13353699445724487
1788681089775272700,17.588272705078126,9.723502159118652,1.2659151554107666,-0.146094411611557
1788681089791142000,17.604141845703126,9.729853630065918,1.2169069051742554,-0.13955563306808472
1788681089807010800,17.6200107421875,9.731072425842285,1.2047399282455444,-0.15879063308238983
1788681089822880000,17.6358798828125,9.726765632629395,1.2326195240020752,-0.20266374945640564
1788681089838779600,17.651779541015625,9.718733787536621,1.2854505777359009,-0.2534165382385254
1788681089854618400,17.667618408203126,9.707201957702637,1.3608307838439941,-0.2979186773300171
1788681089870518000,17.68351806640625,9.696557998657227,1.4283117055892944,-0.3272126317024231
1788681089886417700,17.699417724609376,9.692947387695312,1.4465391635894775,-0.35309934616088867
1788681089902286800,17.715286865234376,9.701547622680664,1.3761253356933594,-0.39578643441200256
1788681089918125300,17.731125244140625,9.717025756835938,1.2324477434158325,-0.480477511882782
1788681089934025000,17.74702490234375,9.728931427001953,1.0970704555511475,-0.5609939694404602
1788681089949924900,17.7629248046875,9.730860710144043,1.0628045797348022,-0.5926027894020081
1788681089965824500,17.778824462890626,9.719247817993164,1.1759517192840576,-0.5689874291419983
1788681089981693400,17.794693359375,9.699684143066406,1.3450747728347778,-0.5265715718269348
1788681089997593000,17.810593017578125,9.681724548339844,1.4840316772460938,-0.4819087088108063
1788681090013492700,17.82649267578125,9.671823501586914,1.555153727531433,-0.45575854182243347
1788681090029362000,17.84236181640625,9.674422264099121,1.5376415252685547,-0.46000248193740845
1788681090045231000,17.858231201171876,9.685132026672363,1.4608062505722046,-0.4844030439853668
1788681090061130800,17.874130859375,9.700460433959961,1.344313621520996,-0.5140883326530457
1788681090077030400,17.890030517578126,9.716344833374023,1.2170453071594238,-0.5308825969696045
1788681090092899600,17.905899658203126,9.730363845825195,1.1038142442703247,-0.5215458869934082
1788681090108768800,17.921768798828126,9.741632461547852,1.015265941619873,-0.49010759592056274
1788681090124607200,17.937607177734375,9.748913764953613,0.9608580470085144,-0.4536787271499634
1788681090140446000,17.953446044921876,9.752421379089355,0.9390838146209717,-0.4228402078151703
1788681090156315100,17.969315185546876,9.753640174865723,0.9363702535629272,-0.4001343846321106
1788681090172184300,17.985184326171876,9.75515365600586,0.928804874420166,-0.38036832213401794
1788681090188053500,18.001053466796876,9.757206916809082,0.9134689569473267,-0.3645108640193939
1788681090203953200,18.016953125,9.759016990661621,0.8984586596488953,-0.35319626331329346
1788681090219852800,18.032852783203126,9.759137153625488,0.9017847776412964,-0.34119728207588196
1788681090235722000,18.048721923828126,9.75543212890625,0.9464537501335144,-0.32580578327178955
1788681090251621600,18.06462158203125,9.747809410095215,1.0270551443099976,-0.30945056676864624
1788681090267490600,18.080490478515625,9.74748706817627,1.0342289209365845,-0.2954145669937134
1788681090283359700,18.09635986328125,9.747340202331543,1.0427733659744263,-0.2690003514289856
1788681090299259400,18.11225927734375,9.737013816833496,1.136195182800293,-0.26459309458732605
1788681090315128600,18.128128662109376,9.728515625,1.2070499658584595,-0.26342692971229553
1788681090330997800,18.143997802734376,9.72170639038086,1.2625495195388794,-0.2545149624347687
1788681090346867000,18.159866943359376,9.718591690063477,1.2926843166351318,-0.21985593438148499
1788681090362766600,18.1757666015625,9.716346740722656,1.313785195350647,-0.19225141406059265
1788681090378635800,18.1916357421875,9.715493202209473,1.322495698928833,-0.17492161691188812
1788681090394504700,18.207504638671875,9.7178955078125,1.303537130355835,-0.18355335295200348
1788681090410404400,18.223404296875,9.715876579284668,1.3151217699050903,-0.2063773274421692
1788681090426273500,18.2392734375,9.713142395019531,1.3297452926635742,-0.23882842063903809
1788681090442112300,18.2551123046875,9.713475227355957,1.3235282897949219,-0.2589297592639923
1788681090457981400,18.2709814453125,9.722640037536621,1.258858561515808,-0.2365303337574005
1788681090473850600,18.2868505859375,9.73804759979248,1.1392698287963867,-0.2070804387331009
1788681090489750300,18.302750244140626,9.751266479492188,1.0240455865859985,-0.18581776320934296
1788681090505650000,18.31864990234375,9.754313468933105,0.996013343334198,-0.17804913222789764
1788681090521488400,18.33448828125,9.74343490600586,1.0948588848114014,-0.1927124559879303
1788681090537357600,18.350357666015626,9.721353530883789,1.2690759897232056,-0.23478680849075317
1788681090553257200,18.36625732421875,9.694921493530273,1.4490362405776978,-0.2813841998577118
1788681090569156900,18.382156982421876,9.67788314819336,1.5544285774230957,-0.3044968843460083
1788681090585026000,18.398026123046876,9.678913116455078,1.5538442134857178,-0.2731393277645111
1788681090600895200,18.413895263671876,9.689480781555176,1.4958900213241577,-0.21602055430412292
1788681090616764400,18.429764404296876,9.701834678649902,1.4205925464630127,-0.16345179080963135
1788681090632664000,18.4456640625,9.711015701293945,1.3587403297424316,-0.142799973487854
1788681090648594200,18.46159423828125,9.715531349182129,1.3231639862060547,-0.16755349934101105
1788681090664524300,18.477524169921875,9.715631484985352,1.314260482788086,-0.22272443771362305
1788681090680393500,18.4933935546875,9.713296890258789,1.3218973875045776,-0.2735474705696106
1788681090696293000,18.509293212890626,9.709905624389648,1.340754508972168,-0.3008233606815338
1788681090712162300,18.525162353515626,9.705119132995605,1.3714134693145752,-0.31665676832199097
1788681090728092400,18.541092529296876,9.700016975402832,1.4011999368667603,-0.3416157066822052
1788681090743961600,18.556961669921876,9.697192192077637,1.4127204418182373,-0.3729141354560852
1788681090759861200,18.572861328125,9.698203086853027,1.395025610923767,-0.4112941324710846
1788681090775761000,18.588760986328126,9.700540542602539,1.3583563566207886,-0.47409021854400635
1788681090791599600,18.604599609375,9.704229354858398,1.3123522996902466,-0.5254063606262207
1788681090807438000,18.62043798828125,9.706480026245117,1.2851089239120483,-0.5505702495574951
1788681090823337700,18.636337646484375,9.704371452331543,1.297333836555481,-0.5589943528175354
1788681090839207000,18.65220703125,9.700878143310547,1.3286813497543335,-0.5458453297615051
1788681090855106600,18.6681064453125,9.698163032531738,1.3541102409362793,-0.5314121246337891
1788681090878941000,18.69194091796875,9.692038536071777,1.4028974771499634,-0.5163906216621399
1788681090894840600,18.707840576171876,9.68558120727539,1.442830204963684,-0.5273985266685486
1788681090910740200,18.723740234375,9.700798034667969,1.3824920654296875,-0.39194121956825256
1788681090926639900,18.739639892578126,9.705591201782227,1.3687632083892822,-0.31363824009895325
1788681090942539500,18.75553955078125,9.702314376831055,1.4013615846633911,-0.267718106508255
1788681090958408700,18.77140869140625,9.696626663208008,1.4425709247589111,-0.2545865774154663
1788681090974247200,18.7872470703125,9.6868257522583,1.4975059032440186,-0.30539560317993164
1788681090990116400,18.803116455078126,9.674735069274902,1.5501964092254639,-0.40840449929237366
1788681091005985500,18.818985595703126,9.666133880615234,1.5671058893203735,-0.5295524597167969
1788681091021885200,18.83488525390625,9.669122695922852,1.5234384536743164,-0.5979880094528198
1788681091037784800,18.850784912109376,9.687908172607422,1.408670425415039,-0.5748628377914429
1788681091053684500,18.8666845703125,9.709470748901367,1.2795430421829224,-0.5092559456825256
1788681091069523200,18.882523193359376,9.720928192138672,1.2068477869033813,-0.4663260281085968
1788681091085392400,18.898392333984376,9.716842651367188,1.2302312850952148,-0.489772766828537
1788681091101322500,18.914322509765626,9.696468353271484,1.3441306352615356,-0.5849754214286804
1788681091117191700,18.930191650390626,9.663336753845215,1.5075623989105225,-0.7194188237190247
1788681091133091300,18.94609130859375,9.623887062072754,1.6767523288726807,-0.8600462079048157
1788681091148960300,18.961960205078125,9.589455604553223,1.8071403503417969,-0.9731295704841614
1788681091164829400,18.977829345703125,9.567855834960938,1.878873348236084,-1.0470746755599976
1788681091180668200,18.993668212890626,9.562602996826172,1.8865666389465332,-1.080682635307312
1788681091196567800,19.00956787109375,9.573020935058594,1.8370763063430786,-1.0736902952194214
1788681091212437000,19.02543701171875,9.593332290649414,1.751678705215454,-1.0344024896621704
1788681091228367000,19.0413671875,9.615711212158203,1.6558197736740112,-0.9832372665405273
1788681091244297200,19.057297119140625,9.63258171081543,1.5767288208007812,-0.9474548101425171
1788681091260196900,19.07319677734375,9.641844749450684,1.5243980884552002,-0.9388444423675537
1788681091276127200,19.089127197265626,9.642580032348633,1.5064412355422974,-0.9600370526313782
1788681091291965700,19.104965576171875,9.639001846313477,1.5093638896942139,-0.9908855557441711
1788681091307865300,19.120865234375,9.634340286254883,1.5225605964660645,-1.0157126188278198
1788681091323704000,19.1367041015625,9.629343032836914,1.5402706861495972,-1.036194086074829
1788681091339603700,19.152603759765626,9.623616218566895,1.5668444633483887,-1.0494754314422607
1788681091355473000,19.168472900390626,9.616582870483398,1.6036810874938965,-1.0582696199417114
1788681091371372500,19.18437255859375,9.608454704284668,1.6504007577896118,-1.0602643489837646
1788681091387241700,19.20024169921875,9.607190132141113,1.7672579288482666,-0.8654974102973938
1788681091403110700,19.216110595703125,9.597784996032715,1.8812077045440674,-0.7169128060340881
1788681091418979800,19.231979736328125,9.585604667663574,1.9451011419296265,-0.7093321681022644
1788681091434849000,19.24784912109375,9.571907043457031,2.0026111602783203,-0.7338422536849976
1788681091450718200,19.26371826171875,9.558831214904785,2.039458751678467,-0.7998397946357727
1788681091466617900,19.279617919921876,9.549554824829102,2.0698180198669434,-0.8320087790489197
1788681091482548000,19.2955478515625,9.541146278381348,2.1159753799438477,-0.8121379613876343
1788681091498417200,19.311417236328126,9.544583320617676,2.1007304191589355,-0.8113195300102234
1788681091514286300,19.327286376953126,9.540287017822266,2.123821496963501,-0.8016819953918457
1788681091530155500,19.343155517578126,9.520939826965332,2.2082295417785645,-0.8036283254623413
1788681091545994000,19.358993896484375,9.493868827819824,2.3094966411590576,-0.8384847640991211
1788681091561893600,19.3748935546875,9.464543342590332,2.4148647785186768,-0.8724918961524963
1788681091577793300,19.390793212890625,9.443662643432617,2.5042707920074463,-0.8463160395622253
1788681091593693000,19.40669287109375,9.441391944885254,2.5486581325531006,-0.7313300371170044
1788681091609592800,19.4225927734375,9.4541654586792,2.5359044075012207,-0.5986061096191406
1788681091625461800,19.438461669921875,9.466354370117188,2.5059874057769775,-0.5277766585350037
1788681091641331000,19.4543310546875,9.459356307983398,2.520338296890259,-0.5821173191070557
1788681091657261000,19.470260986328125,9.43250846862793,2.587010145187378,-0.711025595664978
1788681091673191400,19.48619140625,9.392789840698242,2.6838059425354004,-0.8620173931121826
1788681091689060400,19.502060302734375,9.355935096740723,2.7680447101593018,-0.9873159527778625
1788681091704899000,19.517899169921876,9.33869457244873,2.8012447357177734,-1.054610013961792
1788681091720768300,19.533768310546876,9.330982208251953,2.8220083713531494,-1.0674378871917725
1788681091736668000,19.54966796875,9.334419250488281,2.8225510120391846,-1.0354697704315186
1788681091752598000,19.565597900390625,9.345555305480957,2.8035736083984375,-0.9853696227073669
1788681091768467200,19.58146728515625,9.364316940307617,2.7577216625213623,-0.9353811144828796
1788681091784366800,19.597366943359376,9.388671875,2.6850943565368652,-0.9019392132759094
1788681091800236000,19.613236083984376,9.415245056152344,2.592552661895752,-0.8956595659255981
1788681091816105200,19.629105224609376,9.438892364501953,2.495842933654785,-0.9211248159408569
1788681091831943700,19.644943603515625,9.456138610839844,2.4094722270965576,-0.9727638959884644
1788681091847782400,19.660782470703126,9.464849472045898,2.34896183013916,-1.0341109037399292
1788681091863651600,19.676651611328126,9.466320991516113,2.3185997009277344,-1.0877740383148193
1788681091879520800,19.692520751953126,9.463775634765625,2.3124773502349854,-1.122397541999817
1788681091895420400,19.70842041015625,9.459903717041016,2.3210458755493164,-1.1372606754302979
1788681091911350500,19.7243505859375,9.456541061401367,2.3362083435058594,-1.1341676712036133
1788681091927219700,19.7402197265625,9.453753471374512,2.352668285369873,-1.1233364343643188
1788681091943058200,19.75605810546875,9.452186584472656,2.3618967533111572,-1.1171363592147827
1788681091958957800,19.771957763671875,9.452327728271484,2.359071731567383,-1.1219083070755005
1788681091974827000,19.787826904296875,9.452425003051758,2.3474349975585938,-1.1452549695968628
1788681091998631000,19.811630859375,9.44920825958252,2.320557117462158,-1.2238681316375732
1788681092014469400,19.827469482421876,9.446951866149902,2.295834541320801,-1.2863205671310425
1788681092030338600,19.843338623046876,9.447493553161621,2.262735605239868,-1.3398789167404175
1788681092046238200,19.85923828125,9.453269958496094,2.216365098953247,-1.376152515411377
1788681092062137900,19.875137939453126,9.584681510925293,1.5996769666671753,-1.3210985660552979
1788681092078007000,19.891007080078126,9.581380844116211,1.5867786407470703,-1.3600223064422607
1788681092093937200,19.906937255859376,9.56225299835205,1.6220771074295044,-1.4500246047973633
1788681092109806300,19.922806396484376,9.52548599243164,1.7091525793075562,-1.58565092086792
1788681092125706000,19.9387060546875,9.487086296081543,1.804927110671997,-1.7052322626113892
1788681092141605600,19.954605712890626,9.468433380126953,1.8469679355621338,-1.7629133462905884
1788681092157535700,19.97053564453125,9.470108032226562,1.8029409646987915,-1.7991251945495605
1788681092173435400,19.986435302734375,9.479304313659668,1.6970608234405518,-1.852880597114563
1788681092189365800,20.00236572265625,9.479241371154785,1.5826619863510132,-1.9518076181411743
1788681092205265400,20.018265380859376,9.465330123901367,1.4979937076568604,-2.0818066596984863
1788681092221165000,20.0341650390625,9.435025215148926,1.4692840576171875,-2.234255075454712
1788681092237064700,20.050064697265626,9.394527435302734,1.486561894416809,-2.388176679611206
1788681092252964400,20.06596435546875,9.356243133544922,1.5368746519088745,-2.5038204193115234
1788681092268833500,20.08183349609375,9.33503532409668,1.5855257511138916,-2.552178144454956
1788681092284702500,20.097702392578125,9.348733901977539,1.6005393266677856,-2.4919559955596924
1788681092300632800,20.1136328125,9.388134956359863,1.583819031715393,-2.350494623184204
1788681092316501800,20.129501708984375,9.439499855041504,1.5381749868392944,-2.1680049896240234
1788681092332371000,20.145370849609375,9.4881591796875,1.475723147392273,-1.9918512105941772
1788681092348270600,20.1612705078125,9.524521827697754,1.4060187339782715,-1.864667534828186
1788681092364170200,20.177170166015625,9.546111106872559,1.338136076927185,-1.8032081127166748
1788681092380070000,20.19306982421875,9.55524730682373,1.274684190750122,-1.8007820844650269
1788681092395969500,20.208969482421875,9.557724952697754,1.216282844543457,-1.827821135520935
1788681092411838700,20.224838623046875,9.558120727539062,1.1684125661849976,-1.8567512035369873
1788681092427769000,20.24076904296875,9.557422637939453,1.1420451402664185,-1.876641035079956
1788681092443607600,20.256607666015626,9.557406425476074,1.139689564704895,-1.878157138824463
1788681092459507200,20.272507080078125,9.558478355407715,1.158568263053894,-1.8610738515853882
1788681092475406800,20.28840673828125,9.559468269348145,1.194621205329895,-1.8329839706420898
1788681092491276000,20.304276123046876,9.55976676940918,1.2384181022644043,-1.802099585533142
1788681092507206100,20.3202060546875,9.559579849243164,1.2772630453109741,-1.7757887840270996
1788681092523075300,20.336075439453126,9.557587623596191,1.3025555610656738,-1.768120527267456
1788681092538914000,20.3519140625,9.60888957977295,1.0525403022766113,-1.6528117656707764
1788681092554874600,20.36787451171875,9.60499382019043,1.0664360523223877,-1.6664899587631226
1788681092570743800,20.383743896484376,9.599584579467773,1.0919151306152344,-1.6810941696166992
1788681092586613000,20.399613037109376,9.59272575378418,1.138135313987732,-1.6895707845687866
1788681092602482200,20.415482177734376,9.586099624633789,1.1980125904083252,-1.685776948928833
1788681092618320600,20.431320556640625,9.581259727478027,1.2644611597061157,-1.664630651473999
1788681092634251000,20.4472509765625,9.578119277954102,1.3333081007003784,-1.6285892724990845
1788681092650120000,20.463119873046875,9.573431015014648,1.4122501611709595,-1.589136004447937
1788681092666019600,20.47901953125,9.56458568572998,1.5028132200241089,-1.5590537786483765
1788681092681919500,20.49491943359375,9.56863784790039,1.5987457036972046,-1.4337245225906372
1788681092697788400,20.510788330078125,9.569150924682617,1.6840227842330933,-1.3288381099700928
1788681092713718800,20.52671875,9.575834274291992,1.7267193794250488,-1.2215662002563477
1788681092729587700,20.542587646484375,9.584213256835938,1.7593603134155273,-1.1035796403884888
1788681092745487400,20.5584873046875,9.5830078125,1.8074408769607544,-1.0341700315475464
1788681092761356500,20.5743564453125,9.567018508911133,1.8871862888336182,-1.0397498607635498
1788681092777256200,20.590256103515625,9.541675567626953,1.9798210859298706,-1.0986896753311157
1788681092793125400,20.60612548828125,9.521979331970215,2.0427145957946777,-1.1530919075012207
1788681092808964000,20.621964111328126,9.521551132202148,2.0351057052612305,-1.169958472251892
