time,seconds_elapsed,z,y,x
1788681072391191800,0.20419189453125,0,-0.1313360333442688,0.016493361443281174
1788681072407091500,0.220091552734375,0.00855211354792118,-0.09651670604944229,-0.04703662544488907
1788681072422991000,0.2359912109375,0.0354301854968071,-0.004886921960860491,-0.09834930300712585
1788681072438921200,0.251921142578125,0.0659734457731247,0.06352998316287994,-0.1111774742603302
1788681072454790400,0.267790283203125,0.09224065393209457,0.10995574295520782,-0.07208210229873657
1788681072470659600,0.28365966796875,0.10262536257505417,0.09529497474431992,-0.015271631069481373
1788681072486528500,0.299528564453125,0.09224065393209457,0.00855211354792118,0.04459316283464432
1788681072502428200,0.31542822265625,0.048258353024721146,-0.1215621829032898,0.060475658625364304
1788681072518327800,0.331327880859375,0.019547687843441963,-0.19975294172763824,0.051312681287527084
1788681072534136000,0.347135986328125,0.02687807008624077,-0.19547687470912933,0.029932396486401558
1788681072550005200,0.363005126953125,0.05619960278272629,-0.16982053220272064,-0.01466076634824276
1788681072565905000,0.37890478515625,0.09407325088977814,-0.14538592100143433,-0.08002334833145142
1788681072581774000,0.394774169921875,0.11789698898792267,-0.1258382350206375,-0.10690141469240189
1788681072597673700,0.410673828125,0.11545353382825851,-0.10384709388017654,-0.0910189226269722
1788681072613542700,0.426542724609375,0.08979719132184982,-0.09468411654233932,-0.05742133408784866
1788681072629411800,0.442411865234375,0.0757472887635231,-0.1111774742603302,-0.01160643994808197
1788681072645311500,0.4583115234375,0.0959058403968811,-0.1875356286764145,0.05192354694008827
1788681072661211100,0.474211181640625,0.1062905490398407,-0.2993239760398865,0.13255776464939117
1788681072684984300,0.497984375,0.09896016865968704,-0.4178318381309509,0.19486601650714874
1788681072700884000,0.513884033203125,0.09712757170200348,-0.4306600093841553,0.21319197118282318
1788681072716783600,0.52978369140625,0.08674286305904388,-0.38179078698158264,0.19486601650714874
1788681072732683300,0.545683349609375,0.08185594528913498,-0.313373863697052,0.14905111491680145
1788681072748583200,0.561583251953125,0.08491026610136032,-0.26450464129447937,0.1007927656173706
1788681072764482800,0.57748291015625,0.060475658625364304,-0.27611109614372253,0.08918632566928864
1788681072780321300,0.5933212890625,0.004886921960860491,-0.3549126982688904,0.10506882518529892
1788681072796221000,0.609220947265625,-0.033597588539123535,-0.44165557622909546,0.12095131725072861
1788681072812120600,0.62512060546875,-0.04764748737215996,-0.5296201705932617,0.1411098688840866
1788681072828020200,0.641020263671875,-0.045204028487205505,-0.5497786998748779,0.1569923609495163
1788681072843920000,0.656919921875,-0.04581489413976669,-0.49357911944389343,0.16065755486488342
1788681072859850200,0.672850341796875,-0.14538592100143433,-0.23518311977386475,0.2974913716316223
1788681072875780400,0.6887802734375,-0.24007004499435425,-0.2125810980796814,0.4398229718208313
1788681072891649500,0.7046494140625,-0.12950342893600464,-0.23518311977386475,0.2125810980796814
1788681072907518700,0.720518798828125,-0.06414084881544113,-0.07269296050071716,-0.192422553896904
1788681072923387600,0.7363876953125,-0.03481931984424591,-0.036041051149368286,-0.6102544069290161
1788681072939256800,0.7522568359375,0.04153883829712868,0.34086281061172485,-0.8423831462860107
1788681072955187000,0.76818701171875,0.10506882518529892,0.35552358627319336,-0.6291912198066711
1788681072970995200,0.7839951171875,0.03848451003432274,0.13377949595451355,-0.6633996367454529
1788681072986864400,0.799864501953125,0.024434609338641167,0.152105450630188,-0.7391469478607178
1788681073002733600,0.815733642578125,0.04398229718208313,0.11423180252313614,-0.6218608021736145
1788681073018633200,0.83163330078125,0.024434609338641167,0.01710422709584236,-0.3396410644054413
1788681073034532900,0.847532958984375,-0.039095375686883926,-0.09162978827953339,-0.08002334833145142
1788681073050401800,0.86340185546875,-0.09224065393209457,-0.07024950534105301,-0.025656340643763542
1788681073074236200,0.887236083984375,-0.2669481039047241,0.08674286305904388,0.14355333149433136
1788681073090074600,0.90307470703125,-0.4544837474822998,-0.09162978827953339,0.6860016584396362
1788681073105974500,0.918974609375,-0.6829473376274109,-0.5839871764183044,1.0910053253173828
1788681073121843500,0.934843505859375,-0.6713408827781677,-0.7373143434524536,0.8594874143600464
1788681073137804300,0.95080419921875,-0.475253164768219,-0.5174028873443604,0.23090706765651703
1788681073153704000,0.966703857421875,-0.08796459436416626,0.17409659922122955,-0.2742784917354584
1788681073169573000,0.982572998046875,0.43737950921058655,0.6126978397369385,-0.17470745742321014
1788681073185411600,0.99841162109375,0.5351179838180542,0.5937610268592834,0.20952677726745605
1788681073201280800,1.01428076171875,0.29626965522766113,0.4001167416572571,0.4502076804637909
1788681073217180400,1.030180419921875,0.21807889640331268,0.0757472887635231,0.5338962078094482
1788681073233110500,1.046110595703125,0.09957103431224823,-0.1722639948129654,0.4092797040939331
1788681073248979700,1.061979736328125,0.029932396486401558,-0.22602014243602753,0.2021963894367218
1788681073264879400,1.07787939453125,0.09957103431224823,-0.05253441259264946,0.09834930300712585
1788681073288744200,1.101744140625,0.12400564551353455,0.14844025671482086,0.33169981837272644
1788681073304674300,1.11767431640625,0.20036379992961884,0.17043140530586243,0.6163630485534668
1788681073320543500,1.13354345703125,0.29016098380088806,0.12767083942890167,0.7324274182319641
1788681073336412700,1.14941259765625,0.38117989897727966,0.030543262138962746,0.7330383062362671
1788681073360216300,1.17321630859375,0.2626720666885376,-0.1417207419872284,0.30054569244384766
1788681073376085500,1.18908544921875,0.05619960278272629,-0.11911872029304504,0.007941247895359993
1788681073392015600,1.205015625,-0.12034045159816742,-0.009162978269159794,-0.24862214922904968
1788681073407884800,1.220884765625,-0.19425514340400696,0.1612684279680252,-0.31459560990333557
1788681073423815000,1.23681494140625,-0.2223549485206604,0.1514945775270462,-0.32681289315223694
1788681073439684000,1.25268408203125,-0.22113321721553802,0.2932153046131134,-0.40622538328170776
1788681073455583700,1.268583740234375,-0.11484266817569733,0.25473082065582275,-0.13255776464939117
1788681073471483400,1.2844833984375,-0.02932153269648552,0.04153883829712868,0.025656340643763542
1788681073487352600,1.3003525390625,-0.01466076634824276,-0.05742133408784866,0.10812314599752426
1788681073511186700,1.324186767578125,-0.13744467496871948,-0.07880161702632904,0.1264491081237793
1788681073527056000,1.340055908203125,-0.2889392673969269,-0.021380282938480377,0.05619960278272629
1788681073542986200,1.355986328125,-0.5241223573684692,0.18875735998153687,-0.20097467303276062
1788681073558824700,1.37182470703125,-0.7202101349830627,0.2223549485206604,-0.45204028487205505
1788681073574724400,1.387724365234375,-0.5864306092262268,0.26939156651496887,-0.8460483551025391
1788681073590654500,1.403654541015625,-0.19792033731937408,0.2932153046131134,-1.0653489828109741
1788681073606554400,1.419554443359375,-0.1007927656173706,0.08918632566928864,-1.0482447147369385
1788681073622484500,1.435484375,-0.14844025671482086,-0.06475171446800232,-0.8503243923187256
1788681073638384000,1.451384033203125,-0.21441370248794556,-0.15882496535778046,-0.5393940210342407
1788681073654283800,1.46728369140625,-0.25961771607398987,-0.20463985204696655,-0.29626965522766113
1788681073678118000,1.491117919921875,-0.19792033731937408,-0.16249015927314758,0.014049900695681572
1788681073694017500,1.507017578125,-0.01771509274840355,-0.030543262138962746,0.11178833991289139
1788681073709948000,1.522947998046875,0.2376265823841095,0.13988813757896423,0.09040805697441101
1788681073725786400,1.538786376953125,0.2076941877603531,0.18875735998153687,-0.04398229718208313
1788681073741655600,1.554655517578125,0.0555887371301651,0.42149701714515686,-0.19853121042251587
1788681073757555200,1.57055517578125,0.18387043476104736,0.43188172578811646,-0.16065755486488342
1788681073773394000,1.586393798828125,0.2981022298336029,0.2987131178379059,0.00427605677396059
1788681073789324000,1.602323974609375,0.06841690838336945,0.0910189226269722,0.07513642311096191
1788681073805132000,1.618132080078125,0.06902777403593063,0.2736676335334778,0.16310101747512817
1788681073821031700,1.63403173828125,0.11484266817569733,0.19364428520202637,0.3292563557624817
1788681073836900900,1.64990087890625,0.22602014243602753,0.20891591906547546,0.23945917189121246
1788681073852770000,1.66577001953125,0.25473082065582275,0.3194825351238251,0.23457226157188416
1788681073868700200,1.6817001953125,0.2828305959701538,0.2767219543457031,0.02382374368607998
1788681073884569300,1.6975693359375,0.21502456068992615,0.11911872029304504,-0.07635815441608429
1788681073900469000,1.713468994140625,0.13805554807186127,0.13927727937698364,-0.32559117674827576
1788681073916338200,1.729338134765625,0.12339477986097336,0.0507018156349659,-0.4331034719944
1788681073932237800,1.74523779296875,0.13988813757896423,-0.4306600093841553,-0.39095374941825867
1788681073948137500,1.761137451171875,-0.01466076634824276,-0.39645153284072876,-0.2791654169559479
1788681073964006700,1.777006591796875,-0.04398229718208313,-0.4996877610683441,-0.12400564551353455
1788681073979875800,1.792875732421875,0.02871066704392433,-0.3628539443016052,-0.24556782841682434
1788681073995806000,1.808805908203125,0.039706241339445114,-0.08307767659425735,-0.3323107063770294
1788681074011705600,1.82470556640625,-0.001832595793530345,-0.009773843921720982,-0.3530801236629486
1788681074027697000,1.84069677734375,-0.08918632566928864,-0.12034045159816742,-0.34208452701568604
1788681074043566000,1.856566162109375,-0.1264491081237793,-0.21807889640331268,-0.3585779070854187
1788681074059435000,1.87243505859375,-0.15760323405265808,-0.30604347586631775,-0.32498031854629517
1788681074075304200,1.88830419921875,-0.17959438264369965,-0.3634648323059082,-0.2064724564552307
1788681074091203800,1.904203857421875,-0.1661553531885147,-0.3744603991508484,-0.031154127791523933
1788681074107103500,1.920103515625,-0.14294247329235077,-0.3194825351238251,0.05925392732024193
1788681074122942200,1.935942138671875,-0.09834930300712585,-0.1820378452539444,0.09529497474431992
1788681074138811400,1.951811279296875,-0.06902777403593063,-0.051312681287527084,0.10262536257505417
1788681074154680600,1.9676806640625,-0.08552113175392151,0.015882495790719986,0.13500121235847473
1788681074170549500,1.983549560546875,-0.10445795953273773,0.0354301854968071,0.21563543379306793
1788681074186479900,1.99947998046875,-0.1111774742603302,0.06536258012056351,0.28649580478668213
1788681074202348800,2.015348876953125,-0.13011430203914642,0.09285151958465576,0.2675589919090271
1788681074218248700,2.031248779296875,-0.14844025671482086,0.10751228034496307,0.13377949595451355
1788681074234148400,2.0471484375,-0.1667662113904953,0.12034045159816742,-0.027488935738801956
1788681074250048000,2.063048095703125,-0.21135938167572021,0.14966198801994324,-0.15760323405265808
1788681074265917000,2.0789169921875,-0.2822197377681732,0.16249015927314758,-0.2724458873271942
1788681074281816600,2.094816650390625,-0.30482175946235657,0.07880161702632904,-0.3078760802745819
1788681074297685800,2.110685791015625,-0.2620611786842346,-0.039706241339445114,-0.30115658044815063
1788681074313555000,2.126554931640625,-0.18570303916931152,-0.13377949595451355,-0.28527405858039856
1788681074329454600,2.14245458984375,-0.07757988572120667,-0.24190263450145721,-0.2583959996700287
1788681074345415400,2.15841552734375,0.04703662544488907,-0.2871066629886627,-0.1918116807937622
1788681074361284400,2.174284423828125,0.1618792861700058,-0.26511552929878235,-0.039706241339445114
1788681074377153500,2.190153564453125,0.18875735998153687,-0.22296582162380219,0.09712757170200348
1788681074393053200,2.20605322265625,0.16249015927314758,-0.16249015927314758,0.21013765037059784
1788681074408952800,2.221952880859375,0.12217304855585098,-0.12828169763088226,0.2577851414680481
1788681074424852500,2.2378525390625,0.08857546001672745,-0.11972958594560623,0.24068090319633484
1788681074440721700,2.2537216796875,0.04886921867728233,-0.10262536257505417,0.16310101747512817
1788681074456621300,2.269621337890625,-0.004886921960860491,-0.06658431142568588,0.0354301854968071
1788681074472490500,2.285490478515625,-0.03848451003432274,-0.07880161702632904,-0.08246681094169617
1788681074488390100,2.30139013671875,-0.09712757170200348,-0.04642575979232788,-0.19547687470912933
1788681074504320300,2.3173203125,-0.06108652427792549,-0.028099801391363144,-0.21380282938480377
1788681074520189400,2.333189453125,-0.04092797264456749,0.019547687843441963,-0.13377949595451355
1788681074536058600,2.34905859375,-0.029932396486401558,0.03787364438176155,-0.06475171446800232
1788681074551958300,2.364958251953125,-0.010995574295520782,0.03726277872920036,-0.04764748737215996
1788681074567858000,2.38085791015625,0.010995574295520782,0.027488935738801956,-0.07757988572120667
1788681074583727000,2.39672705078125,0.06291911751031876,-0.02015855349600315,-0.11850785464048386
1788681074599596300,2.41259619140625,0.1563815027475357,-0.02321287989616394,-0.12889257073402405
1788681074615465500,2.428465576171875,0.22663100063800812,-0.04337143152952194,-0.10934487730264664
1788681074631334400,2.44433447265625,0.2687807083129883,-0.09224065393209457,-0.06658431142568588
1788681074647203600,2.46020361328125,0.2779437005519867,-0.11667526513338089,-0.05375614017248154
1788681074663134000,2.476134033203125,0.28955012559890747,-0.12034045159816742,-0.051312681287527084
1788681074678942000,2.49194189453125,0.30604347586631775,-0.08246681094169617,-0.006719517521560192
1788681074694872000,2.5078720703125,0.31154128909111023,-0.09468411654233932,0.059864792972803116
1788681074710771700,2.523771728515625,0.2889392673969269,-0.08918632566928864,0.08124507963657379
1788681074726701800,2.539701904296875,0.23518311977386475,-0.05314527451992035,0.07391469180583954
1788681074742601700,2.555601806640625,0.2223549485206604,-0.0012217304902151227,0.04703662544488907
1788681074758470700,2.571470703125,0.25045475363731384,0.02932153269648552,0.001832595793530345
1788681074774339800,2.58733984375,0.29565876722335815,0.010995574295520782,-0.02932153269648552
1788681074790209000,2.603208984375,0.38240164518356323,-0.08857546001672745,0.018325956538319588
1788681074806047700,2.6190478515625,0.4434881806373596,-0.1869247704744339,0.08674286305904388
1788681074821947400,2.634947509765625,0.4453207552433014,-0.40194934606552124,0.08185594528913498
1788681074837816300,2.65081640625,0.37140607833862305,-0.5271766781806946,-0.039095375686883926
1788681074853685500,2.666685546875,0.251676470041275,-0.48747047781944275,-0.20036379992961884
1788681074869524200,2.682524169921875,0.17959438264369965,-0.26572638750076294,-0.21868975460529327
1788681074885423900,2.698423828125,0.19853121042251587,-0.13255776464939117,0.027488935738801956
1788681074901323500,2.714323486328125,0.2816088795661926,-0.054367005825042725,0.37690386176109314
1788681074917162200,2.730162353515625,0.36163222789764404,-0.006108652334660292,0.6976081132888794
1788681074933062000,2.746061767578125,0.33597588539123535,0.1014036312699318,0.8063421249389648
1788681074948961500,2.76196142578125,0.28527405858039856,0.07513642311096191,0.6218608021736145
1788681074964861200,2.777861083984375,0.2376265823841095,-0.036041051149368286,0.17470745742321014
1788681074980760800,2.7937607421875,0.1973094791173935,-0.05864306539297104,-0.24434609711170197
1788681074996568800,2.80956884765625,0.11972958594560623,-0.03481931984424591,-0.6188064813613892
1788681075012438000,2.82543798828125,0.05742133408784866,0.03420845419168472,-0.7574729323387146
1788681075028337700,2.841337646484375,0.022602014243602753,0.17592918872833252,-0.6860016584396362
1788681075044206800,2.857206787109375,0.03420845419168472,0.18325957655906677,-0.49785518646240234
1788681075060137000,2.873136962890625,0.09651670604944229,0.11423180252313614,-0.19914206862449646
1788681075076006100,2.889006103515625,0.17348572611808777,0.03298672288656235,0.06719517707824707
1788681075091875300,2.904875244140625,0.251676470041275,-0.005497787147760391,0.2871066629886627
1788681075107713800,2.9207138671875,0.2889392673969269,0.001832595793530345,0.36713001132011414
1788681075123644200,2.93664404296875,0.313373863697052,0.021380282938480377,0.31581732630729675
1788681075139574300,2.95257421875,0.3182607889175415,0.001832595793530345,0.21074850857257843
1788681075155443500,2.968443359375,0.313373863697052,-0.01466076634824276,0.07757988572120667
1788681075171312600,2.984312744140625,0.2816088795661926,0.0006108652451075613,-0.03726277872920036
1788681075187212300,3.00021240234375,0.21074850857257843,-0.00855211354792118,-0.15271630883216858
1788681075203112000,3.01611181640625,0.14416420459747314,-0.01771509274840355,-0.2070833146572113
1788681075219011600,3.032011474609375,0.09468411654233932,-0.006108652334660292,-0.19853121042251587
1788681075234880800,3.047880859375,0.08674286305904388,0.00733038317412138,-0.15577064454555511
1788681075250749700,3.063749755859375,0.0959058403968811,0.0354301854968071,-0.0806342139840126
1788681075266649300,3.0796494140625,0.06658431142568588,0.03298672288656235,-0.056810468435287476
1788681075282549000,3.095549072265625,0.07513642311096191,-0.018325956538319588,-0.07819075137376785
1788681075298449000,3.111448974609375,0.12278391420841217,0.007941247895359993,-0.05497787147760391
1788681075314317800,3.12731787109375,0.16859880089759827,0.04092797264456749,0.018325956538319588
1788681075330156500,3.143156494140625,0.1765400618314743,0.036041051149368286,0.13988813757896423
1788681075345995300,3.158995361328125,0.16493362188339233,0.022602014243602753,0.2474004179239273
1788681075361925400,3.17492529296875,0.1508837193250656,0.009773843921720982,0.35613444447517395
1788681075377855500,3.19085546875,0.1722639948129654,0.00427605677396059,0.46364670991897583
1788681075393724700,3.206724609375,0.22663100063800812,-0.001832595793530345,0.6218608021736145
1788681075409593900,3.22259375,0.2675589919090271,0.006719517521560192,0.7476990818977356
1788681075425493500,3.238493408203125,0.252287358045578,0.00733038317412138,0.7666358947753906
1788681075441423600,3.254423583984375,0.16065755486488342,0.021380282938480377,0.607810914516449
1788681075457323300,3.2703232421875,0.030543262138962746,0.09468411654233932,0.24007004499435425
1788681075473192400,3.2861923828125,-0.028099801391363144,0.1618792861700058,-0.05619960278272629
1788681075489061600,3.3020615234375,0.01466076634824276,0.17287486791610718,-0.2278527319431305
1788681075504961300,3.317961181640625,0.07391469180583954,0.048258353024721146,-0.1814269721508026
1788681075520861000,3.33386083984375,0.13805554807186127,-0.17409659922122955,-0.00855211354792118
1788681075536791000,3.349791015625,0.20525072515010834,-0.31642818450927734,0.15882496535778046
1788681075560594700,3.3735947265625,0.2926044464111328,-0.22113321721553802,0.2480112910270691
1788681075576494300,3.389494384765625,0.31520646810531616,-0.039095375686883926,0.15943582355976105
1788681075592363500,3.405363525390625,0.34025195240974426,0.11484266817569733,0.03481931984424591
1788681075640032000,3.453031982421875,0.3842342495918274,0.001832595793530345,-0.5461135506629944
1788681075655931600,3.468931640625,0.4911356568336487,0.04214970022439957,-0.5913175344467163
1788681075671800800,3.48480078125,0.47769662737846375,-0.2528982162475586,-0.47830748558044434
1788681075687670000,3.500669921875,0.3805690407752991,-0.25534167885780334,-0.2474004179239273
1788681075703569700,3.516569580078125,0.4050036668777466,-0.20586158335208893,-0.0006108652451075613
1788681075719438800,3.53243896484375,0.46792277693748474,-0.1514945775270462,0.1313360333442688
1788681075735338500,3.54833837890625,0.5601634383201599,-0.13561208546161652,0.1215621829032898
1788681075751146500,3.564146484375,0.6023131608963013,-0.26083946228027344,0
1788681075767076600,3.58007666015625,0.5393940210342407,-0.33169981837272644,-0.13988813757896423
1788681075782915300,3.595915283203125,0.5601634383201599,-0.2730567753314972,-0.2021963894367218
1788681075798815000,3.61181494140625,0.66584312915802,-0.17409659922122955,-0.14049901068210602
1788681075814714600,3.627714599609375,0.6823364496231079,-0.06169738993048668,-0.010995574295520782
1788681075830522600,3.643522705078125,0.675616979598999,0.021380282938480377,0.11239920556545258
1788681075846391800,3.659391845703125,0.7055493593215942,-0.03848451003432274,0.10018189996480942
1788681075862261000,3.675260986328125,0.7684684991836548,-0.08002334833145142,0.029932396486401558
1788681075878099700,3.691099609375,0.8692612648010254,-0.08307767659425735,-0.024434609338641167
1788681075893999400,3.706999267578125,0.9724974632263184,0.0403171069920063,0.029932396486401558
1788681075909868500,3.72286865234375,1.1368201971054077,0.23640485107898712,0.16920967400074005
1788681075925737500,3.738737548828125,1.263269305229187,0.29016098380088806,0.2816088795661926
1788681075941637000,3.75463720703125,1.3310753107070923,0.14538592100143433,0.37079519033432007
1788681075957475800,3.770475830078125,1.3078625202178955,-0.006108652334660292,0.4153883755207062
1788681075973375500,3.78637548828125,1.2638801336288452,-0.20341812074184418,0.42638394236564636
1788681075989244700,3.80224462890625,1.2681562900543213,-0.3585779070854187,0.3695734739303589
1788681076005144300,3.818144287109375,1.2901474237442017,-0.6585127115249634,0.1618792861700058
1788681076021044000,3.8340439453125,1.3182471990585327,-0.9334021210670471,-0.11972958594560623
1788681076036943600,3.849943603515625,1.3078625202178955,-0.9853256344795227,-0.423329621553421
1788681076052935000,3.865934814453125,1.3054190874099731,-0.7189884185791016,-0.43615779280662537
1788681076068743000,3.881742919921875,1.3622294664382935,-0.21013765037059784,-0.11484266817569733
1788681076084673000,3.897673095703125,1.4501941204071045,0.012217304669320583,0.2321287989616394
1788681076100542200,3.913542236328125,1.4929546117782593,0.16249015927314758,0.4398229718208313
1788681076116441900,3.92944189453125,1.3683381080627441,0.23945917189121246,0.3744603991508484
1788681076132372200,3.945372314453125,1.158811330795288,0.05253441259264946,0.0012217304902151227
1788681076164140800,3.977140869140625,0.950506329536438,-0.2370157092809677,-0.6206390857696533
1788681076180040400,3.99304052734375,0.8643743395805359,-0.12522737681865692,-0.6243042945861816
1788681076195940400,4.0089404296875,0.7660250067710876,0.07269296050071716,-0.5070181488990784
1788681076211840000,4.024840087890625,0.6933320760726929,0.2174680233001709,-0.34513887763023376
1788681076227770000,4.04077001953125,0.6939429044723511,0.23396138846874237,-0.18020524084568024
1788681076243639300,4.056639404296875,0.7318165898323059,0.1007927656173706,-0.003054326167330146
1788681076259508200,4.07250830078125,0.7391469478607178,0.0403171069920063,0.1062905490398407
1788681076275408000,4.088407958984375,0.6860016584396362,0.009162978269159794,0.16982053220272064
1788681076291307800,4.104307861328125,0.6401867866516113,0.03298672288656235,0.2076941877603531
1788681076307146200,4.120146240234375,0.6304129362106323,-0.05314527451992035,0.24678955972194672
1788681076323015400,4.136015380859375,0.607200026512146,-0.054367005825042725,0.22846360504627228
1788681076338884600,4.151884521484375,0.5400048494338989,-0.0012217304902151227,0.1313360333442688
1788681076354784300,4.1677841796875,0.47708576917648315,0.054367005825042725,0.02382374368607998
1788681076370714400,4.18371435546875,0.3933972120285034,0.13500121235847473,-0.03787364438176155
1788681076386583600,4.19958349609375,0.304210901260376,0.14782938361167908,-0.003054326167330146
1788681076402513700,4.215513671875,0.24923302233219147,0.17898350954055786,0.15454891324043274
1788681076418382800,4.2313828125,0.252287358045578,0.1869247704744339,0.35552358627319336
1788681076434282500,4.247282470703125,0.23518311977386475,0.11301007121801376,0.4746423065662384
1788681076450212600,4.263212646484375,0.1563815027475357,-0.05864306539297104,0.394008070230484
1788681076466081800,4.279081787109375,0.07269296050071716,-0.1869247704744339,0.18509216606616974
1788681076481951000,4.294950927734375,0.08735372871160507,-0.19486601650714874,0.05925392732024193
1788681076497820200,4.310820068359375,0.14538592100143433,-0.11423180252313614,0.10445795953273773
1788681076513719800,4.3267197265625,0.17898350954055786,-0.05864306539297104,0.33536502718925476
1788681076529589000,4.342589111328125,0.16004669666290283,-0.10690141469240189,0.48808133602142334
1788681076545458200,4.358458251953125,0.04642575979232788,-0.18570303916931152,0.3903428912162781
1788681076561327000,4.3743271484375,-0.0708603709936142,-0.13744467496871948,0.13316862285137177
1788681076577196300,4.3901962890625,-0.11728613078594208,0.08246681094169617,-0.1215621829032898
1788681076593065500,4.4060654296875,-0.07819075137376785,0.17287486791610718,-0.1270599663257599
1788681076608965000,4.421965087890625,0.012217304669320583,0.05009094998240471,0.09407325088977814
1788681076624803800,4.437803955078125,0.1014036312699318,-0.06352998316287994,0.33658674359321594
1788681076640672800,4.4536728515625,0.1820378452539444,-0.13744467496871948,0.4648684561252594
1788681076656511500,4.469511474609375,0.21868975460529327,-0.13377949595451355,0.3597996234893799
1788681076672411100,4.4854111328125,0.2370157092809677,0.02382374368607998,0.04337143152952194
1788681076688341200,4.50134130859375,0.2583959996700287,0.20525072515010834,-0.24984388053417206
1788681076704241000,4.517240966796875,0.2938261926174164,0.2816088795661926,-0.49724429845809937
1788681076720110000,4.533110107421875,0.3121521472930908,0.22052235901355743,-0.5778785347938538
1788681076735979300,4.548979248046875,0.3335324227809906,0.18020524084568024,-0.5167919993400574
1788681076751879000,4.56487890625,0.31093040108680725,0.11056660860776901,-0.3500257730484009
1788681076767839700,4.58083984375,0.2816088795661926,-0.05192354694008827,-0.13439035415649414
1788681076783708700,4.596708740234375,0.2932153046131134,-0.1411098688840866,0.021380282938480377
1788681076799577900,4.612577880859375,0.3390302062034607,-0.16920967400074005,0.08552113175392151
1788681076815508200,4.62850830078125,0.38179078698158264,-0.1667662113904953,0.042760565876960754
1788681076831438300,4.644438232421875,0.4178318381309509,-0.17898350954055786,-0.04948008432984352
1788681076847368400,4.660368408203125,0.46731191873550415,-0.2278527319431305,-0.1313360333442688
1788681076863176400,4.676176513671875,0.5314527750015259,-0.3139847218990326,-0.20525072515010834
1788681076879045600,4.692045654296875,0.5711590051651001,-0.3793473243713379,-0.22602014243602753
1788681076894945300,4.7079453125,0.588874101638794,-0.39095374941825867,-0.182648703455925
1788681076910845000,4.723844970703125,0.5913175344467163,-0.3078760802745819,-0.10384709388017654
1788681076926714000,4.739714111328125,0.6004805564880371,-0.2541199326515198,-0.03298672288656235
1788681076942613800,4.75561376953125,0.6334672570228577,-0.16554448008537292,0.06658431142568588
1788681076958483000,4.77148291015625,0.656680166721344,-0.08857546001672745,0.12889257073402405
1788681076974352100,4.78735205078125,0.675616979598999,-0.054367005825042725,0.12950342893600464
1788681076990221300,4.80322119140625,0.7073819637298584,-0.031154127791523933,0.07513642311096191
1788681077006151400,4.8191513671875,0.7611380815505981,0.01771509274840355,0.01160643994808197
1788681077021959400,4.83495947265625,0.8155050873756409,0.05375614017248154,0.00733038317412138
1788681077037889800,4.850889892578125,0.836885392665863,0.07024950534105301,0.09529497474431992
1788681077053789400,4.86678955078125,0.8289441466331482,0.10323622822761536,0.21013765037059784
1788681077069689000,4.882689208984375,0.8319984674453735,0.0659734457731247,0.33292156457901
1788681077085619200,4.898619140625,0.8662069439888,-0.08002334833145142,0.33597588539123535
1788681077101458000,4.9144580078125,0.9071348905563354,-0.2974913716316223,0.1716531366109848
1788681077117357600,4.930357666015625,0.8588765263557434,-0.413555771112442,-0.10506882518529892
1788681077133257200,4.94625732421875,0.9071348905563354,-0.6114761233329773,-0.4502076804637909
1788681077149156900,4.962156982421875,0.9370672702789307,-0.5558874011039734,-0.4801400899887085
1788681077165056500,4.978056396484375,0.978606104850769,-0.29504790902137756,-0.09712757170200348
1788681077180895000,4.99389501953125,1.0054842233657837,-0.06352998316287994,0.375071257352829
1788681077196794600,5.009794677734375,1.0030407905578613,0.12095131725072861,0.7257078886032104
1788681077212694300,5.0256943359375,0.9584475755691528,0.31581732630729675,0.7281513810157776
1788681077228563500,5.0415634765625,0.8387179970741272,0.29993483424186707,0.4251621961593628
1788681077244463000,5.057463134765625,0.694553792476654,0.021380282938480377,-0.1368338167667389
1788681077260362800,5.07336279296875,0.6475171446800232,-0.14782938361167908,-0.5057964324951172
1788681077276232000,5.08923193359375,0.637132465839386,-0.060475658625364304,-0.6505714654922485
1788681077292101000,5.10510107421875,0.6041457056999207,0.1514945775270462,-0.5772676467895508
1788681077315996400,5.128996337890625,0.6010913848876953,0.4954117238521576,-0.12217304855585098
1788681077331896000,5.14489599609375,0.598647952079773,0.4508185386657715,0.12095131725072861
1788681077347765200,5.16076513671875,0.5894849896430969,0.2571742534637451,0.22540926933288574
1788681077363695400,5.1766953125,0.5803219676017761,0.06780604273080826,0.20830504596233368
1788681077379503400,5.19250341796875,0.5638286471366882,-0.029932396486401558,0.17898350954055786
1788681077395372500,5.20837255859375,0.5479460954666138,-0.006719517521560192,0.15882496535778046
1788681077411241700,5.22424169921875,0.5064072608947754,0.03176499158143997,0.14416420459747314
1788681077427141400,5.240141357421875,0.44837507605552673,0.04642575979232788,0.10995574295520782
1788681077443041000,5.256041015625,0.3952298164367676,0.0555887371301651,0.06475171446800232
1788681077458910200,5.27191015625,0.3335324227809906,0.06963863968849182,0.042760565876960754
1788681077474779400,5.287779296875,0.3139847218990326,0.15760323405265808,0.09773843735456467
1788681077498613500,5.311613525390625,0.35674530267715454,0.40133845806121826,0.43737950921058655
1788681077514513200,5.32751318359375,0.3799581825733185,0.5595525503158569,0.6774495840072632
1788681077530412800,5.343412841796875,0.34147366881370544,0.5021312236785889,0.788627028465271
1788681077546312400,5.3593125,0.23579397797584534,0.21624629199504852,0.6695083379745483
1788681077562242800,5.375242919921875,0.09407325088977814,-0.15943582355976105,0.4239404797554016
1788681077578050800,5.39105078125,0.045204028487205505,-0.24923302233219147,0.2431243658065796
1788681077593920000,5.406919921875,0.05375614017248154,-0.0757472887635231,0.24678955972194672
1788681077609789200,5.4227890625,0.0806342139840126,0.06658431142568588,0.32681289315223694
1788681077625658400,5.438658447265625,0.0507018156349659,-0.006108652334660292,0.2877175211906433
1788681077641558000,5.45455810546875,-0.08796459436416626,-0.10201449692249298,-0.0354301854968071
1788681077657396500,5.470396484375,-0.2223549485206604,-0.029932396486401558,-0.5442809462547302
1788681077681132800,5.4941328125,-0.22357667982578278,0.1667662113904953,-1.1527026891708374
1788681077696941000,5.509941162109375,-0.11667526513338089,0.021380282938480377,-0.8576548099517822
1788681077712871200,5.52587109375,-0.0012217304902151227,-0.18448130786418915,0.05864306539297104
1788681077736766500,5.549766357421875,0.1007927656173706,-0.13744467496871948,1.0286970138549805
1788681077752696600,5.565696533203125,0.10751228034496307,-0.04886921867728233,0.9584475755691528
1788681077768596200,5.58159619140625,0.0757472887635231,0.13561208546161652,0.4337143301963806
1788681077784495900,5.597495849609375,0.04459316283464432,0.3628539443016052,-0.1160643994808197
1788681077800365000,5.613364990234375,0.027488935738801956,0.49296826124191284,-0.5711590051651001
1788681077816203800,5.629203857421875,0.05803219974040985,0.5210680365562439,-0.7226535677909851
1788681077832103400,5.645103515625,0.10201449692249298,0.4202753007411957,-0.6505714654922485
1788681077848003000,5.661003173828125,0.13011430203914642,0.27611109614372253,-0.484416127204895
1788681077863933200,5.67693310546875,0.13561208546161652,0.010995574295520782,-0.2926044464111328
1788681077879863300,5.69286328125,0.11972958594560623,-0.14538592100143433,-0.152105450630188
1788681077895671600,5.708671630859375,0.08857546001672745,-0.15821409225463867,-0.07391469180583954
1788681077911540500,5.72454052734375,0.06902777403593063,-0.08429940044879913,-0.08429940044879913
1788681077927379200,5.740379150390625,0.054367005825042725,0.04337143152952194,-0.14477506279945374
1788681077943278800,5.75627880859375,0.036651913076639175,0.06291911751031876,-0.21563543379306793
1788681077959239400,5.772239501953125,0.03848451003432274,0.08246681094169617,-0.251676470041275
1788681077975047700,5.788047607421875,0.08429940044879913,0.07757988572120667,-0.21074850857257843
1788681077990947300,5.803947265625,0.12828169763088226,0.02321287989616394,-0.13805554807186127
1788681078006847000,5.819846923828125,0.14477506279945374,-0.0555887371301651,-0.08979719132184982
1788681078022716200,5.835716064453125,0.1814269721508026,-0.15393804013729095,-0.08979719132184982
1788681078038646300,5.851646240234375,0.2223549485206604,-0.15393804013729095,-0.11178833991289139
1788681078054485000,5.867485107421875,0.2681698501110077,-0.13500121235847473,-0.09162978827953339
1788681078070415000,5.8834150390625,0.30482175946235657,-0.07391469180583954,0.00855211354792118
1788681078086253800,5.89925390625,0.33169981837272644,-0.07941248267889023,0.11178833991289139
1788681078102153500,5.915153564453125,0.342695415019989,-0.1111774742603302,0.17104226350784302
1788681078118083600,5.93108349609375,0.34025195240974426,-0.08918632566928864,0.14233160018920898
1788681078133983200,5.946983154296875,0.3830125033855438,-0.0659734457731247,0.10751228034496307
1788681078149883000,5.9628828125,0.44287729263305664,-0.07635815441608429,0.14844025671482086
1788681078165721600,5.9787216796875,0.47280970215797424,-0.09773843735456467,0.30054569244384766
1788681078181621200,5.994621337890625,0.46853363513946533,-0.11972958594560623,0.4489859640598297
1788681078197551400,6.01055126953125,0.46242499351501465,-0.15454891324043274,0.47708576917648315
1788681078213420500,6.026420654296875,0.46670106053352356,-0.27550023794174194,0.28466320037841797
1788681078229259000,6.042259033203125,0.43615779280662537,-0.5216789245605469,-0.11301007121801376
1788681078245128200,6.058128173828125,0.41111230850219727,-0.6676757335662842,-0.4349360466003418
1788681078260997400,6.073997314453125,0.413555771112442,-0.6047565937042236,-0.5729916095733643
1788681078276866600,6.089866455078125,0.46181413531303406,-0.4245513379573822,-0.35063666105270386
1788681078292735700,6.10573583984375,0.5161811113357544,-0.13439035415649414,0.14294247329235077
1788681078308604700,6.121604736328125,0.5198463201522827,0.08491026610136032,0.46364670991897583
1788681078324473900,6.137473876953125,0.41233405470848083,0.3439171314239502,0.5021312236785889
1788681078340343000,6.153343017578125,0.33047810196876526,0.15882496535778046,0.2565633952617645
1788681078356212200,6.169212158203125,0.2528982162475586,-0.12034045159816742,-0.00855211354792118
1788681078372020200,6.185020263671875,0.1368338167667389,-0.2064724564552307,-0.21135938167572021
1788681078387889400,6.200889404296875,0.10384709388017654,-0.13072516024112701,-0.24617868661880493
1788681078403789000,6.2167890625,0.1215621829032898,0.03298672288656235,-0.1563815027475357
1788681078419688700,6.232688720703125,0.1508837193250656,0.19547687470912933,-0.06841690838336945
1788681078435588400,6.24858837890625,0.16371189057826996,0.30115658044815063,-0.03848451003432274
1788681078451488000,6.264488037109375,0.1771509200334549,0.2883284091949463,-0.0708603709936142
1788681078467357200,6.280357177734375,0.17592918872833252,0.17531833052635193,-0.08918632566928864
1788681078491160800,6.304160888671875,0.16004669666290283,0.013439035043120384,0.019547687843441963
1788681078507060500,6.320060546875,0.16859880089759827,-0.01160643994808197,0.18387043476104736
1788681078522929700,6.3359296875,0.1814269721508026,0.010995574295520782,0.29016098380088806
1788681078538798800,6.351798828125,0.1820378452539444,0.05742133408784866,0.27611109614372253
1788681078554698500,6.367698486328125,0.15393804013729095,0.0959058403968811,0.14477506279945374
1788681078570537200,6.383537109375,0.10812314599752426,0.11362093687057495,-0.0006108652451075613
1788681078586406400,6.399406494140625,0.036041051149368286,0.11178833991289139,-0.13439035415649414
1788681078602275300,6.415275390625,-0.0012217304902151227,0.0806342139840126,-0.18814650177955627
1788681078618205700,6.431205810546875,-0.003054326167330146,0.04153883829712868,-0.14294247329235077
1788681078634135800,6.4471357421875,0.01771509274840355,0.04948008432984352,-0.02015855349600315
1788681078649974500,6.462974609375,0.010995574295520782,0.04886921867728233,0.12339477986097336
1788681078665843500,6.478843505859375,-0.03298672288656235,0.01710422709584236,0.15393804013729095
1788681078681743000,6.4947431640625,-0.10201449692249298,-0.021380282938480377,0.09896016865968704
1788681078697642800,6.510642822265625,-0.13744467496871948,-0.02932153269648552,0.04398229718208313
1788681078713512000,6.526511962890625,-0.12767083942890167,0.022602014243602753,0.10995574295520782
1788681078729381000,6.542381103515625,-0.08185594528913498,0.13255776464939117,0.3219259977340698
1788681078745250300,6.558250244140625,-0.06230825558304787,0.17959438264369965,0.5638286471366882
1788681078761089000,6.574089111328125,-0.12278391420841217,0.1270599663257599,0.5021312236785889
1788681078776958000,6.5899580078125,-0.28099802136421204,0.08857546001672745,0.03481931984424591
1788681078792888300,6.605888427734375,-0.40256020426750183,0.14233160018920898,-0.5021312236785889
1788681078808757200,6.62175732421875,-0.42271876335144043,0.09529497474431992,-0.8026769161224365
1788681078824626400,6.63762646484375,-0.35124751925468445,-0.1215621829032898,-0.5357288122177124
1788681078840495600,6.65349560546875,-0.24678955972194672,-0.32009339332580566,0.21991148591041565
1788681078856425700,6.66942578125,-0.16310101747512817,-0.24862214922904968,0.7947356700897217
1788681078872295000,6.685294921875,-0.1215621829032898,-0.06169738993048668,0.9779952764511108
1788681078888103200,6.701103271484375,-0.12522737681865692,0.05192354694008827,0.7165449261665344
1788681078904002800,6.7170029296875,-0.1459967941045761,0.1411098688840866,0.1765400618314743
1788681078919933000,6.732932861328125,-0.15760323405265808,0.29565876722335815,-0.2382374405860901
1788681078935771600,6.748771728515625,-0.1417207419872284,0.4153883755207062,-0.5314527750015259
1788681078951671300,6.76467138671875,-0.09957103431224823,0.2742784917354584,-0.6352998614311218
1788681078967601400,6.780601318359375,-0.07819075137376785,0.05192354694008827,-0.5778785347938538
1788681078983501000,6.7965009765625,-0.054367005825042725,-0.13500121235847473,-0.3585779070854187
1788681078999370200,6.812370361328125,-0.02321287989616394,-0.23579397797584534,-0.11301007121801376
1788681079015239400,6.828239501953125,0.02687807008624077,-0.21563543379306793,0.1319468915462494
1788681079031169500,6.84416943359375,0.060475658625364304,-0.13255776464939117,0.2119702398777008
1788681079046977500,6.8599775390625,0.05742133408784866,-0.021991148591041565,0.14538592100143433
1788681079062846700,6.8758466796875,0.04459316283464432,0.02871066704392433,0.022602014243602753
1788681079078685400,6.891685546875,0.048258353024721146,0.03420845419168472,-0.11301007121801376
1788681079094585000,6.907585205078125,0.06658431142568588,0.02321287989616394,-0.19364428520202637
1788681079110454300,6.923454345703125,0.09957103431224823,-0.007941247895359993,-0.2076941877603531
1788681079126292700,6.939292724609375,0.15271630883216858,-0.06719517707824707,-0.13377949595451355
1788681079142222800,6.955222900390625,0.23273965716362,-0.11667526513338089,-0.007941247895359993
1788681079158061600,6.9710615234375,0.29565876722335815,-0.1667662113904953,0.06780604273080826
1788681079173930800,6.9869306640625,0.37201693654060364,-0.21135938167572021,0.1014036312699318
1788681079189860900,7.00286083984375,0.4147774875164032,-0.2730567753314972,0.07452555745840073
1788681079205730000,7.01872998046875,0.4300491213798523,-0.3439171314239502,0.03787364438176155
1788681079221599200,7.03459912109375,0.4648684561252594,-0.33108896017074585,0.04764748737215996
1788681079237499000,7.050498779296875,0.5180137157440186,-0.3066543638706207,0.10934487730264664
1788681079253368000,7.0663681640625,0.5656611919403076,-0.24434609711170197,0.1918116807937622
1788681079269298200,7.082298095703125,0.5858197808265686,-0.16798794269561768,0.31581732630729675
1788681079285136600,7.09813671875,0.5736024379730225,-0.11850785464048386,0.4129449129104614
1788681079301005800,7.114005859375,0.5644394755363464,-0.10751228034496307,0.3787364661693573
1788681079316905500,7.129905517578125,0.5265658497810364,-0.1417207419872284,0.16554448008537292
1788681079332805000,7.14580517578125,0.45142942667007446,-0.2571742534637451,-0.15577064454555511
1788681079348735500,7.161735595703125,0.38606682419776917,-0.3390302062034607,-0.4282165467739105
1788681079364635100,7.17763525390625,0.3323107063770294,-0.27550023794174194,-0.47708576917648315
1788681079380504300,7.19350439453125,0.3176499307155609,-0.10201449692249298,-0.23090706765651703
1788681079396342800,7.2093427734375,0.3805690407752991,-0.018936822190880775,0.09773843735456467
1788681079412242400,7.225242431640625,0.45265114307403564,-0.009162978269159794,0.3286454975605011
1788681079428172500,7.241172607421875,0.4703662395477295,-0.03237585723400116,0.28955012559890747
1788681079444041700,7.257041748046875,0.38728857040405273,-0.16798794269561768,0.04214970022439957
1788681079459911000,7.272910888671875,0.24495697021484375,-0.23335053026676178,-0.19975294172763824
1788681079475841000,7.288841064453125,0.12278391420841217,-0.1514945775270462,-0.2926044464111328
1788681079491710200,7.304710205078125,0.10323622822761536,-0.028099801391363144,-0.26450464129447937
1788681079507609900,7.32060986328125,0.11484266817569733,0.10812314599752426,-0.2021963894367218
1788681079523479000,7.33647900390625,0.07147123664617538,0.18814650177955627,-0.19425514340400696
1788681079539348200,7.35234814453125,-0.021991148591041565,0.14477506279945374,-0.2021963894367218
1788681079555247900,7.368247802734375,0.03298672288656235,-0.33536502718925476,0.2064724564552307
1788681079571147500,7.3841474609375,0.12828169763088226,-0.19120082259178162,0.3176499307155609
1788681079587016700,7.4000166015625,0.07391469180583954,-0.029932396486401558,0.08552113175392151
1788681079602824700,7.41582470703125,-0.028099801391363144,0.0959058403968811,-0.17287486791610718
1788681079618724400,7.431724365234375,-0.05253441259264946,-0.05314527451992035,-0.11484266817569733
1788681079634593500,7.447593505859375,0.08429940044879913,-0.3066543638706207,0.1472185254096985
1788681079650462700,7.463462646484375,0.1508837193250656,-0.09040805697441101,0.21441370248794556
1788681079666484500,7.479484375,0.07269296050071716,0.10323622822761536,-0.019547687843441963
1788681079690257700,7.503257568359375,-0.0757472887635231,0.26022860407829285,-0.42638394236564636
1788681079706187800,7.519187744140625,-0.14477506279945374,0.25045475363731384,-0.4300491213798523
1788681079722057000,7.535056884765625,-0.14782938361167908,0.15943582355976105,-0.10384709388017654
1788681079737926100,7.550926025390625,-0.06963863968849182,0.08552113175392151,0.34513887763023376
1788681079753825800,7.56682568359375,-0.009773843921720982,-0.009773843921720982,0.6059783101081848
1788681079769725400,7.582725341796875,-0.0708603709936142,-0.07208210229873657,0.46242499351501465
1788681079785655600,7.598655517578125,-0.16798794269561768,-0.07513642311096191,0.1667662113904953
1788681079801494300,7.614494384765625,-0.21930062770843506,-0.02321287989616394,0.04581489413976669
1788681079817394000,7.630393798828125,-0.20463985204696655,0.08674286305904388,0.11789698898792267
1788681079833263000,7.64626318359375,-0.19303341209888458,0.1459967941045761,0.21502456068992615
1788681079849132000,7.662132080078125,-0.24007004499435425,0.17531833052635193,0.14049901068210602
1788681079865062400,7.6780625,-0.2981022298336029,0.2779437005519867,-0.17531833052635193
1788681079880900900,7.69390087890625,-0.32559117674827576,0.40194934606552124,-0.5100724697113037
1788681079896770000,7.70977001953125,-0.34697145223617554,0.45326200127601624,-0.5919284224510193
1788681079912639200,7.72563916015625,-0.31581732630729675,0.29565876722335815,-0.2382374405860901
1788681079928539000,7.741538818359375,-0.242513507604599,-0.012217304669320583,0.4306600093841553
1788681079944469000,7.757468994140625,-0.23884831368923187,-0.13927727937698364,0.7825183868408203
1788681079960307700,7.7733076171875,-0.2669481039047241,-0.17409659922122955,0.788627028465271
1788681079976207400,7.789207275390625,-0.26145032048225403,-0.1264491081237793,0.5693264007568359
1788681079992076500,7.80507666015625,-0.2382374405860901,-0.0659734457731247,0.20830504596233368
1788681080007945700,7.82094580078125,-0.24373523890972137,0.04214970022439957,-0.09773843735456467
1788681080023845400,7.836845458984375,-0.2681698501110077,0.12950342893600464,-0.40072759985923767
1788681080039653400,7.8526533203125,-0.2767219543457031,0.003054326167330146,-0.5791002511978149
1788681080055583500,7.86858349609375,-0.2742784917354584,-0.17470745742321014,-0.6004805564880371
1788681080071452700,7.88445263671875,-0.23640485107898712,-0.2382374405860901,-0.43799036741256714
1788681080087321900,7.90032177734375,-0.17531833052635193,-0.25961771607398987,-0.13927727937698364
1788681080103221500,7.916221435546875,-0.13744467496871948,-0.19792033731937408,0.11362093687057495
1788681080119090700,7.932090576171875,-0.1111774742603302,-0.05925392732024193,0.27550023794174194
1788681080134959900,7.9479599609375,-0.12034045159816742,0.05192354694008827,0.24129177629947662
1788681080150859500,7.963859619140625,-0.17409659922122955,0.08429940044879913,0.06352998316287994
1788681080166759200,7.97975927734375,-0.18875735998153687,0.0708603709936142,-0.09285151958465576
1788681080182658800,7.995658935546875,-0.1563815027475357,0.04581489413976669,-0.21502456068992615
1788681080198589000,8.0115888671875,-0.10506882518529892,-0.006719517521560192,-0.2681698501110077
1788681080214458000,8.0274580078125,-0.05742133408784866,-0.0555887371301651,-0.27061331272125244
1788681080230327300,8.043327392578124,-0.02382374368607998,-0.08368854224681854,-0.19792033731937408
1788681080246196200,8.0591962890625,0.0012217304902151227,-0.10690141469240189,-0.1014036312699318
1788681080262126600,8.075126708984374,0.04764748737215996,-0.13988813757896423,0.03237585723400116
1788681080277995800,8.090995849609374,0.08246681094169617,-0.1771509200334549,0.1062905490398407
1788681080293864700,8.10686474609375,0.10812314599752426,-0.18631389737129211,0.08735372871160507
1788681080309703400,8.122703369140625,0.10812314599752426,-0.21135938167572021,0.036651913076639175
1788681080325603000,8.13860302734375,0.10995574295520782,-0.25534167885780334,0.019547687843441963
1788681080341563600,8.154563720703125,0.11239920556545258,-0.24862214922904968,0.08124507963657379
1788681080357432800,8.170432861328125,0.12400564551353455,-0.13988813757896423,0.22846360504627228
1788681080373302000,8.186302001953125,0.13255776464939117,-0.025656340643763542,0.33108896017074585
1788681080389140700,8.202140625,0.11301007121801376,-0.06169738993048668,0.2370157092809677
1788681080405010000,8.218010009765624,0.04948008432984352,-0.20097467303276062,-0.11545353382825851
1788681080420940000,8.23393994140625,-0.02871066704392433,-0.46242499351501465,-0.6163630485534668
1788681080436809200,8.249809326171874,-0.08857546001672745,-0.6615670323371887,-0.8093964457511902
1788681080452678100,8.26567822265625,-0.13805554807186127,-0.6835582256317139,-0.49357911944389343
1788681080468547300,8.28154736328125,-0.08979719132184982,-0.543059229850769,0.16493362188339233
1788681080484416500,8.29741650390625,0.09285151958465576,-0.21563543379306793,0.817337691783905
1788681080500285700,8.31328564453125,0.20891591906547546,0.05009094998240471,0.9437867999076843
1788681080516124400,8.32912451171875,0.2028072625398636,0.1368338167667389,0.6316346526145935
1788681080532024000,8.345024169921874,0.10567969083786011,0.08124507963657379,0.15271630883216858
1788681080547862500,8.360862548828125,-0.0354301854968071,0.00427605677396059,-0.3738495409488678
1788681080563762200,8.37676220703125,-0.1111774742603302,-0.04581489413976669,-0.645684540271759
1788681080579692500,8.392692626953124,-0.12522737681865692,-0.0012217304902151227,-0.7092145681381226
1788681080595561500,8.4085615234375,-0.06719517707824707,0.10384709388017654,-0.6243042945861816
1788681080611400200,8.424400146484375,0.01710422709584236,0.1966986060142517,-0.46853363513946533
1788681080627299800,8.4402998046875,0.06230825558304787,0.1869247704744339,-0.3090978264808655
1788681080643169000,8.4561689453125,0.059864792972803116,0.09896016865968704,-0.1716531366109848
1788681080659160300,8.472160400390624,0.015882495790719986,-0.060475658625364304,-0.02871066704392433
1788681080674968300,8.48796826171875,-0.01710422709584236,-0.1472185254096985,0.10018189996480942
1788681080690837500,8.50383740234375,-0.004886921960860491,-0.1264491081237793,0.22968533635139465
1788681080714702000,8.5277021484375,-0.004886921960860491,-0.06169738993048668,0.27000242471694946
1788681080730571300,8.5435712890625,-0.05803219974040985,-0.07696902006864548,0.1508837193250656
1788681080754344400,8.567344482421875,-0.14416420459747314,-0.06169738993048668,-0.060475658625364304
1788681080770213600,8.583213623046875,-0.16982053220272064,-0.025045474991202354,-0.11484266817569733
1788681080786082800,8.599082763671875,-0.1569923609495163,0.04337143152952194,-0.09468411654233932
1788681080801982500,8.614982421875,-0.1368338167667389,0.08918632566928864,0.01038470957428217
1788681080817851600,8.6308515625,-0.14233160018920898,0.09040805697441101,0.21868975460529327
1788681080833720800,8.646720947265624,-0.15577064454555511,0.05803219974040985,0.36224308609962463
1788681080849589800,8.66258984375,-0.16310101747512817,0,0.3689626157283783
1788681080865459000,8.678458984375,-0.18325957655906677,-0.012217304669320583,0.2535090744495392
1788681080881297700,8.694297607421875,-0.17043140530586243,0.08002334833145142,0.1765400618314743
1788681080897227800,8.710227783203125,-0.13805554807186127,0.19608774781227112,0.22418753802776337
1788681080913066500,8.72606640625,-0.11301007121801376,0.3072652220726013,0.3903428912162781
1788681080928935700,8.741935791015624,-0.09712757170200348,0.32986724376678467,0.5687155723571777
1788681080944835300,8.75783544921875,-0.1215621829032898,0.17898350954055786,0.6383541822433472
1788681080960704500,8.77370458984375,-0.21502456068992615,0.01038470957428217,0.5027421116828918
1788681080984569000,8.797569091796875,-0.394618958234787,-0.07269296050071716,-0.04337143152952194
1788681081000438300,8.813438232421875,-0.45326200127601624,-0.042760565876960754,-0.39767327904701233
1788681081016338000,8.829337890625,-0.4282165467739105,-0.04398229718208313,-0.40622538328170776
1788681081032207000,8.84520703125,-0.3396410644054413,-0.0959058403968811,-0.010995574295520782
1788681081048076300,8.861076171875,-0.2932153046131134,-0.12828169763088226,0.3952298164367676
1788681081063945500,8.876945556640624,-0.31581732630729675,-0.1368338167667389,0.5528330206871033
1788681081079845000,8.89284521484375,-0.36529740691185,-0.06230825558304787,0.37201693654060364
1788681081095714000,8.908714111328125,-0.394618958234787,0.1264491081237793,0.018936822190880775
1788681081119518000,8.93251806640625,-0.34086281061172485,0.29138273000717163,-0.3225368559360504
1788681081135448000,8.948447998046875,-0.26511552929878235,0.2779437005519867,-0.4251621961593628
1788681081151256000,8.964256103515625,-0.19425514340400696,0.11484266817569733,-0.4764748811721802
1788681081167125200,8.980125244140625,-0.18081611394882202,-0.10690141469240189,-0.4343251883983612
1788681081190929000,9.003928955078125,-0.16371189057826996,-0.33536502718925476,-0.23029619455337524
1788681081214763300,9.02776318359375,-0.11178833991289139,-0.24007004499435425,-0.0507018156349659
1788681081230663000,9.043662841796875,-0.0806342139840126,-0.13011430203914642,-0.027488935738801956
1788681081246532000,9.059531982421875,-0.0659734457731247,-0.03237585723400116,-0.042760565876960754
1788681081262431700,9.075431640625,-0.07024950534105301,-0.01466076634824276,-0.039706241339445114
1788681081278331400,9.091331298828125,-0.07024950534105301,-0.0507018156349659,-0.0403171069920063
1788681081294261500,9.107261474609375,-0.0555887371301651,-0.08185594528913498,-0.07696902006864548
1788681081310100200,9.123100341796874,-0.01160643994808197,-0.10995574295520782,-0.1612684279680252
1788681081325969400,9.138969482421874,0.021380282938480377,-0.1459967941045761,-0.19303341209888458
1788681081341869000,9.154869140625,0.04581489413976669,-0.1661553531885147,-0.14355333149433136
1788681081357707500,9.17070751953125,0.060475658625364304,-0.15454891324043274,-0.025656340643763542
1788681081373637600,9.1866376953125,0.08491026610136032,-0.17592918872833252,0.1264491081237793
1788681081389506800,9.2025068359375,0.14233160018920898,-0.17898350954055786,0.22357667982578278
1788681081405376000,9.2183759765625,0.23396138846874237,-0.12461651116609573,0.23518311977386475
1788681081421245200,9.2342451171875,0.28099802136421204,-0.0861319974064827,0.12522737681865692
1788681081437084000,9.250083984375,0.3072652220726013,-0.0806342139840126,0.01038470957428217
1788681081452983600,9.265983642578124,0.30054569244384766,-0.04459316283464432,-0.03298672288656235
1788681081468791600,9.28179150390625,0.27611109614372253,-0.021380282938480377,0.07635815441608429
1788681081484721700,9.2977216796875,0.2938261926174164,-0.051312681287527084,0.2565633952617645
1788681081500560400,9.313560302734375,0.32070425152778625,-0.11362093687057495,0.2791654169559479
1788681081516460000,9.3294599609375,0.35613444447517395,-0.2565633952617645,0.07024950534105301
1788681081532329200,9.3453291015625,0.35613444447517395,-0.48197266459465027,-0.2681698501110077
1788681081548228900,9.361228759765625,0.2816088795661926,-0.5925393104553223,-0.5125159621238708
1788681081564098000,9.37709814453125,0.21441370248794556,-0.5070181488990784,-0.30543261766433716
1788681081579936500,9.3929365234375,0.2681698501110077,-0.2840523421764374,0.3500257730484009
1788681081595836200,9.408836181640625,0.3695734739303589,-0.030543262138962746,0.837496280670166
1788681081611735800,9.42473583984375,0.3988949954509735,0.1966986060142517,0.8985827565193176
1788681081627635500,9.440635498046875,0.34513887763023376,0.21991148591041565,0.6102544069290161
1788681081643535000,9.45653515625,0.23151792585849762,0.1264491081237793,0.09773843735456467
1788681081659373800,9.472373779296875,0.12217304855585098,-0.012828170321881771,-0.3194825351238251
1788681081675273500,9.4882734375,0.054367005825042725,-0.1417207419872284,-0.5852088928222656
1788681081691203600,9.50420361328125,0.02871066704392433,-0.14966198801994324,-0.6236934065818787
1788681081707042300,9.520042236328125,0.025045474991202354,-0.00855211354792118,-0.5338962078094482
1788681081722911500,9.535911376953125,0.05009094998240471,0.10201449692249298,-0.38240164518356323
1788681081738750000,9.55175,0.06414084881544113,0.10934487730264664,-0.15515977144241333
1788681081754649600,9.567649658203125,0.05864306539297104,0.03481931984424591,0.04764748737215996
1788681081770518800,9.583518798828125,0.04886921867728233,-0.0659734457731247,0.19547687470912933
1788681081786388000,9.599387939453125,0.028099801391363144,-0.15027284622192383,0.2174680233001709
1788681081802287600,9.61528759765625,0.02382374368607998,-0.1869247704744339,0.17348572611808777
1788681081818217700,9.6312177734375,0.025656340643763542,-0.1466076523065567,0.11484266817569733
1788681081834148000,9.647148193359374,0.005497787147760391,-0.04764748737215996,0.036651913076639175
1788681081850017000,9.66301708984375,-0.06352998316287994,0.013439035043120384,-0.05619960278272629
1788681081865916700,9.678916748046875,-0.1270599663257599,0.02932153269648552,-0.16065755486488342
1788681081881785900,9.694785888671875,-0.17104226350784302,0.01466076634824276,-0.23579397797584534
1788681081897624600,9.71062451171875,-0.15943582355976105,0.033597588539123535,-0.22296582162380219
1788681081913493800,9.72649365234375,-0.1368338167667389,0.03726277872920036,-0.1472185254096985
1788681081929393400,9.742393310546875,-0.13927727937698364,0.04398229718208313,-0.07452555745840073
1788681081945262600,9.7582626953125,-0.13561208546161652,0.08002334833145142,0.01038470957428217
1788681081961131500,9.774131591796875,-0.14416420459747314,0.09712757170200348,0.07147123664617538
1788681081977000700,9.790000732421875,-0.16554448008537292,0.09712757170200348,0.12950342893600464
1788681081992870000,9.805869873046875,-0.1716531366109848,0.14049901068210602,0.18387043476104736
1788681082008769500,9.82176953125,-0.1618792861700058,0.20036379992961884,0.3072652220726013
1788681082024638700,9.837638671875,-0.17287486791610718,0.21930062770843506,0.4147774875164032
1788681082040538400,9.853538330078125,-0.21807889640331268,0.4050036668777466,0.5320636034011841
1788681082056407600,9.869407470703125,-0.24678955972194672,0.23640485107898712,0.1869247704744339
1788681082072307200,9.88530712890625,-0.3799581825733185,0.1765400618314743,-0.38179078698158264
1788681082088176400,9.90117626953125,-0.4495968222618103,0.152105450630188,-0.7428121566772461
1788681082103984400,9.916984375,-0.47219884395599365,-0.02687807008624077,-0.6212499737739563
1788681082119884000,9.932884033203125,-0.3732386529445648,-0.18814650177955627,-0.02687807008624077
1788681082135783700,9.94878369140625,-0.2681698501110077,-0.3078760802745819,0.6890559792518616
1788681082159679000,9.972678955078125,-0.2272418737411499,-0.17776179313659668,0.7513642311096191
1788681082175548200,9.988548095703125,-0.20952677726745605,-0.014049900695681572,0.39156460762023926
1788681082191478300,10.004478271484375,-0.21441370248794556,0.15271630883216858,-0.0555887371301651
1788681082223277600,10.036277587890625,-0.2321287989616394,0.0959058403968811,-0.34636059403419495
1788681082239116300,10.0521162109375,-0.2070833146572113,-0.004886921960860491,-0.3066543638706207
1788681082254985500,10.0679853515625,-0.20036379992961884,-0.11545353382825851,-0.18936823308467865
1788681082270885000,10.083885009765625,-0.16249015927314758,-0.15454891324043274,-0.06108652427792549
1788681082294719200,10.10771923828125,-0.0708603709936142,-0.1258382350206375,0.06352998316287994
1788681082310619000,10.123618896484375,-0.04337143152952194,-0.1319468915462494,0.07024950534105301
1788681082326549000,10.139549072265625,-0.04092797264456749,-0.1771509200334549,0.039706241339445114
1788681082342418200,10.155418212890625,-0.0507018156349659,-0.22052235901355743,-0.00733038317412138
1788681082358317800,10.17131787109375,-0.03176499158143997,-0.2638937830924988,-0.02626720629632473
1788681082374217500,10.187217529296875,0.015271631069481373,-0.24862214922904968,-0.03481931984424591
1788681082390086700,10.203086669921875,0.04398229718208313,-0.19853121042251587,-0.04764748737215996
1788681082405986300,10.218986328125,0.07757988572120667,-0.12400564551353455,-0.08368854224681854
1788681082421855500,10.23485546875,0.09285151958465576,-0.06475171446800232,-0.10201449692249298
1788681082437694200,10.250694091796875,0.11178833991289139,-0.01771509274840355,-0.07391469180583954
1788681082453563400,10.2665634765625,0.1368338167667389,-0.060475658625364304,-0.00366519158706069
1788681082469463000,10.282463134765624,0.1820378452539444,-0.14049901068210602,0.09957103431224823
1788681082485332000,10.29833203125,0.21991148591041565,-0.17776179313659668,0.1612684279680252
1788681082501201200,10.314201171875,0.28649580478668213,-0.14782938361167908,0.1765400618314743
1788681082517070300,10.3300703125,0.35735616087913513,-0.08368854224681854,0.17776179313659668
1788681082532970000,10.345969970703125,0.4141666293144226,-0.00366519158706069,0.2076941877603531
1788681082548869600,10.36186962890625,0.4147774875164032,0.018325956538319588,0.27488934993743896
1788681082564769300,10.377769287109375,0.3927863538265228,-0.07635815441608429,0.3341432809829712
1788681082580577500,10.39357763671875,0.37690386176109314,-0.2565633952617645,0.23151792585849762
1788681082596446500,10.409446533203125,0.40622538328170776,-0.4813618063926697,-0.11850785464048386
1788681082612315600,10.425315673828125,0.4153883755207062,-0.5931501388549805,-0.5711590051651001
1788681082628215300,10.44121533203125,0.37568211555480957,-0.4453207552433014,-0.7275404930114746
1788681082644145700,10.457145751953124,0.342695415019989,-0.2021963894367218,-0.41722095012664795
1788681082660014600,10.4730146484375,0.3689626157283783,-0.02932153269648552,0.1313360333442688
1788681082675883800,10.4888837890625,0.42149701714515686,0.12461651116609573,0.6310238242149353
1788681082691722500,10.504722412109375,0.39706242084503174,0.15577064454555511,0.6640105247497559
1788681082707622100,10.5206220703125,0.31031954288482666,0.11423180252313614,0.26511552929878235
1788681082723552300,10.53655224609375,0.20891591906547546,0.021991148591041565,-0.2370157092809677
1788681082739452000,10.552451904296875,0.0757472887635231,-0.042760565876960754,-0.6572909951210022
1788681082755351600,10.5683515625,0.04337143152952194,0.009162978269159794,-0.7757988572120667
1788681082771220700,10.584220703125,0.08307767659425735,0.0757472887635231,-0.7165449261665344
1788681082787059500,10.6000595703125,0.11789698898792267,0.09040805697441101,-0.5913175344467163
1788681082802989600,10.615989501953125,0.1215621829032898,0.14294247329235077,-0.4141666293144226
1788681082818828300,10.631828369140624,0.08857546001672745,0.16371189057826996,-0.2590068578720093
1788681082834697200,10.647697265625,0.02871066704392433,0.01038470957428217,-0.10690141469240189
1788681082850566400,10.66356640625,0.006719517521560192,-0.13866640627384186,0.009773843921720982
1788681082866466000,10.679466064453125,0.02321287989616394,-0.19120082259178162,0.15271630883216858
1788681082882396200,10.695396240234375,0.02687807008624077,-0.20097467303276062,0.22968533635139465
1788681082898204400,10.711204345703125,-0.004886921960860491,-0.16004669666290283,0.23518311977386475
1788681082914134500,10.727134521484375,-0.0354301854968071,-0.08674286305904388,0.15882496535778046
1788681082930064600,10.743064697265625,-0.0659734457731247,0.025656340643763542,0.007941247895359993
1788681082945933800,10.758933837890625,-0.08979719132184982,0.08796459436416626,-0.12034045159816742
1788681082961864000,10.774864013671875,-0.08857546001672745,0.13927727937698364,-0.15515977144241333
1788681082977702700,10.79070263671875,-0.08368854224681854,0.13927727937698364,-0.1270599663257599
1788681082993571800,10.80657177734375,-0.09834930300712585,0.09285151958465576,-0.06963863968849182
1788681083009410600,10.82241064453125,-0.14477506279945374,0.033597588539123535,0.01710422709584236
1788681083025310200,10.838310302734374,-0.19425514340400696,-0.018325956538319588,0.09162978827953339
1788681083041240300,10.854240234375,-0.23029619455337524,-0.07391469180583954,0.15821409225463867
1788681083057140000,10.870139892578125,-0.23151792585849762,-0.08552113175392151,0.18448130786418915
1788681083073039600,10.88603955078125,-0.21502456068992615,0.010995574295520782,0.20402899384498596
1788681083088939300,10.901939208984375,-0.22052235901355743,0.13316862285137177,0.2626720666885376
1788681083104839000,10.9178388671875,-0.21930062770843506,0.19975294172763824,0.4043927788734436
1788681083120738600,10.933738525390625,-0.252287358045578,0.12828169763088226,0.47708576917648315
1788681083136607700,10.949607666015625,-0.29993483424186707,0.07330382615327835,0.31459560990333557
1788681083152446200,10.9654462890625,-0.34697145223617554,0.1264491081237793,0
1788681083168346000,10.98134619140625,-0.41599923372268677,0.22540926933288574,-0.3591887652873993
1788681083184215000,10.997215087890625,-0.40133845806121826,0.2773328125476837,-0.42149701714515686
1788681083200114700,11.01311474609375,-0.304210901260376,0.17776179313659668,-0.03176499158143997
1788681083215983900,11.02898388671875,-0.23640485107898712,-0.009162978269159794,0.5094616413116455
1788681083231883500,11.044883544921875,-0.17959438264369965,-0.1820378452539444,0.912021815776825
1788681083247722200,11.06072216796875,-0.19486601650714874,-0.1814269721508026,0.8936958312988281
1788681083263591400,11.07659130859375,-0.23884831368923187,-0.07941248267889023,0.484416127204895
1788681083279521500,11.092521484375,-0.2767219543457031,0.06230825558304787,0.01771509274840355
1788681083295390700,11.108390625,-0.29993483424186707,0.18020524084568024,-0.4386012554168701
1788681083311290400,11.124290283203125,-0.2822197377681732,0.16310101747512817,-0.6866125464439392
1788681083327159600,11.14015966796875,-0.2321287989616394,0.051312681287527084,-0.7965682744979858
1788681083343028700,11.15602880859375,-0.1722639948129654,-0.05192354694008827,-0.6768386960029602
1788681083358897700,11.171897705078125,-0.09346238523721695,-0.14477506279945374,-0.41233405470848083
1788681083374706000,11.187705810546875,0,-0.17837265133857727,-0.10201449692249298
1788681083390575000,11.2035751953125,0.02932153269648552,-0.17959438264369965,0.022602014243602753
1788681083406413600,11.21941357421875,0.015882495790719986,-0.22907446324825287,-0.001832595793530345
1788681083422313200,11.235313232421875,0.0024434609804302454,-0.23457226157188416,-0.05253441259264946
1788681083438243300,11.251243408203125,0.009162978269159794,-0.2119702398777008,-0.08491026610136032
1788681083454051600,11.267051513671875,0.007941247895359993,-0.18081611394882202,-0.0959058403968811
1788681083469920800,11.282920654296875,-0.009162978269159794,-0.17104226350784302,-0.09712757170200348
1788681083485820400,11.2988203125,-0.007941247895359993,-0.1814269721508026,-0.1007927656173706
1788681083501689600,11.314689697265624,-0.0012217304902151227,-0.22418753802776337,-0.12034045159816742
1788681083517619700,11.33061962890625,0.009773843921720982,-0.2321287989616394,-0.12889257073402405
1788681083533489000,11.346489013671874,0.0354301854968071,-0.24068090319633484,-0.10812314599752426
1788681083549358000,11.362358154296874,0.056810468435287476,-0.22418753802776337,-0.05314527451992035
1788681083565257700,11.3782578125,0.10567969083786011,-0.1612684279680252,0.056810468435287476
1788681083581126700,11.394126708984375,0.14844025671482086,-0.09773843735456467,0.16065755486488342
1788681083597057000,11.41005712890625,0.19608774781227112,-0.00733038317412138,0.19303341209888458
1788681083612895500,11.4258955078125,0.23457226157188416,0.07696902006864548,0.14844025671482086
1788681083628764700,11.4417646484375,0.26450464129447937,0.08735372871160507,0.09346238523721695
1788681083644664300,11.457664306640625,0.2590068578720093,0.04764748737215996,0.10201449692249298
1788681083660564000,11.47356396484375,0.24862214922904968,-0.0012217304902151227,0.20402899384498596
1788681083676494000,11.489494140625,0.27000242471694946,-0.054367005825042725,0.384845107793808
1788681083692332800,11.505332763671875,0.37262779474258423,-0.11423180252313614,0.5253441333770752
1788681083708202000,11.521201904296875,0.4764748811721802,-0.2431243658065796,0.4599815309047699
1788681083724101600,11.5371015625,0.5613851547241211,-0.4660901725292206,0.16065755486488342
1788681083739970800,11.552970703125,0.5485569834709167,-0.598647952079773,-0.19792033731937408
1788681083755901000,11.56890087890625,0.4355469346046448,-0.5406157374382019,-0.2993239760398865
1788681083771770000,11.58477001953125,0.3335324227809906,-0.2590068578720093,-0.02687807008624077
1788681083787608600,11.600608642578125,0.3029891550540924,0.010995574295520782,0.3836233615875244
1788681083803508200,11.61650830078125,0.23640485107898712,0.25106561183929443,0.5894849896430969
1788681083819408100,11.632408203125,0.18509216606616974,0.2981022298336029,0.47830748558044434
1788681083835277000,11.648277099609375,0.10384709388017654,0.23457226157188416,0.12522737681865692
1788681083851115800,11.66411572265625,0.042760565876960754,0.1417207419872284,-0.19914206862449646
1788681083867046000,11.6800458984375,-0.01160643994808197,0.05009094998240471,-0.42088615894317627
1788681083882945500,11.695945556640625,-0.039095375686883926,0.009773843921720982,-0.485027015209198
1788681083898845200,11.71184521484375,-0.033597588539123535,0.02871066704392433,-0.5027421116828918
1788681083914775600,11.727775634765624,-0.024434609338641167,0.018325956538319588,-0.48197266459465027
1788681083930583600,11.74358349609375,-0.03848451003432274,-0.11239920556545258,-0.3677408695220947
1788681083946452700,11.75945263671875,-0.02871066704392433,-0.16737708449363708,-0.21319197118282318
1788681083962352400,11.775352294921875,0.005497787147760391,-0.20952677726745605,-0.03176499158143997
1788681083978221600,11.7912216796875,0.04459316283464432,-0.21502456068992615,0.07269296050071716
1788681083994212600,11.807212646484375,0.039706241339445114,-0.22357667982578278,0.10201449692249298
1788681084010051300,11.82305126953125,-0.024434609338641167,-0.20097467303276062,0.0861319974064827
1788681084025920500,11.83892041015625,-0.08918632566928864,-0.10690141469240189,0.033597588539123535
1788681084041820200,11.854820068359375,-0.1111774742603302,-0.025656340643763542,-0.04153883829712868
1788681084057689300,11.870689453125,-0.14294247329235077,0.025656340643763542,-0.1319468915462494
1788681084073589000,11.886589111328124,-0.1771509200334549,0.039095375686883926,-0.18936823308467865
1788681084089488600,11.902488525390625,-0.2028072625398636,0.07452555745840073,-0.2015855312347412
1788681084105357800,11.91835791015625,-0.21135938167572021,0.08918632566928864,-0.13988813757896423
1788681084121196300,11.9341962890625,-0.21868975460529327,0.07024950534105301,-0.016493361443281174
1788681084137065500,11.9500654296875,-0.2021963894367218,0.012828170321881771,0.14844025671482086
1788681084152965000,11.965965087890625,-0.17409659922122955,0.001832595793530345,0.24373523890972137
1788681084168803800,11.981803955078124,-0.18325957655906677,0.025045474991202354,0.25595253705978394
1788681084184672800,11.9976728515625,-0.20463985204696655,0.08674286305904388,0.18081611394882202
1788681084200511500,12.013511474609375,-0.23151792585849762,0.16065755486488342,0.09346238523721695
1788681084216380700,12.029380615234375,-0.2431243658065796,0.18631389737129211,0.10751228034496307
1788681084232280300,12.0452802734375,-0.21807889640331268,0.19608774781227112,0.24373523890972137
1788681084248180000,12.061179931640625,-0.20463985204696655,0.2076941877603531,0.32620203495025635
1788681084264049200,12.077049072265625,-0.22357667982578278,0.2278527319431305,0.17043140530586243
1788681084279918300,12.09291845703125,-0.2632829248905182,0.28527405858039856,-0.17348572611808777
1788681084295818000,12.10881787109375,-0.3023782968521118,0.3885102868080139,-0.5540547966957092
1788681084311778600,12.124778564453125,-0.24190263450145721,0.42638394236564636,-0.5027421116828918
1788681084327647700,12.140647705078125,-0.09957103431224823,0.24434609711170197,0.12400564551353455
1788681084343517000,12.156516845703125,-0.027488935738801956,-0.042760565876960754,0.7605272531509399
1788681084359355400,12.17235546875,-0.019547687843441963,-0.27061331272125244,1.0409144163131714
1788681084375224600,12.188224609375,-0.059864792972803116,-0.33169981837272644,0.8283332586288452
1788681084391124200,12.204124267578125,-0.1160643994808197,-0.28466320037841797,0.3066543638706207
1788681084406963000,12.219962890625,-0.14844025671482086,-0.16065755486488342,-0.152105450630188
1788681084422862600,12.235862548828125,-0.16920967400074005,-0.031154127791523933,-0.5302310585975647
1788681084438762200,12.25176220703125,-0.16982053220272064,-0.036651913076639175,-0.7177666425704956
1788681084454692400,12.2676923828125,-0.15515977144241333,-0.18997909128665924,-0.7330383062362671
1788681084470561500,12.2835615234375,-0.13744467496871948,-0.3170390725135803,-0.5809328556060791
1788681084486461200,12.299461181640625,-0.09407325088977814,-0.36224308609962463,-0.3084869384765625
1788681084502330400,12.315330322265625,-0.025045474991202354,-0.2370157092809677,-0.03298672288656235
1788681084518260500,12.331260498046875,0.04092797264456749,-0.10018189996480942,0.13500121235847473
1788681084534129700,12.347129638671875,0.054367005825042725,-0.039706241339445114,0.11178833991289139
1788681084550029300,12.363029296875,0.01771509274840355,-0.009773843921720982,-0.04092797264456749
1788681084565868000,12.378867919921875,-0.02076941914856434,0.0006108652451075613,-0.22846360504627228
1788681084581737200,12.3947373046875,-0.018325956538319588,-0.036041051149368286,-0.30115658044815063
1788681084597606100,12.410606201171875,0.005497787147760391,-0.04398229718208313,-0.2791654169559479
1788681084621440500,12.4344404296875,0.04337143152952194,-0.0861319974064827,-0.15454891324043274
1788681084637309700,12.450309814453124,0.06902777403593063,-0.10690141469240189,-0.06902777403593063
1788681084653179000,12.466178955078124,0.07208210229873657,-0.13744467496871948,-0.06414084881544113
1788681084669047800,12.4820478515625,0.07330382615327835,-0.15454891324043274,-0.03787364438176155
1788681084684917000,12.4979169921875,0.11178833991289139,-0.12095131725072861,0.042760565876960754
1788681084700816600,12.513816650390625,0.18936823308467865,-0.06475171446800232,0.1618792861700058
1788681084716685800,12.529685791015625,0.24617868661880493,0.013439035043120384,0.21013765037059784
1788681084732585500,12.54558544921875,0.2626720666885376,0.024434609338641167,0.13072516024112701
1788681084748485000,12.561485107421875,0.252287358045578,-0.02076941914856434,0.03298672288656235
1788681084764323800,12.57732373046875,0.24923302233219147,-0.054367005825042725,0.1007927656173706
1788681084780162300,12.593162353515625,0.22418753802776337,-0.00366519158706069,0.34758231043815613
1788681084796031500,12.609031494140625,0.28038713335990906,0.07513642311096191,0.5632177591323853
1788681084811961600,12.624961669921875,0.32498031854629517,0.0959058403968811,0.49846604466438293
1788681084827830800,12.640830810546875,0.4190535545349121,0.054367005825042725,0.1618792861700058
1788681084843700000,12.656699951171875,0.46364670991897583,-0.14233160018920898,-0.43127086758613586
1788681084859630000,12.672630126953125,0.4098905920982361,-0.3500257730484009,-0.8790351152420044
1788681084875529700,12.68852978515625,0.32009339332580566,-0.4508185386657715,-0.8723155856132507
1788681084891368400,12.704368408203125,0.33169981837272644,-0.37262779474258423,-0.2773328125476837
1788681084907268000,12.72026806640625,0.4086688458919525,-0.15577064454555511,0.6487388610839844
1788681084923106800,12.73610693359375,0.4141666293144226,-0.005497787147760391,1.1142182350158691
1788681084939037000,12.752036865234375,0.3274237811565399,0.024434609338641167,1.0421360731124878
1788681084954936600,12.7679365234375,0.20830504596233368,-0.04703662544488907,0.5766568183898926
1788681084970866700,12.78386669921875,0.045204028487205505,-0.24862214922904968,-0.16371189057826996
1788681084986766300,12.799766357421875,-0.07819075137376785,-0.34208452701568604,-0.646295428276062
1788681085002635500,12.815635498046875,-0.1270599663257599,-0.384845107793808,-0.8668177723884583
1788681085018504700,12.831504638671875,-0.09285151958465576,-0.32986724376678467,-0.8093964457511902
1788681085034374000,12.847373779296875,-0.00855211354792118,-0.13316862285137177,-0.5736024379730225
1788681085050273500,12.8632734375,0.03481931984424591,0.00733038317412138,-0.2583959996700287
1788681085066173200,12.879173095703125,0.06536258012056351,0.005497787147760391,-0.04459316283464432
1788681085082011600,12.89501171875,0.11484266817569733,-0.07757988572120667,0.08735372871160507
1788681085097880800,12.910880859375,0.13500121235847473,-0.1569923609495163,0.11972958594560623
1788681085113750000,12.92675,0.12278391420841217,-0.17470745742321014,0.06536258012056351
1788681085129649700,12.942649658203125,0.11056660860776901,-0.11178833991289139,-0.00733038317412138
1788681085145579800,12.958579833984375,0.08796459436416626,-0.01038470957428217,-0.07635815441608429
1788681085161449000,12.974448974609375,0.051312681287527084,0.04948008432984352,-0.13744467496871948
1788681085177318100,12.990318115234375,-0.003054326167330146,0.09407325088977814,-0.19547687470912933
1788681085193156900,13.006156982421874,-0.015271631069481373,0.09285151958465576,-0.21624629199504852
1788681085209026000,13.022026123046874,0.010995574295520782,0.07147123664617538,-0.15271630883216858
1788681085224956200,13.0379560546875,0.03481931984424591,0.08674286305904388,-0.03298672288656235
1788681085240794600,13.053794677734375,0.02015855349600315,0.12339477986097336,0.11301007121801376
1788681085256663800,13.069663818359375,-0.01038470957428217,0.1319468915462494,0.19608774781227112
1788681085272533000,13.085532958984375,-0.06536258012056351,0.09957103431224823,0.23335053026676178
1788681085288432600,13.1014326171875,-0.1270599663257599,0.08796459436416626,0.2278527319431305
1788681085304332300,13.117332275390625,-0.1612684279680252,0.10384709388017654,0.20525072515010834
1788681085320171000,13.1331708984375,-0.16859880089759827,0.1264491081237793,0.2028072625398636
1788681085336070700,13.149070556640625,-0.1716531366109848,0.19547687470912933,0.3072652220726013
1788681085351970300,13.16497021484375,-0.1618792861700058,0.2590068578720093,0.47342056035995483
1788681085367870000,13.180869873046875,-0.13561208546161652,0.294437050819397,0.5277875661849976
1788681085383800000,13.196800048828125,-0.1569923609495163,0.26145032048225403,0.3280346393585205
1788681085399669200,13.212669189453125,-0.24068090319633484,0.251676470041275,-0.12828169763088226
1788681085415599400,13.228599365234375,-0.31581732630729675,0.2480112910270691,-0.45631635189056396
1788681085431468500,13.244468505859375,-0.33475416898727417,0.11667526513338089,-0.41599923372268677
1788681085447368200,13.2603681640625,-0.28099802136421204,-0.11362093687057495,0.1563815027475357
1788681085463237400,13.2762373046875,-0.24129177629947662,-0.3121521472930908,0.645684540271759
1788681085479045400,13.29204541015625,-0.2577851414680481,-0.4251621961593628,0.7874053120613098
1788681085494975700,13.307975830078124,-0.26572638750076294,-0.37079519033432007,0.5852088928222656
1788681085510875400,13.32387548828125,-0.2382374405860901,-0.1417207419872284,0.17043140530586243
1788681085550578700,13.36357861328125,-0.20463985204696655,0.12950342893600464,-0.503963828086853
1788681085566478300,13.379478271484375,-0.1716531366109848,0.0861319974064827,-0.5448917746543884
1788681085582378000,13.3953779296875,-0.16798794269561768,0.015882495790719986,-0.5406157374382019
1788681085598247200,13.4112470703125,-0.16737708449363708,-0.0507018156349659,-0.5070181488990784
1788681085614116400,13.427116455078124,-0.12278391420841217,-0.09957103431224823,-0.40622538328170776
1788681085630016000,13.44301611328125,-0.07330382615327835,-0.14844025671482086,-0.2583959996700287
1788681085645946000,13.458946044921875,-0.056810468435287476,-0.18020524084568024,-0.13072516024112701
1788681085661845800,13.474845703125,-0.06169738993048668,-0.2070833146572113,-0.04153883829712868
1788681085677653800,13.49065380859375,-0.08796459436416626,-0.21868975460529327,-0.045204028487205505
1788681085693523000,13.50652294921875,-0.11362093687057495,-0.2119702398777008,-0.10506882518529892
1788681085709392100,13.52239208984375,-0.12339477986097336,-0.21441370248794556,-0.1563815027475357
1788681085725261300,13.53826123046875,-0.11972958594560623,-0.23151792585849762,-0.18875735998153687
1788681085741191400,13.55419140625,-0.09651670604944229,-0.20891591906547546,-0.15882496535778046
1788681085756999700,13.569999755859374,-0.05192354694008827,-0.16004669666290283,-0.06963863968849182
1788681085772868600,13.58586865234375,0.00366519158706069,-0.12522737681865692,0.027488935738801956
1788681085788768300,13.601768310546875,0.05864306539297104,-0.0910189226269722,0.12889257073402405
1788681085804637400,13.617637451171875,0.10873401165008545,-0.07330382615327835,0.182648703455925
1788681085820567600,13.633567626953125,0.13377949595451355,-0.05803219974040985,0.19120082259178162
1788681085836436700,13.649436767578125,0.15271630883216858,-0.04153883829712868,0.16920967400074005
1788681085852336400,13.66533642578125,0.20402899384498596,0.025656340643763542,0.14233160018920898
1788681085868205600,13.68120556640625,0.2583959996700287,0.042760565876960754,0.16554448008537292
1788681085884074800,13.69707470703125,0.29016098380088806,0.014049900695681572,0.2840523421764374
1788681085899944000,13.71294384765625,0.28466320037841797,0.02382374368607998,0.44226643443107605
1788681085915813000,13.728813232421874,0.2791654169559479,0.039095375686883926,0.523511528968811
1788681085931712800,13.744712646484375,0.2877175211906433,-0.03787364438176155,0.3604104816913605
1788681085947582000,13.76058203125,0.3170390725135803,-0.2828305959701538,-0.10873401165008545
1788681085963512000,13.776511962890625,0.33047810196876526,-0.4715879559516907,-0.5852088928222656
1788681085979442200,13.792442138671875,0.29016098380088806,-0.4691445231437683,-0.8399397134780884
1788681085995250200,13.808250244140625,0.23884831368923187,-0.31459560990333557,-0.44776421785354614
1788681086011180500,13.8241806640625,0.2974913716316223,-0.07635815441608429,0.31093040108680725
1788681086027080200,13.840080078125,0.3891211748123169,0.1319468915462494,1.06657075881958
1788681086042942200,13.855942138671875,0.39217549562454224,0.19792033731937408,1.1661417484283447
1788681086058872600,13.87187255859375,0.3072652220726013,0.13377949595451355,0.655458390712738
1788681086074741800,13.88774169921875,0.19486601650714874,-0.021380282938480377,-0.027488935738801956
1788681086090610700,13.903610595703125,0.054367005825042725,-0.12034045159816742,-0.5907067060470581
1788681086106479900,13.91947998046875,0.010995574295520782,-0.11545353382825851,-0.6737843751907349
1788681086122379500,13.935379638671876,0.05864306539297104,-0.03787364438176155,-0.45631635189056396
1788681086138309600,13.9513095703125,0.11178833991289139,0.0861319974064827,-0.21380282938480377
1788681086154178800,13.9671787109375,0.14049901068210602,0.17531833052635193,-0.05803219974040985
1788681086170078500,13.983078369140625,0.13072516024112701,0.12828169763088226,-0.056810468435287476
1788681086185917200,13.998917236328126,0.06841690838336945,-0.018325956538319588,-0.14416420459747314
1788681086201816800,14.01481689453125,0.02076941914856434,-0.19914206862449646,-0.1466076523065567
1788681086217686000,14.03068603515625,0.015271631069481373,-0.31459560990333557,0.025045474991202354
1788681086233524500,14.0465244140625,0.028099801391363144,-0.28527405858039856,0.22418753802776337
1788681086249393700,14.0623935546875,0.0354301854968071,-0.14966198801994324,0.3543018400669098
1788681086265262800,14.078262939453126,0.010995574295520782,-0.0403171069920063,0.30482175946235657
1788681086281193000,14.09419287109375,-0.051312681287527084,0.009773843921720982,0.09285151958465576
1788681086297123300,14.110123291015626,-0.10262536257505417,0.00733038317412138,-0.09346238523721695
1788681086312961800,14.1259619140625,-0.11545353382825851,-0.00427605677396059,-0.2064724564552307
1788681086328831000,14.1418310546875,-0.07757988572120667,0.04459316283464432,-0.1313360333442688
1788681086344700200,14.1577001953125,-0.018936822190880775,0.09224065393209457,0.03298672288656235
1788681086360569300,14.1735693359375,0.03237585723400116,0.13500121235847473,0.23029619455337524
1788681086376469000,14.189468994140626,0.03481931984424591,0.14233160018920898,0.2834414839744568
1788681086392368600,14.20536865234375,-0.007941247895359993,0.09834930300712585,0.20463985204696655
1788681086408237800,14.22123779296875,-0.04581489413976669,0.08796459436416626,0.09468411654233932
1788681086424106800,14.237106689453125,-0.07452555745840073,0.1160643994808197,0.06719517707824707
1788681086439976000,14.252975830078125,-0.10018189996480942,0.17898350954055786,0.18570303916931152
1788681086455906300,14.26890625,-0.12522737681865692,0.1875356286764145,0.4184426963329315
1788681086471775200,14.284775146484375,-0.15821409225463867,0.13500121235847473,0.5186246037483215
1788681086487675000,14.3006748046875,-0.23151792585849762,0.02321287989616394,0.304210901260376
1788681086503605200,14.316605224609376,-0.2974913716316223,0.048258353024721146,-0.1459967941045761
1788681086519505000,14.3325048828125,-0.3378084897994995,0.2076941877603531,-0.6768386960029602
1788681086535435000,14.34843505859375,-0.3176499307155609,0.2932153046131134,-0.7929030656814575
1788681086551304200,14.36430419921875,-0.26022860407829285,0.24556782841682434,-0.33719760179519653
1788681086567203800,14.380203857421876,-0.24007004499435425,0.06658431142568588,0.3634648323059082
1788681086583073000,14.396072998046876,-0.21013765037059784,-0.13316862285137177,0.9541715383529663
1788681086598942000,14.41194189453125,-0.19975294172763824,-0.14049901068210602,1.0115928649902344
1788681086614811100,14.42781103515625,-0.23029619455337524,-0.0403171069920063,0.6994407176971436
1788681086630619400,14.443619384765626,-0.2871066629886627,0.08918632566928864,0.2987131178379059
1788681086646488600,14.459488525390626,-0.34697145223617554,0.24984388053417206,-0.17287486791610718
1788681086662327000,14.4753271484375,-0.3878994286060333,0.2272418737411499,-0.5192354321479797
1788681086678226700,14.491226806640626,-0.4086688458919525,0.02382374368607998,-0.7629706859588623
1788681086694187500,14.5071875,-0.4080579876899719,-0.16920967400074005,-0.7275404930114746
1788681086710056400,14.523056396484375,-0.37262779474258423,-0.25961771607398987,-0.475253164768219
1788681086725925600,14.538925537109375,-0.2981022298336029,-0.24678955972194672,-0.06414084881544113
1788681086741764400,14.554764404296876,-0.23579397797584534,-0.1875356286764145,0.19364428520202637
1788681086757664000,14.5706640625,-0.19120082259178162,-0.13316862285137177,0.25045475363731384
1788681086773594000,14.586593994140625,-0.17287486791610718,-0.11728613078594208,0.1264491081237793
1788681086789432800,14.602432861328126,-0.18387043476104736,-0.07880161702632904,-0.06963863968849182
1788681086805332500,14.61833251953125,-0.2217440903186798,-0.13377949595451355,-0.14233160018920898
1788681086821262600,14.6342626953125,-0.2321287989616394,-0.2064724564552307,-0.06230825558304787
1788681086837162200,14.650162353515626,-0.16982053220272064,-0.18875735998153687,0.11484266817569733
1788681086853092400,14.66609228515625,-0.06475171446800232,-0.13561208546161652,0.2571742534637451
1788681086868900600,14.681900634765626,-0.022602014243602753,-0.10690141469240189,0.24495697021484375
1788681086884800300,14.69780029296875,0.001832595793530345,-0.06780604273080826,0.11667526513338089
1788681086900700000,14.713699951171876,0.0507018156349659,-0.0354301854968071,0.036041051149368286
1788681086916599600,14.729599609375,0.11056660860776901,0.003054326167330146,0.08307767659425735
1788681086932468700,14.74546875,0.16310101747512817,0.04092797264456749,0.17470745742321014
1788681086948338000,14.761337890625,0.2028072625398636,0.01038470957428217,0.251676470041275
1788681086964206800,14.777206787109375,0.21868975460529327,-0.07452555745840073,0.26572638750076294
1788681086980076000,14.793075927734375,0.23945917189121246,-0.14844025671482086,0.2217440903186798
1788681086995975700,14.8089755859375,0.2669481039047241,-0.1319468915462494,0.1716531366109848
1788681087011906000,14.824906005859376,0.2840523421764374,-0.060475658625364304,0.1820378452539444
1788681087027714000,14.840714111328126,0.28038713335990906,0.015271631069481373,0.19792033731937408
1788681087043583200,14.856583251953126,0.25473082065582275,-0.01160643994808197,0.06902777403593063
1788681087067447800,14.88044775390625,0.2370157092809677,-0.26572638750076294,-0.29626965522766113
1788681087083317000,14.89631689453125,0.2681698501110077,-0.4862487316131592,-0.5002986192703247
1788681087099186200,14.912186279296876,0.2834414839744568,-0.4954117238521576,-0.4740314185619354
1788681087115085800,14.9280859375,0.3292563557624817,-0.28527405858039856,-0.06536258012056351
1788681087131016000,14.944015869140625,0.39156460762023926,-0.036651913076639175,0.6035348773002625
1788681087146854700,14.959854736328126,0.3842342495918274,0.030543262138962746,0.9095783233642578
1788681087162754300,14.97575439453125,0.3176499307155609,-0.00733038317412138,0.7910705208778381
1788681087178654000,14.991654052734376,0.21868975460529327,-0.14416420459747314,0.44165557622909546
1788681087194523100,15.007523193359376,0.1362229436635971,-0.24617868661880493,-0.00427605677396059
1788681087210422800,15.0234228515625,0.12095131725072861,-0.21441370248794556,-0.23090706765651703
1788681087226292000,15.0392919921875,0.13561208546161652,-0.12095131725072861,-0.3536909818649292
1788681087242161200,15.0551611328125,0.17776179313659668,0.0024434609804302454,-0.4508185386657715
1788681087258060800,15.071060791015626,0.1771509200334549,0.05192354694008827,-0.5216789245605469
1788681087273930000,15.086929931640626,0.13316862285137177,-0.01771509274840355,-0.4715879559516907
1788681087289799000,15.102798828125,0.11423180252313614,-0.08246681094169617,-0.2480112910270691
1788681087305668000,15.118668212890626,0.10018189996480942,-0.16371189057826996,0.03176499158143997
1788681087321567700,15.134567626953125,0.10201449692249298,-0.20036379992961884,0.1771509200334549
1788681087337467400,15.15046728515625,0.11972958594560623,-0.17348572611808777,0.19486601650714874
1788681087353336600,15.166336669921876,0.09957103431224823,-0.11789698898792267,0.0910189226269722
1788681087369236200,15.182236328125,0.0507018156349659,-0.0708603709936142,-0.03176499158143997
1788681087385105400,15.19810546875,0,-0.04398229718208313,-0.09896016865968704
1788681087400974600,15.213974609375,-0.04214970022439957,-0.025656340643763542,-0.13866640627384186
1788681087416843800,15.22984375,-0.0507018156349659,-0.010995574295520782,-0.15577064454555511
1788681087432712700,15.245712646484375,-0.04642575979232788,0.01038470957428217,-0.14233160018920898
1788681087448612600,15.261612548828126,-0.06414084881544113,0.031154127791523933,-0.10201449692249298
1788681087464512300,15.27751220703125,-0.1111774742603302,0.02626720629632473,-0.036651913076639175
1788681087480381200,15.293381103515625,-0.15454891324043274,-0.0012217304902151227,0.0024434609804302454
1788681087496280800,15.30928076171875,-0.20463985204696655,-0.03481931984424591,0.031154127791523933
1788681087512180500,15.325180419921875,-0.24556782841682434,-0.06414084881544113,0.030543262138962746
1788681087528080100,15.341080078125,-0.2828305959701538,-0.027488935738801956,0.0555887371301651
1788681087543918800,15.3569189453125,-0.29016098380088806,0.010995574295520782,0.15882496535778046
1788681087559910100,15.37291015625,-0.24984388053417206,0.13072516024112701,0.37201693654060364
1788681087575779300,15.388779296875,-0.20463985204696655,0.20830504596233368,0.5589417219161987
1788681087591679000,15.404678955078126,-0.19792033731937408,0.19914206862449646,0.5473352670669556
1788681087607609000,15.420609130859376,-0.2474004179239273,0.1569923609495163,0.28099802136421204
1788681087623417000,15.4364169921875,-0.3243694305419922,0.10751228034496307,-0.0861319974064827
1788681087639316700,15.452316650390625,-0.40744712948799133,0.13377949595451355,-0.5094616413116455
1788681087655216400,15.46821630859375,-0.4245513379573822,0.1062905490398407,-0.6352998614311218
1788681087671146800,15.484146728515626,-0.3530801236629486,-0.006108652334660292,-0.25534167885780334
1788681087687015700,15.500015625,-0.28588494658470154,-0.17837265133857727,0.34697145223617554
1788681087702854400,15.5158544921875,-0.21868975460529327,-0.19853121042251587,0.788627028465271
1788681087718754000,15.531754150390626,-0.20097467303276062,-0.08429940044879913,0.750142514705658
1788681087734653700,15.54765380859375,-0.21991148591041565,0.1007927656173706,0.33108896017074585
1788681087750523000,15.56352294921875,-0.25595253705978394,0.2223549485206604,-0.12522737681865692
1788681087766422500,15.579422607421876,-0.23273965716362,0.2987131178379059,-0.48319441080093384
1788681087782291700,15.595291748046876,-0.1459967941045761,0.22052235901355743,-0.5772676467895508
1788681087798161000,15.611160888671876,-0.05314527451992035,0.03237585723400116,-0.49357911944389343
1788681087814030000,15.627030029296876,0.0024434609804302454,-0.09407325088977814,-0.34025195240974426
1788681087829929700,15.6429296875,0.054367005825042725,-0.23457226157188416,-0.1814269721508026
1788681087845859800,15.65885986328125,0.08002334833145142,-0.27061331272125244,-0.04337143152952194
1788681087861667800,15.674667724609375,0.05803219974040985,-0.24129177629947662,0.08857546001672745
1788681087877567500,15.6905673828125,0.025045474991202354,-0.1869247704744339,0.1618792861700058
1788681087893467100,15.706467041015625,-0.018325956538319588,-0.07391469180583954,0.15882496535778046
1788681087909336300,15.72233642578125,-0.059864792972803116,-0.01710422709584236,0.06780604273080826
1788681087925236000,15.738236083984376,-0.09896016865968704,-0.03420845419168472,-0.0555887371301651
1788681087941105200,15.754105224609376,-0.08979719132184982,-0.051312681287527084,-0.08491026610136032
1788681087956974300,15.769974365234376,-0.07330382615327835,-0.07391469180583954,-0.025045474991202354
1788681087972843500,15.785843505859376,-0.05864306539297104,-0.1160643994808197,0.06963863968849182
1788681087988712700,15.801712646484376,-0.03726277872920036,-0.14782938361167908,0.11911872029304504
1788681088004642800,15.817642822265626,-0.018936822190880775,-0.18936823308467865,0.13255776464939117
1788681088020450800,15.833450927734376,0.016493361443281174,-0.1918116807937622,0.12522737681865692
1788681088036381000,15.849380859375,0.0959058403968811,-0.12034045159816742,0.11484266817569733
1788681088052250000,15.86525,0.16798794269561768,-0.02626720629632473,0.07269296050071716
1788681088068149800,15.881149658203125,0.2174680233001709,0.0012217304902151227,0.007941247895359993
1788681088084080000,15.897080078125,0.24434609711170197,-0.00733038317412138,-0.03298672288656235
1788681088099949000,15.912948974609375,0.24678955972194672,-0.05253441259264946,-0.03176499158143997
1788681088115818200,15.928818359375,0.2571742534637451,-0.07269296050071716,0.06169738993048668
1788681088131748400,15.944748291015625,0.26450464129447937,-0.04703662544488907,0.29626965522766113
1788681088147617500,15.960617431640625,0.29016098380088806,0.01038470957428217,0.4862487316131592
1788681088163517200,15.97651708984375,0.31459560990333557,-0.010995574295520782,0.45692721009254456
1788681088179386400,15.992386474609376,0.31031954288482666,-0.11362093687057495,0.19486601650714874
1788681088195255600,16.008255615234376,0.3219259977340698,-0.30604347586631775,-0.2675589919090271
1788681088211185700,16.024185546875,0.3121521472930908,-0.39156460762023926,-0.6010913848876953
1788681088227085300,16.040085205078125,0.242513507604599,-0.30115658044815063,-0.5546656250953674
1788681088242954500,16.05595458984375,0.21868975460529327,-0.13805554807186127,-0.09896016865968704
1788681088258823700,16.07182373046875,0.28588494658470154,0.0708603709936142,0.5167919993400574
1788681088274662400,16.087662353515626,0.3017674386501312,0.19547687470912933,0.6902777552604675
1788681088290531300,16.10353125,0.24923302233219147,0.20463985204696655,0.5161811113357544
1788681088306431000,16.119430908203125,0.1618792861700058,0.11423180252313614,0.17592918872833252
1788681088322361300,16.135361328125,0.059864792972803116,-0.048258353024721146,-0.2028072625398636
1788681088338230500,16.15123046875,0.01160643994808197,-0.11972958594560623,-0.3799581825733185
1788681088354099500,16.167099365234375,0.006108652334660292,-0.10506882518529892,-0.40133845806121826
1788681088369968600,16.18296875,-0.004886921960860491,-0.056810468435287476,-0.34574973583221436
1788681088385837800,16.198837890625,-0.030543262138962746,-0.03420845419168472,-0.2583959996700287
1788681088401768000,16.214767822265625,-0.07269296050071716,-0.06230825558304787,-0.13377949595451355
1788681088417576200,16.230576171875,-0.07880161702632904,-0.09285151958465576,-0.004886921960860491
1788681088433445000,16.246445068359375,-0.04398229718208313,-0.09651670604944229,0.10873401165008545
1788681088449345000,16.262344970703126,-0.019547687843441963,-0.08185594528913498,0.13011430203914642
1788681088465183500,16.27818359375,-0.00427605677396059,-0.042760565876960754,0.07696902006864548
1788681088481052700,16.294052734375,-0.021991148591041565,-0.0012217304902151227,-0.018325956538319588
1788681088496921900,16.309921875,-0.06719517707824707,0.005497787147760391,-0.14538592100143433
1788681088512821500,16.325821533203126,-0.10323622822761536,-0.02015855349600315,-0.20830504596233368
1788681088528721200,16.34172119140625,-0.12034045159816742,-0.015882495790719986,-0.2223549485206604
1788681088544620800,16.357620849609376,-0.12950342893600464,0.02015855349600315,-0.21380282938480377
1788681088560490000,16.373489990234376,-0.11301007121801376,0.03237585723400116,-0.1472185254096985
1788681088576359200,16.389359130859376,-0.11362093687057495,0.039706241339445114,-0.07391469180583954
1788681088592228000,16.40522802734375,-0.18997909128665924,0.01771509274840355,-0.06719517707824707
1788681088608127700,16.421127685546875,-0.20952677726745605,-0.40744712948799133,0.23151792585849762
1788681088624027600,16.437027587890626,-0.17592918872833252,-0.29993483424186707,0.21135938167572021
1788681088639927300,16.45292724609375,-0.23090706765651703,-0.17409659922122955,-0.08246681094169617
1788681088655796200,16.468796142578125,-0.28038713335990906,-0.08552113175392151,-0.313373863697052
1788681088671665400,16.48466552734375,-0.252287358045578,-0.028099801391363144,-0.23457226157188416
1788681088687534600,16.50053466796875,-0.17287486791610718,-0.13439035415649414,0.25045475363731384
1788681088703434200,16.516434326171876,-0.1215621829032898,0.02382374368607998,0.3738495409488678
1788681088719364400,16.5323642578125,-0.2125810980796814,0.16004669666290283,0.2382374405860901
1788681088743137500,16.556137451171875,-0.3689626157283783,0.4495968222618103,-0.37629300355911255
1788681088759037200,16.572037109375,-0.42699480056762695,0.5632177591323853,-0.7122688889503479
1788681088774876000,16.5878759765625,-0.40072759985923767,0.6322455406188965,-0.826500654220581
1788681088790775600,16.603775634765626,-0.2981022298336029,0.6139195561408997,-0.5363397002220154
1788681088814548700,16.627548828125,-0.13316862285137177,0.09468411654233932,0.4899139404296875
1788681088830448400,16.643448486328126,-0.12461651116609573,-0.18997909128665924,0.9108000993728638
1788681088846378500,16.65937841796875,-0.182648703455925,-0.2742784917354584,0.9150761365890503
1788681088862247700,16.67524755859375,-0.2474004179239273,-0.16554448008537292,0.6194173693656921
1788681088878147300,16.691147216796875,-0.26511552929878235,-0.00733038317412138,0.22663100063800812
1788681088894016500,16.7070166015625,-0.2718350291252136,0.13500121235847473,-0.19364428520202637
1788681088909916200,16.722916259765626,-0.2883284091949463,0.16004669666290283,-0.4031710624694824
1788681088925755000,16.7387548828125,-0.2742784917354584,0.10445795953273773,-0.48319441080093384
1788681088941624000,16.7546240234375,-0.24678955972194672,-0.051312681287527084,-0.44776421785354614
1788681088957523700,16.770523681640626,-0.2070833146572113,-0.23151792585849762,-0.3090978264808655
1788681088973392600,16.786392578125,-0.1569923609495163,-0.2638937830924988,-0.1368338167667389
1788681088989323000,16.802322998046876,-0.09773843735456467,-0.21441370248794556,0.07452555745840073
1788681089005192200,16.818192138671876,-0.06719517707824707,-0.11850785464048386,0.22479841113090515
1788681089021091800,16.834091796875,-0.05314527451992035,-0.0006108652451075613,0.3243694305419922
1788681089036960800,16.849960693359375,-0.05314527451992035,0.08124507963657379,0.3017674386501312
1788681089052769000,16.86576904296875,-0.060475658625364304,0.14049901068210602,0.13500121235847473
1788681089068699100,16.88169921875,-0.07330382615327835,0.08918632566928864,-0.0507018156349659
1788681089084568300,16.897568359375,-0.08185594528913498,-0.033597588539123535,-0.17898350954055786
1788681089100468000,16.913468017578126,-0.06963863968849182,-0.12889257073402405,-0.17104226350784302
1788681089116398000,16.929398193359376,-0.04642575979232788,-0.18020524084568024,-0.09162978827953339
1788681089132236800,16.94523681640625,0.00427605677396059,-0.18570303916931152,0.01466076634824276
1788681089148106000,16.96110595703125,0.04581489413976669,-0.18570303916931152,0.08979719132184982
1788681089163975000,16.976974853515625,0.10384709388017654,-0.18020524084568024,0.1459967941045761
1788681089179874800,16.992874755859376,0.17287486791610718,-0.11911872029304504,0.17104226350784302
1788681089195805000,17.008804931640626,0.2370157092809677,-0.018936822190880775,0.17531833052635193
1788681089211613000,17.024613037109376,0.2791654169559479,0.006719517521560192,0.10690141469240189
1788681089227451600,17.04045166015625,0.2993239760398865,-0.025045474991202354,-0.01771509274840355
1788681089243351300,17.056351318359376,0.313373863697052,-0.09162978827953339,-0.09651670604944229
1788681089259281400,17.072281494140626,0.3139847218990326,-0.11484266817569733,-0.036041051149368286
1788681089275150600,17.088150634765626,0.3170390725135803,-0.13377949595451355,0.16371189057826996
1788681089290958600,17.10395849609375,0.3543018400669098,-0.10873401165008545,0.3982841372489929
1788681089306858200,17.119858154296875,0.3885102868080139,-0.13927727937698364,0.40072759985923767
1788681089322758000,17.1357578125,0.4343251883983612,-0.2791654169559479,0.12522737681865692
1788681089338627000,17.151626953125,0.49846604466438293,-0.4990769028663635,-0.22540926933288574
1788681089354526700,17.167526611328125,0.48685958981513977,-0.5693264007568359,-0.5760459303855896
1788681089370396000,17.18339599609375,0.40133845806121826,-0.3738495409488678,-0.6151412725448608
1788681089386265000,17.19926513671875,0.4184426963329315,-0.024434609338641167,-0.22602014243602753
1788681089402195200,17.2151953125,0.485027015209198,0.17837265133857727,0.23090706765651703
1788681089418034000,17.231033935546876,0.47219884395599365,0.2571742534637451,0.46731191873550415
1788681089433903000,17.246903076171876,0.40683624148368835,0.15332718193531036,0.36651915311813354
1788681089449802800,17.262802734375,0.303600013256073,-0.0959058403968811,0.006719517521560192
1788681089465671700,17.278671630859375,0.23457226157188416,-0.2919935882091522,-0.32559117674827576
1788681089481571600,17.294571533203126,0.1612684279680252,-0.3219259977340698,-0.5259549617767334
1788681089497440500,17.3104404296875,0.1258382350206375,-0.23640485107898712,-0.5259549617767334
1788681089513340200,17.326340087890625,0.13866640627384186,-0.0861319974064827,-0.45142942667007446
1788681089529209300,17.342209228515625,0.15760323405265808,0.04642575979232788,-0.3237585723400116
1788681089545078500,17.35807861328125,0.15943582355976105,0.015271631069481373,-0.17959438264369965
1788681089560978200,17.373978271484376,0.15393804013729095,-0.03481931984424591,0.015882495790719986
1788681089576877800,17.3898779296875,0.1368338167667389,-0.09773843735456467,0.16004669666290283
1788681089592747000,17.4057470703125,0.14905111491680145,-0.16798794269561768,0.24984388053417206
1788681089608616200,17.4216162109375,0.1569923609495163,-0.19608774781227112,0.2932153046131134
1788681089624485400,17.4374853515625,0.14538592100143433,-0.17470745742321014,0.3072652220726013
1788681089640323800,17.45332373046875,0.13316862285137177,-0.10751228034496307,0.2382374405860901
1788681089656223500,17.469223388671875,0.1007927656173706,0.01038470957428217,0.07208210229873657
1788681089672123100,17.485123046875,0.06719517707824707,0.054367005825042725,-0.05742133408784866
1788681089695957500,17.50895751953125,0.014049900695681572,-0.019547687843441963,-0.08857546001672745
1788681089711826700,17.52482666015625,-0.01710422709584236,-0.025656340643763542,0.01038470957428217
1788681089735569200,17.548569091796875,-0.07757988572120667,-0.039706241339445114,0.14049901068210602
1788681089751499500,17.56449951171875,-0.1160643994808197,-0.0012217304902151227,0.15515977144241333
1788681089767368700,17.58036865234375,-0.17043140530586243,0.05009094998240471,0.14355333149433136
1788681089783237600,17.596237548828125,-0.24984388053417206,0.08246681094169617,0.11911872029304504
1788681089799137300,17.61213720703125,-0.3029891550540924,0.10934487730264664,0.1111774742603302
1788681089814976000,17.62797607421875,-0.30604347586631775,0.18387043476104736,0.16371189057826996
1788681089830906000,17.643906005859375,-0.2669481039047241,0.24495697021484375,0.29504790902137756
1788681089846775300,17.659775390625,-0.23518311977386475,0.23640485107898712,0.4801400899887085
1788681089862614000,17.675614013671876,-0.2840523421764374,0.13011430203914642,0.5094616413116455
1788681089878513700,17.691513671875,-0.40072759985923767,0.04703662544488907,0.2431243658065796
1788681089894382800,17.7073828125,-0.5119050741195679,0.1466076523065567,-0.22357667982578278
1788681089910282500,17.723282470703126,-0.543059229850769,0.394008070230484,-0.8295549750328064
1788681089926121000,17.739120849609375,-0.4599815309047699,0.4697553813457489,-0.949895441532135
1788681089942020600,17.7550205078125,-0.36529740691185,0.21563543379306793,-0.41111230850219727
1788681089957920300,17.770920166015625,-0.2577851414680481,-0.17531833052635193,0.5913175344467163
1788681089973789400,17.78678955078125,-0.17837265133857727,-0.33108896017074585,1.0958921909332275
1788681089989719600,17.802719482421875,-0.1667662113904953,-0.3683517575263977,1.0024298429489136
1788681090005588700,17.818588623046875,-0.1820378452539444,-0.29016098380088806,0.6041457056999207
1788681090021458000,17.8344580078125,-0.21135938167572021,-0.08796459436416626,0.014049900695681572
1788681090037327000,17.8503271484375,-0.22418753802776337,0.051312681287527084,-0.4050036668777466
1788681090053226800,17.866226806640626,-0.23151792585849762,0.1258382350206375,-0.7049384713172913
1788681090069156900,17.882156982421876,-0.25534167885780334,0.05864306539297104,-0.8045095205307007
1788681090085026000,17.898026123046876,-0.3176499307155609,-0.1062905490398407,-0.7483099102973938
1788681090100864800,17.91386474609375,-0.3597996234893799,-0.2382374405860901,-0.5791002511978149
1788681090116703200,17.929703125,-0.3237585723400116,-0.28588494658470154,-0.32131510972976685
1788681090132572400,17.945572509765626,-0.2718350291252136,-0.251676470041275,-0.10995574295520782
1788681090148472000,17.96147216796875,-0.2535090744495392,-0.21441370248794556,0.006108652334660292
1788681090164280300,17.9772802734375,-0.2742784917354584,-0.19853121042251587,-0.006108652334660292
1788681090180149200,17.993149169921875,-0.28588494658470154,-0.18081611394882202,-0.07513642311096191
1788681090196049000,18.009048828125,-0.25595253705978394,-0.15332718193531036,-0.08979719132184982
1788681090211948500,18.024948486328125,-0.18631389737129211,-0.10995574295520782,-0.05803219974040985
1788681090227848400,18.040848388671876,-0.11362093687057495,-0.07696902006864548,-0.025656340643763542
1788681090243717400,18.05671728515625,-0.04948008432984352,-0.06963863968849182,0.010995574295520782
1788681090259586600,18.072586669921876,-0.00366519158706069,-0.10873401165008545,0.039706241339445114
1788681090275455700,18.088455810546876,0.05253441259264946,-0.19914206862449646,0.04398229718208313
1788681090291355400,18.10435546875,0.0959058403968811,-0.2382374405860901,0.06108652427792549
1788681090307285500,18.120285400390625,0.1514945775270462,-0.25961771607398987,0.10506882518529892
1788681090323093800,18.13609375,0.23335053026676178,-0.25595253705978394,0.17531833052635193
1788681090338963000,18.151962890625,0.3084869384765625,-0.2370157092809677,0.19547687470912933
1788681090354832000,18.167831787109375,0.35552358627319336,-0.18814650177955627,0.1563815027475357
1788681090370731500,18.1837314453125,0.3842342495918274,-0.13255776464939117,0.07696902006864548
1788681090386631200,18.199631103515625,0.4153883755207062,0.02076941914856434,0.024434609338641167
1788681090402500400,18.215500244140625,0.41661009192466736,0.14844025671482086,0.05742133408784866
1788681090418369500,18.23136962890625,0.4141666293144226,0.22113321721553802,0.10384709388017654
1788681090434238700,18.24723876953125,0.47219884395599365,0.19120082259178162,0.007941247895359993
1788681090450108000,18.26310791015625,0.5381723046302795,-0.0806342139840126,-0.32681289315223694
1788681090465977000,18.27897705078125,0.5552765130996704,-0.15577064454555511,-0.7147123217582703
1788681090481846000,18.294845947265625,0.5229006409645081,-0.152105450630188,-0.836885392665863
1788681090497745700,18.31074560546875,0.47280970215797424,-0.06108652427792549,-0.3646865487098694
1788681090513584400,18.32658447265625,0.4917465150356293,0.051312681287527084,0.475253164768219
1788681090529484000,18.342484130859376,0.5797111392021179,0.26511552929878235,1.0464121103286743
1788681090545383700,18.3583837890625,0.6126978397369385,0.3591887652873993,1.215621829032898
1788681090561252900,18.3742529296875,0.45692721009254456,0.2718350291252136,0.8698720932006836
1788681090577122000,18.3901220703125,0.2736676335334778,-0.152105450630188,0.1820378452539444
1788681090592991200,18.4059912109375,0.2638937830924988,-0.3585779070854187,-0.3029891550540924
1788681090608921300,18.42192138671875,0.31520646810531616,-0.3695734739303589,-0.49296826124191284
1788681090624790500,18.43779052734375,0.34574973583221436,-0.21563543379306793,-0.4386012554168701
1788681090640690200,18.453690185546876,0.3738495409488678,0.0757472887635231,-0.22663100063800812
1788681090656620300,18.469620361328126,0.3628539443016052,0.3023782968521118,-0.03848451003432274
1788681090672489500,18.485489501953126,0.2767219543457031,0.3384193480014801,0.09285151958465576
1788681090688389000,18.50138916015625,0.15027284622192383,0.17776179313659668,0.15577064454555511
1788681090704319200,18.5173193359375,0.14844025671482086,0.07941248267889023,0.21013765037059784
1788681090720188400,18.5331884765625,0.40194934606552124,0.1472185254096985,0.2028072625398636
1788681090736057600,18.5490576171875,0.4795292317867279,0.23273965716362,0.10201449692249298
1788681090751926800,18.5649267578125,0.38240164518356323,0.2272418737411499,-0.08796459436416626
1788681090767857000,18.58085693359375,0.23396138846874237,0.36713001132011414,-0.21868975460529327
1788681090783787000,18.596787109375,0.0555887371301651,0.3384193480014801,-0.2993239760398865
1788681090799564500,18.612564453125,-0.08307767659425735,0.14844025671482086,-0.22296582162380219
1788681090815464200,18.628464111328125,-0.08674286305904388,0.039095375686883926,0.04092797264456749
1788681090831303000,18.644302978515626,-0.03481931984424591,-0.13927727937698364,0.20036379992961884
1788681090847202600,18.66020263671875,-0.06658431142568588,-0.11239920556545258,0.18325957655906677
1788681090863132700,18.676132568359375,-0.007941247895359993,-0.19975294172763824,0.17776179313659668
1788681090879001900,18.692001953125,0.0806342139840126,0.021991148591041565,0.25045475363731384
1788681090894901500,18.707901611328126,0.0507018156349659,0.018325956538319588,0.2675589919090271
1788681090910801200,18.72380126953125,-0.07024950534105301,-0.15821409225463867,0.28588494658470154
1788681090926670300,18.73967041015625,-0.20830504596233368,-0.3585779070854187,0.2541199326515198
1788681090942600400,18.755600341796875,-0.25534167885780334,-0.3530801236629486,0.242513507604599
1788681090958469600,18.7714697265625,-0.16310101747512817,-0.08124507963657379,0.29626965522766113
1788681090974308400,18.787308349609376,0.004886921960860491,0.3885102868080139,0.37629300355911255
1788681090990177500,18.803177490234376,0.031154127791523933,0.6914994716644287,0.3225368559360504
1788681091006046500,18.81904638671875,-0.18387043476104736,0.6860016584396362,0.04764748737215996
1788681091021976800,18.834976806640626,-0.5858197808265686,0.1771509200334549,-0.35735616087913513
1788681091037845800,18.850845703125,-1.1246029138565063,-0.4703662395477295,-0.7415903806686401
1788681091053715000,18.86671484375,-1.3445143699645996,-0.675616979598999,-0.7348709106445312
1788681091069553700,18.8825537109375,-1.2357803583145142,-0.4056145250797272,-0.2785545587539673
1788681091085453300,18.898453369140626,-0.8393288254737854,0.15943582355976105,0.4001167416572571
1788681091101383400,18.914383544921876,-0.46547931432724,0.5962044596672058,0.8814785480499268
1788681091117222100,18.93022216796875,-0.14538592100143433,0.8527678847312927,1.1349875926971436
1788681091133121800,18.946121826171876,0.02321287989616394,0.8570439219474792,1.0769554376602173
1788681091148991000,18.961990966796876,0.09773843735456467,0.6407976150512695,0.7464773058891296
1788681091164860200,18.977860107421876,0.05009094998240471,0.3885102868080139,0.37568211555480957
1788681091180759800,18.993759765625,-0.18570303916931152,0.05864306539297104,-0.051312681287527084
1788681091196628700,19.009628662109375,-0.5247332453727722,-0.2535090744495392,-0.3378084897994995
1788681091212498000,19.025497802734375,-0.8649851679801941,-0.5082398653030396,-0.5076290369033813
1788681091228428000,19.041427978515625,-0.9828822016716003,-0.5479460954666138,-0.5100724697113037
1788681091244358400,19.0573583984375,-0.9590584635734558,-0.3830125033855438,-0.3640756905078888
1788681091260288500,19.07328857421875,-0.827722430229187,-0.15454891324043274,-0.17592918872833252
1788681091276157700,19.08915771484375,-0.5943718552589417,0.06169738993048668,0.0354301854968071
1788681091292027000,19.10502685546875,-0.40744712948799133,0.11667526513338089,0.13072516024112701
1788681091307926500,19.120926513671876,-0.23335053026676178,0.08735372871160507,0.152105450630188
1788681091323765000,19.136764892578125,-0.12095131725072861,0.08246681094169617,0.15821409225463867
1788681091339695400,19.1526953125,-0.06169738993048668,0.05253441259264946,0.20525072515010834
1788681091355503400,19.16850341796875,-0.07696902006864548,0.0354301854968071,0.2638937830924988
1788681091371403000,19.184403076171876,-0.1411098688840866,-0.014049900695681572,0.32070425152778625
1788681091387272200,19.200272216796876,-0.18325957655906677,-0.059864792972803116,0.36163222789764404
1788681091403171800,19.216171875,-0.16249015927314758,-0.0861319974064827,0.39767327904701233
1788681091419041000,19.232041015625,-0.09285151958465576,-0.08185594528913498,0.3988949954509735
1788681091434910200,19.24791015625,0.0024434609804302454,-0.051312681287527084,0.38117989897727966
1788681091450779100,19.263779052734375,0.07330382615327835,-0.05742133408784866,0.3481931984424591
1788681091466678800,19.2796787109375,0.11850785464048386,-0.09529497474431992,0.32070425152778625
1788681091482578400,19.295578369140625,0.14538592100143433,-0.1869247704744339,0.3084869384765625
1788681091498478000,19.31147802734375,0.18325957655906677,-0.2742784917354584,0.3384193480014801
1788681091514347300,19.32734716796875,0.2834414839744568,-0.14233160018920898,0.44593164324760437
1788681091530186000,19.34318603515625,0.4288274049758911,0.12828169763088226,0.5589417219161987
1788681091546055200,19.35905517578125,0.6377432942390442,0.38179078698158264,0.6444628238677979
1788681091561954800,19.374954833984376,0.8100073337554932,0.3439171314239502,0.6261368989944458
1788681091577885000,19.390885009765626,0.8955284357070923,-0.16982053220272064,0.4612032473087311
1788681091593754000,19.406754150390626,0.6731734871864319,-0.7397578358650208,0.1514945775270462
1788681091609623300,19.422623291015626,-0.00733038317412138,-0.8735373020172119,-0.17348572611808777
1788681091625492500,19.438492431640626,-0.4905247986316681,-0.4905247986316681,-0.1417207419872284
1788681091641392000,19.45439208984375,-0.5448917746543884,0.34147366881370544,0.22479841113090515
1788681091657322200,19.470322265625,-0.3219259977340698,0.8069530129432678,0.5485569834709167
1788681091673222000,19.486221923828126,-0.0910189226269722,0.9260717034339905,0.665232241153717
1788681091689091000,19.502091064453126,-0.021991148591041565,0.7189884185791016,0.5302310585975647
1788681091704929500,19.517929443359375,-0.11178833991289139,0.27488934993743896,0.29565876722335815
1788681091720829200,19.5338291015625,-0.3023782968521118,-0.13072516024112701,0.15821409225463867
1788681091736759600,19.549759521484376,-0.6108652353286743,-0.49235737323760986,0.04642575979232788
1788681091752628500,19.56562841796875,-0.8894197940826416,-0.6627888083457947,-0.06352998316287994
1788681091768528100,19.581528076171875,-1.13926362991333,-0.7031059265136719,-0.22968533635139465
1788681091784397300,19.597397216796875,-1.2718214988708496,-0.588263213634491,-0.4105014503002167
1788681091800297000,19.613296875,-1.2754865884780884,-0.3933972120285034,-0.513126790523529
1788681091816166100,19.629166259765626,-1.1643091440200806,-0.11545353382825851,-0.503963828086853
1788681091831974400,19.644974365234376,-1.016479730606079,0.08796459436416626,-0.3689626157283783
1788681091847843300,19.66084326171875,-0.8741481900215149,0.17592918872833252,-0.15393804013729095
1788681091863682000,19.67668212890625,-0.8442157506942749,0.11972958594560623,0.021380282938480377
1788681091879581700,19.692581787109376,-0.9236282706260681,-0.039706241339445114,0.16432274878025055
1788681091895511800,19.70851171875,-1.0415252447128296,-0.20097467303276062,0.22968533635139465
1788681091911381000,19.724381103515626,-1.19912850856781,-0.37629300355911255,0.26572638750076294
1788681091927250200,19.740250244140626,-1.3390166759490967,-0.4489859640598297,0.27061331272125244
1788681091943119400,19.756119384765626,-1.5259413719177246,-0.4495968222618103,0.22479841113090515
1788681091958988500,19.771988525390626,-1.6798794269561768,-0.41233405470848083,0.16859880089759827
1788681091974888200,19.78788818359375,-1.8136589527130127,-0.29077184200286865,0.13316862285137177
1788681091998661400,19.811661376953126,-1.9566013813018799,-0.12217304855585098,0.12339477986097336
1788681092014530600,19.827530517578126,-2.0592267513275146,-0.13377949595451355,0.10506882518529892
1788681092030369000,19.843369140625,-2.0958786010742188,-0.20952677726745605,0.07024950534105301
1788681092046268700,19.8592685546875,-2.0537290573120117,-0.2932153046131134,0.03237585723400116
1788681092062168300,19.875168212890625,-1.8967366218566895,-0.24373523890972137,0.056810468435287476
1788681092078068000,19.89106787109375,-1.6853772401809692,-0.007941247895359993,0.21135938167572021
1788681092093998300,19.906998291015626,-1.4202617406845093,0.42699480056762695,0.5632177591323853
1788681092109836800,19.9228369140625,-1.2760975360870361,0.6640105247497559,0.8503243923187256
1788681092125767000,19.938766845703125,-1.3854423761367798,0.37751471996307373,0.8350527882575989
