time,seconds_elapsed,z,y,x
1788678594582420500,0.17442041015625,0.5638286471366882,-0.6029239892959595,0.12767083942890167
1788678594598459000,0.190458984375,0.5638286471366882,-0.6029239892959595,0.12767083942890167
1788678594614618000,0.2066181640625,0.5638286471366882,-0.6029239892959595,0.12767083942890167
1788678594630754600,0.222754638671875,0.5638286471366882,-0.6029239892959595,0.12767083942890167
1788678594646962700,0.238962646484375,0.5638286471366882,-0.6029239892959595,0.12767083942890167
1788678594663090700,0.255090576171875,0.5638286471366882,-0.6029239892959595,0.12767083942890167
1788678594679114000,0.271114013671875,0.5638286471366882,-0.6029239892959595,0.12767083942890167
1788678594695289300,0.287289306640625,0.5638286471366882,-0.6029239892959595,0.12767083942890167
1788678594711449300,0.303449462890625,0.06841690838336945,-0.1258382350206375,0.11850785464048386
1788678594727665200,0.3196650390625,0.06169738993048668,0.027488935738801956,-0.11728613078594208
1788678594743781400,0.335781494140625,0.0708603709936142,0.015271631069481373,-0.2015855312347412
1788678594759836000,0.3518359375,0.06230825558304787,0.039706241339445114,-0.15515977144241333
1788678594776026000,0.368026123046875,0.07147123664617538,0.028099801391363144,-0.07941248267889023
1788678594792145200,0.384145263671875,0.05009094998240471,-0.005497787147760391,-0.025045474991202354
1788678594808359700,0.400359619140625,-0.06780604273080826,0.018936822190880775,-0.04764748737215996
1788678594824476400,0.416476318359375,-0.1014036312699318,-0.04581489413976669,-0.13255776464939117
1788678594840502800,0.432502685546875,-0.016493361443281174,-0.08185594528913498,-0.12278391420841217
1788678594856654800,0.44865478515625,0.025045474991202354,-0.06780604273080826,0.005497787147760391
1788678594872797200,0.464797119140625,0.01466076634824276,-0.08735372871160507,0.11545353382825851
1788678594889015800,0.481015869140625,-0.004886921960860491,-0.09162978827953339,0.17837265133857727
1788678594905131000,0.497131103515625,-0.05314527451992035,-0.10445795953273773,0.19547687470912933
1788678594921156000,0.513156005859375,-0.09896016865968704,-0.1667662113904953,0.19486601650714874
1788678594937316000,0.529316162109375,-0.10751228034496307,-0.21441370248794556,0.16310101747512817
1788678594953457700,0.545457763671875,-0.11239920556545258,-0.19120082259178162,0.0959058403968811
1788678594969677000,0.561677001953125,-0.10201449692249298,-0.10323622822761536,-0.0006108652451075613
1788678594985797000,0.577797119140625,0.01710422709584236,-0.04214970022439957,0.07024950534105301
1788678595001818000,0.593818115234375,0.07635815441608429,-0.04642575979232788,0.1215621829032898
1788678595017988400,0.60998828125,0.10690141469240189,-0.06352998316287994,0.1362229436635971
1788678595034134500,0.626134521484375,0.0861319974064827,-0.07147123664617538,0.11239920556545258
1788678595050347500,0.642347412109375,0.045204028487205505,-0.06352998316287994,0.05864306539297104
1788678595066460700,0.658460693359375,0.039706241339445114,-0.05009094998240471,-0.018936822190880775
1788678595082483500,0.6744833984375,0.042760565876960754,-0.04153883829712868,-0.07391469180583954
1788678595098659000,0.6906591796875,0.03176499158143997,-0.056810468435287476,-0.02687807008624077
1788678595114813200,0.706813232421875,0.00366519158706069,-0.07391469180583954,0.07696902006864548
1788678595131030300,0.7230302734375,-0.021991148591041565,-0.0757472887635231,0.18387043476104736
1788678595147144400,0.73914453125,-0.01771509274840355,-0.07330382615327835,0.2125810980796814
1788678595163168000,0.75516796875,0.0012217304902151227,-0.0659734457731247,0.1508837193250656
1788678595179351800,0.771351806640625,0.03726277872920036,-0.051312681287527084,0.042760565876960754
1788678595195464000,0.7874638671875,0.08002334833145142,-0.03420845419168472,-0.03420845419168472
1788678595211679700,0.8036796875,0.08857546001672745,-0.03481931984424591,-0.0507018156349659
1788678595227797500,0.819797607421875,0.056810468435287476,-0.033597588539123535,-0.012217304669320583
1788678595243826400,0.835826416015625,0.02871066704392433,-0.012217304669320583,0.05192354694008827
1788678595260019500,0.85201953125,0.021380282938480377,0.01038470957428217,0.09651670604944229
1788678595276131800,0.8681318359375,0.02626720629632473,-0.006719517521560192,0.11789698898792267
1788678595292358400,0.8843583984375,0.036651913076639175,-0.02932153269648552,0.11667526513338089
1788678595308483300,0.9004833984375,0.039706241339445114,0.010995574295520782,0.11362093687057495
1788678595324510000,0.916510009765625,0.05009094998240471,0.1062905490398407,0.12400564551353455
1788678595340666000,0.932666015625,0.03726277872920036,0.1111774742603302,0.1215621829032898
1788678595356802000,0.948802001953125,-0.00366519158706069,0.10567969083786011,0.11911872029304504
1788678595373021400,0.965021484375,-0.02321287989616394,0.10567969083786011,0.09285151958465576
1788678595389136000,0.981135986328125,-0.00733038317412138,0.06658431142568588,0.0507018156349659
1788678595405163300,0.997163330078125,0.010995574295520782,0.02382374368607998,-0.0012217304902151227
1788678595421328100,1.013328125,0.02076941914856434,0.025045474991202354,-0.04092797264456749
1788678595437472300,1.02947216796875,0.04703662544488907,0.05803219974040985,-0.051312681287527084
1788678595453691400,1.04569140625,0.0806342139840126,0.06658431142568588,-0.04337143152952194
1788678595469811200,1.061811279296875,0.10751228034496307,0.0354301854968071,-0.02932153269648552
1788678595485839000,1.077839111328125,0.09896016865968704,-0.051312681287527084,-0.033597588539123535
1788678595502009600,1.094009521484375,0.07147123664617538,-0.1014036312699318,-0.029932396486401558
1788678595518161200,1.1101611328125,0.04642575979232788,-0.10873401165008545,0.010995574295520782
1788678595534378500,1.12637841796875,0.02321287989616394,-0.08002334833145142,0.06963863968849182
1788678595550495500,1.14249560546875,0.005497787147760391,-0.02871066704392433,0.12339477986097336
1788678595566520000,1.15852001953125,0.022602014243602753,0.02076941914856434,0.16432274878025055
1788678595582700800,1.17470068359375,0.039095375686883926,0.0708603709936142,0.18997909128665924
1788678595598859500,1.190859619140625,0.05497787147760391,0.09896016865968704,0.17348572611808777
1788678595615077000,1.2070771484375,0.07696902006864548,-0.012828170321881771,0.14355333149433136
1788678595631192800,1.22319287109375,0.07880161702632904,-0.02871066704392433,0.11728613078594208
1788678595647219000,1.239218994140625,0.03176499158143997,0.056810468435287476,0.18387043476104736
1788678595663401000,1.25540087890625,-0.07452555745840073,-0.14355333149433136,0.09651670604944229
1788678595679516000,1.271515869140625,-0.05742133408784866,0.08674286305904388,0.030543262138962746
1788678595695733200,1.287733154296875,0.021380282938480377,0.07208210229873657,-0.08185594528913498
1788678595711852300,1.303852294921875,0.10384709388017654,0.06291911751031876,-0.08185594528913498
1788678595727879200,1.319879150390625,0.1111774742603302,-0.02687807008624077,-0.11667526513338089
1788678595744073700,1.33607373046875,0.048258353024721146,-0.37629300355911255,-0.1459967941045761
1788678595760195000,1.352195068359375,-0.016493361443281174,-0.35552358627319336,-0.06475171446800232
1788678595776411100,1.3684111328125,-0.021991148591041565,-0.10323622822761536,-0.01466076634824276
1788678595792526300,1.3845263671875,0.00427605677396059,-0.06841690838336945,-0.03481931984424591
1788678595808551000,1.400551025390625,0.03848451003432274,-0.0806342139840126,-0.02871066704392433
1788678595824704300,1.416704345703125,0.04398229718208313,-0.12889257073402405,0.01038470957428217
1788678595840845600,1.432845458984375,0.03787364438176155,-0.11728613078594208,0.036041051149368286
1788678595857064400,1.449064453125,0.03726277872920036,-0.11545353382825851,0.030543262138962746
1788678595873184800,1.465184814453125,0.02382374368607998,-0.12400564551353455,0.04337143152952194
1788678595889197600,1.481197509765625,0.00855211354792118,-0.09040805697441101,0.06902777403593063
1788678595905356300,1.497356201171875,0.0024434609804302454,-0.042760565876960754,0.08491026610136032
1788678595921502200,1.513502197265625,0.0006108652451075613,-0.02626720629632473,0.0806342139840126
1788678595937687300,1.529687255859375,0.00855211354792118,-0.039095375686883926,0.07696902006864548
1788678595953802000,1.545802001953125,0.013439035043120384,-0.08491026610136032,0.08307767659425735
1788678595969827000,1.5618271484375,-0.001832595793530345,-0.11911872029304504,0.08368854224681854
1788678595985998000,1.577998046875,-0.04703662544488907,-0.06291911751031876,0.08002334833145142
1788678596002146300,1.594146240234375,-0.06475171446800232,0.028099801391363144,0.039095375686883926
1788678596018363100,1.610363037109375,-0.059864792972803116,-0.025656340643763542,0.001832595793530345
1788678596034479600,1.626479736328125,-0.022602014243602753,-0.04092797264456749,0.01038470957428217
1788678596050504400,1.64250439453125,0.01038470957428217,-0.1014036312699318,0.02687807008624077
1788678596066675200,1.65867529296875,-0.005497787147760391,-0.14049901068210602,0.05009094998240471
1788678596082831400,1.674831298828125,-0.025656340643763542,-0.10995574295520782,0.04337143152952194
1788678596099047000,1.691046875,-0.02321287989616394,-0.07819075137376785,0.009773843921720982
1788678596115162600,1.70716259765625,-0.012828170321881771,-0.05925392732024193,-0.01160643994808197
1788678596131189500,1.723189453125,-0.009162978269159794,-0.04764748737215996,-0.01466076634824276
1788678596147372500,1.73937255859375,0.01466076634824276,-0.04153883829712868,-0.01771509274840355
1788678596163484000,1.75548388671875,0.048258353024721146,-0.025045474991202354,-0.03726277872920036
1788678596179696600,1.771696533203125,0.07941248267889023,0.004886921960860491,-0.06352998316287994
1788678596195812000,1.78781201171875,0.08918632566928864,0.00366519158706069,-0.08368854224681854
1788678596211836000,1.8038359375,0.07330382615327835,-0.02015855349600315,-0.07696902006864548
1788678596228022800,1.820022705078125,0.04703662544488907,-0.0403171069920063,-0.048258353024721146
1788678596244132900,1.8361328125,0.02076941914856434,-0.06291911751031876,-0.006719517521560192
1788678596260359000,1.85235888671875,0.022602014243602753,-0.08368854224681854,0.02626720629632473
1788678596276478500,1.868478515625,0.03237585723400116,-0.09040805697441101,0.05253441259264946
1788678596292506600,1.884506591796875,0.04764748737215996,-0.09651670604944229,0.056810468435287476
1788678596308660500,1.900660400390625,0.0507018156349659,-0.10384709388017654,0.048258353024721146
1788678596324794400,1.91679443359375,0.03420845419168472,-0.09957103431224823,0.03420845419168472
1788678596341010000,1.933010009765625,0.02871066704392433,-0.1007927656173706,0.018325956538319588
1788678596357124000,1.9491240234375,0.042760565876960754,-0.0861319974064827,0.007941247895359993
1788678596373150200,1.965150146484375,0.0507018156349659,-0.07269296050071716,0.003054326167330146
1788678596389312800,1.981312744140625,0.0507018156349659,-0.07269296050071716,0.0024434609804302454
1788678596405460700,1.997460693359375,0.039706241339445114,-0.08491026610136032,0.005497787147760391
1788678596421678800,2.013678955078125,0.021991148591041565,-0.10506882518529892,0.009773843921720982
1788678596437794300,2.029794189453125,0.01160643994808197,-0.09346238523721695,0.013439035043120384
1788678596453816800,2.04581689453125,0.012828170321881771,-0.1007927656173706,0.012217304669320583
1788678596469980000,2.06197998046875,0.012828170321881771,-0.09896016865968704,0.010995574295520782
1788678596486121000,2.078120849609375,0.001832595793530345,-0.07941248267889023,0.018325956538319588
1788678596502336500,2.09433642578125,0,-0.07819075137376785,0.022602014243602753
1788678596518453200,2.110453369140625,-0.00366519158706069,-0.07452555745840073,0.039706241339445114
1788678596534479600,2.126479736328125,-0.012828170321881771,-0.07513642311096191,0.0555887371301651
1788678596550661400,2.142661376953125,-0.014049900695681572,-0.05619960278272629,0.06108652427792549
1788678596566773000,2.15877294921875,-0.015882495790719986,-0.048258353024721146,0.060475658625364304
1788678596582991400,2.174991455078125,-0.01038470957428217,-0.045204028487205505,0.054367005825042725
1788678596599104800,2.191104736328125,0.0012217304902151227,-0.02871066704392433,0.05375614017248154
1788678596615127000,2.207126953125,-0.00366519158706069,-0.027488935738801956,0.05253441259264946
1788678596631310800,2.223310791015625,-0.021380282938480377,-0.05192354694008827,0.04948008432984352
1788678596647428400,2.239428466796875,-0.03176499158143997,-0.08735372871160507,0.048258353024721146
1788678596663645400,2.2556455078125,-0.02932153269648552,-0.08796459436416626,0.054367005825042725
1788678596679760400,2.271760498046875,-0.018325956538319588,-0.08735372871160507,0.04948008432984352
1788678596695786800,2.287786865234375,-0.007941247895359993,-0.07147123664617538,0.03787364438176155
1788678596711982600,2.303982666015625,-0.003054326167330146,-0.05619960278272629,0.024434609338641167
1788678596728110600,2.320110595703125,0.012217304669320583,-0.0403171069920063,-0.01466076634824276
1788678596744326400,2.336326416015625,0.036651913076639175,0.04886921867728233,-0.019547687843441963
1788678596760441000,2.352441162109375,0.06780604273080826,0.1918116807937622,0.007941247895359993
1788678596776495000,2.3684951171875,0.0507018156349659,0.05009094998240471,-0.006108652334660292
1788678596792678400,2.384678466796875,-0.02321287989616394,-0.303600013256073,-0.04764748737215996
1788678596808825900,2.400825927734375,-0.02871066704392433,-0.059864792972803116,-0.004886921960860491
1788678596825039600,2.41703955078125,-0.031154127791523933,0.04337143152952194,0.02076941914856434
1788678596841154800,2.43315478515625,-0.021991148591041565,0.05925392732024193,0.012217304669320583
1788678596857181200,2.44918115234375,0.009162978269159794,-0.10567969083786011,-0.018325956538319588
1788678596873346600,2.4653466796875,0.022602014243602753,-0.20402899384498596,-0.027488935738801956
1788678596889479700,2.481479736328125,0.02687807008624077,-0.2021963894367218,-0.039706241339445114
1788678596905695200,2.4976953125,0.039095375686883926,-0.17409659922122955,-0.0555887371301651
1788678596921812500,2.5138125,0.05803219974040985,-0.1466076523065567,-0.05314527451992035
1788678596937835300,2.529835205078125,0.0806342139840126,-0.11911872029304504,-0.03848451003432274
1788678596954004700,2.546004638671875,0.09651670604944229,-0.1368338167667389,-0.021991148591041565
1788678596970158000,2.562157958984375,0.0910189226269722,-0.17776179313659668,-0.0024434609804302454
1788678596986375700,2.578375732421875,0.08735372871160507,-0.19608774781227112,0.01038470957428217
1788678597002492700,2.59449267578125,0.07391469180583954,-0.17959438264369965,0.00855211354792118
1788678597018518800,2.610518798828125,0.0708603709936142,-0.14844025671482086,-0.018936822190880775
1788678597034695700,2.62669580078125,0.06352998316287994,-0.14049901068210602,-0.04337143152952194
1788678597050811000,2.642810791015625,0.03787364438176155,-0.12339477986097336,-0.03848451003432274
1788678597067028500,2.659028564453125,0.03787364438176155,-0.09712757170200348,-0.02382374368607998
1788678597083146000,2.67514599609375,0.04642575979232788,-0.07208210229873657,0.006719517521560192
1788678597099172600,2.691172607421875,0.051312681287527084,-0.0806342139840126,0.04214970022439957
1788678597115364600,2.707364501953125,0.05742133408784866,-0.10567969083786011,0.05619960278272629
1788678597131477200,2.723477294921875,0.07208210229873657,-0.12339477986097336,0.059864792972803116
1788678597147696000,2.739696044921875,0.09957103431224823,-0.15027284622192383,0.0910189226269722
1788678597163812000,2.75581201171875,0.12095131725072861,-0.1362229436635971,0.07880161702632904
1788678597179840500,2.771840576171875,0.10812314599752426,-0.12889257073402405,0.04886921867728233
1788678597196028400,2.7880283203125,0.08124507963657379,-0.11484266817569733,0.08368854224681854
1788678597212138500,2.804138427734375,0.05742133408784866,-0.1514945775270462,0.14049901068210602
1788678597228350500,2.8203505859375,0.042760565876960754,-0.19303341209888458,0.18081611394882202
1788678597244463000,2.836463134765625,0.03848451003432274,-0.20341812074184418,0.19303341209888458
1788678597260485400,2.8524853515625,0.0403171069920063,-0.20891591906547546,0.1667662113904953
1788678597276638700,2.868638671875,0.06902777403593063,-0.1814269721508026,0.12950342893600464
1788678597292771800,2.884771728515625,0.12522737681865692,-0.2480112910270691,0.12400564551353455
1788678597308985000,2.900985107421875,0.152105450630188,-0.3090978264808655,0.12034045159816742
1788678597325092900,2.9170927734375,0.13316862285137177,-0.32131510972976685,0.1264491081237793
1788678597341115100,2.933115234375,0.09040805697441101,-0.29504790902137756,0.12522737681865692
1788678597357267500,2.949267333984375,0.04581489413976669,-0.2370157092809677,0.11972958594560623
1788678597373410000,2.96541015625,0.02015855349600315,-0.16859880089759827,0.09285151958465576
1788678597389628000,2.9816279296875,0.02932153269648552,-0.14966198801994324,0.014049900695681572
1788678597405744400,2.997744384765625,0.006108652334660292,-0.09224065393209457,-0.06291911751031876
1788678597421770000,3.01377001953125,-0.015271631069481373,-0.04886921867728233,-0.09407325088977814
1788678597437935600,3.029935546875,0.027488935738801956,0.05375614017248154,-0.2773328125476837
1788678597454084600,3.046084716796875,0.06719517707824707,0.04092797264456749,-0.3488040566444397
1788678597470300000,3.0622998046875,0.04153883829712868,0.09773843735456467,-0.2015855312347412
1788678597486413800,3.078413818359375,-0.07208210229873657,0.1563815027475357,-0.22357667982578278
1788678597502437600,3.094437744140625,-0.1508837193250656,0.02015855349600315,-0.23273965716362
1788678597518621400,3.110621337890625,-0.14294247329235077,-0.18020524084568024,-0.19853121042251587
1788678597534734800,3.12673486328125,-0.09162978827953339,-0.21441370248794556,-0.10506882518529892
1788678597550952400,3.142952392578125,-0.060475658625364304,-0.21502456068992615,-0.07330382615327835
1788678597567067400,3.1590673828125,-0.039095375686883926,-0.19303341209888458,-0.09040805697441101
1788678597583091500,3.175091552734375,-0.03298672288656235,-0.15515977144241333,-0.09529497474431992
1788678597599276800,3.19127685546875,-0.06230825558304787,-0.1362229436635971,-0.07391469180583954
1788678597615396000,3.20739599609375,-0.10995574295520782,-0.12522737681865692,-0.09468411654233932
1788678597631613000,3.223613037109375,-0.1459967941045761,-0.11911872029304504,-0.07269296050071716
1788678597647729200,3.239729248046875,-0.08918632566928864,-0.11667526513338089,0.09040805697441101
1788678597663753700,3.255753662109375,-0.012828170321881771,-0.14477506279945374,0.20586158335208893
1788678597679905500,3.271905517578125,0.0507018156349659,-0.15882496535778046,0.21013765037059784
1788678597696030000,3.288030029296875,0.0806342139840126,-0.13072516024112701,0.20952677726745605
1788678597712243700,3.30424365234375,0.08307767659425735,-0.11178833991289139,0.23396138846874237
1788678597728361200,3.320361328125,0.05497787147760391,-0.10201449692249298,0.24556782841682434
1788678597744386000,3.336385986328125,0.03237585723400116,-0.10506882518529892,0.25595253705978394
1788678597760537600,3.35253759765625,0.039095375686883926,-0.10262536257505417,0.2791654169559479
1788678597776684300,3.368684326171875,0.05253441259264946,-0.10690141469240189,0.24190263450145721
1788678597792901000,3.384901123046875,0.07452555745840073,-0.0861319974064827,0.1111774742603302
1788678597809018600,3.4010185546875,0.11301007121801376,-0.03787364438176155,-0.028099801391363144
1788678597825046300,3.41704638671875,0.0861319974064827,-0.00855211354792118,-0.1417207419872284
1788678597841212000,3.4332119140625,0.02382374368607998,-0.01038470957428217,-0.15393804013729095
1788678597857353700,3.449353759765625,0.0006108652451075613,-0.04703662544488907,-0.07880161702632904
1788678597873570800,3.46557080078125,-0.02382374368607998,-0.09712757170200348,0.015882495790719986
1788678597889687800,3.481687744140625,-0.1270599663257599,-0.13072516024112701,0.04459316283464432
1788678597905712400,3.49771240234375,-0.1612684279680252,-0.08307767659425735,0.05619960278272629
1788678597921885200,3.51388525390625,-0.08368854224681854,-0.06475171446800232,0.028099801391363144
1788678597938039800,3.530039794921875,-0.0006108652451075613,-0.08796459436416626,-0.021380282938480377
1788678597954258400,3.546258544921875,0.02626720629632473,-0.11850785464048386,-0.06475171446800232
1788678597970376000,3.5623759765625,0.021380282938480377,-0.15332718193531036,-0.07819075137376785
1788678597986401000,3.578401123046875,0.00427605677396059,-0.14844025671482086,-0.045204028487205505
1788678598002581000,3.5945810546875,-0.01038470957428217,-0.13927727937698364,-0.010995574295520782
1788678598018739200,3.6107392578125,-0.028099801391363144,-0.11423180252313614,0.02382374368607998
1788678598034956000,3.6269560546875,-0.031154127791523933,-0.0861319974064827,0.0354301854968071
1788678598051073500,3.643073486328125,-0.013439035043120384,-0.08857546001672745,0.021380282938480377
1788678598067098000,3.65909814453125,0.009773843921720982,-0.09407325088977814,0.0024434609804302454
1788678598083279400,3.675279296875,0.01466076634824276,-0.09285151958465576,-0.004886921960860491
1788678598099389000,3.691388916015625,0.0006108652451075613,-0.09468411654233932,0.009162978269159794
1788678598115609000,3.707609130859375,-0.01771509274840355,-0.0910189226269722,0.042760565876960754
1788678598131731700,3.723731689453125,-0.039095375686883926,-0.0959058403968811,0.08735372871160507
1788678598147758000,3.739758056640625,-0.054367005825042725,-0.1062905490398407,0.11850785464048386
1788678598163951000,3.755951171875,-0.0659734457731247,-0.14538592100143433,0.12522737681865692
1788678598180076300,3.772076171875,-0.08307767659425735,-0.13316862285137177,0.10934487730264664
1788678598196288500,3.78828857421875,-0.08491026610136032,-0.07513642311096191,0.09468411654233932
1788678598212403200,3.8044033203125,-0.09529497474431992,-0.042760565876960754,0.05803219974040985
1788678598228427000,3.820427001953125,-0.11789698898792267,-0.05864306539297104,0.015271631069481373
1788678598244583700,3.836583740234375,-0.13988813757896423,-0.09712757170200348,-0.01710422709584236
1788678598260723000,3.852722900390625,-0.13927727937698364,-0.11850785464048386,-0.010995574295520782
1788678598276938500,3.8689384765625,-0.12339477986097336,-0.13072516024112701,-0.00427605677396059
1788678598293049600,3.885049560546875,-0.10690141469240189,-0.14294247329235077,-0.02687807008624077
1788678598309070800,3.90107080078125,-0.09040805697441101,-0.15760323405265808,-0.059864792972803116
1788678598325223700,3.9172236328125,-0.07269296050071716,-0.1514945775270462,-0.1062905490398407
1788678598341367300,3.9333671875,-0.05253441259264946,-0.0708603709936142,-0.09162978827953339
1788678598357582800,3.949582763671875,-0.028099801391363144,0.04886921867728233,0.02626720629632473
1788678598373698600,3.965698486328125,-0.05803219974040985,0.05619960278272629,0.14049901068210602
1788678598389721300,3.981721435546875,-0.11178833991289139,-0.04581489413976669,0.1270599663257599
1788678598405887700,3.9978876953125,-0.03420845419168472,-0.09651670604944229,0.05803219974040985
1788678598422037200,4.014037353515625,0.07696902006864548,-0.12950342893600464,-0.056810468435287476
1788678598438250500,4.03025048828125,0.08796459436416626,-0.0806342139840126,-0.11728613078594208
1788678598454365200,4.046365234375,0.04153883829712868,-0.07696902006864548,-0.12461651116609573
1788678598470392300,4.062392333984375,-0.02015855349600315,-0.07269296050071716,-0.07330382615327835
1788678598486574000,4.078573974609375,-0.02932153269648552,-0.07635815441608429,0.003054326167330146
1788678598502731300,4.094731201171875,0,-0.08552113175392151,0.04581489413976669
1788678598518947000,4.110947021484375,0.009773843921720982,-0.11362093687057495,0.02871066704392433
1788678598535063000,4.12706298828125,0.00733038317412138,-0.12034045159816742,-0.02321287989616394
1788678598551085800,4.1430859375,0.016493361443281174,-0.07635815441608429,-0.0354301854968071
1788678598567273700,4.159273681640625,0.009162978269159794,-0.04886921867728233,-0.012217304669320583
1788678598583387400,4.175387451171875,0.01771509274840355,-0.07696902006864548,0.02626720629632473
1788678598599603000,4.19160302734375,0.08002334833145142,-0.16310101747512817,-0.0006108652451075613
1788678598615719400,4.207719482421875,0.1417207419872284,-0.11972958594560623,-0.006108652334660292
1788678598631767000,4.22376708984375,0.13927727937698364,-0.054367005825042725,0.07513642311096191
1788678598647911200,4.2399111328125,0.0959058403968811,-0.08185594528913498,0.13011430203914642
1788678598664035300,4.256035400390625,0.0555887371301651,-0.11972958594560623,0.13072516024112701
1788678598680249600,4.27224951171875,0.03298672288656235,-0.18387043476104736,0.09468411654233932
1788678598696365800,4.28836572265625,0.01710422709584236,-0.19853121042251587,0.0757472887635231
1788678598712390700,4.304390625,0.006108652334660292,-0.22357667982578278,0.09896016865968704
1788678598728544500,4.32054443359375,0.00855211354792118,-0.2919935882091522,0.1563815027475357
1788678598744677400,4.336677490234375,0,-0.32986724376678467,0.17470745742321014
1788678598760894700,4.352894775390625,-0.039706241339445114,-0.3090978264808655,0.1661553531885147
1788678598777012500,4.369012451171875,-0.09529497474431992,-0.24923302233219147,0.1258382350206375
1788678598793037800,4.385037841796875,-0.10262536257505417,-0.192422553896904,0.0806342139840126
1788678598809203200,4.401203125,-0.06291911751031876,-0.12217304855585098,0.012217304669320583
1788678598825349400,4.417349365234375,0.001832595793530345,-0.039095375686883926,-0.04581489413976669
1788678598841566000,4.43356591796875,0.04642575979232788,0.01038470957428217,-0.05009094998240471
1788678598857682400,4.449682373046875,0.03848451003432274,-0.03176499158143997,-0.03787364438176155
1788678598873707800,4.465707763671875,0.06230825558304787,-0.015271631069481373,-0.07269296050071716
1788678598889879300,4.48187939453125,0.09224065393209457,0.07635815441608429,-0.13439035415649414
1788678598906038300,4.498038330078125,0.16554448008537292,0.39156460762023926,-0.22846360504627228
1788678598922257700,4.514257568359375,0.22846360504627228,0.36224308609962463,-0.3384193480014801
1788678598938378500,4.53037841796875,0.2076941877603531,0.33536502718925476,-0.4141666293144226
1788678598954407000,4.546406982421875,-0.051312681287527084,0.39217549562454224,-0.5992587804794312
1788678598970594800,4.5625947265625,-0.16249015927314758,0.29626965522766113,-0.7422012686729431
1788678598986744300,4.578744384765625,-0.10506882518529892,0.05864306539297104,-0.5345070958137512
1788678599002964200,4.594964111328125,-0.01038470957428217,0.07696902006864548,-0.3341432809829712
1788678599019082200,4.611082275390625,0.1918116807937622,-0.0024434609804302454,-0.23579397797584534
1788678599035110700,4.627110595703125,0.1771509200334549,-0.3597996234893799,0.0507018156349659
1788678599051296300,4.643296142578125,0.19303341209888458,-0.5607742667198181,0.21380282938480377
1788678599067408600,4.65940869140625,0.2217440903186798,-0.6530149579048157,0.2687807083129883
1788678599083624400,4.67562451171875,0.22357667982578278,-0.5674937963485718,0.304210901260376
1788678599099741000,4.691740966796875,0.24190263450145721,-0.394008070230484,0.3933972120285034
1788678599115777800,4.70777783203125,0.27611109614372253,-0.2742784917354584,0.5247332453727722
1788678599131927000,4.723927001953125,0.2730567753314972,-0.23579397797584534,0.7800748944282532
1788678599148058600,4.74005859375,0.23396138846874237,-0.11484266817569733,1.0482447147369385
1788678599164278000,4.756278076171875,0.18387043476104736,-0.056810468435287476,1.1081095933914185
1788678599180396300,4.772396240234375,0.009162978269159794,-0.04092797264456749,0.47280970215797424
1788678599196455700,4.78845556640625,0.04581489413976669,-0.014049900695681572,-0.09468411654233932
1788678599212651800,4.80465185546875,-0.015882495790719986,0.3805690407752991,-0.6096435189247131
1788678599228823300,4.8208232421875,-0.3378084897994995,0.5412266254425049,-0.8460483551025391
1788678599245042700,4.837042724609375,-0.5760459303855896,0.29138273000717163,-0.9077457785606384
1788678599261154800,4.85315478515625,-0.7073819637298584,0.18875735998153687,-0.7391469478607178
1788678599277175300,4.86917529296875,-0.7159340381622314,0.06352998316287994,-0.4660901725292206
1788678599293329200,4.8853291015625,-0.6249151229858398,-0.05375614017248154,-0.1716531366109848
1788678599309472000,4.901471923828125,-0.4807509481906891,-0.15943582355976105,0.08857546001672745
1788678599325692000,4.91769189453125,-0.36102136969566345,-0.1771509200334549,0.3084869384765625
1788678599341809200,4.93380908203125,-0.28588494658470154,-0.14416420459747314,0.47708576917648315
1788678599357835800,4.949835693359375,-0.17837265133857727,-0.11667526513338089,0.6707300543785095
1788678599374004200,4.966004150390625,0.02076941914856434,-0.1569923609495163,0.8998045325279236
1788678599390157300,4.9821572265625,0.15454891324043274,-0.313373863697052,1.0690141916275024
1788678599406374100,4.9983740234375,0.051312681287527084,-0.5351179838180542,0.8362745046615601
1788678599422503200,5.014503173828125,-0.17287486791610718,-0.4043927788734436,0.46242499351501465
1788678599438523100,5.030523193359375,-0.2724458873271942,-0.1459967941045761,0.05803219974040985
1788678599454697000,5.046697021484375,-0.23518311977386475,-0.056810468435287476,-0.2583959996700287
1788678599470808000,5.06280810546875,-0.2174680233001709,0.05925392732024193,-0.5082398653030396
1788678599487026200,5.079026123046875,-0.23335053026676178,0.08307767659425735,-0.50335294008255
1788678599503151600,5.095151611328125,-0.20036379992961884,0.01710422709584236,-0.28955012559890747
1788678599519172600,5.111172607421875,-0.12217304855585098,-0.03176499158143997,-0.010995574295520782
1788678599535350800,5.127350830078125,-0.08002334833145142,-0.0910189226269722,0.21868975460529327
1788678599551467000,5.143467041015625,-0.09834930300712585,-0.182648703455925,0.2987131178379059
1788678599567688700,5.159688720703125,-0.1319468915462494,-0.18509216606616974,0.21868975460529327
1788678599583809500,5.1758095703125,-0.13072516024112701,-0.13805554807186127,0.04886921867728233
1788678599599838700,5.191838623046875,-0.10018189996480942,-0.07696902006864548,-0.1007927656173706
1788678599616024000,5.208024169921875,-0.10751228034496307,-0.0403171069920063,-0.1716531366109848
1788678599632152000,5.224152099609375,-0.14782938361167908,-0.04642575979232788,-0.17104226350784302
1788678599648371000,5.240370849609375,-0.16737708449363708,-0.07147123664617538,-0.11850785464048386
1788678599664487200,5.256487060546875,-0.13561208546161652,-0.08429940044879913,-0.04642575979232788
1788678599680512500,5.272512451171875,-0.10567969083786011,-0.11239920556545258,0.0012217304902151227
1788678599696669400,5.28866943359375,-0.08918632566928864,-0.12339477986097336,0.025045474991202354
1788678599712808200,5.30480810546875,-0.07941248267889023,-0.0708603709936142,0.025045474991202354
1788678599729023700,5.321023681640625,-0.06414084881544113,-0.018936822190880775,0.02382374368607998
1788678599745140200,5.33714013671875,-0.03787364438176155,0.012217304669320583,0.042760565876960754
1788678599761167400,5.35316748046875,-0.0006108652451075613,0.015271631069481373,0.08552113175392151
1788678599777326600,5.36932666015625,0.02932153269648552,-0.04214970022439957,0.12522737681865692
1788678599793472500,5.385472412109375,0.05497787147760391,-0.08552113175392151,0.17104226350784302
1788678599809692000,5.40169189453125,0.07941248267889023,-0.10323622822761536,0.20586158335208893
1788678599825806600,5.417806640625,0.09346238523721695,-0.152105450630188,0.1814269721508026
1788678599841830000,5.433829833984375,0.1160643994808197,-0.1966986060142517,0.13316862285137177
1788678599857994800,5.449994873046875,0.1417207419872284,-0.20586158335208893,0.1215621829032898
1788678599874146800,5.466146728515625,0.14538592100143433,-0.1973094791173935,0.11972958594560623
1788678599890362000,5.482362060546875,0.1368338167667389,-0.18997909128665924,0.12950342893600464
1788678599906476800,5.498476806640625,0.12950342893600464,-0.15027284622192383,0.1411098688840866
1788678599922500600,5.51450048828125,0.11850785464048386,-0.09651670604944229,0.1313360333442688
1788678599938684200,5.53068408203125,0.11301007121801376,-0.0507018156349659,0.08552113175392151
1788678599954840800,5.5468408203125,0.1160643994808197,-0.01771509274840355,0.04581489413976669
1788678599971026000,5.56302587890625,0.12522737681865692,0.05192354694008827,0.04459316283464432
1788678599987144700,5.579144775390625,0.13866640627384186,0.05803219974040985,0.06169738993048668
1788678600003175000,5.5951748046875,0.16371189057826996,0.036651913076639175,0.09285151958465576
1788678600019372500,5.61137255859375,0.18570303916931152,0.010995574295520782,0.11911872029304504
1788678600035484400,5.627484375,0.19486601650714874,-0.00427605677396059,0.11056660860776901
1788678600051708700,5.643708740234375,0.1820378452539444,0.0012217304902151227,0.06902777403593063
1788678600067828000,5.659827880859375,0.14538592100143433,-0.00855211354792118,0.004886921960860491
1788678600083852800,5.675852783203125,0.1007927656173706,-0.009162978269159794,-0.0555887371301651
1788678600100001500,5.69200146484375,0.05864306539297104,0.02321287989616394,-0.0959058403968811
1788678600116134700,5.708134765625,0.03726277872920036,0.04092797264456749,-0.12339477986097336
1788678600132351200,5.724351318359375,0.039095375686883926,0.0403171069920063,-0.1368338167667389
1788678600148467200,5.74046728515625,0.06475171446800232,0.014049900695681572,-0.13377949595451355
1788678600164494000,5.756494140625,0.09773843735456467,-0.021380282938480377,-0.1258382350206375
1788678600180658400,5.772658447265625,0.12034045159816742,-0.05009094998240471,-0.12217304855585098
1788678600196804900,5.788804931640625,0.12889257073402405,-0.0757472887635231,-0.10934487730264664
1788678600213021000,5.80502099609375,0.13377949595451355,-0.06841690838336945,-0.056810468435287476
1788678600229133300,5.82113330078125,0.1514945775270462,-0.04214970022439957,0.009773843921720982
1788678600245156600,5.837156494140625,0.15454891324043274,-0.004886921960860491,0.07208210229873657
1788678600261325000,5.853324951171875,0.1258382350206375,0.02321287989616394,0.08124507963657379
1788678600277489400,5.869489501953125,0.10934487730264664,0.04214970022439957,0.028099801391363144
1788678600293704000,5.885703857421875,0.12278391420841217,0.015271631069481373,-0.019547687843441963
1788678600309825000,5.901824951171875,0.1459967941045761,-0.0024434609804302454,-0.013439035043120384
1788678600325854500,5.9178544921875,0.16371189057826996,-0.028099801391363144,0.022602014243602753
1788678600342038000,5.9340380859375,0.17348572611808777,-0.039095375686883926,0.05803219974040985
1788678600358198500,5.950198486328125,0.16737708449363708,-0.06352998316287994,0.07330382615327835
1788678600374413000,5.9664130859375,0.11239920556545258,-0.10690141469240189,0.030543262138962746
1788678600390534100,5.9825341796875,0.031154127791523933,-0.13072516024112701,-0.042760565876960754
1788678600406567400,5.9985673828125,-0.01160643994808197,-0.13500121235847473,-0.11911872029304504
1788678600422716700,6.014716552734375,0.021380282938480377,-0.1362229436635971,-0.14966198801994324
1788678600438832600,6.03083251953125,0.08307767659425735,-0.11789698898792267,-0.11789698898792267
1788678600455047700,6.047047607421875,0.11545353382825851,-0.07635815441608429,-0.036651913076639175
1788678600471159000,6.063158935546875,0.09773843735456467,-0.05619960278272629,0.0555887371301651
1788678600487180300,6.07918017578125,0.08552113175392151,-0.09224065393209457,0.11484266817569733
1788678600503272700,6.095272705078125,0.07024950534105301,-0.1459967941045761,0.1368338167667389
1788678600519390000,6.111389892578125,0.039095375686883926,-0.2015855312347412,0.1007927656173706
1788678600535605500,6.12760546875,0.02015855349600315,-0.21930062770843506,0.04948008432984352
1788678600551717400,6.14371728515625,-0.025656340643763542,-0.21441370248794556,0.03176499158143997
1788678600567741000,6.159740966796875,-0.08429940044879913,-0.18814650177955627,0.033597588539123535
1788678600583895600,6.1758955078125,-0.13927727937698364,-0.13439035415649414,0.0708603709936142
1788678600600029700,6.19202978515625,-0.15821409225463867,0.02015855349600315,0.15454891324043274
1788678600616244500,6.208244384765625,-0.12461651116609573,0.22968533635139465,0.28466320037841797
1788678600632360400,6.2243603515625,-0.03787364438176155,0.3292563557624817,0.38179078698158264
1788678600648384000,6.240384033203125,0.04703662544488907,0.251676470041275,0.38606682419776917
1788678600664541000,6.256541015625,0.09529497474431992,0.10323622822761536,0.3396410644054413
1788678600680690400,6.2726904296875,0.1362229436635971,-0.022602014243602753,0.29993483424186707
1788678600696907300,6.2889072265625,0.10262536257505417,-0.1459967941045761,0.26083946228027344
1788678600713025500,6.305025634765625,-0.027488935738801956,-0.23945917189121246,0.16249015927314758
1788678600729049900,6.3210498046875,-0.16982053220272064,-0.2736676335334778,0.0024434609804302454
1788678600745215500,6.337215576171875,-0.22602014243602753,-0.27977627515792847,-0.10690141469240189
1788678600761362000,6.35336181640625,-0.2070833146572113,-0.2626720666885376,-0.13927727937698364
1788678600777577500,6.369577392578125,-0.2877175211906433,-0.32986724376678467,-0.15577064454555511
1788678600793688000,6.38568798828125,-0.2932153046131134,-0.4178318381309509,-0.1264491081237793
1788678600809710800,6.4017109375,-0.09285151958465576,-0.24495697021484375,0.02015855349600315
1788678600825881300,6.41788134765625,0.03726277872920036,-0.15027284622192383,0.1514945775270462
1788678600842029000,6.434029052734375,-0.09529497474431992,-0.1869247704744339,0.13439035415649414
1788678600858243800,6.450243896484375,-0.22907446324825287,-0.11239920556545258,0.06169738993048668
1788678600874359600,6.466359619140625,-0.19547687470912933,0.06169738993048668,0.03176499158143997
1788678600890381000,6.482381103515625,-0.10445795953273773,0.13866640627384186,0.04764748737215996
1788678600906562300,6.498562255859375,-0.0024434609804302454,0.13500121235847473,0.1111774742603302
1788678600922670800,6.5146708984375,0.06719517707824707,0.13866640627384186,0.15882496535778046
1788678600938889700,6.5308896484375,0.0806342139840126,0.11484266817569733,0.12217304855585098
1788678600955008000,6.547008056640625,0.07391469180583954,0.06902777403593063,0.0757472887635231
1788678600971033300,6.563033447265625,0.03481931984424591,0.05009094998240471,0.025045474991202354
1788678600987226000,6.57922607421875,-0.05192354694008827,-0.025656340643763542,-0.07819075137376785
1788678601003338500,6.59533837890625,-0.11911872029304504,-0.054367005825042725,-0.1765400618314743
1788678601019558100,6.61155810546875,-0.10690141469240189,-0.036041051149368286,-0.22296582162380219
1788678601035675000,6.6276748046875,-0.027488935738801956,-0.05253441259264946,-0.10567969083786011
1788678601051699000,6.643698974609375,0.045204028487205505,0.031154127791523933,0.14416420459747314
1788678601067846400,6.659846435546875,0.1160643994808197,0.06169738993048668,0.3842342495918274
1788678601083975700,6.6759755859375,0.1563815027475357,-0.02626720629632473,0.4948008358478546
1788678601100189000,6.69218896484375,0.152105450630188,-0.1160643994808197,0.44776421785354614
1788678601116302600,6.708302490234375,0.09896016865968704,-0.13561208546161652,0.32559117674827576
1788678601132326700,6.72432666015625,0.012217304669320583,-0.1007927656173706,0.15027284622192383
1788678601148479200,6.740479248046875,-0.04153883829712868,-0.17776179313659668,0.006108652334660292
1788678601164608300,6.756608154296875,-0.04948008432984352,-0.24373523890972137,-0.0354301854968071
1788678601180822800,6.77282275390625,0.02015855349600315,-0.1618792861700058,0.10201449692249298
1788678601196943400,6.788943359375,0.10751228034496307,-0.10384709388017654,0.25961771607398987
1788678601212967000,6.804966796875,0.1820378452539444,-0.12095131725072861,0.3139847218990326
1788678601229126700,6.821126708984375,0.18509216606616974,-0.21930062770843506,0.22357667982578278
1788678601245272300,6.837272216796875,0.07941248267889023,-0.3335324227809906,0.007941247895359993
1788678601261492200,6.8534921875,-0.03848451003432274,-0.40072759985923767,-0.2480112910270691
1788678601277609700,6.869609619140625,-0.1111774742603302,-0.2834414839744568,-0.3781255781650543
1788678601293634800,6.885634765625,-0.13866640627384186,-0.039095375686883926,-0.32009339332580566
1788678601309794000,6.9017939453125,-0.13439035415649414,0.23335053026676178,-0.11728613078594208
1788678601325937400,6.9179375,-0.10751228034496307,0.34208452701568604,0.09040805697441101
1788678601342153700,6.93415380859375,-0.05375614017248154,0.25534167885780334,0.27611109614372253
1788678601358269200,6.950269287109375,0.006719517521560192,0.06841690838336945,0.3695734739303589
1788678601374294300,6.966294189453125,0.0006108652451075613,-0.11239920556545258,0.37201693654060364
1788678601390476000,6.98247607421875,-0.06780604273080826,-0.2565633952617645,0.2669481039047241
1788678601406590700,6.9985908203125,-0.15332718193531036,-0.3127630054950714,0.06352998316287994
1788678601422803000,7.014802978515625,-0.2474004179239273,-0.2779437005519867,-0.17959438264369965
1788678601438915800,7.030915771484375,-0.2822197377681732,-0.13927727937698364,-0.35063666105270386
1788678601454937000,7.04693701171875,-0.2718350291252136,-0.004886921960860491,-0.37629300355911255
1788678601471121000,7.063120849609375,-0.25045475363731384,0.10567969083786011,-0.28527405858039856
1788678601487240000,7.079239990234375,-0.19058994948863983,0.11972958594560623,-0.12767083942890167
1788678601503455500,7.09545556640625,-0.10995574295520782,0.013439035043120384,-0.006108652334660292
1788678601519569400,7.1115693359375,-0.036041051149368286,-0.10690141469240189,0.04581489413976669
1788678601535594000,7.127593994140625,0.007941247895359993,-0.22296582162380219,0.04581489413976669
1788678601551735600,7.143735595703125,0.018325956538319588,-0.251676470041275,0.01710422709584236
1788678601567873500,7.15987353515625,0.006108652334660292,-0.19120082259178162,-0.0555887371301651
1788678601584084500,7.17608447265625,-0.007941247895359993,-0.11423180252313614,-0.16004669666290283
1788678601600192300,7.192192138671875,-0.005497787147760391,-0.018936822190880775,-0.22357667982578278
1788678601616215600,7.208215576171875,0.02076941914856434,0.003054326167330146,-0.2028072625398636
1788678601632366600,7.22436669921875,0.07391469180583954,-0.029932396486401558,-0.11484266817569733
1788678601648515300,7.240515380859375,0.12095131725072861,-0.03787364438176155,-0.02382374368607998
1788678601664732200,7.256732177734375,0.13500121235847473,-0.006719517521560192,-0.030543262138962746
1788678601680850200,7.27285009765625,0.16982053220272064,0.05375614017248154,-0.10262536257505417
1788678601696874500,7.28887451171875,0.18387043476104736,0.11056660860776901,-0.1667662113904953
1788678601713039000,7.3050390625,0.16432274878025055,0.14355333149433136,-0.2015855312347412
1788678601729182700,7.3211826171875,0.14966198801994324,0.16859880089759827,-0.19547687470912933
1788678601745400800,7.33740087890625,0.15332718193531036,0.15515977144241333,-0.14049901068210602
1788678601761508400,7.35350830078125,0.15027284622192383,0.12889257073402405,-0.04948008432984352
1788678601777532400,7.369532470703125,0.1514945775270462,0.1111774742603302,0.04581489413976669
1788678601793709000,7.385708984375,0.16554448008537292,0.0861319974064827,0.1270599663257599
1788678601809860400,7.4018603515625,0.18875735998153687,0.0959058403968811,0.1771509200334549
1788678601826074400,7.418074462890625,0.19975294172763824,0.1062905490398407,0.18631389737129211
1788678601842186000,7.43418603515625,0.19914206862449646,0.22052235901355743,0.14416420459747314
1788678601858208500,7.45020849609375,0.15332718193531036,0.30604347586631775,0.05497787147760391
1788678601874390300,7.466390380859375,0.07391469180583954,0.23640485107898712,-0.056810468435287476
1788678601890497000,7.4824970703125,0.018325956538319588,0.16493362188339233,-0.11850785464048386
1788678601906708200,7.498708251953125,-0.02076941914856434,-0.039706241339445114,-0.19547687470912933
1788678601922820600,7.514820556640625,-0.001832595793530345,-0.2070833146572113,-0.2791654169559479
1788678601938839600,7.530839599609375,0.07696902006864548,-0.31459560990333557,-0.3701843321323395
1788678601955005200,7.547005126953125,0.13377949595451355,-0.1368338167667389,-0.27611109614372253
1788678601971143400,7.563143310546875,0.1667662113904953,-0.0012217304902151227,-0.04886921867728233
1788678601987331800,7.579331787109375,0.10995574295520782,-0.01771509274840355,0.2565633952617645
1788678602003441200,7.595441162109375,0.0659734457731247,-0.021991148591041565,0.48808133602142334
1788678602019493600,7.61149365234375,0.08796459436416626,-0.13744467496871948,0.5088507533073425
1788678602035682000,7.62768212890625,0.20097467303276062,-0.42638394236564636,0.25534167885780334
1788678602051809000,7.64380908203125,0.323147714138031,-0.5174028873443604,-0.04581489413976669
1788678602068024600,7.660024658203125,0.31520646810531616,-0.32559117674827576,-0.21991148591041565
1788678602084137700,7.6761376953125,0.17470745742321014,-0.10262536257505417,-0.26572638750076294
1788678602100158700,7.69215869140625,0.05619960278272629,0.0006108652451075613,-0.22907446324825287
1788678602116315100,7.708315185546875,-0.012217304669320583,0.11178833991289139,-0.11667526513338089
1788678602132460500,7.72446044921875,-0.021380282938480377,0.11789698898792267,0.009162978269159794
1788678602148675600,7.740675537109375,0.025656340643763542,0.06902777403593063,0.1563815027475357
1788678602164788700,7.756788818359375,0.09285151958465576,-0.0024434609804302454,0.27977627515792847
1788678602180812800,7.772812744140625,0.14416420459747314,-0.04214970022439957,0.32009339332580566
1788678602196983600,7.788983642578125,0.15332718193531036,-0.031154127791523933,0.3194825351238251
1788678602213134600,7.805134521484375,0.12339477986097336,-0.029932396486401558,0.26022860407829285
1788678602229347600,7.82134765625,0.08246681094169617,-0.05375614017248154,0.14782938361167908
1788678602245458700,7.837458740234375,0.04703662544488907,-0.09346238523721695,0.05864306539297104
1788678602261480700,7.853480712890625,0.015882495790719986,-0.10873401165008545,-0.012217304669320583
1788678602277649400,7.8696494140625,0.004886921960860491,-0.1007927656173706,-0.03481931984424591
1788678602293812200,7.885812255859375,-0.00855211354792118,-0.08491026610136032,0.005497787147760391
1788678602310032600,7.90203271484375,-0.02321287989616394,-0.06719517707824707,0.028099801391363144
1788678602326149400,7.9181494140625,-0.021991148591041565,-0.04581489413976669,0.022602014243602753
1788678602342176000,7.934176025390625,-0.02076941914856434,-0.02382374368607998,0.03726277872920036
1788678602358357000,7.95035693359375,-0.012828170321881771,-0.07513642311096191,0.04703662544488907
1788678602374473200,7.96647314453125,0.018936822190880775,-0.0806342139840126,0.0555887371301651
1788678602390688300,7.982688232421875,0.04337143152952194,-0.08246681094169617,0.06475171446800232
1788678602406805500,7.998805419921875,0.0757472887635231,-0.11423180252313614,0.0959058403968811
1788678602422833000,8.0148330078125,0.10384709388017654,-0.15760323405265808,0.08552113175392151
1788678602438987800,8.03098779296875,0.1111774742603302,-0.22602014243602753,0.006108652334660292
1788678602455115800,8.04711572265625,0.1111774742603302,-0.26145032048225403,-0.1014036312699318
1788678602471333000,8.0633330078125,0.1014036312699318,-0.28099802136421204,-0.15882496535778046
1788678602487451400,8.079451416015624,0.0959058403968811,-0.27000242471694946,-0.18875735998153687
1788678602503476500,8.0954765625,0.10567969083786011,-0.2321287989616394,-0.20402899384498596
1788678602519629800,8.1116298828125,0.0959058403968811,-0.15271630883216858,-0.1569923609495163
1788678602535761700,8.12776171875,0.05925392732024193,-0.12339477986097336,-0.09162978827953339
1788678602551974400,8.143974365234374,0.033597588539123535,-0.16493362188339233,-0.06169738993048668
1788678602568086300,8.160086181640626,-0.0012217304902151227,-0.27000242471694946,-0.06841690838336945
1788678602584111600,8.176111572265626,-0.06963863968849182,-0.41233405470848083,-0.1368338167667389
1788678602600262100,8.19226220703125,-0.15393804013729095,-0.40194934606552124,-0.18387043476104736
1788678602616391200,8.20839111328125,-0.22296582162380219,-0.11728613078594208,-0.05375614017248154
1788678602632609500,8.224609619140624,-0.26083946228027344,0.13439035415649414,0.20097467303276062
1788678602648723700,8.2407236328125,-0.20891591906547546,0.1820378452539444,0.41172316670417786
1788678602664755200,8.256755126953125,-0.10262536257505417,0.10384709388017654,0.504574716091156
1788678602680916700,8.272916748046875,-0.02076941914856434,-0.0507018156349659,0.5210680365562439
1788678602697064000,8.28906396484375,-0.025656340643763542,-0.18020524084568024,0.4343251883983612
1788678602713284000,8.3052841796875,-0.11362093687057495,-0.24068090319633484,0.24984388053417206
1788678602729395700,8.321395751953125,-0.2528982162475586,-0.23579397797584534,0.036651913076639175
1788678602745420500,8.337420654296874,-0.38606682419776917,-0.18814650177955627,-0.13927727937698364
1788678602761596400,8.353596435546875,-0.44104471802711487,-0.10384709388017654,-0.24007004499435425
1788678602777755600,8.369755615234375,-0.4105014503002167,-0.022602014243602753,-0.2669481039047241
1788678602793962800,8.385962646484375,-0.3335324227809906,-0.01466076634824276,-0.20830504596233368
1788678602810080500,8.40208056640625,-0.2632829248905182,-0.06414084881544113,-0.11423180252313614
1788678602826109200,8.418109130859374,-0.19547687470912933,-0.16982053220272064,-0.04398229718208313
1788678602842291700,8.434291748046874,-0.12828169763088226,-0.2736676335334778,-0.03848451003432274
1788678602858402800,8.45040283203125,-0.06780604273080826,-0.3127630054950714,-0.06719517707824707
1788678602874617600,8.46661767578125,-0.06352998316287994,-0.2669481039047241,-0.08552113175392151
1788678602890734600,8.482734619140626,-0.08429940044879913,-0.20891591906547546,-0.10812314599752426
1788678602906768100,8.49876806640625,-0.11484266817569733,-0.1508837193250656,-0.1319468915462494
1788678602922964500,8.514964599609375,-0.13255776464939117,-0.1062905490398407,-0.14416420459747314
1788678602939091500,8.531091552734376,-0.10934487730264664,-0.04703662544488907,-0.1160643994808197
1788678602955307000,8.54730712890625,-0.05925392732024193,-0.005497787147760391,-0.059864792972803116
1788678602971424000,8.563424072265626,0.009162978269159794,0.013439035043120384,-0.036041051149368286
1788678602987446800,8.57944677734375,0.08002334833145142,0.021991148591041565,-0.03298672288656235
1788678603003560700,8.595560791015625,0.13988813757896423,0.02015855349600315,-0.04153883829712868
1788678603019690000,8.61168994140625,0.1563815027475357,0.018936822190880775,-0.05314527451992035
1788678603035904000,8.627904052734374,0.1466076523065567,0.022602014243602753,-0.07513642311096191
1788678603052019500,8.64401953125,0.12767083942890167,0.00427605677396059,-0.08185594528913498
1788678603068041500,8.66004150390625,0.10201449692249298,0.04886921867728233,-0.042760565876960754
1788678603084202200,8.6762021484375,0.08429940044879913,0.10445795953273773,-0.0006108652451075613
1788678603100341000,8.692341064453124,0.0555887371301651,0.15332718193531036,0.02687807008624077
1788678603116553000,8.708552978515625,0.02626720629632473,0.23640485107898712,0.0354301854968071
1788678603132665600,8.72466552734375,0.04642575979232788,0.3396410644054413,-0.001832595793530345
1788678603148685000,8.74068505859375,0.11178833991289139,0.3543018400669098,-0.0959058403968811
1788678603164846000,8.75684619140625,0.18570303916931152,0.25045475363731384,-0.20097467303276062
1788678603180993300,8.7729931640625,0.21135938167572021,0.06169738993048668,-0.2431243658065796
1788678603197211400,8.78921142578125,0.152105450630188,-0.1612684279680252,-0.23151792585849762
1788678603213323300,8.8053232421875,0.10018189996480942,-0.23151792585849762,-0.16554448008537292
1788678603229379800,8.8213798828125,0.11178833991289139,-0.1459967941045761,0.022602014243602753
1788678603245531600,8.83753173828125,0.1514945775270462,-0.02932153269648552,0.23029619455337524
1788678603261673700,8.853673828125,0.21991148591041565,-0.06475171446800232,0.2816088795661926
1788678603277890800,8.869890869140624,0.2828305959701538,-0.21074850857257843,0.19792033731937408
1788678603294015500,8.886015380859375,0.27611109614372253,-0.3323107063770294,0.08796459436416626
1788678603310032400,8.902032470703125,0.22479841113090515,-0.38179078698158264,0.02015855349600315
1788678603326220500,8.918220458984376,0.15882496535778046,-0.3634648323059082,-0.00855211354792118
1788678603342341000,8.934341064453125,0.08979719132184982,-0.2883284091949463,-0.025045474991202354
1788678603358556000,8.950555908203125,0.056810468435287476,-0.18448130786418915,-0.01710422709584236
1788678603374670300,8.96667041015625,0.07452555745840073,-0.13500121235847473,0.03176499158143997
1788678603390691800,8.98269189453125,0.1264491081237793,-0.09712757170200348,0.1062905490398407
1788678603406877000,8.998876953125,0.1814269721508026,-0.09773843735456467,0.16004669666290283
1788678603422991400,9.014991455078125,0.18387043476104736,-0.07269296050071716,0.192422553896904
1788678603439205400,9.031205322265626,0.1612684279680252,-0.06719517707824707,0.20891591906547546
1788678603455317500,9.0473173828125,0.1569923609495163,-0.10445795953273773,0.18020524084568024
1788678603471338800,9.0633388671875,0.15943582355976105,-0.15577064454555511,0.1111774742603302
1788678603487490300,9.079490234375,0.152105450630188,-0.18509216606616974,0.05803219974040985
1788678603503644400,9.09564453125,0.14049901068210602,-0.182648703455925,0.04886921867728233
1788678603519850200,9.111850341796876,0.13377949595451355,-0.1362229436635971,0.09346238523721695
1788678603535964400,9.12796435546875,0.13011430203914642,-0.10567969083786011,0.14416420459747314
1788678603551985200,9.143985107421875,0.12278391420841217,-0.10812314599752426,0.1716531366109848
1788678603568142600,9.160142578125,0.10323622822761536,-0.11789698898792267,0.13561208546161652
1788678603584296400,9.17629638671875,0.07391469180583954,-0.06414084881544113,0.08429940044879913
1788678603600511500,9.192511474609375,0.030543262138962746,0.007941247895359993,0.05864306539297104
1788678603616629000,9.20862890625,-0.01710422709584236,0.07147123664617538,0.054367005825042725
1788678603632652000,9.224652099609376,-0.007941247895359993,0.1313360333442688,0.05925392732024193
1788678603648778500,9.240778564453125,0.04764748737215996,0.09834930300712585,0.06963863968849182
1788678603664920600,9.256920654296875,0.07757988572120667,-0.0354301854968071,0.06963863968849182
1788678603681130500,9.273130615234376,0.059864792972803116,-0.19303341209888458,0.05619960278272629
1788678603697237800,9.28923779296875,0.05009094998240471,-0.2828305959701538,0.005497787147760391
1788678603713261800,9.30526171875,0.04398229718208313,-0.2382374405860901,-0.045204028487205505
1788678603729436000,9.321435791015626,0.04337143152952194,-0.1411098688840866,-0.04948008432984352
1788678603745624800,9.337624755859375,0.03481931984424591,-0.02871066704392433,-0.003054326167330146
1788678603761841400,9.35384130859375,0.02382374368607998,0.0403171069920063,0.025045474991202354
1788678603777955600,9.36995556640625,-0.025656340643763542,-0.0024434609804302454,-0.014049900695681572
1788678603793979600,9.385979736328125,-0.1160643994808197,-0.15760323405265808,-0.13805554807186127
1788678603810160000,9.40216015625,-0.22479841113090515,-0.33719760179519653,-0.33108896017074585
1788678603826267400,9.418267333984375,-0.313373863697052,-0.32559117674827576,-0.44165557622909546
1788678603842486800,9.43448681640625,-0.35674530267715454,-0.05253441259264946,-0.28527405858039856
1788678603858597000,9.45059716796875,-0.33658674359321594,0.16920967400074005,0.00427605677396059
1788678603874623000,9.466623046875,-0.24556782841682434,0.17959438264369965,0.19486601650714874
1788678603890768100,9.48276806640625,-0.11545353382825851,-0.019547687843441963,0.26145032048225403
1788678603906882000,9.498882080078126,-0.06352998316287994,-0.26572638750076294,0.2070833146572113
1788678603923089700,9.515089599609375,-0.10873401165008545,-0.3274237811565399,0.10506882518529892
1788678603939205000,9.531205078125,-0.2174680233001709,-0.27000242471694946,-0.027488935738801956
1788678603955224800,9.547224853515624,-0.3127630054950714,-0.17348572611808777,-0.15943582355976105
1788678603971377200,9.563377197265625,-0.35124751925468445,-0.12034045159816742,-0.24373523890972137
1788678603987502800,9.5795029296875,-0.33047810196876526,-0.09346238523721695,-0.2730567753314972
1788678604003685000,9.59568505859375,-0.26511552929878235,-0.059864792972803116,-0.19120082259178162
1788678604019798300,9.61179833984375,-0.19303341209888458,-0.060475658625364304,-0.039095375686883926
1788678604035819500,9.627819580078125,-0.11301007121801376,-0.10506882518529892,0.09407325088977814
1788678604051980300,9.643980224609376,-0.04948008432984352,-0.16737708449363708,0.1569923609495163
1788678604068121600,9.66012158203125,0.001832595793530345,-0.19853121042251587,0.1362229436635971
1788678604084335400,9.67633544921875,0.02321287989616394,-0.19303341209888458,0.06475171446800232
1788678604100448300,9.6924482421875,0.014049900695681572,-0.14782938361167908,-0.0354301854968071
1788678604116472000,9.70847216796875,-0.0024434609804302454,-0.0806342139840126,-0.11545353382825851
1788678604132643600,9.7246435546875,0.0012217304902151227,-0.015882495790719986,-0.152105450630188
1788678604148792600,9.74079248046875,0.01038470957428217,0.005497787147760391,-0.1472185254096985
1788678604165006300,9.75700634765625,0.018936822190880775,0.0012217304902151227,-0.12217304855585098
1788678604181119200,9.773119140625,0.04459316283464432,-0.024434609338641167,-0.1007927656173706
1788678604197140200,9.78914013671875,0.08124507963657379,-0.012217304669320583,-0.08979719132184982
1788678604213317000,9.805317138671874,0.1514945775270462,0.033597588539123535,-0.05375614017248154
1788678604229474600,9.821474609375,0.20036379992961884,0.08124507963657379,0.015882495790719986
1788678604245688300,9.837688232421876,0.22296582162380219,0.09651670604944229,0.07513642311096191
1788678604261802800,9.853802734375,0.21441370248794556,0.04948008432984352,0.10018189996480942
1788678604277826300,9.869826416015625,0.21807889640331268,-0.006108652334660292,0.10995574295520782
1788678604294014500,9.886014404296875,0.24434609711170197,0.03420845419168472,0.15943582355976105
1788678604310134300,9.90213427734375,0.2272418737411499,0.1215621829032898,0.21319197118282318
1788678604326346200,9.91834619140625,0.13439035415649414,0.25045475363731384,0.21135938167572021
1788678604342461200,9.934461181640625,0.06841690838336945,0.41722095012664795,0.07635815441608429
1788678604358481400,9.9504814453125,0.0861319974064827,0.46303585171699524,-0.08124507963657379
1788678604374628000,9.966628173828125,0.18570303916931152,0.16371189057826996,-0.17348572611808777
1788678604390755600,9.982755615234375,0.3072652220726013,-0.24007004499435425,-0.18814650177955627
1788678604406970600,9.998970703125,0.32070425152778625,-0.4550946056842804,-0.13377949595451355
1788678604423084500,10.01508447265625,0.22968533635139465,-0.46242499351501465,-0.042760565876960754
1788678604439142000,10.031141845703125,0.11667526513338089,-0.2370157092809677,0.07635815441608429
1788678604455330000,10.047330078125,0.09040805697441101,0.0757472887635231,0.16310101747512817
1788678604471495200,10.0634951171875,0.13255776464939117,0.19486601650714874,0.13072516024112701
1788678604487708700,10.079708740234375,0.20341812074184418,0.09712757170200348,0.018325956538319588
1788678604503829000,10.0958291015625,0.20525072515010834,-0.02687807008624077,-0.06169738993048668
1788678604519853000,10.11185302734375,0.1508837193250656,-0.09957103431224823,-0.06414084881544113
1788678604536019200,10.128019287109375,0.08552113175392151,-0.11789698898792267,-0.05192354694008827
1788678604552161800,10.144161865234375,0.021991148591041565,-0.08185594528913498,-0.07941248267889023
1788678604568379000,10.16037890625,-0.01771509274840355,-0.042760565876960754,-0.10995574295520782
1788678604584495000,10.1764951171875,-0.039095375686883926,-0.09285151958465576,-0.1014036312699318
1788678604600519000,10.192518798828125,-0.0507018156349659,-0.22113321721553802,-0.004886921960860491
1788678604616691500,10.20869140625,-0.09285151958465576,-0.3891211748123169,0.1814269721508026
1788678604632840400,10.22484033203125,-0.13011430203914642,-0.3543018400669098,0.3335324227809906
1788678604649055200,10.24105517578125,-0.09834930300712585,-0.2168571650981903,0.37262779474258423
1788678604665166800,10.257166748046876,-0.012217304669320583,-0.02321287989616394,0.32986724376678467
1788678604681187300,10.273187255859375,0.05192354694008827,0.07635815441608429,0.22968533635139465
1788678604697361400,10.289361328125,0.0708603709936142,0.10384709388017654,0.15393804013729095
1788678604713516300,10.305516357421874,0.0403171069920063,0.04398229718208313,0.13988813757896423
1788678604729731300,10.3217314453125,-0.009162978269159794,-0.06963863968849182,0.1765400618314743
1788678604745847800,10.337847900390624,-0.04214970022439957,-0.13500121235847473,0.2070833146572113
1788678604761876500,10.35387646484375,-0.01771509274840355,-0.12889257073402405,0.1973094791173935
1788678604778055200,10.37005517578125,0.04642575979232788,-0.11484266817569733,0.16737708449363708
1788678604794166800,10.386166748046875,0.10567969083786011,-0.08918632566928864,0.13866640627384186
1788678604810380500,10.402380615234375,0.1313360333442688,-0.05497787147760391,0.12339477986097336
1788678604826495000,10.418494873046875,0.1319468915462494,-0.06291911751031876,0.13072516024112701
1788678604842516200,10.43451611328125,0.14049901068210602,-0.17287486791610718,0.13500121235847473
1788678604858659000,10.4506591796875,0.14233160018920898,-0.2828305959701538,0.10567969083786011
1788678604874779000,10.46677880859375,0.152105450630188,-0.32986724376678467,0.0507018156349659
1788678604890953700,10.48295361328125,0.16004669666290283,-0.3445279896259308,-0.02076941914856434
1788678604907066000,10.499066162109376,0.1618792861700058,-0.32498031854629517,-0.09162978827953339
1788678604923122000,10.515121826171875,0.16310101747512817,-0.28038713335990906,-0.07880161702632904
1788678604939311600,10.5313115234375,0.14477506279945374,-0.21930062770843506,0.04581489413976669
1788678604955473400,10.547473388671875,0.14233160018920898,-0.2480112910270691,0.15577064454555511
1788678604971689700,10.563689697265625,0.13805554807186127,-0.3982841372489929,0.15027284622192383
1788678604987806200,10.57980615234375,0.10445795953273773,-0.5870414972305298,0.06475171446800232
1788678605003828200,10.595828125,0.005497787147760391,-0.7141014933586121,-0.11911872029304504
1788678605019980000,10.61197998046875,-0.10445795953273773,-0.49296826124191284,-0.2834414839744568
1788678605036119000,10.628119140625,-0.19364428520202637,-0.015271631069481373,-0.24129177629947662
1788678605052332800,10.644332763671875,-0.19853121042251587,0.2272418737411499,-0.07391469180583954
1788678605068444400,10.6604443359375,-0.08674286305904388,0.2015855312347412,0.12034045159816742
1788678605084467000,10.676467041015625,0.001832595793530345,0.039095375686883926,0.2370157092809677
1788678605100632600,10.692632568359375,0.01771509274840355,-0.1918116807937622,0.2742784917354584
1788678605116771600,10.708771484375,-0.05864306539297104,-0.30970868468284607,0.2015855312347412
1788678605132985000,10.724985107421874,-0.19364428520202637,-0.3023782968521118,0.05314527451992035
1788678605149109000,10.74110888671875,-0.3292563557624817,-0.21563543379306793,-0.1313360333442688
1788678605165132300,10.75713232421875,-0.3805690407752991,-0.12522737681865692,-0.2718350291252136
1788678605181313300,10.773313232421875,-0.3640756905078888,-0.021380282938480377,-0.2730567753314972
1788678605197470000,10.789469970703125,-0.3323107063770294,0.025045474991202354,-0.18325957655906677
1788678605213682700,10.8056826171875,-0.32559117674827576,0.0012217304902151227,-0.036651913076639175
1788678605229796600,10.821796630859374,-0.34697145223617554,-0.06780604273080826,0.06780604273080826
1788678605245819000,10.83781884765625,-0.37079519033432007,-0.1264491081237793,0.0659734457731247
1788678605261985500,10.853985595703126,-0.3549126982688904,-0.17531833052635193,-0.009162978269159794
1788678605278136000,10.870135986328124,-0.29626965522766113,-0.15271630883216858,-0.13500121235847473
1788678605294353700,10.886353759765624,-0.21441370248794556,-0.09712757170200348,-0.2431243658065796
1788678605310465000,10.902465087890626,-0.15577064454555511,-0.0507018156349659,-0.2993239760398865
1788678605326483200,10.918483154296876,-0.10445795953273773,-0.03176499158143997,-0.35246923565864563
1788678605342670800,10.9346708984375,-0.05864306539297104,-0.013439035043120384,-0.3677408695220947
1788678605358790000,10.950789794921874,-0.003054326167330146,-0.005497787147760391,-0.2981022298336029
1788678605375003000,10.9670029296875,0.060475658625364304,0.0012217304902151227,-0.1466076523065567
1788678605391114200,10.9831142578125,0.13255776464939117,0.018325956538319588,-0.01038470957428217
1788678605407154200,10.999154296875,0.23945917189121246,0.036041051149368286,0.06719517707824707
1788678605423309800,11.015309814453126,0.31581732630729675,0.01160643994808197,0.0910189226269722
1788678605439444200,11.0314443359375,0.37262779474258423,-0.05864306539297104,0.08185594528913498
1788678605455656400,11.047656494140625,0.3836233615875244,-0.10751228034496307,0.03726277872920036
1788678605471767000,11.06376708984375,0.3591887652873993,-0.0757472887635231,0.033597588539123535
1788678605487819500,11.079819580078125,0.3243694305419922,0.028099801391363144,0.09712757170200348
1788678605503962000,11.095962158203125,0.2724458873271942,0.1508837193250656,0.18936823308467865
1788678605520109600,11.112109619140625,0.23396138846874237,0.17287486791610718,0.21441370248794556
1788678605536321500,11.128321533203126,0.25106561183929443,0.07757988572120667,0.11911872029304504
1788678605552435200,11.144435302734376,0.2528982162475586,-0.0507018156349659,-0.028099801391363144
1788678605568459300,11.160459228515625,0.19853121042251587,-0.12400564551353455,-0.08735372871160507
1788678605584627700,11.176627685546874,0.14538592100143433,-0.15515977144241333,-0.10018189996480942
1788678605600780300,11.1927802734375,0.13744467496871948,-0.14844025671482086,-0.04886921867728233
1788678605616992300,11.2089921875,0.11850785464048386,-0.12522737681865692,0.0659734457731247
1788678605633102600,11.2251025390625,0.08491026610136032,-0.17043140530586243,0.12278391420841217
1788678605649123800,11.241123779296874,0.07147123664617538,-0.24862214922904968,0.07880161702632904
1788678605665297000,11.257296875,0.056810468435287476,-0.34086281061172485,-0.03787364438176155
1788678605681451300,11.273451171875,0.018936822190880775,-0.34574973583221436,-0.1472185254096985
1788678605697667000,11.2896669921875,-0.018936822190880775,-0.2730567753314972,-0.2174680233001709
1788678605713783000,11.305782958984375,-0.05314527451992035,-0.15271630883216858,-0.21441370248794556
1788678605729806000,11.32180615234375,-0.09346238523721695,-0.05253441259264946,-0.16737708449363708
1788678605745983000,11.33798291015625,-0.10567969083786011,0.01710422709584236,-0.11301007121801376
1788678605762092500,11.354092529296874,-0.07941248267889023,0.08246681094169617,-0.018325956538319588
1788678605778306000,11.37030615234375,-0.03848451003432274,0.11972958594560623,0.09407325088977814
1788678605794419700,11.386419677734375,0.02687807008624077,0.15393804013729095,0.22479841113090515
1788678605810442800,11.40244287109375,0.07696902006864548,0.16310101747512817,0.37262779474258423
1788678605826587100,11.418587158203126,0.10323622822761536,0.08429940044879913,0.47342056035995483
1788678605842710000,11.4347099609375,0.1368338167667389,0.009162978269159794,0.49846604466438293
1788678605858925800,11.45092578125,0.18081611394882202,-0.04092797264456749,0.48869219422340393
1788678605875038700,11.467038818359375,0.21624629199504852,-0.09957103431224823,0.4502076804637909
1788678605891061800,11.483061767578125,0.21991148591041565,-0.10506882518529892,0.38728857040405273
1788678605907214300,11.49921435546875,0.19303341209888458,-0.0806342139840126,0.3127630054950714
1788678605923344600,11.5153447265625,0.11056660860776901,-0.06475171446800232,0.25106561183929443
1788678605939559200,11.53155908203125,0.009162978269159794,-0.05253441259264946,0.19914206862449646
1788678605955673300,11.54767333984375,-0.06902777403593063,-0.04337143152952194,0.16371189057826996
1788678605971698000,11.563697998046875,-0.09896016865968704,-0.005497787147760391,0.14966198801994324
1788678605987851800,11.579851806640624,-0.1014036312699318,0.02626720629632473,0.1563815027475357
1788678606003990800,11.59599072265625,-0.08979719132184982,-0.00733038317412138,0.17592918872833252
1788678606020205300,11.612205322265625,-0.06475171446800232,-0.11301007121801376,0.17104226350784302
1788678606036319200,11.6283193359375,-0.02932153269648552,-0.26572638750076294,0.13561208546161652
1788678606052340000,11.644340087890624,-0.039706241339445114,-0.3842342495918274,0.08124507963657379
1788678606068482600,11.660482666015625,-0.09346238523721695,-0.4544837474822998,-0.02382374368607998
1788678606084633300,11.67663330078125,-0.1411098688840866,-0.41599923372268677,-0.13805554807186127
1788678606100846300,11.692846435546874,-0.17104226350784302,-0.23396138846874237,-0.182648703455925
1788678606116960000,11.7089599609375,-0.16310101747512817,-0.17287486791610718,-0.13744467496871948
1788678606132983300,11.7249833984375,-0.11301007121801376,-0.3378084897994995,-0.12522737681865692
1788678606149163300,11.741163330078125,-0.07452555745840073,-0.646906316280365,-0.2541199326515198
1788678606165273900,11.75727392578125,-0.09285151958465576,-0.7947356700897217,-0.41172316670417786
1788678606181492700,11.77349267578125,-0.18387043476104736,-0.49235737323760986,-0.44654250144958496
1788678606197612000,11.789612060546874,-0.24556782841682434,-0.13439035415649414,-0.33292156457901
1788678606213670700,11.805670654296875,-0.27550023794174194,0.19058994948863983,-0.1417207419872284
1788678606229864700,11.82186474609375,-0.23090706765651703,0.2871066629886627,0.04337143152952194
1788678606246023000,11.83802294921875,-0.16065755486488342,0.14782938361167908,0.13500121235847473
1788678606262239000,11.854239013671876,-0.09896016865968704,-0.06780604273080826,0.10751228034496307
1788678606278360800,11.87036083984375,-0.07635815441608429,-0.19608774781227112,0.03481931984424591
1788678606294378000,11.8863779296875,-0.08552113175392151,-0.22846360504627228,-0.02015855349600315
1788678606310532000,11.902531982421875,-0.07208210229873657,-0.21807889640331268,-0.045204028487205505
1788678606326662100,11.918662109375,-0.0354301854968071,-0.16004669666290283,-0.02626720629632473
1788678606342878700,11.934878662109375,-0.00733038317412138,-0.10506882518529892,0.009162978269159794
1788678606358993700,11.95099365234375,0.004886921960860491,-0.04703662544488907,0.0555887371301651
1788678606375020800,11.967020751953125,0.0006108652451075613,-0.01771509274840355,0.10262536257505417
1788678606391176400,11.983176513671875,-0.00366519158706069,-0.015882495790719986,0.11423180252313614
1788678606407312000,11.999311767578124,0.009773843921720982,-0.042760565876960754,0.07513642311096191
1788678606423527700,12.015527587890626,0.029932396486401558,-0.05314527451992035,0.012828170321881771
1788678606439641900,12.031641845703126,0.045204028487205505,-0.06658431142568588,-0.05375614017248154
1788678606455663400,12.047663330078125,0.05619960278272629,-0.07452555745840073,-0.13011430203914642
1788678606471831300,12.063831298828125,0.0757472887635231,-0.051312681287527084,-0.1820378452539444
1788678606487977700,12.079977783203125,0.10812314599752426,-0.02321287989616394,-0.16493362188339233
1788678606504195300,12.0961953125,0.14049901068210602,0,-0.08979719132184982
1788678606520312000,12.11231201171875,0.2015855312347412,-0.012217304669320583,-0.016493361443281174
1788678606536337000,12.1283369140625,0.28649580478668213,-0.04337143152952194,0.04886921867728233
1788678606552512800,12.1445126953125,0.35124751925468445,-0.07635815441608429,0.0806342139840126
1788678606568667400,12.16066748046875,0.39217549562454224,-0.09346238523721695,0.09468411654233932
1788678606584866000,12.176865966796875,0.39767327904701233,-0.14538592100143433,0.08368854224681854
1788678606600976000,12.192975830078124,0.3445279896259308,-0.14905111491680145,0.05864306539297104
1788678606617002800,12.209002685546874,0.27550023794174194,-0.05497787147760391,0.02932153269648552
1788678606633184300,12.225184326171876,0.26145032048225403,0.02321287989616394,0.018936822190880775
1788678606649343700,12.24134375,0.29016098380088806,0.09651670604944229,0.04153883829712868
1788678606665557000,12.257556884765625,0.3494149148464203,0.16065755486488342,0.10567969083786011
1788678606681670100,12.273670166015625,0.35674530267715454,0.22296582162380219,0.1661553531885147
1788678606697719000,12.289718994140625,0.28955012559890747,0.26572638750076294,0.1472185254096985
1788678606713907000,12.305906982421876,0.20830504596233368,0.1612684279680252,0.013439035043120384
1788678606730015000,12.322014892578125,0.1411098688840866,0.0006108652451075613,-0.13072516024112701
1788678606746231000,12.33823095703125,0.08674286305904388,-0.15882496535778046,-0.182648703455925
1788678606762342100,12.354342041015625,0.02076941914856434,-0.23029619455337524,-0.09834930300712585
1788678606778396400,12.370396484375,0.018936822190880775,-0.12461651116609573,0.13316862285137177
1788678606794578200,12.386578125,0.08124507963657379,-0.07269296050071716,0.33292156457901
1788678606810736400,12.402736328125,0.11301007121801376,-0.10384709388017654,0.38606682419776917
1788678606826951200,12.418951171875,0.11362093687057495,-0.1514945775270462,0.31031954288482666
1788678606843072000,12.435072021484375,0.11545353382825851,-0.17776179313659668,0.2174680233001709
1788678606859089200,12.451089111328125,0.11056660860776901,-0.18936823308467865,0.15760323405265808
1788678606875253200,12.467253173828125,0.08491026610136032,-0.18875735998153687,0.1062905490398407
1788678606891394300,12.483394287109375,0.05619960278272629,-0.14966198801994324,0.06414084881544113
1788678606907607600,12.499607666015624,0.04153883829712868,-0.12889257073402405,0.02626720629632473
1788678606923723000,12.515722900390625,0.045204028487205505,-0.10323622822761536,0.012217304669320583
1788678606939747000,12.5317470703125,0.04703662544488907,-0.07330382615327835,0.015271631069481373
1788678606955911200,12.5479111328125,0.030543262138962746,-0.006108652334660292,0.060475658625364304
1788678606972059000,12.564058837890625,-0.0012217304902151227,0.04092797264456749,0.1466076523065567
1788678606988272600,12.580272705078125,-0.03176499158143997,0.033597588539123535,0.18020524084568024
1788678607004385500,12.596385498046875,-0.018936822190880775,0.013439035043120384,0.11056660860776901
1788678607020445000,12.61244482421875,0.0006108652451075613,-0.018936822190880775,0.05742133408784866
1788678607036622000,12.6286220703125,0.00427605677396059,-0.03848451003432274,0.0708603709936142
1788678607052779800,12.64477978515625,0.01038470957428217,-0.060475658625364304,0.09468411654233932
1788678607069000000,12.661,0.028099801391363144,-0.06230825558304787,0.10506882518529892
1788678607085116200,12.6771162109375,0.0403171069920063,-0.06658431142568588,0.10934487730264664
1788678607101144000,12.69314404296875,0.04886921867728233,-0.08002334833145142,0.08552113175392151
1788678607117330000,12.709329833984375,0.060475658625364304,-0.07819075137376785,0.018936822190880775
1788678607133447200,12.725447265625,0.05925392732024193,-0.059864792972803116,-0.05375614017248154
1788678607149624800,12.741624755859375,0.03420845419168472,-0.006108652334660292,-0.06291911751031876
1788678607165739500,12.757739501953125,0.01466076634824276,-0.019547687843441963,-0.02076941914856434
1788678607181763800,12.773763916015625,0.028099801391363144,-0.11056660860776901,0.009162978269159794
1788678607197955300,12.789955322265625,0.05742133408784866,-0.23029619455337524,-0.007941247895359993
1788678607214078000,12.806077880859375,0.1007927656173706,-0.34574973583221436,-0.07696902006864548
1788678607230294300,12.822294189453125,0.12950342893600464,-0.36224308609962463,-0.17348572611808777
1788678607246407700,12.83840771484375,0.12400564551353455,-0.27977627515792847,-0.21868975460529327
1788678607262463500,12.85446337890625,0.059864792972803116,-0.16310101747512817,-0.16920967400074005
1788678607278643200,12.870643310546875,0.012217304669320583,-0.14233160018920898,-0.1007927656173706
1788678607294801400,12.886801513671875,-0.001832595793530345,-0.30604347586631775,-0.08979719132184982
1788678607311016200,12.90301611328125,-0.02871066704392433,-0.45753806829452515,-0.10812314599752426
1788678607327133400,12.919133544921875,-0.08552113175392151,-0.46670106053352356,-0.1362229436635971
1788678607343191600,12.935191650390625,-0.1459967941045761,-0.21502456068992615,-0.06291911751031876
1788678607359380200,12.951380126953126,-0.1869247704744339,0.0708603709936142,0.08368854224681854
1788678607375522600,12.9675224609375,-0.16859880089759827,0.19425514340400696,0.2223549485206604
1788678607391737900,12.98373779296875,-0.0507018156349659,0.0910189226269722,0.323147714138031
1788678607407859000,12.99985888671875,0.0659734457731247,-0.13072516024112701,0.3481931984424591
1788678607423878400,13.01587841796875,0.10018189996480942,-0.2767219543457031,0.3121521472930908
1788678607440027000,13.03202685546875,0.0403171069920063,-0.33536502718925476,0.21380282938480377
1788678607456209200,13.048209228515624,-0.07880161702632904,-0.32620203495025635,0.04764748737215996
1788678607472426800,13.0644267578125,-0.2119702398777008,-0.31459560990333557,-0.152105450630188
1788678607488540400,13.08054052734375,-0.2773328125476837,-0.24495697021484375,-0.2791654169559479
1788678607504565800,13.096565673828126,-0.2675589919090271,-0.12095131725072861,-0.2834414839744568
1788678607520744700,13.11274462890625,-0.22113321721553802,-0.036651913076639175,-0.19853121042251587
1788678607536856000,13.12885595703125,-0.1716531366109848,-0.036651913076639175,-0.08491026610136032
1788678607553072000,13.145072021484374,-0.11789698898792267,-0.06291911751031876,0.06108652427792549
1788678607569181400,13.161181396484375,-0.056810468435287476,-0.0757472887635231,0.15943582355976105
1788678607585205800,13.177205810546875,-0.02076941914856434,-0.05925392732024193,0.15882496535778046
1788678607601386000,13.193385986328124,-0.007941247895359993,-0.025656340643763542,0.06658431142568588
1788678607617543200,13.209543212890624,-0.001832595793530345,-0.02076941914856434,-0.051312681287527084
1788678607633756000,13.225755859375,0.01466076634824276,-0.00427605677396059,-0.14049901068210602
1788678607649870300,13.241870361328125,0.02687807008624077,0.009162978269159794,-0.15454891324043274
1788678607665892600,13.257892578125,0.030543262138962746,0.07635815441608429,-0.10934487730264664
1788678607682079000,13.274078857421875,0.059864792972803116,0.15943582355976105,-0.05497787147760391
1788678607698201000,13.290201171875,0.13439035415649414,0.27122417092323303,-0.06719517707824707
1788678607714414800,13.306414794921874,0.21441370248794556,0.34025195240974426,-0.12828169763088226
1788678607730528300,13.3225283203125,0.2687807083129883,0.3628539443016052,-0.1771509200334549
1788678607746551000,13.338551025390625,0.28466320037841797,0.32070425152778625,-0.1569923609495163
1788678607762697200,13.354697265625,0.28099802136421204,0.252287358045578,-0.06719517707824707
1788678607778888700,13.370888671875,0.2883284091949463,0.18570303916931152,0.06352998316287994
1788678607795101700,13.387101806640626,0.28955012559890747,0.1062905490398407,0.1667662113904953
1788678607811212000,13.4032119140625,0.29626965522766113,0.09712757170200348,0.2015855312347412
1788678607827234600,13.419234619140624,0.2993239760398865,0.08979719132184982,0.13011430203914642
1788678607843392000,13.43539208984375,0.2736676335334778,0.0757472887635231,-0.0806342139840126
1788678607859536400,13.451536376953126,0.22418753802776337,0.00733038317412138,-0.3341432809829712
1788678607875751700,13.467751708984375,0.1618792861700058,-0.12828169763088226,-0.44287729263305664
1788678607891862000,13.483862060546874,0.09712757170200348,-0.19120082259178162,-0.3628539443016052
1788678607907917800,13.499917724609375,0.05742133408784866,-0.059864792972803116,-0.05742133408784866
1788678607924066600,13.516066650390625,0.10506882518529892,0.051312681287527084,0.24434609711170197
1788678607940247800,13.532247802734375,0.19425514340400696,-0.02626720629632473,0.2626720666885376
1788678607956457700,13.548457763671875,0.23273965716362,-0.19058994948863983,0.0708603709936142
1788678607972569900,13.56456982421875,0.19975294172763824,-0.3017674386501312,-0.0959058403968811
1788678607988582700,13.580582763671876,0.13439035415649414,-0.3090978264808655,-0.14233160018920898
1788678608004763100,13.59676318359375,0.05803219974040985,-0.23457226157188416,-0.09529497474431992
1788678608020916700,13.612916748046874,0.02871066704392433,-0.1472185254096985,-0.033597588539123535
1788678608037098800,13.6290986328125,0.06169738993048668,-0.09651670604944229,0.006108652334660292
1788678608053212000,13.6452119140625,0.10384709388017654,-0.08735372871160507,0.036651913076639175
1788678608069235000,13.66123486328125,0.1258382350206375,-0.11667526513338089,0.08918632566928864
1788678608085426400,13.677426513671875,0.1264491081237793,-0.12889257073402405,0.16859880089759827
1788678608101541600,13.693541748046876,0.11789698898792267,-0.11484266817569733,0.2583959996700287
1788678608117757200,13.709757080078125,0.11972958594560623,-0.10995574295520782,0.2828305959701538
1788678608133873400,13.725873291015626,0.12522737681865692,-0.13805554807186127,0.26511552929878235
1788678608149896700,13.741896728515625,0.12034045159816742,-0.1569923609495163,0.2217440903186798
1788678608166087200,13.758087158203125,0.10934487730264664,-0.14538592100143433,0.1973094791173935
1788678608182210600,13.77421044921875,0.0708603709936142,-0.16065755486488342,0.16859880089759827
1788678608198425900,13.79042578125,0.029932396486401558,-0.14049901068210602,0.15454891324043274
1788678608214539300,13.806539306640625,-0.016493361443281174,-0.10690141469240189,0.14966198801994324
1788678608230560800,13.822560791015626,-0.039095375686883926,-0.08002334833145142,0.1313360333442688
1788678608246714000,13.838714111328125,-0.04886921867728233,-0.0910189226269722,0.1007927656173706
1788678608262849300,13.854849365234376,-0.0757472887635231,-0.12339477986097336,0.09468411654233932
1788678608279067100,13.871067138671876,-0.11301007121801376,-0.1258382350206375,0.13805554807186127
1788678608295223000,13.88722314453125,-0.11911872029304504,-0.17592918872833252,0.15943582355976105
1788678608311246000,13.90324609375,-0.09346238523721695,-0.2773328125476837,0.1362229436635971
1788678608327403300,13.9194033203125,-0.04703662544488907,-0.38179078698158264,0.10018189996480942
1788678608343542300,13.935542236328125,-0.05742133408784866,-0.4031710624694824,0.07635815441608429
1788678608359755300,13.95175537109375,-0.12339477986097336,-0.38240164518356323,0.027488935738801956
1788678608375867400,13.967867431640625,-0.192422553896904,-0.32498031854629517,-0.03848451003432274
1788678608391891500,13.983891357421875,-0.22357667982578278,-0.27061331272125244,-0.06169738993048668
1788678608408056300,14.000056396484375,-0.23273965716362,-0.24862214922904968,-0.06108652427792549
1788678608424199200,14.01619921875,-0.2382374405860901,-0.2021963894367218,-0.08368854224681854
1788678608440413700,14.03241357421875,-0.2474004179239273,-0.19058994948863983,-0.16554448008537292
1788678608456529200,14.048529052734375,-0.2779437005519867,-0.26511552929878235,-0.3188716471195221
1788678608472552400,14.064552490234375,-0.3225368559360504,-0.18325957655906677,-0.31093040108680725
1788678608488710000,14.0807099609375,-0.35674530267715454,0.016493361443281174,-0.06291911751031876
1788678608504865300,14.096865234375,-0.2938261926174164,0.1270599663257599,0.19303341209888458
1788678608521080600,14.11308056640625,-0.14049901068210602,0.09529497474431992,0.304210901260376
1788678608537189000,14.129189208984375,-0.018936822190880775,-0.014049900695681572,0.2987131178379059
1788678608553248300,14.145248291015625,0.045204028487205505,-0.15882496535778046,0.20830504596233368
1788678608569411600,14.16141162109375,0.019547687843441963,-0.2474004179239273,0.05864306539297104
1788678608585568000,14.177568115234376,-0.04153883829712868,-0.27488934993743896,-0.08491026610136032
1788678608601785900,14.193785888671876,-0.09712757170200348,-0.24129177629947662,-0.15393804013729095
1788678608617897200,14.209897216796875,-0.10323622822761536,-0.09468411654233932,-0.2217440903186798
1788678608633914400,14.225914306640625,-0.05742133408784866,-0.13500121235847473,-0.07757988572120667
1788678608650058800,14.242058837890625,0.012828170321881771,-0.14844025671482086,0.03237585723400116
1788678608666184000,14.258183837890625,0.05253441259264946,-0.12522737681865692,0.15271630883216858
1788678608682400800,14.27440087890625,0.06169738993048668,-0.12400564551353455,0.2535090744495392
1788678608698514400,14.290514404296875,0.0861319974064827,-0.12400564551353455,0.251676470041275
1788678608714537000,14.306536865234374,0.10873401165008545,-0.1160643994808197,0.15271630883216858
1788678608730723600,14.3227236328125,0.12034045159816742,-0.05742133408784866,0.016493361443281174
1788678608746852600,14.3388525390625,0.11911872029304504,-0.04459316283464432,-0.07391469180583954
1788678608763069700,14.355069580078125,0.10934487730264664,-0.06475171446800232,-0.11423180252313614
1788678608779186400,14.3711865234375,0.08735372871160507,-0.05864306539297104,-0.11728613078594208
1788678608795210200,14.387210205078125,0.05253441259264946,-0.05375614017248154,-0.10018189996480942
1788678608811369200,14.403369140625,0.0354301854968071,-0.018936822190880775,-0.11423180252313614
1788678608827512300,14.41951220703125,0.03848451003432274,0.0659734457731247,-0.1319468915462494
1788678608843729700,14.435729736328126,0.06291911751031876,0.15515977144241333,-0.10323622822761536
1788678608859845600,14.451845703125,0.08918632566928864,0.20341812074184418,-0.06658431142568588
1788678608875870500,14.467870361328124,0.10384709388017654,0.18814650177955627,-0.060475658625364304
1788678608892038400,14.484038330078125,0.1313360333442688,0.1411098688840866,-0.05253441259264946
1788678608908168700,14.500168701171875,0.1563815027475357,0.09712757170200348,-0.005497787147760391
1788678608924384800,14.516384765625,0.16432274878025055,0.10690141469240189,0.06230825558304787
1788678608940497000,14.532496826171876,0.1667662113904953,0.16859880089759827,0.11545353382825851
1788678608956551400,14.548551513671875,0.15821409225463867,0.2590068578720093,0.17470745742321014
1788678608972722000,14.564721923828126,0.13988813757896423,0.29993483424186707,0.17837265133857727
1788678608988912000,14.580912109375,0.15454891324043274,0.24190263450145721,0.04398229718208313
1788678609005128200,14.597128173828125,0.16982053220272064,0.033597588539123535,-0.1661553531885147
1788678609021248500,14.61324853515625,0.1472185254096985,-0.16004669666290283,-0.2993239760398865
1788678609037304600,14.6293046875,0.1111774742603302,-0.21013765037059784,-0.30543261766433716
1788678609053470500,14.645470458984375,0.0861319974064827,-0.08002334833145142,-0.18325957655906677
1788678609069617000,14.661616943359375,0.09162978827953339,0.07391469180583954,-0.02076941914856434
1788678609085830700,14.67783056640625,0.1563815027475357,0.056810468435287476,0.04153883829712868
1788678609101940200,14.693940185546875,0.21624629199504852,-0.02687807008624077,-0.007941247895359993
1788678609117957000,14.70995703125,0.2480112910270691,-0.10567969083786011,-0.08918632566928864
1788678609134144500,14.72614453125,0.252287358045578,-0.09224065393209457,-0.10873401165008545
1788678609150275300,14.742275390625,0.23029619455337524,-0.06719517707824707,-0.09773843735456467
1788678609166491600,14.75849169921875,0.2125810980796814,-0.09162978827953339,-0.09957103431224823
1788678609182605300,14.774605224609376,0.1814269721508026,-0.16982053220272064,-0.1258382350206375
1788678609198628000,14.790628173828125,0.12828169763088226,-0.18936823308467865,-0.11789698898792267
1788678609214780200,14.8067802734375,0.04642575979232788,-0.12461651116609573,-0.04398229718208313
1788678609230910500,14.822910400390626,-0.01160643994808197,-0.03420845419168472,0.06902777403593063
1788678609247126000,14.8391259765625,-0.014049900695681572,0.05314527451992035,0.19303341209888458
1788678609263239700,14.85523974609375,-0.003054326167330146,0.07208210229873657,0.2993239760398865
1788678609279258000,14.871258056640626,-0.004886921960860491,0.009162978269159794,0.33169981837272644
1788678609295417900,14.88741796875,-0.042760565876960754,-0.027488935738801956,0.26145032048225403
1788678609311557400,14.903557373046874,-0.1014036312699318,-0.033597588539123535,0.1612684279680252
1788678609327770000,14.91977001953125,-0.18448130786418915,0.0024434609804302454,0.08246681094169617
1788678609343883800,14.9358837890625,-0.24190263450145721,0.0507018156349659,0.0507018156349659
1788678609359907000,14.951906982421875,-0.24129177629947662,0.048258353024721146,0.027488935738801956
1788678609376080100,14.968080078125,-0.18875735998153687,-0.0012217304902151227,0.02321287989616394
1788678609392230700,14.984230712890625,-0.1368338167667389,-0.08552113175392151,0.018325956538319588
1788678609408445200,15.000445068359374,-0.11239920556545258,-0.09529497474431992,0.039095375686883926
1788678609424558300,15.016558349609374,-0.09896016865968704,-0.07391469180583954,0.07269296050071716
1788678609440580900,15.032580810546875,-0.06414084881544113,-0.0555887371301651,0.13072516024112701
1788678609456756000,15.048755859375,-0.021380282938480377,-0.09896016865968704,0.16798794269561768
1788678609472913700,15.06491357421875,0.03420845419168472,-0.1918116807937622,0.18325957655906677
1788678609489130500,15.081130615234375,0.05864306539297104,-0.29138273000717163,0.19547687470912933
1788678609505239300,15.0972392578125,0.036041051149368286,-0.3378084897994995,0.1514945775270462
1788678609521263000,15.11326318359375,-0.033597588539123535,-0.24190263450145721,0.08002334833145142
1788678609537444900,15.12944482421875,-0.11911872029304504,-0.10384709388017654,0.08368854224681854
1788678609553554400,15.145554443359375,-0.19975294172763824,-0.04459316283464432,0.17776179313659668
1788678609569774300,15.1617744140625,-0.2590068578720093,-0.27061331272125244,0.17409659922122955
1788678609585888800,15.177888671875,-0.3066543638706207,-0.5931501388549805,-0.030543262138962746
1788678609601902000,15.193902099609375,-0.3689626157283783,-0.7776314616203308,-0.43799036741256714
1788678609618044400,15.21004443359375,-0.4447098970413208,-0.5992587804794312,-0.7666358947753906
1788678609634192400,15.2261923828125,-0.5626068711280823,-0.1411098688840866,-0.6530149579048157
1788678609650404400,15.242404296875,-0.5962044596672058,0.20036379992961884,-0.303600013256073
1788678609666512400,15.258512451171875,-0.46853363513946533,0.2816088795661926,0.1264491081237793
1788678609682570000,15.274570068359376,-0.20891591906547546,0.09529497474431992,0.41233405470848083
1788678609698753500,15.29075341796875,0.005497787147760391,-0.1722639948129654,0.5198463201522827
1788678609714912800,15.306912841796875,0.11423180252313614,-0.3488040566444397,0.4709770977497101
1788678609731123200,15.323123291015625,0.08002334833145142,-0.3536909818649292,0.2987131178379059
1788678609747242000,15.339241943359376,-0.01771509274840355,-0.2571742534637451,0.09407325088977814
1788678609763255600,15.355255615234375,-0.10934487730264664,-0.17776179313659668,-0.048258353024721146
1788678609779409400,15.371409423828124,-0.152105450630188,-0.11423180252313614,-0.13316862285137177
1788678609795545900,15.3875458984375,-0.12400564551353455,-0.08429940044879913,-0.10445795953273773
1788678609811760000,15.403760009765625,-0.06658431142568588,-0.08979719132184982,-0.009162978269159794
1788678609827873500,15.41987353515625,-0.013439035043120384,-0.1417207419872284,0.07941248267889023
1788678609843894800,15.435894775390626,0.01710422709584236,-0.16371189057826996,0.1258382350206375
1788678609860061400,15.4520615234375,0.033597588539123535,-0.15027284622192383,0.12767083942890167
1788678609876209700,15.468209716796874,0.06536258012056351,-0.11056660860776901,0.06536258012056351
1788678609892421600,15.484421630859375,0.1062905490398407,-0.05925392732024193,-0.01160643994808197
1788678609908534000,15.500533935546875,0.1258382350206375,-0.02626720629632473,-0.021991148591041565
1788678609924555300,15.51655517578125,0.1264491081237793,-0.021380282938480377,-0.01466076634824276
1788678609940725500,15.5327255859375,0.13500121235847473,-0.025656340643763542,-0.02687807008624077
1788678609956880000,15.5488798828125,0.15882496535778046,-0.018936822190880775,-0.04581489413976669
1788678609973092600,15.565092529296875,0.18081611394882202,0.01466076634824276,-0.05803219974040985
1788678609989205500,15.58120556640625,0.20341812074184418,0.07330382615327835,-0.054367005825042725
1788678610005225700,15.597225830078125,0.19303341209888458,0.1111774742603302,-0.015271631069481373
1788678610021411800,15.613411865234376,0.17531833052635193,0.11667526513338089,0.04886921867728233
1788678610037525800,15.62952587890625,0.15943582355976105,0.0959058403968811,0.09346238523721695
1788678610053715000,15.64571484375,0.16554448008537292,0.07880161702632904,0.11178833991289139
1788678610069819400,15.6618193359375,0.2070833146572113,0.04764748737215996,0.1215621829032898
1788678610085840600,15.677840576171874,0.24190263450145721,0.018936822190880775,0.12767083942890167
1788678610102014000,15.694013916015624,0.27611109614372253,0.01466076634824276,0.16065755486488342
1788678610118169300,15.71016943359375,0.24007004499435425,0.06963863968849182,0.23151792585849762
1788678610134381600,15.726381591796875,0.1459967941045761,0.1612684279680252,0.252287358045578
1788678610150493200,15.7424931640625,0.06963863968849182,0.08796459436416626,0.13744467496871948
1788678610166511900,15.758511962890625,0.06352998316287994,-0.16432274878025055,-0.08185594528913498
1788678610182656800,15.77465673828125,0.11789698898792267,-0.3341432809829712,-0.1869247704744339
1788678610198820000,15.790820068359375,0.15515977144241333,-0.34697145223617554,-0.05803219974040985
1788678610215032800,15.80703271484375,0.1820378452539444,-0.22113321721553802,0.2822197377681732
1788678610231138000,15.823137939453124,0.21930062770843506,-0.1411098688840866,0.5473352670669556
1788678610247191300,15.83919140625,0.2675589919090271,-0.23151792585849762,0.5241223573684692
1788678610263378000,15.8553779296875,0.26450464129447937,-0.36529740691185,0.25961771607398987
1788678610279544600,15.871544677734375,0.19792033731937408,-0.3903428912162781,-0.02382374368607998
1788678610295759400,15.88775927734375,0.11178833991289139,-0.3023782968521118,-0.152105450630188
1788678610311882200,15.90388232421875,0.036651913076639175,-0.23335053026676178,-0.17959438264369965
1788678610327905500,15.919905517578124,-0.039095375686883926,-0.1722639948129654,-0.2064724564552307
1788678610344070100,15.936070068359374,-0.11301007121801376,-0.19853121042251587,-0.28527405858039856
1788678610360220000,15.952219970703124,-0.15943582355976105,-0.20097467303276062,-0.3787364661693573
1788678610376431600,15.968431640625,-0.14966198801994324,-0.12950342893600464,-0.394618958234787
1788678610392543500,15.98454345703125,-0.09040805697441101,-0.04948008432984352,-0.2938261926174164
1788678610408566000,16.00056591796875,0.030543262138962746,-0.04459316283464432,-0.15454891324043274
1788678610424742000,16.016741943359374,0.13927727937698364,-0.06536258012056351,-0.0024434609804302454
1788678610440852000,16.03285205078125,0.21135938167572021,-0.12034045159816742,0.242513507604599
1788678610457067000,16.04906689453125,0.21013765037059784,-0.19975294172763824,0.4098905920982361
1788678610473179000,16.065178955078125,0.19914206862449646,-0.2742784917354584,0.4239404797554016
1788678610489198800,16.08119873046875,0.19425514340400696,-0.2779437005519867,0.34636059403419495
1788678610505381000,16.097381103515627,0.18020524084568024,-0.21563543379306793,0.23335053026676178
1788678610521486000,16.113486083984377,0.15393804013729095,-0.09346238523721695,0.1765400618314743
1788678610537700000,16.1297001953125,0.11362093687057495,0.004886921960860491,0.2028072625398636
1788678610553812000,16.14581201171875,0.05619960278272629,0.03237585723400116,0.22540926933288574
1788678610569833200,16.161833251953126,-0.004886921960860491,-0.014049900695681572,0.17837265133857727
1788678610585974300,16.177974365234373,-0.07391469180583954,-0.04764748737215996,0.10751228034496307
1788678610602092500,16.194092529296874,-0.1270599663257599,-0.08674286305904388,0.04764748737215996
1788678610618308900,16.210308837890626,-0.13255776464939117,-0.16310101747512817,0.001832595793530345
1788678610634424300,16.22642431640625,-0.09773843735456467,-0.24434609711170197,-0.04337143152952194
1788678610650447600,16.242447509765626,-0.06841690838336945,-0.22968533635139465,-0.05864306539297104
1788678610666600000,16.258599853515626,-0.08552113175392151,-0.1563815027475357,-0.05925392732024193
1788678610682739200,16.2747392578125,-0.11178833991289139,-0.10934487730264664,-0.0861319974064827
1788678610698954200,16.290954345703124,-0.10995574295520782,-0.07024950534105301,-0.09162978827953339
1788678610715068000,16.30706787109375,-0.07330382615327835,-0.1514945775270462,-0.06291911751031876
1788678610731118600,16.32311865234375,-0.02626720629632473,-0.3139847218990326,-0.13500121235847473
1788678610747291000,16.339290771484375,-0.03298672288656235,-0.4031710624694824,-0.28955012559890747
1788678610763439900,16.35543994140625,-0.1215621829032898,-0.4184426963329315,-0.5748242139816284
1788678610779655400,16.371655517578127,-0.2767219543457031,-0.1765400618314743,-0.7574729323387146
1788678610795772000,16.38777197265625,-0.43676865100860596,0.20463985204696655,-0.6145304441452026
1788678610811829000,16.4038291015625,-0.46547931432724,0.38728857040405273,-0.30970868468284607
1788678610827998200,16.419998291015624,-0.3066543638706207,0.28955012559890747,-0.07696902006864548
1788678610844145400,16.4361455078125,-0.09529497474431992,0.012828170321881771,0.06963863968849182
1788678610860363500,16.452363525390624,0.060475658625364304,-0.21135938167572021,0.1722639948129654
1788678610876483300,16.4684833984375,0.09468411654233932,-0.22602014243602753,0.2070833146572113
1788678610892506600,16.484506591796876,0.03298672288656235,-0.10812314599752426,0.15515977144241333
1788678610908688400,16.5006884765625,-0.039095375686883926,-0.013439035043120384,0.021991148591041565
1788678610924807400,16.516807373046873,-0.05375614017248154,-0.009162978269159794,-0.1472185254096985
1788678610941022500,16.5330224609375,-0.00855211354792118,0.015271631069481373,-0.23029619455337524
1788678610957135600,16.549135498046876,0.04153883829712868,0.036651913076639175,-0.18448130786418915
1788678610973157400,16.565157470703124,0.0708603709936142,0.03298672288656235,-0.0861319974064827
1788678610989337000,16.581337158203127,0.07024950534105301,0.02382374368607998,0.042760565876960754
1788678611005454600,16.59745458984375,0.051312681287527084,0.01466076634824276,0.14233160018920898
1788678611021670400,16.61367041015625,0.08429940044879913,0.01710422709584236,0.18875735998153687
1788678611037779200,16.629779296875,0.10873401165008545,-0.028099801391363144,0.1417207419872284
1788678611053836500,16.64583642578125,0.13011430203914642,-0.06352998316287994,0.006719517521560192
1788678611069986300,16.661986328125,0.1362229436635971,-0.08796459436416626,-0.10323622822761536
1788678611086113800,16.67811376953125,0.10445795953273773,-0.09346238523721695,-0.14294247329235077
1788678611102329000,16.6943291015625,0.048258353024721146,-0.04886921867728233,-0.13316862285137177
1788678611118444300,16.7104443359375,0.027488935738801956,0.010995574295520782,-0.07208210229873657
1788678611134464000,16.726464111328124,0.02687807008624077,0.05925392732024193,-0.0024434609804302454
1788678611150619000,16.742618896484377,0.0354301854968071,0.06719517707824707,0.0507018156349659
1788678611166748400,16.75874853515625,0.0708603709936142,0.05009094998240471,0.08429940044879913
1788678611182945500,16.774945556640624,0.13805554807186127,0.07147123664617538,0.10445795953273773
1788678611199059700,16.791059814453124,0.1716531366109848,0.06352998316287994,0.11239920556545258
1788678611215081500,16.80708154296875,0.21624629199504852,0.03481931984424591,0.11239920556545258
1788678611231244000,16.823244140625,0.26022860407829285,-0.01038470957428217,0.1264491081237793
1788678611247425000,16.839425048828126,0.2681698501110077,-0.04764748737215996,0.16859880089759827
1788678611263641000,16.85564111328125,0.23945917189121246,0.01160643994808197,0.19792033731937408
1788678611279753700,16.871753662109374,0.17043140530586243,0.08124507963657379,0.20525072515010834
1788678611295777000,16.887777099609377,0.11484266817569733,0.06352998316287994,0.08124507963657379
1788678611311951000,16.903951171875,0.09896016865968704,0.022602014243602753,-0.10567969083786011
1788678611328105200,16.920105224609376,0.08307767659425735,-0.05009094998240471,-0.2779437005519867
1788678611344319000,16.936319091796875,0.0659734457731247,-0.11972958594560623,-0.303600013256073
1788678611360431400,16.952431396484375,0.02382374368607998,-0.042760565876960754,-0.10445795953273773
1788678611376486000,16.96848583984375,-0.010995574295520782,0.08429940044879913,0.16249015927314758
1788678611392653300,16.9846533203125,0.02321287989616394,0.16798794269561768,0.21074850857257843
1788678611408797400,17.00079736328125,0.09040805697441101,0.17837265133857727,0.04398229718208313
1788678611425016600,17.0170166015625,0.15454891324043274,0.11423180252313614,-0.12400564551353455
1788678611441139700,17.0331396484375,0.2028072625398636,0.024434609338641167,-0.18814650177955627
1788678611457166000,17.049166015625,0.2070833146572113,-0.0910189226269722,-0.10018189996480942
1788678611473356800,17.065356689453125,0.18509216606616974,-0.23457226157188416,0.00855211354792118
1788678611489461200,17.081461181640623,0.14416420459747314,-0.303600013256073,0.06658431142568588
1788678611505675300,17.09767529296875,0.08918632566928864,-0.23151792585849762,0.0555887371301651
1788678611521790200,17.113790283203127,0.05009094998240471,-0.10262536257505417,0.02871066704392433
1788678611537812200,17.129812255859374,0.03787364438176155,-0.02871066704392433,0.009773843921720982
1788678611553967000,17.145967041015624,0.05925392732024193,-0.0006108652451075613,0.00855211354792118
1788678611570102500,17.1621025390625,0.09162978827953339,-0.02015855349600315,0.0757472887635231
1788678611586317800,17.17831787109375,0.10995574295520782,-0.06719517707824707,0.15821409225463867
1788678611602435000,17.19443505859375,0.1313360333442688,-0.1062905490398407,0.19547687470912933
1788678611618460000,17.2104599609375,0.13561208546161652,-0.11545353382825851,0.18509216606616974
1788678611634621700,17.22662158203125,0.1270599663257599,-0.10323622822761536,0.15393804013729095
1788678611650761700,17.24276171875,0.1258382350206375,-0.10934487730264664,0.10323622822761536
1788678611666980600,17.258980712890626,0.12522737681865692,-0.1368338167667389,0.06108652427792549
1788678611683096000,17.275095947265626,0.13011430203914642,-0.13805554807186127,0.05803219974040985
1788678611699116500,17.291116455078125,0.1111774742603302,-0.13439035415649414,0.09651670604944229
1788678611715286300,17.307286376953126,0.05864306539297104,-0.09407325088977814,0.14355333149433136
1788678611731440000,17.323440185546875,-0.012217304669320583,-0.02321287989616394,0.17348572611808777
1788678611747659000,17.339658935546876,-0.0507018156349659,0,0.17348572611808777
1788678611763777500,17.355777587890625,-0.05497787147760391,-0.02687807008624077,0.16493362188339233
1788678611779802600,17.371802734375,-0.02076941914856434,-0.15027284622192383,0.16065755486488342
1788678611795981000,17.38798095703125,0.014049900695681572,-0.2583959996700287,0.13805554807186127
1788678611812112100,17.404112060546876,-0.012828170321881771,-0.3066543638706207,0.12522737681865692
1788678611828323000,17.420322998046874,-0.08796459436416626,-0.28955012559890747,0.08674286305904388
1788678611844434700,17.4364345703125,-0.13927727937698364,-0.17348572611808777,0.014049900695681572
1788678611860454100,17.4524541015625,-0.17348572611808777,-0.03176499158143997,0.00366519158706069
1788678611876621000,17.46862109375,-0.15271630883216858,0.03237585723400116,0.060475658625364304
1788678611892735000,17.48473486328125,-0.1264491081237793,-0.13744467496871948,0.08429940044879913
1788678611908946400,17.500946533203123,-0.11484266817569733,-0.32620203495025635,0.005497787147760391
1788678611925058600,17.51705859375,-0.13561208546161652,-0.37629300355911255,-0.1716531366109848
1788678611941081600,17.53308154296875,-0.17409659922122955,-0.17470745742321014,-0.27000242471694946
1788678611957225000,17.549224853515625,-0.23579397797584534,0.09773843735456467,-0.1258382350206375
1788678611973349000,17.56534912109375,-0.24434609711170197,0.15882496535778046,0.07147123664617538
1788678611989564700,17.581564697265627,-0.17043140530586243,0.018325956538319588,0.22296582162380219
1788678612005674500,17.597674560546874,-0.08246681094169617,-0.16371189057826996,0.2687807083129883
1788678612021699800,17.613699951171874,-0.04642575979232788,-0.21380282938480377,0.2535090744495392
1788678612037845500,17.629845458984374,-0.0659734457731247,-0.13561208546161652,0.19364428520202637
1788678612053973000,17.645972900390625,-0.12828169763088226,-0.07696902006864548,0.09346238523721695
1788678612070155500,17.662155517578125,-0.18997909128665924,-0.022602014243602753,-0.03420845419168472
1788678612086269200,17.678269287109377,-0.22479841113090515,0.014049900695681572,-0.11484266817569733
1788678612102291200,17.694291259765624,-0.2223549485206604,0.005497787147760391,-0.14355333149433136
1788678612118444800,17.71044482421875,-0.18020524084568024,-0.0006108652451075613,-0.09346238523721695
1788678612134582800,17.726582763671875,-0.1313360333442688,0.02626720629632473,0.018936822190880775
1788678612150798600,17.742798583984374,-0.09773843735456467,-0.014049900695681572,0.11362093687057495
1788678612166913300,17.758913330078126,-0.05619960278272629,-0.07269296050071716,0.12034045159816742
1788678612182937600,17.7749375,0.013439035043120384,-0.07208210229873657,0.07208210229873657
1788678612199098400,17.791098388671877,0.09773843735456467,-0.05314527451992035,0.015271631069481373
1788678612215242000,17.807241943359376,0.13866640627384186,-0.07452555745840073,-0.03726277872920036
1788678612231459000,17.823458984375,0.12889257073402405,-0.13927727937698364,-0.10262536257505417
1788678612247575800,17.839575927734376,0.07269296050071716,-0.13255776464939117,-0.15027284622192383
1788678612263601700,17.8556015625,0.004886921960860491,-0.0507018156349659,-0.17776179313659668
1788678612279773700,17.871773681640626,-0.01771509274840355,0.04092797264456749,-0.20952677726745605
1788678612295928300,17.88792822265625,-0.0024434609804302454,0.07880161702632904,-0.20463985204696655
1788678612312145000,17.904144775390623,0.04398229718208313,0.1062905490398407,-0.11423180252313614
1788678612328258000,17.920258056640623,0.12217304855585098,0.05314527451992035,0.02382374368607998
1788678612344279000,17.936279052734374,0.23396138846874237,-0.009773843921720982,0.15943582355976105
1788678612360462600,17.952462646484374,0.31459560990333557,-0.10262536257505417,0.2431243658065796
1788678612376619500,17.96861962890625,0.33536502718925476,-0.19547687470912933,0.2431243658065796
1788678612392835800,17.9848359375,0.32131510972976685,-0.16371189057826996,0.2021963894367218
1788678612408950000,18.000949951171876,0.2785545587539673,-0.09407325088977814,0.1667662113904953
1788678612424976000,18.016975830078124,0.24678955972194672,0.01771509274840355,0.14294247329235077
1788678612441121300,18.033121337890623,0.21624629199504852,0.10445795953273773,0.1258382350206375
1788678612457248500,18.04924853515625,0.1869247704744339,0.07391469180583954,0.04581489413976669
1788678612473461000,18.0654609375,0.1771509200334549,-0.056810468435287476,-0.08735372871160507
1788678612489574400,18.081574462890625,0.18875735998153687,-0.2021963894367218,-0.19853121042251587
1788678612505595400,18.097595458984376,0.20036379992961884,-0.2577851414680481,-0.24129177629947662
1788678612521742000,18.1137421875,0.18814650177955627,-0.17348572611808777,-0.18020524084568024
1788678612537873700,18.129873779296876,0.15760323405265808,0.01710422709584236,0.003054326167330146
1788678612554084600,18.146084716796874,0.15027284622192383,0.0757472887635231,0.11239920556545258
1788678612570198000,18.162197998046874,0.1875356286764145,-0.036651913076639175,0.012217304669320583
1788678612586213000,18.178213134765624,0.20891591906547546,-0.18448130786418915,-0.13927727937698364
1788678612602359800,18.19435986328125,0.2015855312347412,-0.1820378452539444,-0.18997909128665924
1788678612618500900,18.2105009765625,0.2021963894367218,-0.11911872029304504,-0.14416420459747314
1788678612634715100,18.226715087890625,0.22479841113090515,-0.06352998316287994,-0.07208210229873657
1788678612650828800,18.242828857421873,0.242513507604599,-0.0708603709936142,-0.05375614017248154
1788678612666850800,18.258850830078124,0.21563543379306793,-0.11850785464048386,-0.06841690838336945
1788678612683020500,18.2750205078125,0.16737708449363708,-0.08185594528913498,-0.06658431142568588
1788678612699165000,18.2911650390625,0.1258382350206375,0.0555887371301651,-0.019547687843441963
1788678612715381000,18.307381103515624,0.09712757170200348,0.1264491081237793,0.048258353024721146
1788678612731493400,18.323493408203124,0.09651670604944229,0.11056660860776901,0.09773843735456467
1788678612747516400,18.339516357421875,0.09834930300712585,0.09896016865968704,0.10751228034496307
1788678612763712500,18.35571240234375,0.0806342139840126,0.16004669666290283,0.10751228034496307
1788678612779859700,18.371859619140626,0.06108652427792549,0.16920967400074005,0.12034045159816742
1788678612796075300,18.3880751953125,0.03787364438176155,0.07635815441608429,0.152105450630188
1788678612812193800,18.40419384765625,-0.01466076634824276,0.06414084881544113,0.14355333149433136
1788678612828219600,18.4202197265625,0.06780604273080826,0.0006108652451075613,0.08429940044879913
1788678612844410000,18.43641015625,0.11239920556545258,-0.10506882518529892,0.0507018156349659
1788678612860536000,18.4525361328125,0.1215621829032898,-0.19058994948863983,0.030543262138962746
1788678612876749800,18.468749755859374,0.09040805697441101,-0.1918116807937622,0
1788678612892863700,18.48486376953125,0.016493361443281174,-0.13316862285137177,-0.021991148591041565
1788678612908887800,18.5008876953125,-0.07513642311096191,-0.06719517707824707,-0.04764748737215996
1788678612925033500,18.517033447265625,-0.13377949595451355,-0.05864306539297104,-0.06291911751031876
1788678612941152500,18.533152587890626,-0.10445795953273773,-0.1618792861700058,-0.05619960278272629
1788678612957365500,18.549365478515625,-0.06780604273080826,-0.3084869384765625,-0.060475658625364304
1788678612973472000,18.565471923828124,-0.03481931984424591,-0.4141666293144226,-0.09346238523721695
1788678612989493500,18.581493408203126,-0.06475171446800232,-0.42149701714515686,-0.14538592100143433
1788678613005644000,18.59764404296875,-0.09773843735456467,-0.3139847218990326,-0.20097467303276062
1788678613021807000,18.61380712890625,-0.12400564551353455,-0.1258382350206375,-0.1569923609495163
1788678613038022700,18.630022705078126,-0.14966198801994324,-0.09285151958465576,-0.07757988572120667
1788678613054135600,18.646135498046874,-0.1264491081237793,-0.23640485107898712,-0.09529497474431992
1788678613070160100,18.66216015625,-0.11850785464048386,-0.4190535545349121,-0.1569923609495163
1788678613086324200,18.67832421875,-0.1514945775270462,-0.5497786998748779,-0.26572638750076294
1788678613102466300,18.69446630859375,-0.22357667982578278,-0.3830125033855438,-0.3634648323059082
1788678613118680800,18.710680908203123,-0.30970868468284607,0.04337143152952194,-0.2834414839744568
1788678613134789000,18.7267890625,-0.3646865487098694,0.3078760802745819,-0.04642575979232788
1788678613150811400,18.742811279296873,-0.294437050819397,0.18631389737129211,0.15577064454555511
1788678613166969900,18.758969970703124,-0.13377949595451355,-0.02321287989616394,0.27061331272125244
1788678613183109600,18.775109619140625,-0.04886921867728233,-0.16432274878025055,0.32620203495025635
1788678613199326500,18.791326416015625,-0.03726277872920036,-0.2174680233001709,0.3139847218990326
1788678613215451600,18.80745166015625,-0.11301007121801376,-0.19792033731937408,0.192422553896904
1788678613231479600,18.8234794921875,-0.22357667982578278,-0.10445795953273773,0.012217304669320583
1788678613247652000,18.839652099609374,-0.2938261926174164,-0.0507018156349659,-0.1264491081237793
1788678613263805200,18.85580517578125,-0.2889392673969269,0,-0.16249015927314758
1788678613280022500,18.8720224609375,-0.2278527319431305,0.009773843921720982,-0.07941248267889023
1788678613296138800,18.888138671875,-0.17348572611808777,-0.03420845419168472,0.03787364438176155
1788678613312160500,18.904160400390627,-0.15271630883216858,-0.09162978827953339,0.1459967941045761
1788678613328340700,18.9203408203125,-0.16798794269561768,-0.14966198801994324,0.1618792861700058
1788678613344449800,18.93644970703125,-0.17898350954055786,-0.11239920556545258,0.0757472887635231
1788678613360666000,18.952666015625,-0.1667662113904953,-0.042760565876960754,-0.04337143152952194
1788678613376783600,18.96878369140625,-0.12828169763088226,-0.030543262138962746,-0.11911872029304504
1788678613392811000,18.98481103515625,-0.07696902006864548,-0.039706241339445114,-0.1215621829032898
1788678613408953900,19.000953857421877,-0.02687807008624077,-0.07024950534105301,-0.05497787147760391
1788678613425077200,19.0170771484375,-0.001832595793530345,-0.03848451003432274,0.028099801391363144
1788678613441291500,19.03329150390625,-0.01160643994808197,0.027488935738801956,0.07513642311096191
1788678613457405400,19.049405517578126,-0.015882495790719986,0.06963863968849182,0.10751228034496307
1788678613473429000,19.065428955078126,0.0006108652451075613,0.09896016865968704,0.09651670604944229
1788678613489579300,19.081579345703126,0.028099801391363144,0.13316862285137177,0.04948008432984352
1788678613505713200,19.097713134765623,0.0708603709936142,0.16004669666290283,0.022602014243602753
1788678613521926700,19.1139267578125,0.06963863968849182,0.15821409225463867,0.05314527451992035
1788678613538037500,19.13003759765625,0.07452555745840073,0.10323622822761536,0.11911872029304504
1788678613554060800,19.146060791015625,0.1160643994808197,0.036651913076639175,0.1869247704744339
1788678613570184000,19.162183837890623,0.13500121235847473,0.1667662113904953,0.2822197377681732
1788678613586326800,19.178326904296874,0.13439035415649414,0.4050036668777466,0.3988949954509735
1788678613602535400,19.194535400390624,0.11239920556545258,0.5406157374382019,0.47219884395599365
1788678613618651000,19.21065087890625,0.08185594528913498,0.5326744914054871,0.413555771112442
1788678613634707000,19.22670703125,0.09285151958465576,0.2535090744495392,0.16371189057826996
1788678613650859000,19.24285888671875,0.2626720666885376,-0.2767219543457031,-0.2718350291252136
1788678613667040300,19.259040283203124,0.24068090319633484,-0.10995574295520782,-0.4746423065662384
1788678613683254800,19.2752548828125,0.02932153269648552,0.05314527451992035,-0.3481931984424591
1788678613699364600,19.291364501953126,-0.12767083942890167,0.04153883829712868,-0.19975294172763824
1788678613715418000,19.307418212890624,-0.054367005825042725,-0.012828170321881771,-0.18997909128665924
1788678613731586000,19.3235859375,0.1368338167667389,-0.02076941914856434,-0.26145032048225403
1788678613747733500,19.3397333984375,0.3219259977340698,-0.016493361443281174,-0.2974913716316223
1788678613763946800,19.35594677734375,0.3982841372489929,-0.06169738993048668,-0.17287486791610718
1788678613780060200,19.37206005859375,0.41722095012664795,-0.13988813757896423,-0.03237585723400116
1788678613796084200,19.388084228515623,0.4080579876899719,-0.16493362188339233,0.014049900695681572
1788678613812269300,19.404269287109376,0.3793473243713379,-0.16920967400074005,-0.05253441259264946
1788678613828384500,19.420384521484376,0.3286454975605011,-0.1258382350206375,-0.11850785464048386
1788678613844597200,19.43659716796875,0.2742784917354584,-0.07024950534105301,-0.11789698898792267
1788678613860712000,19.4527119140625,0.23518311977386475,0.01160643994808197,-0.014049900695681572
1788678613876736500,19.468736572265627,0.24556782841682434,0.05375614017248154,0.16310101747512817
1788678613892883000,19.484883056640626,0.2919935882091522,0.03420845419168472,0.2987131178379059
1788678613909003500,19.50100341796875,0.35124751925468445,-0.02626720629632473,0.33536502718925476
1788678613925218600,19.517218505859375,0.37201693654060364,-0.07819075137376785,0.27977627515792847
1788678613941330400,19.533330322265623,0.3396410644054413,-0.13439035415649414,0.23457226157188416
1788678613957355500,19.54935546875,0.29138273000717163,-0.192422553896904,0.22540926933288574
1788678613973508900,19.5655087890625,0.25045475363731384,-0.19303341209888458,0.20036379992961884
1788678613989643800,19.581643798828125,0.21868975460529327,-0.14355333149433136,0.17287486791610718
1788678614005859000,19.597859130859376,0.192422553896904,-0.13988813757896423,0.12278391420841217
1788678614021975600,19.6139755859375,0.1612684279680252,-0.1722639948129654,0.056810468435287476
1788678614038000600,19.630000732421873,0.1111774742603302,-0.13561208546161652,0.012828170321881771
1788678614054165200,19.646165283203125,0.06902777403593063,-0.07269296050071716,0.018325956538319588
1788678614070310000,19.662309814453124,0.039706241339445114,-0.06169738993048668,0.02626720629632473
1788678614086527200,19.67852734375,0.03420845419168472,-0.08796459436416626,0.007941247895359993
1788678614102643000,19.694642822265624,0.02687807008624077,-0.13316862285137177,0.00855211354792118
1788678614118665200,19.710665283203124,0.01771509274840355,-0.16065755486488342,0.012217304669320583
1788678614134830300,19.726830322265624,0.01771509274840355,-0.17959438264369965,0
1788678614150977300,19.742977294921875,0.024434609338641167,-0.22663100063800812,-0.05009094998240471
