time,seconds_elapsed,z,y,x
1788678594583073500,0.175073486328125,-82.54900360107422,5.4830002784729,-16.145000457763672
1788678594599114500,0.191114501953125,-91.94700622558594,10.253000259399414,-37.07500076293945
1788678594615273500,0.2072734375,-91.56600189208984,10.656000137329102,-38.906002044677734
1788678594631410000,0.223409912109375,-91.54000091552734,10.564000129699707,-37.78600311279297
1788678594647618000,0.2396181640625,-91.20600128173828,9.92300033569336,-37.5890007019043
1788678594663743700,0.25574365234375,-90.26100158691406,10.56100082397461,-37.8900032043457
1788678594679769600,0.27176953125,-91.71300506591797,9.616000175476074,-36.57200241088867
1788678594695945000,0.287945068359375,-90.2550048828125,10.996000289916992,-37.37700271606445
1788678594712104400,0.3041044921875,-90.69000244140625,9.26300048828125,-38.81800079345703
1788678594728320800,0.32032080078125,-90.26500701904297,10.558000564575195,-38.09400177001953
1788678594744434400,0.336434326171875,-88.99300384521484,10.226000785827637,-38.70900344848633
1788678594760491000,0.352490966796875,-89.39400482177734,9.486000061035156,-38.00200271606445
1788678594776681500,0.368681396484375,-90.91600799560547,11.309000968933105,-38.086002349853516
1788678594792800000,0.384800048828125,-90.06000518798828,10.01200008392334,-38.8120002746582
1788678594809015600,0.401015625,-89.62600708007812,10.988000869750977,-37.887001037597656
1788678594825129500,0.41712939453125,-91.73200225830078,11.010000228881836,-36.560001373291016
1788678594841158100,0.433158203125,-90.34900665283203,10.572000503540039,-37.07500076293945
1788678594857310500,0.449310546875,-90.46900177001953,12.1850004196167,-36.65299987792969
1788678594873452500,0.46545263671875,-89.07200622558594,11.000000953674316,-36.97100067138672
1788678594889671400,0.48167138671875,-90.89400482177734,10.026000022888184,-37.89400100708008
1788678594905784300,0.497784423828125,-91.10400390625,10.460000038146973,-37.48200225830078
1788678594921811500,0.5138115234375,-89.85600280761719,10.331000328063965,-39.01300048828125
1788678594937971700,0.5299716796875,-88.76300048828125,10.020000457763672,-38.10000228881836
1788678594954113000,0.546113037109375,-88.9800033569336,9.910000801086426,-38.30500030517578
1788678594970332700,0.562332763671875,-89.18800354003906,10.346000671386719,-37.79100036621094
1788678594986450200,0.5784501953125,-90.14600372314453,10.458000183105469,-37.58500289916992
1788678595002473500,0.594473388671875,-89.60200500488281,9.922000885009766,-37.4890022277832
1788678595018643700,0.610643798828125,-90.02900695800781,9.92300033569336,-37.48800277709961
1788678595034790000,0.626789794921875,-91.31800079345703,9.812000274658203,-37.89500045776367
1788678595051003100,0.643003173828125,-88.74800109863281,9.272000312805176,-37.90300369262695
1788678595067114000,0.659114013671875,-89.82600402832031,10.348000526428223,-37.689002990722656
1788678595083138800,0.675138916015625,-90.0050048828125,9.289000511169434,-36.781002044677734
1788678595099314400,0.691314453125,-90.10200500488281,9.079000473022461,-36.47700119018555
1788678595115468500,0.707468505859375,-88.33500671386719,10.452000617980957,-37.79100036621094
1788678595131686000,0.723685791015625,-90.34700775146484,9.925000190734863,-37.38600158691406
1788678595147798000,0.739798095703125,-87.90400695800781,9.157000541687012,-38.415000915527344
1788678595163823600,0.75582373046875,-88.93000793457031,8.643000602722168,-36.8900032043457
1788678595180007000,0.7720068359375,-90.25000762939453,8.946000099182129,-38.413002014160156
1788678595196119600,0.78811962890625,-89.4800033569336,9.607000350952148,-36.98200225830078
1788678595212335000,0.804335205078125,-88.74300384521484,9.384000778198242,-37.59700012207031
1788678595228451000,0.820451171875,-88.75100708007812,8.513999938964844,-38.52100372314453
1788678595244481500,0.8364814453125,-89.1830062866211,8.51200008392334,-38.724002838134766
1788678595260675000,0.852675048828125,-88.9330062866211,9.182000160217285,-36.68100357055664
1788678595276787500,0.868787353515625,-90.18400573730469,8.337000846862793,-35.87200164794922
1788678595293014000,0.885013916015625,-89.2770004272461,10.033000946044922,-37.18300247192383
1788678595309137200,0.90113720703125,-88.98100280761719,8.072000503540039,-39.54300308227539
1788678595325165600,0.91716552734375,-88.72300720214844,8.963000297546387,-36.9890022277832
1788678595341321500,0.933321533203125,-90.10900115966797,9.291000366210938,-36.67900085449219
1788678595357457000,0.949456787109375,-88.927001953125,9.402000427246094,-36.272003173828125
1788678595373677000,0.965677001953125,-88.64100646972656,9.596000671386719,-37.69700241088867
1788678595389789400,0.98178955078125,-90.46400451660156,10.135000228881836,-37.69000244140625
1788678595405818600,0.997818603515625,-91.4010009765625,9.070000648498535,-37.290000915527344
1788678595421983500,1.0139833984375,-87.56100463867188,9.386000633239746,-37.2920036315918
1788678595438127600,1.030127685546875,-89.1810073852539,9.702000617980957,-37.89900207519531
1788678595454347300,1.04634716796875,-89.75700378417969,7.688000202178955,-36.28600311279297
1788678595470464800,1.06246484375,-88.94700622558594,9.065000534057617,-37.39500045776367
1788678595486494700,1.07849462890625,-89.7760009765625,9.190000534057617,-36.17100143432617
1788678595502665000,1.0946650390625,-89.927001953125,10.244000434875488,-37.486000061035156
1788678595518816500,1.11081640625,-90.0320053100586,9.921000480651855,-37.59000015258789
1788678595535034400,1.127034423828125,-89.2770004272461,9.276000022888184,-37.69900131225586
1788678595551149000,1.143149169921875,-89.98900604248047,8.65000057220459,-36.48100280761719
1788678595567175700,1.15917578125,-89.77200317382812,8.544000625610352,-36.380001068115234
1788678595583356000,1.17535595703125,-89.2760009765625,10.357000350952148,-36.97600173950195
1788678595599515000,1.191514892578125,-90.34800720214844,9.492000579833984,-37.695003509521484
1788678595615732700,1.207732666015625,-89.38700103759766,10.78700065612793,-36.87000274658203
1788678595631846700,1.2238466796875,-90.43900299072266,8.962000846862793,-37.29300308227539
1788678595647874600,1.23987451171875,-90.0260009765625,9.0600004196167,-37.90300369262695
1788678595664056300,1.256056396484375,-89.59600067138672,9.169000625610352,-37.69900131225586
1788678595680171300,1.272171142578125,-90.87300109863281,8.850000381469727,-37.70000076293945
1788678595696388900,1.288388916015625,-90.04200744628906,9.375,-38.410003662109375
1788678595712505900,1.304505859375,-89.5790023803711,8.098999977111816,-37.60700225830078
1788678595728534800,1.32053466796875,-88.27800750732422,7.785000324249268,-36.89800262451172
1788678595744729000,1.33672900390625,-88.6310043334961,8.197999954223633,-38.117000579833984
1788678595760850400,1.352850341796875,-87.65300750732422,8.098999977111816,-37.406002044677734
1788678595777066800,1.369066650390625,-90.02800750732422,8.519000053405762,-38.316001892089844
1788678595793180000,1.385179931640625,-90.22700500488281,9.284000396728516,-37.18800354003906
1788678595809206300,1.401206298828125,-89.58600616455078,8.419000625610352,-37.70600128173828
1788678595825359400,1.417359375,-90.00900268554688,8.63800048828125,-37.39800262451172
1788678595841501000,1.4335009765625,-90.03500366210938,9.812000274658203,-37.79500198364258
1788678595857720600,1.449720458984375,-89.72200775146484,10.023000717163086,-37.99700164794922
1788678595873838300,1.46583837890625,-89.34300231933594,8.112000465393066,-36.5880012512207
1788678595889852400,1.481852294921875,-89.781005859375,9.72700023651123,-36.064002990722656
1788678595906011600,1.49801171875,-88.2760009765625,9.29900074005127,-35.86600112915039
1788678595922157600,1.514157470703125,-91.28300476074219,8.104000091552734,-37.4010009765625
1788678595938343000,1.530343017578125,-88.50800323486328,9.82800006866455,-36.371002197265625
1788678595954455300,1.546455322265625,-89.26900482177734,8.633000373840332,-37.704002380371094
1788678595970482400,1.562482421875,-89.66400146484375,8.653000831604004,-36.27799987792969
1788678595986653400,1.5786533203125,-88.75100708007812,9.81100082397461,-37.695003509521484
1788678596002802000,1.594802001953125,-89.5570068359375,7.680000305175781,-36.89800262451172
1788678596019018500,1.6110185546875,-89.37700653076172,9.929000854492188,-36.980003356933594
1788678596035133400,1.627133544921875,-91.50900268554688,10.151000022888184,-36.669002532958984
1788678596051159800,1.643159912109375,-90.41500091552734,9.407999992370605,-35.9640007019043
1788678596067330600,1.65933056640625,-92.03500366210938,9.940000534057617,-36.467002868652344
1788678596083486200,1.675486328125,-91.49200439453125,8.107000350952148,-37.19700241088867
1788678596099703000,1.691703125,-89.6810073852539,9.39900016784668,-36.577003479003906
1788678596115815700,1.707815673828125,-89.12600708007812,8.979000091552734,-35.86800003051758
1788678596131844900,1.723844970703125,-89.76700592041016,8.223000526428223,-36.38300323486328
1788678596148027600,1.740027587890625,-88.92900085449219,9.076000213623047,-36.58000183105469
1788678596164139300,1.75613916015625,-91.95000457763672,9.494000434875488,-37.69300079345703
1788678596180352500,1.7723525390625,-92.3290023803711,8.984000205993652,-35.8640022277832
1788678596196465700,1.788465576171875,-92.44800567626953,9.8410005569458,-35.85600280761719
1788678596212491300,1.8044912109375,-92.12800598144531,9.732000350952148,-35.95900344848633
1788678596228678100,1.82067822265625,-90.97500610351562,10.79800033569336,-36.25699996948242
1788678596244788500,1.83678857421875,-90.84600067138672,9.515000343322754,-36.06500244140625
1788678596261014800,1.853014892578125,-92.88800811767578,9.834000587463379,-36.467002868652344
1788678596277132300,1.86913232421875,-89.98600769042969,9.085000038146973,-36.070003509521484
1788678596293162200,1.885162353515625,-90.5050048828125,9.202000617980957,-35.355003356933594
1788678596309315800,1.90131591796875,-93.43000793457031,9.938000679016113,-36.770999908447266
1788678596325449700,1.91744970703125,-91.7040023803711,9.622000694274902,-36.165000915527344
1788678596341665300,1.933665283203125,-92.38600158691406,10.13800048828125,-37.6870002746582
1788678596357777700,1.949777587890625,-91.06600189208984,8.862000465393066,-36.78300094604492
1788678596373805600,1.9658056640625,-93.41100311279297,9.193000793457031,-36.37000274658203
1788678596389968100,1.981968017578125,-90.41900634765625,9.51400089263916,-36.06500244140625
1788678596406116000,1.9981162109375,-92.04300689697266,9.503000259399414,-37.082000732421875
1788678596422334500,2.01433447265625,-92.55900573730469,10.163000106811523,-35.85300064086914
1788678596438447000,2.030447021484375,-90.20700073242188,10.16100025177002,-35.75400161743164
1788678596454472200,2.04647216796875,-90.84300231933594,8.976000785827637,-36.27300262451172
1788678596470635300,2.06263525390625,-92.35700225830078,9.832000732421875,-36.569000244140625
1788678596486776600,2.078776611328125,-93.406005859375,8.980000495910645,-36.27000045776367
1788678596502992400,2.094992431640625,-91.9320068359375,10.045000076293945,-36.56800079345703
1788678596519107000,2.111107177734375,-91.28400421142578,9.508000373840332,-36.57400131225586
1788678596535135000,2.127135009765625,-90.65200805664062,9.9350004196167,-36.672000885009766
1788678596551316700,2.143316650390625,-90.2040023803711,9.622000694274902,-35.9630012512207
1788678596567428000,2.159427978515625,-91.302001953125,9.498000144958496,-37.388999938964844
1788678596583647000,2.17564697265625,-88.4800033569336,9.305000305175781,-35.45800018310547
1788678596599757800,2.1917578125,-89.7800064086914,8.647000312805176,-36.685001373291016
1788678596615782400,2.207782470703125,-90.96800231933594,10.154000282287598,-36.3650016784668
1788678596631966200,2.22396630859375,-90.42100524902344,8.86400032043457,-36.58000183105469
1788678596648083500,2.24008349609375,-92.78800201416016,9.830000877380371,-36.77300262451172
1788678596664301000,2.256301025390625,-91.05400085449219,8.97800064086914,-36.17100143432617
1788678596680413200,2.2724130859375,-90.84700775146484,10.595000267028809,-35.444000244140625
1788678596696442400,2.2884423828125,-92.76800537109375,8.869000434875488,-36.47500228881836
1788678596712638000,2.304637939453125,-90.21500396728516,7.778000354766846,-37.60900115966797
1788678596728766000,2.320765869140625,-92.26000213623047,10.258000373840332,-36.76900100708008
1788678596744982300,2.336982177734375,-92.45000457763672,10.164000511169434,-35.75100326538086
1788678596761094700,2.3530947265625,-92.33100128173828,8.983000755310059,-35.96600341796875
1788678596777150500,2.369150390625,-93.62200164794922,8.871000289916992,-36.474002838134766
1788678596793334000,2.385333984375,-91.59100341796875,8.220000267028809,-36.788002014160156
1788678596809481200,2.401481201171875,-92.08800506591797,9,-34.64200210571289
1788678596825695000,2.417695068359375,-90.29600524902344,9.199000358581543,-35.55900192260742
1788678596841808100,2.43380810546875,-92.67200469970703,9.943000793457031,-36.262001037597656
1788678596857836800,2.4498369140625,-91.25900268554688,8.984000205993652,-35.76300048828125
1788678596874002000,2.466001953125,-91.24200439453125,9.10200023651123,-34.94700241088867
1788678596890135000,2.482135009765625,-91.36100769042969,8.338000297546387,-35.97300338745117
1788678596906351000,2.49835107421875,-92.1030044555664,9.747000694274902,-34.8390007019043
1788678596922465800,2.5144658203125,-91.58700561523438,8.223000526428223,-36.58500289916992
1788678596938490600,2.53049072265625,-90.72600555419922,9.523000717163086,-35.454002380371094
1788678596954659800,2.546659912109375,-90.00300598144531,9.506000518798828,-36.57500076293945
1788678596970813400,2.5628134765625,-91.4590072631836,9.315999984741211,-34.945003509521484
1788678596987031300,2.57903125,-91.81900787353516,9.401000022888184,-36.676002502441406
1788678597003145700,2.595145751953125,-93.94400787353516,9.951000213623047,-35.85300064086914
1788678597019174000,2.611173828125,-92.45600128173828,8.647000312805176,-36.987003326416016
1788678597035351000,2.62735107421875,-91.5050048828125,10.153000831604004,-36.46600341796875
1788678597051466200,2.64346630859375,-91.3530044555664,9.532000541687012,-34.842002868652344
1788678597067684000,2.65968408203125,-93.20100402832031,8.65000057220459,-36.884002685546875
1788678597083799800,2.6757998046875,-90.89400482177734,10.026000022888184,-37.89400100708008
1788678597099828200,2.691828125,-92.67100524902344,9.404000282287598,-36.573001861572266
1788678597116020200,2.708020263671875,-91.09300231933594,10.143000602722168,-37.17900085449219
1788678597132132400,2.72413232421875,-91.61800384521484,9.825000762939453,-36.97800064086914
1788678597148351700,2.740351806640625,-89.99300384521484,8.432000160217285,-36.788002014160156
1788678597164465400,2.75646533203125,-90.43400573730469,10.586000442504883,-36.05600357055664
1788678597180495600,2.77249560546875,-92.16000366210938,9.713000297546387,-37.38600158691406
1788678597196683500,2.78868359375,-91.93800354003906,10.15000057220459,-36.770999908447266
1788678597212793900,2.8047939453125,-93.42400360107422,10.158000946044922,-36.361000061035156
1788678597229006000,2.821006103515625,-93.65400695800781,10.688000679016113,-36.763999938964844
1788678597245116400,2.837116455078125,-91.38400268554688,9.621000289916992,-36.165000915527344
1788678597261141000,2.85314111328125,-91.93700408935547,9.394000053405762,-37.185001373291016
1788678597277294000,2.869294189453125,-92.34600067138672,10.054000854492188,-35.95600128173828
1788678597293427200,2.88542724609375,-89.77000427246094,8.761000633239746,-36.17500305175781
1788678597309640700,2.901640625,-91.30400085449219,10.253000259399414,-36.974002838134766
1788678597325746700,2.91774658203125,-90.63900756835938,7.997000217437744,-37.301002502441406
1788678597341770500,2.9337705078125,-90.06200408935547,10.659000396728516,-38.5
1788678597357922600,2.949922607421875,-89.92500305175781,9.273000717163086,-38.00400161743164
1788678597374065200,2.966065185546875,-90.99100494384766,9.816000938415527,-37.59000015258789
1788678597390283500,2.982283447265625,-90.89100646972656,8.839000701904297,-38.5150032043457
1788678597406397200,2.998397216796875,-89.69900512695312,10.361000061035156,-36.772003173828125
1788678597422425300,3.01442529296875,-89.59000396728516,9.17300033569336,-37.39400100708008
1788678597438591000,3.030591064453125,-90.02300262451172,8.846000671386719,-37.90500259399414
1788678597454740000,3.046739990234375,-90.89100646972656,10.136000633239746,-37.689002990722656
1788678597470955500,3.06295556640625,-91.38300323486328,10.270000457763672,-35.75200271606445
1788678597487067000,3.07906689453125,-90.44700622558594,9.280000686645508,-37.49300003051758
1788678597503093200,3.09509326171875,-91.29600524902344,9.50200080871582,-37.08300018310547
1788678597519276800,3.11127685546875,-91.5050048828125,10.153000831604004,-36.46600341796875
1788678597535390200,3.12739013671875,-90.44300079345703,9.932000160217285,-36.87600326538086
1788678597551607800,3.14360791015625,-91.71700286865234,8.749000549316406,-37.29300308227539
1788678597567721200,3.15972119140625,-92.58000183105469,10.042000770568848,-36.87300109863281
1788678597583746600,3.17574658203125,-91.00200653076172,9.918000221252441,-37.996002197265625
1788678597599932200,3.19193212890625,-91.41600799560547,10.791000366210938,-36.86800003051758
1788678597616051700,3.2080517578125,-90.74000549316406,10.054000854492188,-35.75400161743164
1788678597632268300,3.224268310546875,-91.1760025024414,10.050000190734863,-36.16100311279297
1788678597648383000,3.240383056640625,-91.08600616455078,9.607000350952148,-37.18400192260742
1788678597664409000,3.2564091796875,-91.50900268554688,9.826000213623047,-36.87600326538086
1788678597680560600,3.272560546875,-92.35900115966797,10.479000091552734,-36.25800323486328
1788678597696685000,3.28868505859375,-91.31500244140625,10.571000099182129,-37.277000427246094
1788678597712899000,3.304899169921875,-90.87100219726562,10.148000717163086,-36.772003173828125
1788678597729014000,3.321013916015625,-91.95600128173828,10.572000503540039,-37.2760009765625
1788678597745040600,3.33704052734375,-92.60000610351562,8.8410005569458,-38.51300048828125
1788678597761193200,3.353193115234375,-90.67100524902344,10.140000343322754,-37.384002685546875
1788678597777339600,3.369339599609375,-91.31200408935547,9.384000778198242,-37.89900207519531
1788678597793556700,3.385556640625,-93.43900299072266,10.041000366210938,-37.07500076293945
1788678597809672200,3.401672119140625,-91.18400573730469,9.82800006866455,-36.67300033569336
1788678597825701600,3.41770166015625,-90.54600524902344,9.178000450134277,-37.189002990722656
1788678597841867500,3.433867431640625,-89.1760025024414,9.48900032043457,-37.79900360107422
1788678597858008800,3.4500087890625,-91.96900177001953,9.051000595092773,-38.81800079345703
1788678597874226400,3.466226318359375,-90.7560043334961,9.93600082397461,-36.570003509521484
1788678597890340900,3.4823408203125,-90.43900299072266,9.50200080871582,-36.98200225830078
1788678597906367700,3.49836767578125,-90.4330062866211,9.072999954223633,-36.986000061035156
1788678597922540500,3.51454052734375,-90.8530044555664,9.726000785827637,-36.26700210571289
1788678597938695400,3.5306953125,-92.05400085449219,11.117000579833984,-36.55800247192383
1788678597954914000,3.5469140625,-91.28800201416016,10.587000846862793,-36.05500030517578
1788678597971029800,3.56302978515625,-91.61400604248047,9.395000457763672,-37.08300018310547
1788678597987056600,3.579056640625,-91.71900177001953,9.721000671386719,-36.775001525878906
1788678598003235800,3.59523583984375,-90.45500183105469,11.005000114440918,-36.7650032043457
1788678598019394800,3.611394775390625,-91.41500091552734,10.89900016784668,-36.7650032043457
1788678598035611600,3.627611572265625,-89.77800750732422,8.64900016784668,-36.58300018310547
1788678598051727000,3.64372705078125,-91.09900665283203,10.032000541687012,-37.486000061035156
1788678598067753200,3.659753173828125,-92.37700653076172,9.819000244140625,-37.486000061035156
1788678598083934700,3.675934814453125,-93.34400177001953,11.11400032043457,-36.9640007019043
1788678598100044500,3.69204443359375,-92.12200164794922,9.304000854492188,-35.9630012512207
1788678598116264700,3.7082646484375,-93.41700744628906,10.16200065612793,-36.05600357055664
1788678598132385000,3.724385009765625,-91.29600524902344,9.50200080871582,-37.08300018310547
1788678598148413200,3.7404130859375,-88.4020004272461,8.207000732421875,-37.40400314331055
1788678598164606500,3.7566064453125,-91.28500366210938,8.75100040435791,-37.09000015258789
1788678598180731600,3.772731689453125,-90.4260025024414,9.510000228881836,-36.371002197265625
1788678598196944100,3.788944091796875,-90.4000015258789,9.309000015258789,-35.354000091552734
1788678598213056500,3.805056396484375,-90.64300537109375,9.616000175476074,-36.47200012207031
1788678598229082600,3.82108251953125,-89.5530014038086,9.304000854492188,-35.66100311279297
1788678598245239000,3.837239013671875,-90.62700653076172,8.97700023651123,-36.172000885009766
1788678598261378600,3.853378662109375,-91.29900360107422,9.607000350952148,-37.18400192260742
1788678598277594400,3.869594482421875,-91.1760025024414,9.401000022888184,-36.57500076293945
1788678598293703200,3.885703125,-90.75900268554688,10.475000381469727,-36.362003326416016
1788678598309726200,3.901726318359375,-90.22100067138672,9.504000663757324,-36.77900314331055
1788678598325879000,3.917879150390625,-89.54900360107422,10.386000633239746,-34.836002349853516
1788678598342022700,3.934022705078125,-90.19200134277344,8.225000381469727,-36.281002044677734
1788678598358238700,3.95023876953125,-91.0510025024414,9.088000297546387,-35.96600341796875
1788678598374351600,3.9663515625,-89.32000732421875,8.450000762939453,-35.36300277709961
1788678598390376700,3.982376708984375,-91.57400512695312,9.744000434875488,-35.04300308227539
1788678598406543000,3.998543212890625,-90.40900421142578,9.628000259399414,-35.55500030517578
1788678598422692400,4.0146923828125,-89.5570068359375,8.11299991607666,-36.5880012512207
1788678598438906000,4.030906005859375,-92.31500244140625,7.804000377655029,-35.97600173950195
1788678598455019000,4.04701904296875,-87.83200073242188,7.904000282287598,-35.98100280761719
1788678598471048000,4.0630478515625,-88.1820068359375,9.075000762939453,-36.58100128173828
1788678598487229400,4.0792294921875,-89.43600463867188,8.769000053405762,-35.564002990722656
1788678598503387000,4.095386962890625,-91.0530014038086,8.871000289916992,-36.172000885009766
1788678598519602700,4.111602783203125,-91.07100677490234,9.184000015258789,-36.78000259399414
1788678598535716400,4.12771630859375,-90.17200469970703,7.913000583648682,-35.570003509521484
1788678598551741200,4.1437412109375,-90.5060043334961,8.769000053405762,-35.66400146484375
1788678598567929000,4.15992919921875,-88.92500305175781,8.105999946594238,-36.996002197265625
1788678598584042500,4.17604248046875,-88.16700744628906,8.003000259399414,-36.59100341796875
1788678598600258600,4.192258544921875,-89.11100769042969,8.447000503540039,-35.56700134277344
1788678598616373200,4.208373291015625,-89.76800537109375,7.7900004386901855,-36.69300079345703
1788678598632422000,4.224421875,-88.91800689697266,8.434000015258789,-36.48400115966797
1788678598648566300,4.240566162109375,-90.8530044555664,8.862000465393066,-36.784000396728516
1788678598664690700,4.256690673828125,-90.3280029296875,10.153000831604004,-36.3650016784668
1788678598680905000,4.272905029296875,-89.98500061035156,7.896000385284424,-36.79300308227539
1788678598697020000,4.28902001953125,-89.22200775146484,9.526000022888184,-35.04800033569336
1788678598713045200,4.305045166015625,-88.60000610351562,9.405000686645508,-35.967002868652344
1788678598729199900,4.321199951171875,-87.3340072631836,8.854000091552734,-36.992000579833984
1788678598745333200,4.337333251953125,-90.88800811767578,9.921000480651855,-37.691001892089844
1788678598761550300,4.35355029296875,-89.32200622558594,9.530000686645508,-34.742000579833984
1788678598777665800,4.369665771484375,-88.16200256347656,8.76300048828125,-35.871002197265625
1788678598793693000,4.38569287109375,-87.73400115966797,8.222000122070312,-36.182003021240234
1788678598809858600,4.401858642578125,-89.13900756835938,9.295000076293945,-36.27300262451172
1788678598826005000,4.4180048828125,-89.13400268554688,8.758000373840332,-36.37900161743164
1788678598842221300,4.43422119140625,-89.44700622558594,8.54699993133545,-36.177001953125
1788678598858336000,4.4503359375,-91.45100402832031,8.131999969482422,-35.36300277709961
1788678598874362600,4.466362548828125,-91.66700744628906,8.23900032043457,-35.362003326416016
1788678598890534700,4.48253466796875,-89.1050033569336,8.667000770568848,-35.15800094604492
1788678598906694000,4.49869384765625,-91.91800689697266,8.86500072479248,-36.68000030517578
1788678598922913500,4.51491357421875,-92.43700408935547,8.22700023651123,-36.380001068115234
1788678598939032300,4.5310322265625,-90.5050048828125,9.202000617980957,-35.355003356933594
1788678598955062300,4.547062255859375,-91.68800354003906,8.767000198364258,-35.96800231933594
1788678598971250400,4.56325048828125,-92.35100555419922,10.592000961303711,-35.85000228881836
1788678598987400200,4.579400146484375,-93.22300720214844,10.690000534057617,-36.56100082397461
1788678599003620000,4.5956201171875,-94.04200744628906,9.848000526428223,-35.54800033569336
1788678599019736000,4.611736083984375,-93.81900787353516,10.610000610351562,-34.625
1788678599035766000,4.62776611328125,-95.2040023803711,10.398000717163086,-34.625
1788678599051951900,4.643951904296875,-91.9310073852539,11.12700080871582,-35.845001220703125
1788678599068064000,4.66006396484375,-92.15800476074219,10.255000114440918,-36.97300338745117
1788678599084279800,4.67627978515625,-92.66100311279297,10.166000366210938,-35.64900207519531
1788678599100394200,4.692394287109375,-92.14500427246094,9.830000877380371,-36.67100143432617
1788678599116433400,4.708433349609375,-92.34500122070312,9.839000701904297,-36.060001373291016
1788678599132582700,4.724582763671875,-91.38300323486328,9.081000328063965,-36.47500228881836
1788678599148713700,4.740713623046875,-91.54000091552734,9.267000198364258,-38.61300277709961
1788678599164934000,4.756933837890625,-91.62300109863281,9.714000701904297,-37.284000396728516
1788678599181050400,4.77305029296875,-91.51700592041016,10.902000427246094,-36.56100082397461
1788678599197111000,4.789111083984375,-89.97900390625,9.413000106811523,-35.557003021240234
1788678599213307100,4.80530712890625,-90.95600128173828,9.405000686645508,-36.26900100708008
1788678599229479000,4.82147900390625,-89.79300689697266,9.288000106811523,-36.88300323486328
1788678599245698300,4.8376982421875,-91.30400085449219,10.253000259399414,-36.974002838134766
1788678599261808400,4.853808349609375,-92.6570053100586,9.520000457763672,-35.85900115966797
1788678599277831000,4.869830810546875,-91.46700286865234,9.095000267028809,-35.45600128173828
1788678599293984500,4.885984619140625,-93.14900207519531,9.330000877380371,-34.12800216674805
1788678599310127400,4.90212744140625,-92.66000366210938,9.735000610351562,-35.85700225830078
1788678599326347800,4.91834765625,-92.32100677490234,9.421000480651855,-35.249000549316406
1788678599342463000,4.934462890625,-91.89700317382812,11.256000518798828,-34.2140007019043
1788678599358491100,4.9504912109375,-92.09600067138672,9.427000045776367,-34.7400016784668
1788678599374659600,4.96665966796875,-92.50100708007812,8.793000221252441,-34.134002685546875
1788678599390812700,4.982812744140625,-91.62300109863281,7.7260003089904785,-33.737003326416016
1788678599407029500,4.999029541015625,-91.43800354003906,8.140000343322754,-34.75200271606445
1788678599423156000,5.015156005859375,-87.57300567626953,7.931000232696533,-33.944000244140625
1788678599439178800,5.0311787109375,-90.34400177001953,7.074000358581543,-34.25300216674805
1788678599455352300,5.047352294921875,-90.11700439453125,6.75700044631958,-33.849002838134766
1788678599471463400,5.06346337890625,-89.70600128173828,6.963000297546387,-34.45900344848633
1788678599487681800,5.079681884765625,-88.85400390625,7.6080002784729,-34.14900207519531
1788678599503805200,5.09580517578125,-90.19500732421875,7.315000534057617,-32.2140007019043
1788678599519828000,5.111827880859375,-90.2020034790039,8.5,-31.796001434326172
1788678599536006400,5.12800634765625,-89.57600402832031,7.409000396728516,-33.13100051879883
1788678599552122600,5.14412255859375,-89.91400146484375,8.04699993133545,-33.53200149536133
1788678599568344600,5.160344482421875,-90.73900604248047,6.553000450134277,-33.137001037597656
1788678599584463400,5.17646337890625,-91.21200561523438,8.039999961853027,-34.24400329589844
1788678599600494300,5.192494384765625,-90.86400604248047,7.083000183105469,-33.6410026550293
1788678599616679400,5.208679443359375,-91.07600402832031,7.409000396728516,-33.33300018310547
1788678599632807200,5.22480712890625,-89.91900634765625,8.044000625610352,-33.736000061035156
1788678599649026600,5.241026611328125,-90.85900115966797,7.842000484466553,-32.922000885009766
1788678599665141000,5.25714111328125,-89.24200439453125,8.388999938964844,-31.900001525878906
1788678599681167600,5.273167724609375,-91.26200103759766,5.4800004959106445,-33.349002838134766
1788678599697324500,5.289324462890625,-90.31400299072266,7.52400016784668,-32.62000274658203
1788678599713464000,5.305464111328125,-90.7490005493164,6.764000415802002,-33.441001892089844
1788678599729679400,5.321679443359375,-89.23400115966797,6.6650004386901855,-32.62800216674805
1788678599745792800,5.337792724609375,-89.90400695800781,7.297000408172607,-33.53900146484375
1788678599761823700,5.35382373046875,-89.35200500488281,6.658000469207764,-33.13800048828125
1788678599777982200,5.369982177734375,-88.78500366210938,5.38100004196167,-32.4370002746582
1788678599794128000,5.3861279296875,-89.44900512695312,6.2330002784729,-32.9379997253418
1788678599810347300,5.40234716796875,-89.44400787353516,6.884000301361084,-32.32100296020508
1788678599826459400,5.41845947265625,-89.02200317382812,6.772000312805176,-32.62800216674805
1788678599842484700,5.434484619140625,-89.36800384521484,7.297000408172607,-33.4379997253418
1788678599858649600,5.450649658203125,-86.55000305175781,6.562000274658203,-32.022003173828125
1788678599874802200,5.46680224609375,-88.83800506591797,8.051000595092773,-33.12600326538086
1788678599891017700,5.483017822265625,-87.6240005493164,6.020000457763672,-32.63600158691406
1788678599907130000,5.499130126953125,-88.68400573730469,6.782000541687012,-31.81300163269043
1788678599923156000,5.515156005859375,-89.35800170898438,6.223000526428223,-33.6510009765625
1788678599939339000,5.531339111328125,-88.3740005493164,7.208000183105469,-32.013999938964844
1788678599955496200,5.54749609375,-88.39400482177734,7.520000457763672,-32.724002838134766
1788678599971681500,5.563681640625,-90.83200073242188,7.210000514984131,-32.112003326416016
1788678599987798000,5.579798095703125,-88.83600616455078,7.404000282287598,-33.4370002746582
1788678600003830500,5.59583056640625,-87.99800109863281,8.256999969482422,-33.63500213623047
1788678600020028000,5.61202783203125,-89.57000732421875,6.440000534057617,-33.44499969482422
1788678600036139500,5.628139404296875,-87.77000427246094,6.212000370025635,-34.263999938964844
1788678600052363500,5.644363525390625,-88.61800384521484,7.406000137329102,-33.23400115966797
1788678600068480800,5.660480712890625,-87.56500244140625,7.503000259399414,-33.84600067138672
1788678600084508400,5.67650830078125,-88.82500457763672,6.329000473022461,-33.6510009765625
1788678600100657000,5.692656982421875,-87.32400512695312,6.65500020980835,-33.1400032043457
1788678600116790300,5.708790283203125,-87.76100158691406,7.7300004959106445,-32.927001953125
1788678600133007000,5.725007080078125,-89.44300079345703,6.668000221252441,-32.42399978637695
1788678600149120300,5.741120361328125,-91.68500518798828,5.807000160217285,-32.939002990722656
1788678600165149400,5.7571494140625,-89.58200073242188,6.973000526428223,-33.64400100708008
1788678600181313800,5.773313720703125,-89.69700622558594,7.617000579833984,-33.63800048828125
1788678600197460200,5.789460205078125,-89.48400115966797,7.941000461578369,-33.432003021240234
1788678600213676500,5.805676513671875,-89.03500366210938,6.224000453948975,-33.54899978637695
1788678600229786000,5.8217861328125,-90.7550048828125,7.408000469207764,-33.33300018310547
1788678600245812200,5.837812255859375,-90.51500701904297,6.451000213623047,-32.73100280761719
1788678600261980700,5.853980712890625,-91.05400085449219,7.854000568389893,-32.10600280761719
1788678600278144500,5.87014453125,-89.06300354003906,7.720000267028809,-33.842002868652344
1788678600294359800,5.88635986328125,-90.10900115966797,6.978000164031982,-33.3380012512207
1788678600310477600,5.9024775390625,-90.43700408935547,8.70300006866455,-32.60900115966797
1788678600326509800,5.918509765625,-88.6500015258789,7.278000354766846,-34.76300048828125
1788678600342692900,5.93469287109375,-89.8060073852539,7.615000247955322,-33.7400016784668
1788678600358854000,5.95085400390625,-90.97900390625,8.483000755310059,-33.12000274658203
1788678600375068700,5.967068603515625,-89.83000183105469,7.817000389099121,-34.65500259399414
1788678600391188000,5.98318798828125,-88.406005859375,7.729000568389893,-33.12900161743164
1788678600407223300,5.999223388671875,-88.51100158691406,7.622000217437744,-33.130001068115234
1788678600423372300,6.015372314453125,-90.95700073242188,7.200000286102295,-32.927001953125
1788678600439488000,6.031488037109375,-90.44300079345703,9.456000328063965,-32.39900207519531
1788678600455703000,6.047703125,-89.48400115966797,7.941000461578369,-33.432003021240234
1788678600471812600,6.0638125,-90.01700592041016,8.266000747680664,-33.22500228881836
1788678600487835400,6.07983544921875,-88.60400390625,7.090000152587891,-32.829002380371094
1788678600503927600,6.095927490234375,-89.49700164794922,8.581000328063965,-33.630001068115234
1788678600520045600,6.112045654296875,-91.0840072631836,8.700000762939453,-32.91400146484375
1788678600536261000,6.12826123046875,-87.73800659179688,8.393000602722168,-31.4950008392334
1788678600552371000,6.144370849609375,-90.23200225830078,9.022000312805176,-32.810001373291016
1788678600568396300,6.160396240234375,-90.77400207519531,7.289000511169434,-34.25100326538086
1788678600584550700,6.176550537109375,-89.16600799560547,6.642000198364258,-34.36000061035156
1788678600600685000,6.19268505859375,-88.84200286865234,7.508000373840332,-33.6400032043457
1788678600616900000,6.208900146484375,-90.00200653076172,6.330000400543213,-33.75100326538086
1788678600633013500,6.225013427734375,-89.93600463867188,8.25,-34.345001220703125
1788678600649039400,6.241039306640625,-87.34900665283203,8.153000831604004,-33.33100128173828
1788678600665196300,6.2571962890625,-89.47500610351562,8.270000457763672,-32.81800079345703
1788678600681345800,6.273345703125,-88.62100219726562,6.648000240325928,-33.85200119018555
1788678600697563400,6.2895634765625,-86.89100646972656,6.766000270843506,-32.83400344848633
1788678600713679400,6.305679443359375,-86.90900421142578,7.079000473022461,-33.44300079345703
1788678600729705500,6.32170556640625,-86.2550048828125,4.816000461578369,-34.27799987792969
1788678600745870800,6.337870849609375,-87.32400512695312,6.65500020980835,-33.1400032043457
1788678600762017300,6.354017333984375,-84.62500762939453,5.696000099182129,-32.439002990722656
1788678600778233000,6.370233154296875,-84.11000061035156,6.873000144958496,-32.531002044677734
1788678600794342000,6.386341796875,-86.24500274658203,6.228000164031982,-32.94200134277344
1788678600810366200,6.4023662109375,-88.57300567626953,6.3520002365112305,-31.91900062561035
1788678600826536000,6.418535888671875,-87.7560043334961,7.193000316619873,-33.03300094604492
1788678600842684200,6.43468408203125,-84.31600189208984,7.526000499725342,-31.812002182006836
1788678600858899500,6.4508994140625,-86.6760025024414,6.010000228881836,-33.249000549316406
1788678600875012600,6.4670126953125,-85.8290023803711,6.869000434875488,-33.038002014160156
1788678600891036200,6.4830361328125,-84.19600677490234,6.021000385284424,-32.13100051879883
1788678600907217400,6.499217529296875,-84.75900268554688,6.220000267028809,-33.35100173950195
1788678600923326500,6.515326416015625,-86.89000701904297,6.550000190734863,-32.9379997253418
1788678600939545300,6.53154541015625,-84.53400421142578,6.9830002784729,-32.32600021362305
1788678600955661800,6.547661865234375,-85.5780029296875,6.134000301361084,-31.823001861572266
1788678600971689000,6.56368896484375,-85.79400634765625,7.1060004234313965,-31.305002212524414
1788678600987881200,6.579881103515625,-87.86000061035156,6.87000036239624,-33.13800048828125
1788678601003993900,6.595993896484375,-85.78300476074219,5.816000461578369,-31.62200164794922
1788678601020214000,6.612214111328125,-83.86600494384766,5.053000450134277,-32.34400177001953
1788678601036328400,6.628328369140625,-85.79300689697266,6.350000381469727,-31.71900177001953
1788678601052354300,6.644354248046875,-87.49300384521484,6.466000080108643,-31.308000564575195
1788678601068501800,6.660501708984375,-86.84500122070312,6.0370001792907715,-31.211002349853516
1788678601084630800,6.676630859375,-86.4580078125,6.985000133514404,-32.42500305175781
1788678601100844500,6.692844482421875,-84.54100036621094,6.65500020980835,-32.8380012512207
1788678601116955600,6.70895556640625,-84.93000030517578,4.7330002784729,-32.345001220703125
1788678601132982000,6.72498193359375,-85.04200744628906,6.459000110626221,-31.51500129699707
1788678601149134600,6.741134521484375,-86.86000061035156,5.812000274658203,-32.02799987792969
1788678601165263400,6.757263427734375,-84.92900085449219,5.815000057220459,-31.623001098632812
1788678601181478700,6.773478759765625,-85.76900482177734,5.824000358581543,-31.01000213623047
1788678601197596200,6.78959619140625,-85.79600524902344,5.592000484466553,-32.33700180053711
1788678601213622500,6.80562255859375,-87.51800537109375,5.802000045776367,-32.842002868652344
1788678601229782000,6.821781982421875,-87.06000518798828,6.469000339508057,-31.003002166748047
1788678601245928000,6.837927978515625,-88.04500579833984,5.9160003662109375,-32.43300247192383
1788678601262148400,6.8541484375,-84.0840072631836,6.348000526428223,-31.72100067138672
1788678601278263300,6.87026318359375,-85.03600311279297,5.706000328063965,-31.72500228881836
1788678601294290400,6.88629052734375,-86.63700103759766,4.845000267028809,-32.2400016784668
1788678601310449200,6.90244921875,-85.14400482177734,7.1110005378723145,-30.898000717163086
1788678601326592300,6.91859228515625,-85.56700134277344,4.844000339508057,-32.1400032043457
1788678601342809600,6.9348095703125,-85.37500762939453,7.209000110626221,-31.610000610351562
1788678601358923000,6.950923095703125,-84.49800109863281,5.060000419616699,-31.93600082397461
1788678601374949600,6.96694970703125,-85.55900573730469,6.038000106811523,-31.009000778198242
1788678601391131400,6.98313134765625,-85.36900329589844,6.131000518798828,-32.027000427246094
1788678601407245600,6.99924560546875,-85.80400085449219,6.019000053405762,-32.435001373291016
1788678601423458800,7.015458740234375,-83.42000579833984,6.145000457763672,-30.8070011138916
1788678601439569200,7.031569091796875,-84.61400604248047,5.703000068664551,-31.930002212524414
1788678601455592400,7.047592529296875,-86.08900451660156,4.960000038146973,-31.527002334594727
1788678601471776000,7.06377587890625,-86.1830062866211,4.860000133514404,-31.018001556396484
1788678601487895300,7.079895263671875,-85.25000762939453,7.004000186920166,-30.899002075195312
1788678601504110600,7.096110595703125,-85.65800476074219,6.151000499725342,-30.60000228881836
1788678601520223000,7.112222900390625,-85.5570068359375,6.580000400543213,-30.597002029418945
1788678601536249300,7.128249267578125,-88.33600616455078,5.610000133514404,-31.315000534057617
1788678601552390700,7.144390625,-85.74500274658203,6.055000305175781,-29.786001205444336
1788678601568528600,7.160528564453125,-87.25800323486328,5.074000358581543,-31.21900177001953
1788678601584739800,7.17673974609375,-86.62500762939453,5.933000087738037,-31.00800132751465
1788678601600845800,7.192845703125,-86.11200714111328,6.460000514984131,-31.61600112915039
1788678601616870700,7.20887060546875,-86.91100311279297,5.414000034332275,-29.790000915527344
1788678601633022000,7.22502197265625,-85.4990005493164,5.210000038146973,-28.87700080871582
1788678601649170400,7.24117041015625,-86.72900390625,5.719000339508057,-31.01000213623047
1788678601665387800,7.2573876953125,-85.35900115966797,4.4079999923706055,-32.65299987792969
1788678601681503500,7.27350341796875,-86.8280029296875,6.156000137329102,-30.395002365112305
1788678601697529600,7.289529541015625,-86.63400268554688,7.224000453948975,-30.589000701904297
1788678601713694200,7.305694091796875,-87.71600341796875,5.812000274658203,-32.12900161743164
1788678601729838000,7.321838134765625,-86.41200256347656,6.148000240325928,-30.905000686645508
1788678601746056200,7.33805615234375,-87.17100524902344,6.142000198364258,-31.413002014160156
1788678601762161400,7.354161376953125,-87.04300689697266,6.26300048828125,-30.394001007080078
1788678601778188000,7.37018798828125,-87.69100189208984,6.151000499725342,-30.801000595092773
1788678601794364400,7.386364501953125,-86.63500213623047,6.7910003662109375,-30.899002075195312
1788678601810515500,7.402515380859375,-88.43400573730469,5.615000247955322,-30.907001495361328
1788678601826730000,7.41872998046875,-87.49100494384766,6.14300012588501,-31.413002014160156
1788678601842839600,7.434839599609375,-87.79700469970703,5.936000347137451,-30.905000686645508
1788678601858863900,7.45086376953125,-86.44300079345703,7.210000514984131,-31.60900115966797
1788678601875045600,7.467045654296875,-86.85900115966797,7.758000373840332,-30.788002014160156
1788678601891152400,7.48315234375,-86.09500122070312,6.686000347137451,-30.697002410888672
1788678601907363600,7.499363525390625,-88.99300384521484,7.005000114440918,-31.200000762939453
1788678601923473700,7.5154736328125,-86.43400573730469,6.567000389099121,-31.614002227783203
1788678601939494700,7.53149462890625,-87.71600341796875,7.433000564575195,-31.09600067138672
1788678601955660300,7.547660400390625,-87.08900451660156,7.640000343322754,-31.604001998901367
1788678601971798300,7.56379833984375,-86.2280044555664,8.076000213623047,-30.990001678466797
1788678601987987200,7.5799873046875,-87.51500701904297,7.8580002784729,-31.398000717163086
1788678602004094500,7.596094482421875,-84.51700592041016,7.750000476837158,-31.097002029418945
1788678602020148200,7.612148193359375,-84.93600463867188,6.675000190734863,-31.411001205444336
1788678602036337400,7.62833740234375,-88.59000396728516,7.207000255584717,-32.1150016784668
1788678602052464400,7.64446435546875,-85.83000183105469,7.7330002784729,-32.520999908447266
1788678602068679700,7.6606796875,-84.94200134277344,6.455000400543213,-31.821001052856445
1788678602084791300,7.676791259765625,-85.41700744628906,7.075000286102295,-33.54600143432617
1788678602100814000,7.69281396484375,-84.50800323486328,5.918000221252441,-31.82600212097168
1788678602116970500,7.708970458984375,-85.72600555419922,7.407000541687012,-32.83000183105469
1788678602133115600,7.72511572265625,-87.29200744628906,6.350000381469727,-31.921001434326172
1788678602149331000,7.7413310546875,-88.25000762939453,7.110000133514404,-31.302001953125
1788678602165442000,7.757442138671875,-87.29800415039062,7.103000164031982,-31.71000099182129
1788678602181468400,7.773468505859375,-85.69400787353516,6.129000186920166,-32.230003356933594
1788678602197639000,7.789638916015625,-89.10900115966797,6.676000118255615,-31.814001083374023
1788678602213790000,7.8057900390625,-86.87600708007812,7.315000534057617,-31.81100082397461
1788678602230003200,7.822003173828125,-86.23100280761719,6.344000339508057,-32.22800064086914
1788678602246112500,7.838112548828125,-86.93500518798828,7.928000450134277,-34.04600143432617
1788678602262135600,7.854135498046875,-87.11500549316406,7.516000270843506,-32.82699966430664
1788678602278304800,7.8703046875,-86.35200500488281,6.228000164031982,-32.94200134277344
1788678602294467600,7.886467529296875,-85.38700103759766,6.553000450134277,-32.53200149536133
1788678602310688500,7.9026884765625,-83.46900177001953,8.384000778198242,-31.602001190185547
1788678602326803700,7.9188037109375,-85.18700408935547,6.545000076293945,-33.14400100708008
1788678602342831600,7.93483154296875,-87.54100036621094,7.301000118255615,-32.930999755859375
1788678602359012400,7.951012451171875,-86.25900268554688,8.056000709533691,-32.41600036621094
1788678602375128000,7.967128173828125,-85.39300537109375,6.873000144958496,-32.63199996948242
1788678602391344000,7.98334423828125,-86.21400451660156,6.462000370025635,-31.41200065612793
1788678602407459000,7.999458984375,-85.37800598144531,6.234000205993652,-32.332000732421875
1788678602423488500,8.015488525390625,-85.69600677490234,7.1010003089904785,-31.71200180053711
1788678602439643000,8.031642822265624,-87.39700317382812,6.892000198364258,-31.50800132751465
1788678602455771400,8.047771484375,-87.30000305175781,6.777000427246094,-32.01900100708008
1788678602471988700,8.06398876953125,-84.10200500488281,6.6610002517700195,-32.329002380371094
1788678602488104200,8.080104248046876,-86.0320053100586,6.551000118255615,-32.73500061035156
1788678602504131600,8.096131591796874,-86.66300201416016,7.531000137329102,-31.707000732421875
1788678602520285000,8.112284912109375,-86.25000762939453,7.089000225067139,-32.62900161743164
1788678602536416800,8.128416748046876,-85.83100128173828,6.9760003089904785,-33.038002014160156
1788678602552629800,8.144629638671875,-85.17500305175781,6.336000442504883,-32.73800277709961
1788678602568740400,8.160740234375,-84.96800231933594,6.9800004959106445,-32.63100051879883
1788678602584767200,8.176767333984374,-86.78400421142578,8.063000679016113,-32.00800323486328
1788678602600917500,8.19291748046875,-84.33500671386719,7.7300004959106445,-32.52300262451172
1788678602617046800,8.209046875,-84.54700469970703,6.975000381469727,-32.9370002746582
1788678602633265200,8.22526513671875,-84.01200103759766,8.380000114440918,-32.009002685546875
1788678602649377500,8.24137744140625,-87.9800033569336,8.268000602722168,-32.81999969482422
1788678602665410600,8.25741064453125,-84.09600067138672,6.557000160217285,-32.12700271606445
1788678602681571800,8.27357177734375,-85.14700317382812,6.3520002365112305,-31.516000747680664
1788678602697719600,8.289719482421875,-87.61500549316406,7.213000297546387,-31.505001068115234
1788678602713939700,8.305939697265625,-86.0060043334961,6.027000427246094,-31.92500114440918
1788678602730049300,8.32204931640625,-84.30000305175781,6.6710004806518555,-31.61600112915039
1788678602746076000,8.338075927734375,-84.70100402832031,6.580000400543213,-30.496002197265625
1788678602762251800,8.354251708984375,-84.53300476074219,5.579000473022461,-33.15299987792969
1788678602778411300,8.370411376953125,-84.05900573730469,7.011000156402588,-30.187002182006836
1788678602794618600,8.38661865234375,-84.7540054321289,7.628000259399414,-32.21800231933594
1788678602810734300,8.402734375,-87.29200744628906,7.323000431060791,-31.301000595092773
1788678602826765000,8.41876513671875,-85.13200378417969,5.929000377655029,-31.112001419067383
1788678602842947300,8.434947265625,-86.1760025024414,5.837000370025635,-30.093002319335938
1788678602859058000,8.451057861328126,-84.28800201416016,7.1110005378723145,-30.797000885009766
1788678602875273200,8.467273193359375,-84.5040054321289,7.00100040435791,-31.00200080871582
1788678602891387600,8.4833876953125,-83.86800384521484,6.673000335693359,-31.413002014160156
1788678602907423500,8.499423583984376,-85.98900604248047,6.577000141143799,-30.80000114440918
1788678602923619600,8.51561962890625,-85.86800384521484,6.586000442504883,-30.189001083374023
1788678602939746800,8.531746826171876,-86.31900787353516,7.112000465393066,-30.8960018157959
1788678602955962600,8.547962646484375,-85.11200714111328,5.941000461578369,-30.19500160217285
1788678602972076800,8.564076904296876,-86.8530044555664,6.465000152587891,-31.309001922607422
1788678602988102400,8.580102294921875,-86.42300415039062,7.76300048828125,-30.381000518798828
1788678603004216000,8.596216064453126,-85.76200103759766,6.585000514984131,-30.189001083374023
1788678603020345300,8.612345458984375,-86.21700286865234,7.110000133514404,-31.10000228881836
1788678603036559600,8.6285595703125,-84.0570068359375,5.716000080108643,-30.91200065612793
1788678603052672800,8.6446728515625,-85.79200744628906,6.135000228881836,-31.823001861572266
1788678603068696600,8.660696533203126,-85.59300231933594,6.88200044631958,-32.02000045776367
1788678603084857000,8.676857177734375,-86.20500183105469,6.144000053405762,-31.211002349853516
1788678603100996400,8.692996337890625,-87.71300506591797,6.571000099182129,-31.511001586914062
1788678603117208300,8.709208251953125,-87.26000213623047,6.802000522613525,-30.185001373291016
1788678603133318700,8.725318603515625,-86.96100616455078,8.085000038146973,-30.378002166748047
1788678603149340200,8.741340087890626,-85.74300384521484,6.056000232696533,-29.684001922607422
1788678603165501200,8.757501220703125,-87.79400634765625,6.0460004806518555,-30.700000762939453
1788678603181648600,8.773648681640625,-87.24500274658203,6.379000186920166,-29.781002044677734
1788678603197867000,8.789866943359375,-86.31600189208984,6.898000240325928,-30.898000717163086
1788678603213976300,8.805976318359376,-86.10800170898438,8.29900074005127,-30.275001525878906
1788678603230035200,8.82203515625,-87.78400421142578,7.133000373840332,-29.57000160217285
1788678603246187000,8.83818701171875,-86.44600677490234,7.749000549316406,-31.400001525878906
1788678603262329300,8.854329345703125,-86.85700225830078,6.246000289916992,-31.617000579833984
1788678603278546700,8.870546630859375,-85.1310043334961,7.443000316619873,-30.080001831054688
1788678603294669000,8.8866689453125,-86.18400573730469,6.373000144958496,-30.088001251220703
1788678603310687700,8.902687744140625,-86.32500457763672,7.217000484466553,-31.099000930786133
1788678603326876200,8.918876220703124,-85.46800231933594,6.353000164031982,-31.51500129699707
1788678603342996500,8.93499658203125,-86.44300079345703,5.373000144958496,-32.74500274658203
1788678603359211500,8.95121142578125,-85.16900634765625,7.744000434875488,-31.60500144958496
1788678603375323100,8.9673232421875,-86.31500244140625,7.331000328063965,-30.589000701904297
1788678603391346700,8.9833466796875,-82.81900024414062,6.660000324249268,-32.229000091552734
1788678603407532000,8.999531982421875,-83.2560043334961,5.574000358581543,-33.35900115966797
1788678603423646500,9.015646484375,-83.8280029296875,8.68600082397461,-33.12700271606445
1788678603439860700,9.03186083984375,-82.51100158691406,7.085000514984131,-32.531002044677734
1788678603455970300,9.04797021484375,-84.52000427246094,6.127000331878662,-32.23200225830078
1788678603471993900,9.063993896484375,-84.96900177001953,5.574000358581543,-33.560001373291016
1788678603488145700,9.080145751953125,-84.62100219726562,6.887000560760498,-31.512001037597656
1788678603504299500,9.096299560546875,-84.31200408935547,6.556000232696533,-32.22800064086914
1788678603520505600,9.112505615234374,-85.91900634765625,7.4200005531311035,-31.913002014160156
1788678603536617700,9.12861767578125,-87.10000610351562,7.093000411987305,-32.42399978637695
1788678603552640300,9.14464013671875,-84.23700714111328,7.185000419616699,-33.24100112915039
1788678603568797400,9.16079736328125,-85.49600219726562,5.903000354766846,-33.047000885009766
1788678603584951600,9.17695166015625,-84.53500366210938,6.118000507354736,-32.94499969482422
1788678603601167000,9.1931669921875,-84.41500091552734,4.937000274658203,-33.057003021240234
1788678603617281800,9.20928173828125,-84.48100280761719,7.27500057220459,-34.56500244140625
1788678603633307400,9.225307373046874,-85.09100341796875,8.050000190734863,-32.72300338745117
1788678603649433900,9.241433837890625,-83.46100616455078,6.444000244140625,-32.43400192260742
1788678603665576200,9.257576171875,-82.18400573730469,6.115000247955322,-32.84600067138672
1788678603681786000,9.2737861328125,-84.98300170898438,7.079000473022461,-33.24100112915039
1788678603697891600,9.2898916015625,-83.98100280761719,5.156000137329102,-32.64800262451172
1788678603713917200,9.305917236328124,-84.55000305175781,6.865000247955322,-33.14200210571289
1788678603730091300,9.32209130859375,-81.71900177001953,5.814000129699707,-31.321001052856445
1788678603746280000,9.338280029296875,-83.7040023803711,7.615000247955322,-33.03499984741211
1788678603762497000,9.3544970703125,-81.5570068359375,6.755000114440918,-33.04500198364258
1788678603778609000,9.37060888671875,-83.91100311279297,6.107000350952148,-33.659000396728516
1788678603794634800,9.386634765625,-83.87500762939453,5.805000305175781,-32.23500061035156
1788678603810815500,9.4028154296875,-82.62200164794922,6.758000373840332,-32.94200134277344
1788678603826922800,9.4189228515625,-83.67300415039062,6.9860005378723145,-32.020999908447266
1788678603843142400,9.435142333984375,-83.67400360107422,6.878000259399414,-32.124000549316406
1788678603859250400,9.45125048828125,-83.34800720214844,5.151000022888184,-32.95500183105469
1788678603875278300,9.4672783203125,-84.54800415039062,7.839000225067139,-32.42000198364258
1788678603891423500,9.483423583984376,-83.91600036621094,7.184000492095947,-33.242000579833984
1788678603907537400,9.499537353515626,-83.12700653076172,6.128000259399414,-32.03000259399414
1788678603923745000,9.5157451171875,-81.85400390625,6.553000450134277,-32.12900161743164
1788678603939858700,9.531858642578126,-82.78300476074219,5.385000228881836,-31.426000595092773
1788678603955880000,9.5478798828125,-82.57200622558594,5.275000095367432,-31.63100242614746
1788678603972031700,9.56403173828125,-83.01900482177734,6.020000457763672,-32.031002044677734
1788678603988158000,9.580157958984374,-84.0770034790039,5.812000274658203,-31.726001739501953
1788678604004340500,9.596340576171874,-83.85000610351562,5.820000171661377,-31.115001678466797
1788678604020451800,9.612451904296876,-83.40900421142578,4.855000019073486,-31.124000549316406
1788678604036475000,9.628474853515625,-83.41900634765625,4.4160003662109375,-31.841001510620117
1788678604052635100,9.64463525390625,-85.2550048828125,5.271000385284424,-32.23800277709961
1788678604068777000,9.66077685546875,-83.63300323486328,4.957000255584717,-31.530000686645508
1788678604084991000,9.676990966796875,-83.22200775146484,5.919000148773193,-31.624000549316406
1788678604101101300,9.693101318359375,-84.47500610351562,6.0460004806518555,-30.297000885009766
1788678604117127200,9.709127197265625,-82.53500366210938,4.865000247955322,-30.2080020904541
1788678604133299200,9.72529931640625,-83.97700500488281,6.672000408172607,-31.51500129699707
1788678604149448200,9.7414482421875,-82.99300384521484,5.496000289916992,-31.22100067138672
1788678604165662000,9.757661865234375,-81.71200561523438,5.818000316619873,-31.016000747680664
1788678604181772800,9.773772705078125,-82.58200073242188,5.1610002517700195,-32.1410026550293
1788678604197795300,9.78979541015625,-83.8340072631836,5.505000114440918,-30.608001708984375
1788678604213972200,9.80597216796875,-84.20500183105469,6.880000114440918,-32.022003173828125
1788678604230129700,9.822129638671875,-83.63300323486328,5.929000377655029,-30.910001754760742
1788678604246344000,9.838343994140626,-84.73200225830078,5.372000217437744,-32.645999908447266
1788678604262456000,9.8544560546875,-80.54900360107422,6.025000095367432,-31.423002243041992
1788678604278481400,9.8704814453125,-84.62300109863281,5.697000503540039,-32.33700180053711
1788678604294669800,9.886669921875,-83.23300170898438,5.9120001792907715,-32.13300323486328
1788678604310789400,9.902789306640624,-82.70700073242188,6.123000144958496,-32.336002349853516
1788678604327002000,9.919002197265625,-81.5050048828125,4.192000389099121,-32.355003356933594
1788678604343114500,9.935114501953125,-83.23600769042969,4.938000202178955,-32.855003356933594
1788678604359136800,9.95113671875,-81.63200378417969,5.261000156402588,-32.54899978637695
1788678604375283000,9.967282958984375,-82.81600189208984,5.4730000495910645,-32.85100173950195
1788678604391410700,9.98341064453125,-82.28600311279297,6.2270002365112305,-32.53900146484375
1788678604407626500,9.99962646484375,-84.33200073242188,6.543000221252441,-33.14500045776367
1788678604423737900,10.01573779296875,-83.40900421142578,4.53000020980835,-31.330001831054688
1788678604439797000,10.031796875,-84.31700134277344,5.4720001220703125,-33.15500259399414
1788678604455985000,10.04798486328125,-83.5840072631836,6.651000499725342,-33.04300308227539
1788678604472150500,10.064150634765625,-84.30400085449219,5.804000377655029,-32.33700180053711
1788678604488364000,10.080364013671876,-85.15800476074219,5.1570000648498535,-32.749000549316406
1788678604504482600,10.096482666015625,-82.93700408935547,6.654000282287598,-32.73800277709961
1788678604520508400,10.11250830078125,-83.9050064086914,6.218000411987305,-33.35200119018555
1788678604536674600,10.128674560546875,-82.50800323486328,5.682000160217285,-33.25699996948242
1788678604552817400,10.1448173828125,-82.8270034790039,6.115000247955322,-32.94700241088867
1788678604569034800,10.16103466796875,-82.3070068359375,6.430000305175781,-33.35200119018555
1788678604585148400,10.1771484375,-83.36500549316406,6.437000274658203,-32.944000244140625
1788678604601174500,10.193174560546876,-81.66800689697266,6.428000450134277,-33.45500183105469
1788678604617346800,10.209346923828125,-81.8800048828125,5.781000137329102,-33.7660026550293
1788678604633495800,10.225495849609375,-82.9320068359375,5.144000053405762,-33.46500015258789
1788678604649711000,10.241711181640625,-82.71600341796875,5.145000457763672,-33.36300277709961
1788678604665820000,10.25781982421875,-81.55000305175781,5.462000370025635,-33.566001892089844
1788678604681842400,10.273842529296875,-81.97600555419922,5.355000019073486,-33.566001892089844
1788678604698016500,10.2900166015625,-82.19000244140625,5.571000099182129,-33.46200180053711
1788678604714171600,10.306171630859374,-79.63400268554688,5.023000240325928,-34.08100128173828
1788678604730387000,10.322386962890626,-81.01600646972656,5.461000442504883,-33.566001892089844
1788678604746501000,10.338501220703124,-80.27300262451172,6.1050004959106445,-33.358001708984375
1788678604762531800,10.35453173828125,-81.89100646972656,5.450000286102295,-34.48200225830078
1788678604778710500,10.37071044921875,-80.1810073852539,5.98900032043457,-34.07200241088867
1788678604794822100,10.386822265625,-82.28900146484375,5.144000053405762,-33.3640022277832
1788678604811036700,10.40303662109375,-80.2760009765625,4.159000396728516,-34.69900131225586
1788678604827148000,10.41914794921875,-80.67400360107422,4.7170000076293945,-33.064002990722656
1788678604843171600,10.435171630859376,-80.99200439453125,3.2060000896453857,-33.89200210571289
1788678604859314400,10.451314453125,-78.59800720214844,4.894000053405762,-35.612003326416016
1788678604875434000,10.46743408203125,-81.76300048828125,4.058000087738037,-34.393001556396484
1788678604891609000,10.483609130859374,-80.17200469970703,5.345000267028809,-34.0780029296875
1788678604907720000,10.499719970703126,-79.09800720214844,4.699000358581543,-34.1870002746582
1788678604923777300,10.51577734375,-79.11700439453125,5.12000036239624,-34.794002532958984
1788678604939966700,10.531966796875,-77.9260025024414,4.048000335693359,-34.7030029296875
1788678604956128800,10.548128662109375,-78.625,4.877000331878662,-36.83400344848633
1788678604972345300,10.564345458984375,-79.3530044555664,6.079000473022461,-35.19300079345703
1788678604988459800,10.580459716796875,-79.86600494384766,5.228000164031982,-34.79199981689453
1788678605004483300,10.5964833984375,-77.61900329589844,5.552000045776367,-34.38500213623047
1788678605020635400,10.612635498046876,-77.85000610351562,5.325000286102295,-35.303001403808594
1788678605036774700,10.628774658203126,-76.6820068359375,5.319000244140625,-35.61000061035156
1788678605052988400,10.644988525390625,-77.54200744628906,6.074000358581543,-35.39900207519531
1788678605069097700,10.66109765625,-80.07400512695312,5.016000270843506,-34.69200134277344
1788678605085121800,10.677121826171875,-78.1570053100586,5.658000469207764,-34.48500061035156
1788678605101287700,10.69328759765625,-78.25300598144531,4.584000110626221,-34.698001861572266
1788678605117426700,10.7094267578125,-77.49100494384766,5.3480000495910645,-33.57200241088867
1788678605133641000,10.725640869140625,-76.47000122070312,4.886000156402588,-35.92000198364258
1788678605149762800,10.7417626953125,-78.42200469970703,5.951000213623047,-36.621002197265625
1788678605165787600,10.75778759765625,-78.38400268554688,5.002000331878662,-35.509002685546875
1788678605181968600,10.77396875,-76.86900329589844,4.363000392913818,-35.00699996948242
1788678605198125600,10.79012548828125,-77.81600189208984,4.1570000648498535,-34.499000549316406
1788678605214338000,10.806338134765625,-76.00300598144531,4.693000316619873,-34.29300308227539
1788678605230450200,10.8224501953125,-76.4320068359375,3.828000068664551,-34.91100311279297
1788678605246474000,10.838473876953126,-77.80000305175781,4.815000057220459,-33.37200164794922
1788678605262640600,10.854640625,-78.54700469970703,3.30400013923645,-34.302001953125
1788678605278791700,10.870791748046875,-76.1810073852539,2.446000099182129,-34.108001708984375
1788678605295009500,10.887009521484375,-77.86900329589844,3.1090002059936523,-32.7760009765625
1788678605311118600,10.90311865234375,-78.97100067138672,4.38700008392334,-33.47700119018555
1788678605327138300,10.91913818359375,-77.89700317382812,4.281000137329102,-33.275001525878906
1788678605343325200,10.9353251953125,-78.20600128173828,3.31600022315979,-33.38500213623047
1788678605359445000,10.951445068359375,-77.9010009765625,4.278000354766846,-33.479000091552734
1788678605375658500,10.967658447265626,-78.76500701904297,3.950000286102295,-34.092002868652344
1788678605391767800,10.983767822265625,-77.59200286865234,4.055000305175781,-34.092002868652344
1788678605407809500,10.9998095703125,-77.5560073852539,3.644000291824341,-32.772003173828125
1788678605423965000,11.01596484375,-77.06300354003906,5.240000247955322,-33.573001861572266
1788678605440099000,11.03209912109375,-78.96900177001953,3.9560000896453857,-33.68400192260742
1788678605456311800,11.048311767578125,-78.76700592041016,4.921000003814697,-33.57400131225586
1788678605472420600,11.064420654296875,-78.35000610351562,3.510000228881836,-34.91100311279297
1788678605488475000,11.080474853515625,-78.40300750732422,6.071000099182129,-35.7030029296875
1788678605504617200,11.0966171875,-80.07400512695312,5.016000270843506,-34.69200134277344
1788678605520764200,11.11276416015625,-78.24000549316406,4.484000205993652,-34.19000244140625
1788678605536977000,11.128976806640624,-79.02300262451172,4.572000026702881,-35.71600341796875
1788678605553089000,11.145089111328126,-78.81300354003906,5.326000213623047,-35.40400314331055
1788678605569115000,11.161114990234376,-79.65800476074219,4.468000411987305,-35.512001037597656
1788678605585283300,11.177283447265625,-79.2490005493164,5.321000099182129,-35.81100082397461
1788678605601435100,11.19343505859375,-77.74400329589844,5.865000247955322,-34.99300003051758
1788678605617647600,11.209647705078124,-77.94300079345703,5.118000030517578,-34.79600143432617
1788678605633755600,11.225755615234375,-78.6030044555664,5.5400004386901855,-35.402000427246094
1788678605649779000,11.241779052734374,-79.14200592041016,6.402000427246094,-35.0880012512207
1788678605665952000,11.257951904296876,-79.08300018310547,6.913000106811523,-36.91800308227539
1788678605682106400,11.2741064453125,-77.66300201416016,7.038000106811523,-35.3900032043457
1788678605698323000,11.290322998046875,-76.62000274658203,7.3460001945495605,-36.30600357055664
1788678605714436400,11.306436279296875,-78.94200134277344,6.609000205993652,-35.59600067138672
1788678605730461200,11.322461181640625,-78.84100341796875,7.7950005531311035,-35.07600021362305
1788678605746638000,11.33863818359375,-79.59700012207031,6.6020002365112305,-36.207000732421875
1788678605762747600,11.35474755859375,-78.85600280761719,7.785000324249268,-35.790000915527344
1788678605778961400,11.37096142578125,-81.93900299072266,7.258000373840332,-35.48500061035156
1788678605795072300,11.387072265625,-78.13500213623047,7.336000442504883,-37.22100067138672
1788678605811098000,11.40309814453125,-78.98400115966797,7.124000549316406,-37.12000274658203
1788678605827242000,11.419241943359374,-80.14600372314453,7.566000461578369,-36.29900360107422
1788678605843365000,11.435365234375,-79.25900268554688,6.504000186920166,-35.49500274658203
1788678605859581700,11.451581787109374,-78.20700073242188,6.817000389099121,-36.00300216674805
1788678605875692500,11.467692626953125,-80.04200744628906,6.592000484466553,-37.020999908447266
1788678605891717000,11.483717041015625,-77.13800048828125,5.735000133514404,-36.625
1788678605907869400,11.499869384765624,-76.42300415039062,8.416000366210938,-36.39800262451172
1788678605923999700,11.515999755859376,-76.38400268554688,5.954000473022461,-36.21600341796875
1788678605940214300,11.53221435546875,-78.22000122070312,7.457000255584717,-36.20100021362305
1788678605956327000,11.548326904296875,-76.08900451660156,7.451000213623047,-36.40700149536133
1788678605972353000,11.56435302734375,-77.5,6.7910003662109375,-37.83700180053711
1788678605988507100,11.580507080078124,-74.9070053100586,6.913000106811523,-36.41400146484375
1788678606004646100,11.596646240234374,-75.77300262451172,9.069000244140625,-35.5780029296875
1788678606020860700,11.612860595703125,-77.69500732421875,6.9110002517700195,-36.919002532958984
1788678606036972800,11.628972900390625,-76.22500610351562,8.082000732421875,-37.31800079345703
1788678606052995300,11.644995361328125,-75.1520004272461,8.190999984741211,-37.01300048828125
1788678606069138000,11.661137939453125,-76.02400207519531,8.830000877380371,-37.41400146484375
1788678606085288400,11.677288330078126,-77.6300048828125,8.939000129699707,-37.51300048828125
1788678606101501200,11.693501220703125,-75.98900604248047,8.419000625610352,-36.09300231933594
1788678606117613000,11.709613037109374,-74.81500244140625,8.633000373840332,-35.99100112915039
1788678606133638700,11.725638671875,-77.58500671386719,8.642000198364258,-35.682003021240234
1788678606149818400,11.741818359375,-76.00800323486328,8.300000190734863,-37.01100158691406
1788678606165929500,11.757929443359375,-76.01100158691406,7.5420002937316895,-37.62900161743164
1788678606182148600,11.774148681640625,-77.406005859375,9.485000610351562,-36.69300079345703
1788678606198264600,11.7902646484375,-76.96100616455078,7.874000549316406,-36.91200256347656
1788678606214326000,11.806325927734376,-76.3060073852539,7.341000556945801,-36.612003326416016
1788678606230519800,11.822519775390624,-75.59900665283203,9.261000633239746,-37.207000732421875
1788678606246678300,11.83867822265625,-76.53400421142578,8.197999954223633,-36.70600128173828
1788678606262894300,11.854894287109374,-78.44300079345703,8.640000343322754,-35.884002685546875
1788678606279014100,11.87101416015625,-76.61000061035156,8.648000717163086,-35.07200241088867
1788678606295033600,11.88703369140625,-76.42300415039062,9.38900089263916,-35.77900314331055
1788678606311187700,11.903187744140626,-76.31800079345703,8.523000717163086,-36.39800262451172
1788678606327317800,11.91931787109375,-76.17000579833984,8.223000526428223,-34.770999908447266
1788678606343534300,11.935534423828125,-77.6030044555664,9.928000450134277,-35.67000198364258
1788678606359647200,11.951647216796875,-77.71700286865234,9.815000534057617,-36.079002380371094
1788678606375676200,11.96767626953125,-77.99500274658203,8.43600082397461,-35.07200241088867
1788678606391831800,11.983831787109375,-78.28400421142578,7.4830002784729,-34.2650032043457
1788678606407967200,11.99996728515625,-78.33100128173828,9.184000015258789,-35.26900100708008
1788678606424183300,12.016183349609374,-78.11000061035156,9.837000846862793,-34.55000305175781
1788678606440295000,12.032294921875,-77.61200714111328,10.462000846862793,-35.768001556396484
1788678606456318700,12.048318603515625,-76.64700317382812,11.112000465393066,-35.152000427246094
1788678606472486700,12.064486572265626,-77.38800048828125,9.496000289916992,-35.87800216674805
1788678606488633000,12.080633056640625,-77.802001953125,9.072000503540039,-35.57600021362305
1788678606504851000,12.096850830078125,-77.80500030517578,9.611000061035156,-35.367000579833984
1788678606520965000,12.112965087890625,-77.19800567626953,11.426000595092773,-35.76000213623047
1788678606536992300,12.1289921875,-76.22700500488281,10.999000549316406,-35.56100082397461
1788678606553168400,12.14516845703125,-77.84500122070312,11.856000900268555,-35.755001068115234
1788678606569322800,12.16132275390625,-79.60100555419922,13.019001007080078,-37.169002532958984
1788678606585521700,12.177521728515625,-78.26200103759766,11.106000900268555,-35.76100158691406
1788678606601629200,12.193629150390626,-77.73400115966797,11.210000991821289,-35.96500015258789
1788678606617658000,12.209658203125,-79.56000518798828,11.855000495910645,-36.05800247192383
1788678606633839600,12.225839599609374,-78.93800354003906,13.031001091003418,-36.1510009765625
1788678606649998800,12.241998779296875,-78.37600708007812,11.967000961303711,-35.55000305175781
1788678606666212400,12.25821240234375,-80.02000427246094,12.268000602722168,-37.277000427246094
1788678606682323700,12.27432373046875,-77.88899993896484,12.370000839233398,-37.380001068115234
1788678606698374400,12.29037451171875,-79.06000518798828,14.427000999450684,-35.93400192260742
1788678606714562000,12.30656201171875,-81.69800567626953,13.045001029968262,-35.43400192260742
1788678606730670300,12.32267041015625,-79.91500091552734,13.023000717163086,-36.86300277709961
1788678606746886700,12.33888671875,-78.49600219726562,12.283000946044922,-35.954002380371094
1788678606762995200,12.3549951171875,-81.28800201416016,14.223000526428223,-35.42399978637695
1788678606779051300,12.37105126953125,-81.33100128173828,14.197000503540039,-37.36000061035156
1788678606795233300,12.3872333984375,-80.86700439453125,14.543000221252441,-35.52400207519531
1788678606811392000,12.40339208984375,-80.4520034790039,13.778000831604004,-36.55000305175781
1788678606827606500,12.4196064453125,-80.64600372314453,14.11500072479248,-35.426002502441406
1788678606843725600,12.4357255859375,-80.56900024414062,14.637001037597656,-36.44000244140625
1788678606859744500,12.45174462890625,-80.88600158691406,13.559000968933105,-36.95800018310547
1788678606875908900,12.467908935546875,-80.84700012207031,12.934000968933105,-35.6400032043457
1788678606892049400,12.48404931640625,-81.18900299072266,13.678000450134277,-36.14200210571289
1788678606908263400,12.500263427734374,-80.45600128173828,13.344000816345215,-36.961002349853516
1788678606924376300,12.516376220703124,-79.58500671386719,13.461000442504883,-36.145999908447266
1788678606940402200,12.532402099609374,-81.10000610351562,15.072000503540039,-36.02799987792969
1788678606956566500,12.54856640625,-80.01600646972656,15.080000877380371,-35.316001892089844
1788678606972714000,12.5647138671875,-80.02300262451172,15.725000381469727,-35.20900344848633
1788678606988928500,12.580928466796875,-81.22600555419922,15.493000984191895,-36.63500213623047
1788678607005038800,12.597038818359374,-81.5530014038086,15.48900032043457,-36.941001892089844
1788678607021100300,12.613100341796875,-80.6550064086914,15.29800033569336,-35.11000061035156
1788678607037277400,12.62927734375,-82.15400695800781,14.758000373840332,-35.62200164794922
1788678607053435100,12.64543505859375,-79.88900756835938,13.795001029968262,-35.22600173950195
1788678607069655600,12.661655517578126,-80.13900756835938,15.611001014709473,-35.71900177001953
1788678607085769500,12.67776953125,-81.38700103759766,14.336000442504883,-35.0160026550293
1788678607101799700,12.693799560546875,-81.23100280761719,15.382000923156738,-36.94200134277344
1788678607117985500,12.709985595703126,-80.45600128173828,14.208001136779785,-36.444000244140625
1788678607134102500,12.7261025390625,-81.69000244140625,14.563000679016113,-34.09600067138672
1788678607150280400,12.742280517578125,-80.73600006103516,14.233000755310059,-34.61000061035156
1788678607166392300,12.758392333984375,-80.57200622558594,16.040000915527344,-35.71500015258789
1788678607182419500,12.77441943359375,-80.43600463867188,15.733000755310059,-34.59700012207031
1788678607198610700,12.790610595703125,-81.25100708007812,14.678000450134277,-33.48500061035156
1788678607214733300,12.8067333984375,-81.94300079345703,15.620000839233398,-35.207000732421875
1788678607230950000,12.822949951171875,-81.07500457763672,15.952000617980957,-34.3900032043457
1788678607247061000,12.83906103515625,-82.77200317382812,15.097001075744629,-34.395999908447266
1788678607263118800,12.855118896484376,-81.71700286865234,15.735000610351562,-34.595001220703125
1788678607279298600,12.871298583984375,-81.62500762939453,17.564001083374023,-34.070003509521484
1788678607295456800,12.887456787109375,-84.0580062866211,15.420001029968262,-34.3910026550293
1788678607311671800,12.903671875,-82.14500427246094,15.62800121307373,-34.698001861572266
1788678607327786200,12.9197861328125,-83.96700286865234,15.951001167297363,-34.794002532958984
1788678607343847000,12.935846923828125,-83.01200103759766,16.378000259399414,-34.79199981689453
1788678607360035600,12.95203564453125,-81.25900268554688,15.430000305175781,-33.37600326538086
1788678607376178000,12.968177978515625,-84.06600189208984,16.172000885009766,-34.28300094604492
1788678607392393500,12.9843935546875,-83.43900299072266,16.054000854492188,-34.99800109863281
1788678607408512300,13.00051220703125,-84.04100036621094,16.187000274658203,-33.16200256347656
1788678607424534000,13.016533935546875,-81.9010009765625,14.88900089263916,-33.788002014160156
1788678607440682500,13.0326826171875,-82.5580062866211,15.421000480651855,-34.19000244140625
1788678607456864500,13.048864501953124,-80.49100494384766,15.117000579833984,-32.66699981689453
1788678607473082600,13.06508251953125,-83.06500244140625,13.925000190734863,-33.895999908447266
1788678607489194200,13.0811943359375,-82.97900390625,15.641000747680664,-33.78000259399414
1788678607505221400,13.097221435546874,-83.36900329589844,15.232000350952148,-32.35700225830078
1788678607521399800,13.11339990234375,-82.72700500488281,15.44800090789795,-32.152000427246094
1788678607537511400,13.129511474609375,-83.81400299072266,14.574000358581543,-33.58400344848633
1788678607553728300,13.145728271484375,-83.58600616455078,14.474000930786133,-32.974002838134766
1788678607569834200,13.161834228515625,-83.91800689697266,16.520999908447266,-32.24300003051758
1788678607585861400,13.177861328125,-83.7820053100586,14.37700080871582,-32.262001037597656
1788678607602041000,13.194041015625,-83.27000427246094,15.335000991821289,-32.66100311279297
1788678607618198500,13.210198486328125,-83.81200408935547,15.54800033569336,-32.86300277709961
1788678607634410800,13.22641064453125,-85.08600616455078,14.905000686645508,-32.96800231933594
1788678607650523400,13.2425234375,-82.84900665283203,16.41200065612793,-32.24500274658203
1788678607666547700,13.258547607421875,-81.89200592041016,14.895000457763672,-33.380001068115234
1788678607682733800,13.27473388671875,-83.15400695800781,15.449000358581543,-32.1510009765625
1788678607698856400,13.2908564453125,-83.14400482177734,15.887001037597656,-31.434001922607422
1788678607715070500,13.307070556640625,-83.14000701904297,15.457000732421875,-31.540000915527344
1788678607731182000,13.32318212890625,-84.24100494384766,16.196001052856445,-32.551002502441406
1788678607747206400,13.339206298828126,-85.4780044555664,15.144001007080078,-31.23400115966797
1788678607763352800,13.355352783203125,-84.41800689697266,15.029000282287598,-31.644001007080078
1788678607779544000,13.3715439453125,-85.06600189208984,16.755001068115234,-30.915000915527344
1788678607795757600,13.387757568359374,-85.71800231933594,15.885001182556152,-31.94000244140625
1788678607811865600,13.403865478515625,-86.14400482177734,15.670001029968262,-32.044002532958984
1788678607827889700,13.4198896484375,-86.97000122070312,16.769001007080078,-30.097002029418945
1788678607844047400,13.43604736328125,-88.16200256347656,15.031001091003418,-31.94500160217285
1788678607860191700,13.452191650390626,-86.57600402832031,15.992000579833984,-32.040000915527344
1788678607876407300,13.4684072265625,-85.94000244140625,17.177000045776367,-31.5210018157959
1788678607892515000,13.48451513671875,-87.63900756835938,15.996000289916992,-31.83500099182129
1788678607908573000,13.500572998046875,-85.9260025024414,18.158000946044922,-30.290000915527344
1788678607924721700,13.5167216796875,-87.01400756835938,16.634000778198242,-32.13600158691406
1788678607940903000,13.53290283203125,-87.40800476074219,15.898000717163086,-31.123001098632812
1788678607957113600,13.549113525390625,-88.06700134277344,16.428001403808594,-31.62700080871582
1788678607973223200,13.56522314453125,-85.29600524902344,17.285001754760742,-31.317001342773438
1788678607989238000,13.581238037109374,-85.50700378417969,16.099000930786133,-31.939001083374023
1788678608005418500,13.59741845703125,-86.52200317382812,15.268000602722168,-30.11100196838379
1788678608021571600,13.613571533203125,-88.0840072631836,17.283000946044922,-31.823001861572266
1788678608037754400,13.62975439453125,-86.03900146484375,16.317001342773438,-31.73200225830078
1788678608053864700,13.64586474609375,-86.79100036621094,16.964000701904297,-31.522001266479492
1788678608069890600,13.661890625,-85.5060043334961,16.207000732421875,-31.836002349853516
1788678608086081800,13.678081787109376,-83.58200073242188,16.530000686645508,-31.530000686645508
1788678608102197000,13.694197021484374,-83.14900207519531,16.42500114440918,-31.328001022338867
1788678608118413000,13.7104130859375,-84.85700225830078,16.536001205444336,-31.22300148010254
1788678608134526700,13.726526611328126,-84.1030044555664,16.43000030517578,-31.0210018157959
1788678608150551800,13.7425517578125,-84.01000213623047,16.746000289916992,-31.426000595092773
1788678608166742500,13.758742431640625,-86.3330078125,16.98200035095215,-30.09600067138672
1788678608182866200,13.7748662109375,-85.71600341796875,16.426000595092773,-31.52800178527832
1788678608199081700,13.791081787109375,-85.68800354003906,15.03800106048584,-31.13300132751465
1788678608215192600,13.807192626953125,-83.34000396728516,15.4660005569458,-30.928001403808594
1788678608231216000,13.823216064453124,-84.12600708007812,16.631999969482422,-31.93600082397461
1788678608247369500,13.839369384765625,-83.36200714111328,15.885001182556152,-31.638002395629883
1788678608263504600,13.855504638671874,-85.24000549316406,14.18600082397461,-30.73400115966797
1788678608279722200,13.87172216796875,-84.61600494384766,15.903000831604004,-30.41400146484375
1788678608295876000,13.8878759765625,-84.71600341796875,14.395000457763672,-31.038002014160156
1788678608311901700,13.903901611328125,-81.73100280761719,14.927000999450684,-30.935001373291016
1788678608328058000,13.92005810546875,-83.01000213623047,15.255001068115234,-30.625001907348633
1788678608344197400,13.936197265625,-83.10100555419922,14.941000938415527,-30.11800193786621
1788678608360410600,13.95241064453125,-84.38600158691406,14.40000057220459,-30.631000518798828
1788678608376520700,13.968520751953125,-83.32100677490234,15.045001029968262,-30.321001052856445
1788678608392547000,13.984547119140625,-84.94900512695312,14.492000579833984,-31.852001190185547
1788678608408711700,14.000711669921875,-84.1500015258789,13.873001098632812,-29.923002243041992
1788678608424854000,14.01685400390625,-84.17100524902344,14.617000579833984,-30.42500114440918
1788678608441069300,14.0330693359375,-83.07600402832031,13.983000755310059,-29.61800193786621
1788678608457182200,14.04918212890625,-84.01800537109375,13.24000072479248,-29.215002059936523
1788678608473207800,14.065207763671875,-83.28300476074219,14.312000274658203,-29.10500144958496
1788678608489365200,14.081365234375,-84.87800598144531,13.670001029968262,-29.211000442504883
1788678608505520600,14.097520751953125,-83.8060073852539,13.022000312805176,-29.421001434326172
1788678608521736200,14.113736083984374,-84.02400207519531,14.641000747680664,-28.59200096130371
1788678608537842400,14.129842529296875,-84.55900573730469,14.749000549316406,-28.590002059936523
1788678608553903400,14.1459033203125,-84.54400634765625,13.677000999450684,-28.60000228881836
1788678608570067000,14.16206689453125,-84.02800750732422,13.666000366210938,-29.415000915527344
1788678608586223400,14.178223388671874,-83.58300018310547,13.35200023651123,-28.808000564575195
1788678608602441700,14.194441650390624,-85.60400390625,13.25200080871582,-28.500001907348633
1788678608618549800,14.2105498046875,-82.61700439453125,13.78600025177002,-28.296001434326172
1788678608634569700,14.22656982421875,-85.69600677490234,13.044000625610352,-27.99300193786621
1788678608650714400,14.24271435546875,-83.66900634765625,12.500000953674316,-28.407001495361328
1788678608666839600,14.258839599609376,-84.1050033569336,13.792000770568848,-27.988000869750977
1788678608683056400,14.275056396484375,-82.39900207519531,13.140000343322754,-28.505001068115234
1788678608699167200,14.291167236328125,-83.23800659179688,12.50200080871582,-28.20400047302246
1788678608715192300,14.3071923828125,-82.62300109863281,14.214000701904297,-28.292001724243164
1788678608731378700,14.323378662109375,-83.0570068359375,13.887001037597656,-28.803001403808594
1788678608747508000,14.339508056640625,-84.13300323486328,14.316000938415527,-28.900001525878906
1788678608763725600,14.3557255859375,-82.39500427246094,12.818000793457031,-28.50800132751465
1788678608779839200,14.371839111328125,-83.87300109863281,12.938000679016113,-27.690000534057617
1788678608795865900,14.387865966796875,-81.73100280761719,12.831000328063965,-27.490001678466797
1788678608812024800,14.40402490234375,-84.52100372314453,11.963000297546387,-28.615001678466797
1788678608828168000,14.42016796875,-83.70600128173828,13.018000602722168,-29.727001190185547
1788678608844385500,14.436385498046874,-83.57600402832031,13.140000343322754,-28.606000900268555
1788678608860499500,14.45249951171875,-83.24500274658203,11.741000175476074,-29.0260009765625
1788678608876525800,14.46852587890625,-83.59200286865234,14.319000244140625,-28.595001220703125
1788678608892693800,14.48469384765625,-82.79100036621094,13.378000259399414,-26.7710018157959
1788678608908823800,14.50082373046875,-83.13800048828125,13.03800106048584,-28.200000762939453
1788678608925040400,14.517040283203125,-83.68400573730469,12.27500057220459,-29.224000930786133
1788678608941150000,14.53314990234375,-83.45100402832031,11.314000129699707,-28.928001403808594
1788678608957206800,14.549206787109375,-83.13400268554688,13.580000877380371,-27.68600082397461
1788678608973377300,14.565377197265626,-82.25200653076172,12.515000343322754,-27.08500099182129
1788678608989567700,14.581567626953126,-84.0780029296875,12.511000633239746,-27.59200096130371
1788678609005783300,14.597783203125,-84.59900665283203,12.521000862121582,-26.98000144958496
1788678609021902300,14.61390234375,-85.57000732421875,12.29900074005127,-27.59200096130371
1788678609037959200,14.629959228515625,-83.32100677490234,11.976000785827637,-27.496002197265625
1788678609054125600,14.64612548828125,-85.47900390625,14.235000610351562,-27.066001892089844
1788678609070272300,14.662272216796875,-84.0050048828125,12.27500057220459,-29.224000930786133
1788678609086486300,14.678486328125,-84.83700561523438,13.154000282287598,-27.687002182006836
1788678609102593500,14.694593505859375,-83.99300384521484,12.282000541687012,-28.715002059936523
1788678609118612500,14.710612548828125,-85.82400512695312,11.087000846862793,-30.149002075195312
1788678609134799600,14.726799560546874,-84.31100463867188,11.744000434875488,-28.923002243041992
1788678609150930700,14.7429306640625,-84.85700225830078,12.926000595092773,-28.7080020904541
1788678609167147000,14.75914697265625,-84.31500244140625,11.52500057220459,-29.23000144958496
1788678609183258600,14.775258544921876,-84.45000457763672,12.91300106048584,-29.625001907348633
1788678609199283700,14.79128369140625,-83.2550048828125,13.572000503540039,-28.297000885009766
1788678609215435300,14.807435302734374,-82.02200317382812,10.363000869750977,-27.715002059936523
1788678609231565800,14.82356591796875,-82.62800598144531,12.266000747680664,-29.735000610351562
1788678609247781600,14.83978173828125,-83.4520034790039,12.718000411987305,-28.100000381469727
1788678609263892700,14.855892822265625,-83.23100280761719,11.209000587463379,-28.72500228881836
1788678609279913000,14.871912841796876,-85.08100128173828,12.920001029968262,-29.21700096130371
1788678609296072700,14.88807275390625,-85.0780029296875,13.030000686645508,-29.012001037597656
1788678609312212500,14.90421240234375,-83.60100555419922,11.179000854492188,-30.966001510620117
1788678609328425500,14.920425537109375,-82.09100341796875,12.699000358581543,-29.325000762939453
1788678609344536800,14.936536865234375,-82.40400695800781,12.813000679016113,-28.91600227355957
1788678609360562400,14.9525625,-84.00900268554688,11.624000549316406,-29.841001510620117
1788678609376735500,14.968735595703125,-83.4520034790039,12.718000411987305,-28.100000381469727
1788678609392886300,14.98488623046875,-82.25800323486328,11.971000671386719,-27.70100212097168
1788678609409100800,15.001100830078125,-83.86500549316406,11.863000869750977,-28.005001068115234
1788678609425211600,15.017211669921876,-83.8800048828125,13.474000930786133,-27.68600082397461
1788678609441236000,15.033236083984375,-83.53600311279297,11.219000816345215,-28.011001586914062
1788678609457411300,15.049411376953126,-82.04800415039062,11.753000259399414,-28.009000778198242
1788678609473569000,15.065569091796876,-83.67100524902344,12.82300090789795,-28.303001403808594
1788678609489786000,15.0817861328125,-82.6820068359375,10.569000244140625,-28.426000595092773
1788678609505892600,15.097892578125,-82.46600341796875,11.219000816345215,-27.911001205444336
1788678609521918500,15.11391845703125,-81.427001953125,11.848000526428223,-28.82400131225586
1788678609538100000,15.130099853515626,-81.84300231933594,11.207000732421875,-28.727001190185547
1788678609554210000,15.1462099609375,-83.11300659179688,12.188000679016113,-27.59600067138672
1788678609570430000,15.162429931640625,-83.12300109863281,11.426000595092773,-28.520000457763672
1788678609586542300,15.178542236328125,-82.35100555419922,10.467000961303711,-28.020000457763672
1788678609602557700,15.1945576171875,-83.61100769042969,9.617000579833984,-27.61800193786621
1788678609618699800,15.21069970703125,-83.74200439453125,10.359000205993652,-28.22300148010254
1788678609634847500,15.226847412109375,-83.51000213623047,10.370000839233398,-27.408000946044922
1788678609651060000,15.24306005859375,-84.67000579833984,9.949000358581543,-27.003002166748047
1788678609667166000,15.259166015625,-82.44000244140625,10.154000282287598,-27.411001205444336
1788678609683225300,15.275225341796874,-82.71700286865234,8.883000373840332,-26.301000595092773
1788678609699408400,15.291408447265624,-82.28700256347656,8.020000457763672,-26.71700096130371
1788678609715567600,15.307567626953125,-83.47500610351562,9.3100004196167,-26.500001907348633
1788678609731778600,15.323778564453125,-81.97100067138672,8.98900032043457,-26.301000595092773
1788678609747895300,15.339895263671876,-81.5270004272461,8.242000579833984,-26.003002166748047
1788678609763911000,15.355910888671875,-81.44600677490234,9.956000328063965,-26.090002059936523
1788678609780064300,15.372064208984375,-80.49400329589844,9.085000038146973,-27.016000747680664
1788678609796201500,15.388201416015624,-83.37000274658203,8.120000839233398,-27.32600212097168
1788678609812415700,15.404415771484375,-81.23200225830078,9.74000072479248,-26.194002151489258
1788678609828526300,15.4205263671875,-82.85900115966797,8.646000862121582,-28.035001754760742
1788678609844550100,15.436550048828124,-81.14300537109375,9.51300048828125,-27.113000869750977
1788678609860716300,15.45271630859375,-81.98400115966797,8.440999984741211,-27.22300148010254
1788678609876865000,15.468864990234374,-81.43500518798828,7.4770002365112305,-27.130001068115234
1788678609893077200,15.4850771484375,-82.62300109863281,7.7950005531311035,-27.534000396728516
1788678609909187300,15.501187255859374,-82.09100341796875,7.468000411987305,-27.843000411987305
1788678609925210400,15.51721044921875,-83.39000701904297,8.756999969482422,-27.830001831054688
1788678609941380900,15.533380859375,-81.14400482177734,8.432000160217285,-27.83500099182129
1788678609957534700,15.54953466796875,-82.1780014038086,7.157000541687012,-27.132001876831055
1788678609973748200,15.565748291015625,-83.2560043334961,7.909000396728516,-27.124000549316406
1788678609989858300,15.5818583984375,-81.79500579833984,8.426000595092773,-28.34400177001953
1788678610005881000,15.597881103515626,-83.62100219726562,8.315000534057617,-28.852001190185547
1788678610022066200,15.614066162109374,-83.0790023803711,9.723000526428223,-27.61800193786621
1788678610038180900,15.630180908203124,-83.0790023803711,7.454000473022461,-29.064001083374023
1788678610054370300,15.646370361328126,-82.45600128173828,9.063000679016113,-28.847002029418945
1788678610070472700,15.66247265625,-82.51200103759766,7.689000129699707,-27.433000564575195
1788678610086496000,15.67849609375,-81.78800201416016,6.701000213623047,-29.07200050354004
1788678610102669000,15.6946689453125,-80.70800018310547,7.139000415802002,-28.255001068115234
1788678610118824400,15.710824462890624,-81.37200164794922,7.6670002937316895,-28.96200180053711
1788678610135037000,15.727036865234375,-81.71400451660156,8.086000442504883,-29.671001434326172
1788678610151145700,15.743145751953126,-83.3740005493164,7.253000259399414,-28.047000885009766
1788678610167167200,15.759167236328125,-82.85100555419922,7.03000020980835,-28.661001205444336
1788678610183312000,15.775311767578126,-81.9260025024414,7.65500020980835,-29.87900161743164
1788678610199475500,15.791475341796875,-82.12800598144531,7.338000297546387,-29.57600212097168
1788678610215688200,15.807688232421874,-83.1050033569336,7.654000282287598,-30.08100128173828
1788678610231791400,15.823791259765626,-81.25700378417969,6.591000080108643,-29.27800178527832
1788678610247846700,15.8398466796875,-82.45500183105469,6.362000465393066,-30.501001358032227
1788678610264033000,15.856032958984375,-80.94900512695312,6.150000095367432,-30.097002029418945
1788678610280200000,15.872199951171876,-79.87200164794922,5.830000400543213,-29.897001266479492
1788678610296415200,15.888415283203125,-82.01300048828125,5.938000202178955,-30.097002029418945
1788678610312535800,15.904535888671875,-81.2490005493164,6.163000106811523,-29.180002212524414
1788678610328561000,15.920560791015625,-82.4260025024414,4.218000411987305,-30.520002365112305
1788678610344725800,15.936725830078124,-80.93900299072266,6.4800004959106445,-29.483001708984375
1788678610360875300,15.952875244140625,-79.46600341796875,6.897000312805176,-30.194002151489258
1788678610377087200,15.969087158203125,-79.23300170898438,5.936000347137451,-29.897001266479492
1788678610393196800,15.98519677734375,-78.90800476074219,5.61400032043457,-29.900001525878906
1788678610409221600,16.0012216796875,-79.13600158691406,7.010000228881836,-29.684001922607422
1788678610425397500,16.0173974609375,-79.2490005493164,6.7910003662109375,-30.093002319335938
1788678610441507300,16.03350732421875,-80.85600280761719,6.033000469207764,-30.81100082397461
1788678610457721900,16.049721923828123,-80.01600646972656,5.267000198364258,-31.939001083374023
1788678610473832000,16.06583203125,-79.28900146484375,7.199000358581543,-31.61800193786621
1788678610489854000,16.08185400390625,-79.48400115966797,6.6700005531311035,-31.113000869750977
1788678610506036500,16.098036376953125,-79.47300720214844,6.029000282287598,-31.01700210571289
1788678610522141200,16.11414111328125,-78.97000122070312,6.9810004234313965,-31.82400131225586
1788678610538355500,16.13035546875,-80.29900360107422,4.8580002784729,-30.51700210571289
1788678610554464800,16.14646484375,-79.67000579833984,5.066000461578369,-30.923002243041992
1788678610570488600,16.162488525390625,-80.6520004272461,6.3520002365112305,-31.012001037597656
1788678610586630000,16.1786298828125,-79.35000610351562,5.065000057220459,-30.923002243041992
1788678610602747600,16.19474755859375,-80.11000061035156,4.951000213623047,-31.535001754760742
1788678610618964500,16.210964599609376,-78.91000366210938,5.288000106811523,-30.209001541137695
1788678610635078000,16.227077880859376,-79.11400604248047,4.1060004234313965,-30.525001525878906
1788678610651103000,16.24310302734375,-79.031005859375,5.496000289916992,-30.716001510620117
1788678610667255600,16.259255615234373,-81.35900115966797,4.432000160217285,-30.417001724243164
1788678610683394600,16.27539453125,-80.29900360107422,3.885000228881836,-31.136001586914062
1788678610699609600,16.291609619140626,-80.10900115966797,5.924000263214111,-30.915000915527344
1788678610715721500,16.307721435546874,-80.19700622558594,5.179000377655029,-30.514001846313477
1788678610731774200,16.323774169921876,-80.00200653076172,4.087000370025635,-32.052001953125
1788678610747946200,16.3399462890625,-79.75800323486328,3.997000217437744,-30.729001998901367
1788678610764095200,16.35609521484375,-78.03400421142578,4.328000068664551,-29.81100082397461
1788678610780311300,16.372311279296873,-80.18000030517578,3.7850000858306885,-30.628002166748047
1788678610796425500,16.388425537109374,-80.62700653076172,4.0970001220703125,-31.338001251220703
1788678610812484400,16.404484375,-81.36500549316406,5.725000381469727,-29.8960018157959
1788678610828653600,16.420653564453126,-82.3080062866211,4.765000343322754,-29.700000762939453
1788678610844801300,16.43680126953125,-81.63900756835938,4.997000217437744,-28.273000717163086
1788678610861019100,16.45301904296875,-82.0510025024414,3.7110002040863037,-28.38500213623047
1788678610877136400,16.469136474609375,-81.66000366210938,4.228000164031982,-29.705001831054688
1788678610893161700,16.48516162109375,-81.5580062866211,5.198000431060791,-29.290000915527344
1788678610909343700,16.50134375,-80.5780029296875,4.019000053405762,-29.19900131225586
1788678610925463000,16.517463134765624,-79.9540023803711,3.575000286102295,-30.22300148010254
1788678610941677600,16.533677490234375,-78.8810043334961,3.0360002517700195,-30.33100128173828
1788678610957788700,16.54978857421875,-81.6310043334961,2.949000120162964,-29.207000732421875
1788678610973812700,16.565812744140626,-81.76800537109375,4.76800012588501,-29.395000457763672
1788678610989992400,16.581992431640625,-81.50000762939453,3.17900013923645,-27.983001708984375
1788678611006110200,16.598110107421874,-80.79600524902344,2.17900013923645,-30.540000915527344
1788678611022326000,16.614325927734374,-81.12800598144531,3.686000108718872,-30.11800193786621
1788678611038432800,16.630432861328124,-81.89000701904297,3.246000051498413,-31.038002014160156
1788678611054492000,16.646491943359376,-79.7090072631836,2.621000051498413,-29.417001724243164
1788678611070641700,16.6626416015625,-79.93400573730469,2.615000009536743,-29.926000595092773
1788678611086769200,16.67876904296875,-83.67400360107422,4.131999969482422,-29.093002319335938
1788678611102984400,16.694984375,-82.17500305175781,2.511000156402588,-29.924001693725586
1788678611119097300,16.711097412109375,-82.8080062866211,2.949000120162964,-29.308000564575195
1788678611135119400,16.727119384765626,-82.0510025024414,3.2780001163482666,-28.69500160217285
1788678611151274200,16.743274169921875,-83.56300354003906,2.189000129699707,-30.12900161743164
1788678611167403500,16.759403564453127,-82.29000091552734,3.5870001316070557,-29.608001708984375
1788678611183601200,16.77560107421875,-82.06200408935547,3.379000186920166,-29.101001739501953
1788678611199713000,16.791713134765626,-83.47500610351562,4.015000343322754,-29.8070011138916
1788678611215736300,16.807736328125,-80.77200317382812,3.5990002155303955,-28.59200096130371
1788678611231899400,16.8238994140625,-82.72700500488281,4.014000415802002,-29.808000564575195
1788678611248079600,16.84007958984375,-81.47200012207031,4.104000091552734,-30.929000854492188
1788678611264296700,16.856296630859376,-82.51100158691406,4.123000144958496,-29.60300064086914
1788678611280406800,16.87240673828125,-81.42100524902344,3.378000259399414,-29.102001190185547
1788678611296432400,16.888432373046875,-81.67100524902344,3.3570001125335693,-30.73200225830078
1788678611312606200,16.904606201171877,-80.38700103759766,3.3560001850128174,-30.632001876831055
1788678611328760000,16.920760009765626,-81.56000518798828,3.0350000858306885,-30.735000610351562
1788678611344974800,16.936974853515625,-82.5270004272461,3.681000232696533,-30.626001358032227
1788678611361084200,16.953084228515625,-82.06700134277344,3.2680001258850098,-29.408000946044922
1788678611377141200,16.969141357421876,-82.71600341796875,3.372000217437744,-29.71200180053711
1788678611393308700,16.98530859375,-84.66600036621094,4.547000408172607,-30.2080020904541
1788678611409452800,17.001452880859375,-82.27200317382812,2.625000238418579,-29.413002014160156
1788678611425672000,17.017671875,-82.70600128173828,3.81000018119812,-28.9950008392334
1788678611441793300,17.033793212890625,-83.05000305175781,4.337000370025635,-29.703001022338867
1788678611457821700,17.04982177734375,-82.49400329589844,3.377000093460083,-29.304000854492188
1788678611474012200,17.06601220703125,-83.40400695800781,4.642000198364258,-31.024002075195312
1788678611490116400,17.082116455078125,-83.36100769042969,3.8030002117156982,-29.60500144958496
1788678611506331100,17.0983310546875,-85.27100372314453,3.1650002002716064,-29.507001876831055
1788678611522443300,17.114443359375,-83.1760025024414,4.434000015258789,-30.51700210571289
1788678611538467600,17.130467529296876,-82.7300033569336,3.9040002822875977,-30.01300048828125
1788678611554622500,17.14662255859375,-82.50200653076172,3.805000066757202,-29.40300178527832
1788678611570757600,17.162757568359375,-83.27900695800781,4.652000427246094,-30.209001541137695
1788678611586973000,17.178972900390626,-84.2280044555664,3.7960002422332764,-30.215002059936523
1788678611603088400,17.19508837890625,-83.2770004272461,4.978000164031982,-29.9010009765625
1788678611619115300,17.211115234375,-83.12600708007812,2.302000045776367,-29.619001388549805
1788678611635277000,17.227277099609374,-81.65900421142578,4.336000442504883,-29.60300064086914
1788678611651417300,17.243417236328124,-82.84500122070312,4.116000175476074,-30.214000701904297
1788678611667636500,17.259636474609376,-84.79000091552734,4.645000457763672,-30.920001983642578
1788678611683749400,17.275749267578124,-82.29200744628906,4.559000015258789,-29.091001510620117
1788678611699771600,17.291771728515624,-82.94000244140625,3.4740002155303955,-30.11800193786621
1788678611715942000,17.30794189453125,-82.3070068359375,4.6579999923706055,-29.70100212097168
1788678611732095700,17.324095703125,-82.55500030517578,5.177000045776367,-30.918001174926758
1788678611748315000,17.34031494140625,-82.11000061035156,4.539000034332275,-30.51700210571289
1788678611764430800,17.356430908203127,-81.86800384521484,3.1510002613067627,-30.12200164794922
1788678611780458000,17.3724580078125,-81.90300750732422,3.2380001544952393,-31.649002075195312
1788678611796636200,17.38863623046875,-82.08200073242188,3.1510002613067627,-30.12200164794922
1788678611812767500,17.404767578125,-80.81500244140625,3.248000144958496,-30.73400115966797
1788678611828978700,17.420978759765624,-81.2020034790039,2.949000120162964,-29.106000900268555
1788678611845088000,17.437087890625,-82.4320068359375,3.998000144958496,-30.929000854492188
1788678611861109200,17.453109130859374,-82.0790023803711,4.12600040435791,-29.400001525878906
1788678611877275600,17.469275634765626,-83.27400207519531,3.4670002460479736,-30.729001998901367
1788678611893390300,17.485390380859375,-79.73200225830078,3.9050002098083496,-29.60900115966797
1788678611909602000,17.50160205078125,-80.2750015258789,3.1430001258850098,-30.532001495361328
1788678611925712600,17.517712646484377,-78.86000061035156,2.8330001831054688,-29.518001556396484
1788678611941737000,17.533737060546876,-82.92400360107422,4.241000175476074,-28.889001846313477
1788678611957880300,17.54988037109375,-81.85600280761719,3.5910000801086426,-29.303001403808594
1788678611974004500,17.56600439453125,-81.64200592041016,4.23900032043457,-28.89000129699707
1788678611990220500,17.582220458984374,-82.03900146484375,4.0420002937316895,-27.66900062561035
1788678612006328300,17.598328369140624,-82.81300354003906,3.4860000610351562,-29.20100212097168
1788678612022354700,17.614354736328124,-82.27400207519531,4.894000053405762,-28.069002151489258
1788678612038500600,17.63050048828125,-81.06200408935547,2.8610000610351562,-27.681001663208008
1788678612054628400,17.64662841796875,-81.1810073852539,3.070000171661377,-28.086000442504883
1788678612070810600,17.662810546875,-81.20800018310547,3.9180002212524414,-28.792001724243164
1788678612086922200,17.678922119140626,-81.60200500488281,3.6150002479553223,-27.470001220703125
1788678612102946300,17.6949462890625,-81.91300201416016,2.9720001220703125,-27.475000381469727
1788678612119100000,17.711099853515623,-81.81200408935547,3.18500018119812,-27.575000762939453
1788678612135238100,17.727238037109377,-81.2020034790039,4.7860002517700195,-27.96900177001953
1788678612151454000,17.743453857421876,-81.70800018310547,3.7240002155303955,-27.367000579833984
1788678612167566600,17.759566650390624,-81.39300537109375,3.2880001068115234,-27.880001068115234
1788678612183592700,17.7755927734375,-81.88300323486328,2.126000165939331,-26.668001174926758
1788678612199753500,17.79175341796875,-80.08200073242188,3.628000259399414,-26.351001739501953
1788678612215897300,17.8078974609375,-79.4590072631836,3.4000000953674316,-27.2710018157959
1788678612232114700,17.82411474609375,-80.54000091552734,5.230000019073486,-26.744001388549805
1788678612248229400,17.8402294921875,-80.4990005493164,3.742000102996826,-25.840002059936523
1788678612264257000,17.856257080078127,-81.60200500488281,3.8310000896453857,-27.36600112915039
1788678612280429300,17.87242919921875,-82.9000015258789,4.039000034332275,-27.974000930786133
1788678612296583700,17.888583740234374,-82.86100769042969,3.5220000743865967,-26.552001953125
1788678612312800300,17.90480029296875,-81.8340072631836,3.820000171661377,-28.181001663208008
1788678612328911400,17.920911376953125,-81.69100189208984,2.6530001163482666,-27.275001525878906
1788678612344934400,17.936934326171876,-81.79300689697266,3.629000186920166,-26.45100212097168
1788678612361118000,17.953117919921876,-80.96500396728516,3.071000099182129,-27.985000610351562
1788678612377275100,17.969275146484375,-83.30400085449219,4.486000061035156,-26.645000457763672
1788678612393491200,17.9854912109375,-81.62500762939453,5.11400032043457,-27.558000564575195
1788678612409603600,18.001603515625,-83.00900268554688,4.361999988555908,-27.869001388549805
1788678612425631000,18.017630859375,-83.9530029296875,3.617000102996826,-27.569002151489258
1788678612441777000,18.03377685546875,-82.26900482177734,3.6000001430511475,-28.692001342773438
1788678612457903400,18.0499033203125,-82.8810043334961,3.943000078201294,-27.160001754760742
1788678612474116600,18.06611669921875,-83.54100036621094,3.7160000801086426,-28.180002212524414
1788678612490227700,18.082227783203123,-85.44000244140625,3.4080002307891846,-27.365001678466797
1788678612506250500,18.09825048828125,-83.54300689697266,5.660000324249268,-27.042001724243164
1788678612522397200,18.114397216796874,-84.51100158691406,5.333000183105469,-27.553001403808594
1788678612538528800,18.13052880859375,-82.81600189208984,4.674000263214111,-28.580001831054688
1788678612554740200,18.146740234375,-83.5560073852539,5.652000427246094,-27.65300178527832
1788678612570851000,18.16285107421875,-83.87200164794922,5.115000247955322,-27.759000778198242
1788678612586868500,18.178868408203126,-85.4780044555664,4.466000080108643,-28.374000549316406
1788678612603015200,18.19501513671875,-83.31800079345703,5.01800012588501,-26.946001052856445
1788678612619156000,18.211156005859376,-82.71000671386719,5.429000377655029,-28.16600227355957
1788678612635371000,18.22737109375,-84.0050048828125,5.207000255584717,-28.87900161743164
1788678612651482000,18.243482177734375,-83.43800354003906,4.146000385284424,-28.07400131225586
1788678612667506200,18.259506103515626,-83.8270034790039,6.482000350952148,-29.683000564575195
1788678612683676000,18.275676025390624,-84.83900451660156,4.248000144958496,-28.58100128173828
1788678612699820300,18.2918203125,-83.11100769042969,5.338000297546387,-27.045001983642578
1788678612716036400,18.308036376953126,-83.36500549316406,4.773000240325928,-29.189001083374023
1788678612732147000,18.32414697265625,-82.57500457763672,5.338000297546387,-26.944002151489258
1788678612748190700,18.340190673828126,-82.2820053100586,5.970000267028809,-27.75400161743164
1788678612764367600,18.35636767578125,-84.0270004272461,5.193000316619873,-29.898000717163086
1788678612780514600,18.3725146484375,-84.12000274658203,5.635000228881836,-28.977001190185547
1788678612796731100,18.388731201171876,-86.3790054321289,5.4120001792907715,-29.893001556396484
1788678612812847400,18.404847412109376,-82.25800323486328,4.255000114440918,-27.769001007080078
1788678612828875300,18.420875244140625,-82.49200439453125,5.75600004196167,-27.755001068115234
1788678612845065700,18.437065673828126,-84.85800170898438,4.669000148773193,-29.18800163269043
1788678612861191200,18.453191162109373,-82.28900146484375,5.209000110626221,-28.575000762939453
1788678612877405400,18.469405517578124,-84.60400390625,4.369000434875488,-27.56100082397461
1788678612893517300,18.485517333984376,-83.781005859375,4.672000408172607,-28.782001495361328
1788678612909543000,18.50154296875,-84.42100524902344,4.565999984741211,-28.782001495361328
1788678612925688800,18.517688720703124,-83.33900451660156,4.897000312805176,-27.966001510620117
1788678612941807900,18.533807861328125,-82.95500183105469,6.492000102996826,-28.869001388549805
1788678612958020900,18.550020751953124,-83.36500549316406,5.746000289916992,-28.569002151489258
1788678612974125300,18.566125244140625,-84.10800170898438,6.61400032043457,-27.84800148010254
1788678612990148900,18.58214892578125,-83.4320068359375,5.554000377655029,-26.941001892089844
1788678613006299400,18.59829931640625,-81.97100067138672,5.531000137329102,-28.47100067138672
1788678613022462200,18.614462158203125,-83.74700164794922,6.314000129699707,-26.22100067138672
1788678613038678000,18.630677978515624,-81.85900115966797,5.642000198364258,-28.165000915527344
1788678613054788600,18.64678857421875,-83.79100036621094,5.531000137329102,-28.673002243041992
1788678613070815700,18.662815673828124,-84.5320053100586,5.5360002517700195,-28.36600112915039
1788678613086979600,18.6789794921875,-82.16200256347656,4.896000385284424,-27.865001678466797
1788678613103121700,18.69512158203125,-83.531005859375,5.775000095367432,-26.43000030517578
1788678613119336400,18.71133642578125,-85.02300262451172,6.103000164031982,-26.119001388549805
1788678613135442400,18.7274423828125,-84.08800506591797,6.302000522613525,-27.137001037597656
1788678613151466800,18.743466796875,-83.07600402832031,5.7910003662109375,-25.2080020904541
1788678613167625500,18.75962548828125,-85.01900482177734,5.457000255584717,-26.32900047302246
1788678613183764700,18.7757646484375,-84.78400421142578,5.254000186920166,-25.516000747680664
1788678613199982000,18.791982177734376,-81.81600189208984,6.317000389099121,-25.816001892089844
1788678613216105200,18.808105224609374,-84.07100677490234,5.772000312805176,-26.735000610351562
1788678613232135200,18.82413525390625,-84.26400756835938,4.5960001945495605,-26.541000366210938
1788678613248307500,18.840307373046876,-85.99700164794922,6.205000400543213,-26.626001358032227
1788678613264460500,18.85646044921875,-83.94300079345703,5.677000045776367,-25.819002151489258
1788678613280678400,18.872678466796874,-82.43000030517578,5.685000419616699,-25.006000518798828
1788678613296792000,18.8887919921875,-81.59700012207031,5.779000282287598,-25.92300033569336
1788678613312816000,18.904816162109373,-83.06300354003906,4.502000331878662,-25.42300033569336
1788678613328995800,18.920995849609376,-82.84000396728516,5.4800004959106445,-24.3960018157959
1788678613345105200,18.937105224609375,-83.4780044555664,4.618000030517578,-24.810001373291016
1788678613361321700,18.95332177734375,-83.72400665283203,5.464000225067139,-25.71900177001953
1788678613377436700,18.969436767578124,-83.42900085449219,3.891000270843506,-23.08500099182129
1788678613393466000,18.985466064453124,-83.39300537109375,6.334000110626221,-24.69300079345703
1788678613409609000,19.00160888671875,-81.97900390625,5.267000198364258,-24.19500160217285
1788678613425732000,19.017732177734374,-83.44100189208984,5.073000431060791,-22.871000289916992
1788678613441947100,19.033947021484376,-83.71000671386719,5.25600004196167,-25.21200180053711
1788678613458059000,19.05005908203125,-83.88600158691406,5.711000442504883,-23.272001266479492
1788678613474084000,19.066083984375,-83.156005859375,6.456000328063965,-23.57200050354004
1788678613490234600,19.082234619140625,-82.18900299072266,5.053000450134277,-24.19700050354004
1788678613506368500,19.098368408203125,-82.93700408935547,5.054000377655029,-24.196001052856445
1788678613522582300,19.114582275390624,-83.80500030517578,5.587000370025635,-24.496000289916992
1788678613538691000,19.130691162109375,-84.11000061035156,6.462000370025635,-23.26500129699707
1788678613554716200,19.146716064453123,-83.77000427246094,5.50100040435791,-22.968000411987305
1788678613570839000,19.162839111328125,-81.96900177001953,5.057000160217285,-23.891000747680664
1788678613586982000,19.17898193359375,-83.47700500488281,5.375000476837158,-24.29400062561035
1788678613603190800,19.195190673828126,-82.46900177001953,5.078000068664551,-22.363000869750977
1788678613619304200,19.21130419921875,-80.48700714111328,5.803000450134277,-23.988000869750977
1788678613635362300,19.2273623046875,-83.42300415039062,4.220000267028809,-22.573001861572266
1788678613651514400,19.243514404296874,-83.01600646972656,4.531000137329102,-23.283000946044922
1788678613667695600,19.259695556640626,-82.81000518798828,4.094000339508057,-23.899002075195312
1788678613683910100,19.27591015625,-82.18400573730469,5.48900032043457,-23.684001922607422
1788678613700018200,19.29201806640625,-83.89100646972656,5.708000183105469,-23.476001739501953
1788678613716073500,19.308073486328126,-84.62600708007812,6.14900016784668,-22.6560001373291
1788678613732241200,19.3242412109375,-81.2820053100586,5.300000190734863,-21.64900016784668
1788678613748388400,19.340388427734375,-85.29100036621094,7.216000556945801,-23.053001403808594
1788678613764602000,19.35660205078125,-83.87600708007812,4.961000442504883,-23.279001235961914
1788678613780713500,19.37271337890625,-82.8340072631836,6.02400016784668,-23.780000686645508
1788678613796739600,19.388739501953125,-84.71600341796875,5.403000354766846,-22.35700035095215
1788678613812924200,19.404924072265626,-83.16200256347656,6.236000061035156,-23.981000900268555
1788678613829039600,19.42103955078125,-83.05500030517578,5.9120001792907715,-24.18800163269043
1788678613845252900,19.4372529296875,-82.0050048828125,6.008000373840332,-24.902000427246094
1788678613861365500,19.453365478515625,-83.37000274658203,6.02400016784668,-23.881000518798828
1788678613877391600,19.4693916015625,-82.63600158691406,6.338000297546387,-24.28700065612793
1788678613893538300,19.485538330078125,-81.24700164794922,5.25600004196167,-24.909000396728516
1788678613909659000,19.501658935546875,-82.34500122070312,6.969000339508057,-25.198001861572266
1788678613925874200,19.517874267578126,-81.79400634765625,6.2220001220703125,-24.900001525878906
1788678613941983500,19.5339833984375,-84.44800567626953,6.560000419616699,-23.977001190185547
1788678613958011000,19.550010986328125,-82.31200408935547,4.719000339508057,-25.11600112915039
1788678613974164000,19.5661640625,-83.19700622558594,6.107000350952148,-25.612001419067383
1788678613990299000,19.582298828125,-81.58600616455078,6.110000133514404,-25.207000732421875
1788678614006514700,19.5985146484375,-81.37600708007812,5.243000030517578,-25.928001403808594
1788678614022629000,19.614629150390623,-81.39100646972656,4.802000045776367,-26.84800148010254
1788678614038655500,19.630655517578123,-83.28700256347656,4.928000450134277,-25.623001098632812
1788678614054820600,19.646820556640623,-83.49300384521484,5.366000175476074,-25.007001876831055
1788678614070965200,19.66296533203125,-83.28300476074219,5.580000400543213,-25.006000518798828
1788678614087183000,19.67918310546875,-82.24300384521484,5.777000427246094,-26.126001358032227
1788678614103295500,19.69529541015625,-82.87300109863281,5.3520002365112305,-25.92500114440918
1788678614119320000,19.711320068359374,-82.89300537109375,5.664000034332275,-26.63500213623047
1788678614135486000,19.72748583984375,-80.54300689697266,4.796000003814697,-27.155000686645508
1788678614151632600,19.743632568359374,-81.81600189208984,5.128000259399414,-26.53900146484375
1788678614167827700,19.75982763671875,-83.72900390625,5.028000354766846,-26.23200035095215
1788678614183937500,19.7759375,-83.05900573730469,5.045000076293945,-24.909000396728516
1788678614199962400,19.79196240234375,-83.07500457763672,4.062000274658203,-26.242000579833984
1788678614216142000,19.80814208984375,-81.8010025024414,5.029000282287598,-25.929000854492188
1788678614232249900,19.824249755859373,-82.43500518798828,6.223000526428223,-24.899002075195312
1788678614248466400,19.840466552734377,-81.93900299072266,5.334000110626221,-27.149002075195312
1788678614264578000,19.856578125,-82.89900207519531,5.12000036239624,-27.251001358032227
1788678614280603000,19.872602783203124,-82.44600677490234,5.3520002365112305,-25.92500114440918
1788678614296789500,19.88878955078125,-82.0250015258789,5.6710004806518555,-26.025001525878906
1788678614312932400,19.904932373046876,-82.34300231933594,4.809000015258789,-26.440000534057617
1788678614329152300,19.92115234375,-83.83500671386719,5.24500036239624,-26.027000427246094
1788678614345267200,19.93726708984375,-83.26500701904297,6.131000518798828,-23.880001068115234
1788678614361327000,19.9533271484375,-81.98800659179688,5.4770002365112305,-24.499000549316406
1788678614377474800,19.969474853515624,-82.86600494384766,4.384000301361084,-26.23900032043457
1788678614393594400,19.985594482421874,-82.00100708007812,4.713000297546387,-25.524002075195312
1788678614409810000,20.001809814453125,-84.02100372314453,3.749000072479248,-25.73400115966797
1788678614425923000,20.017923095703125,-82.58700561523438,3.450000047683716,-23.905000686645508
1788678614441951500,20.033951416015626,-81.78900146484375,3.8470001220703125,-26.143001556396484
1788678614458113500,20.050113525390625,-83.71500396728516,6.118000507354736,-24.898000717163086
1788678614474255400,20.06625537109375,-81.69600677490234,5.028000354766846,-26.031002044677734
1788678614490476300,20.082476318359376,-80.25900268554688,3.758000135421753,-24.61800193786621
1788678614506593000,20.098593017578125,-84.63300323486328,4.308000087738037,-24.09800148010254
1788678614522623700,20.114623779296874,-84.02800750732422,4.934000015258789,-25.316001892089844
1788678614538787000,20.130787109375,-82.8290023803711,4.298000335693359,-24.610000610351562
1788678614554932700,20.1469326171875,-82.16100311279297,3.3410000801086426,-24.00800132751465
1788678614571152100,20.163152099609373,-83.88400268554688,5.064000129699707,-23.58300018310547
1788678614587268900,20.179268798828126,-83.14800262451172,3.2190001010894775,-25.23000144958496
1788678614603298000,20.195298095703127,-82.39800262451172,3.8680002689361572,-24.716001510620117
1788678614619472100,20.21147216796875,-81.44100189208984,4.188000202178955,-24.715002059936523
1788678614635623400,20.22762353515625,-83.28700256347656,4.604000091552734,-25.82900047302246
1788678614651842000,20.243842041015625,-82.6240005493164,3.9680001735687256,-25.224000930786133
1788678614667954700,20.25995458984375,-82.21500396728516,5.254000186920166,-25.214000701904297
1788678614683980800,20.275980712890625,-84.33200073242188,3.755000114440918,-25.32600212097168
1788678614700140300,20.292140380859376,-82.302001953125,3.9690001010894775,-25.123001098632812
1788678614716258600,20.308258544921873,-84.01800537109375,4.183000087738037,-25.323001861572266
1788678614732477200,20.324477294921873,-84.44100189208984,3.430000066757202,-25.634000778198242
1788678614748593000,20.340593017578126,-84.00300598144531,3.327000141143799,-25.22800064086914
1788678614764642800,20.356642822265623,-81.36700439453125,4.384000301361084,-26.03700065612793
1788678614780836900,20.3728369140625,-83.25200653076172,3.869000196456909,-24.715002059936523
1788678614796958000,20.3889580078125,-82.0060043334961,2.765000104904175,-26.968000411987305
1788678614813177600,20.405177490234376,-80.6810073852539,2.7890000343322754,-25.034000396728516
1788678614829293600,20.42129345703125,-83.49800109863281,3.4170000553131104,-26.45100212097168
1788678614845322500,20.437322509765625,-82.62000274658203,2.6740000247955322,-25.847002029418945
1788678614861506000,20.453506103515625,-84.01800537109375,3.751000165939331,-25.632001876831055
1788678614877637600,20.4696376953125,-81.77100372314453,4.50700044631958,-24.915000915527344
1788678614893858000,20.485858154296874,-82.63600158691406,3.63700008392334,-25.940000534057617
1788678614909969400,20.501969482421874,-83.52300262451172,4.375,-26.95100212097168
1788678614925990400,20.517990478515625,-80.83200073242188,3.195000171661377,-26.761001586914062
1788678614942141700,20.5341416015625,-80.52000427246094,4.054000377655029,-26.551000595092773
1788678614958272000,20.55027197265625,-80.51200103759766,2.6540000438690186,-27.07200050354004
1788678614974489900,20.56648974609375,-83.81200408935547,3.0980000495910645,-26.351001739501953
1788678614990601000,20.58260107421875,-80.51600646972656,3.3000001907348633,-26.863000869750977
1788678615006626600,20.59862646484375,-82.54200744628906,3.629000186920166,-26.552001953125
1788678615022788000,20.6147880859375,-83.10200500488281,4.37000036239624,-27.25800132751465
1788678615038929000,20.630928955078126,-82.86000061035156,3.4150002002716064,-26.553001403808594
1788678615055143400,20.647143310546873,-83.41100311279297,3.189000129699707,-27.47100067138672
1788678615071258000,20.663258056640625,-84.0770034790039,4.36400032043457,-27.86800193786621
1788678615087282400,20.679282470703125,-83.53300476074219,3.937000274658203,-27.668001174926758
1788678615103449300,20.695449462890625,-83.53700256347656,3.934000253677368,-27.87200164794922
1788678615119595300,20.71159521484375,-83.63900756835938,3.6130001544952393,-27.875001907348633
1788678615135810300,20.727810302734376,-82.99800109863281,3.072000026702881,-28.18600082397461
1788678615151923200,20.743923095703124,-81.80900573730469,2.9710001945495605,-27.577001571655273
1788678615167948500,20.759948486328124,-82.24800109863281,2.8560001850128174,-28.189001083374023
1788678615184120600,20.77612060546875,-80.32400512695312,2.746000051498413,-28.192001342773438
