time,seconds_elapsed,z,y,x
1788678594574275000,0.166275146484375,2.3530001640319824,-47.32100296020508,20.52400016784668
1788678594590521000,0.18252099609375,-14.973000526428223,-36.17900085449219,-21.52800178527832
1788678594606731500,0.1987314453125,-16.260000228881836,-35.749000549316406,-21.522001266479492
1788678594622863600,0.214863525390625,-15.86500072479248,-35.553001403808594,-22.845001220703125
1788678594638913500,0.23091357421875,-15.070000648498535,-36.388999938964844,-21.224000930786133
1788678594655068400,0.247068359375,-13.618000984191895,-36.09400177001953,-22.955001831054688
1788678594671177200,0.26317724609375,-15.26400089263916,-36.91800308227539,-20.71900177001953
1788678594687392300,0.279392333984375,-14.32300090789795,-35.85100173950195,-20.915000915527344
1788678594703534800,0.295534912109375,-14.796000480651855,-35.986000061035156,-23.054000854492188
1788678594719609300,0.311609375,-13.063000679016113,-36.73100280761719,-22.452001571655273
1788678594735758600,0.327758544921875,-13.499000549316406,-35.76300048828125,-22.23900032043457
1788678594751900000,0.34389990234375,-12.43600082397461,-36.41600036621094,-22.85700035095215
1788678594768114000,0.360114013671875,-13.272000312805176,-36.94300079345703,-22.352001190185547
1788678594784270300,0.376270263671875,-15.209000587463379,-35.86800003051758,-22.34000015258789
1788678594800303900,0.392303955078125,-13.508000373840332,-35.33500289916992,-22.33700180053711
1788678594816452900,0.408452880859375,-13.703001022338867,-35,-21.315000534057617
1788678594832563200,0.424563232421875,-14.94800090789795,-36.4890022277832,-20.61400032043457
1788678594848783000,0.440783203125,-13.625000953674316,-34.04500198364258,-22.020000457763672
1788678594864901000,0.456901123046875,-12.920001029968262,-35.41200256347656,-19.996000289916992
1788678594880957400,0.47295751953125,-14.76400089263916,-35.967002868652344,-21.628000259399414
1788678594897109800,0.48910986328125,-14.552000999450684,-36.50800323486328,-22.041000366210938
1788678594913217800,0.5052177734375,-13.608000755310059,-35.980003356933594,-22.44500160217285
1788678594929434000,0.52143408203125,-13.393000602722168,-35.76300048828125,-22.23900032043457
1788678594945561900,0.537561767578125,-13.072000503540039,-35.979000091552734,-22.343000411987305
1788678594961620200,0.5536201171875,-12.640000343322754,-36.301002502441406,-22.347000122070312
1788678594977771500,0.569771484375,-12.303000450134277,-36.832000732421875,-21.944000244140625
1788678594993882000,0.585882080078125,-14.337000846862793,-35.967002868652344,-21.62900161743164
1788678595010097400,0.602097412109375,-13.04800033569336,-36.83000183105469,-21.84200096130371
1788678595026235100,0.618235107421875,-15.200000762939453,-36.512001037597656,-22.345001220703125
1788678595042293200,0.634293212890625,-13.26300048828125,-36.6140022277832,-21.738000869750977
1788678595058439200,0.650439208984375,-13.590001106262207,-36.617000579833984,-22.043001174926758
1788678595074546700,0.666546630859375,-13.15000057220459,-36.070003509521484,-21.12200164794922
1788678595090761500,0.682761474609375,-13.339000701904297,-37.13600158691406,-20.72300148010254
1788678595106903300,0.6989033203125,-13.015000343322754,-38.43000030517578,-21.34600067138672
1788678595122973400,0.714973388671875,-12.426000595092773,-35.329002380371094,-21.727001190185547
1788678595139123000,0.731123046875,-14.007000923156738,-37.1510009765625,-21.94500160217285
1788678595155230700,0.747230712890625,-11.648000717163086,-37.689002990722656,-21.851001739501953
1788678595171445500,0.763445556640625,-13.154000282287598,-37.26100158691406,-22.049001693725586
1788678595187596800,0.7795966796875,-13.25100040435791,-36.60700225830078,-21.22800064086914
1788678595203623200,0.795623046875,-13.366000175476074,-37.04300308227539,-21.843000411987305
1788678595219772400,0.8117724609375,-11.963000297546387,-37.79300308227539,-21.648000717163086
1788678595235885000,0.827885009765625,-13.053000450134277,-38.12900161743164,-22.87200164794922
1788678595252104400,0.8441044921875,-11.767000198364258,-37.69600296020508,-22.360000610351562
1788678595268265700,0.860265625,-14.308000564575195,-36.59800338745117,-20.71700096130371
1788678595284292900,0.87629296875,-12.687000274658203,-37.67000198364258,-20.525001525878906
1788678595300452600,0.89245263671875,-13.471000671386719,-37.79900360107422,-22.257001876831055
1788678595316571600,0.908571533203125,-11.558000564575195,-37.483001708984375,-22.46000099182129
1788678595332789500,0.92478955078125,-13.557001113891602,-37.354000091552734,-21.0310001373291
1788678595348913000,0.940912841796875,-14.082000732421875,-37.45600128173828,-20.725000381469727
1788678595364963000,0.956963134765625,-11.744000434875488,-37.034000396728516,-20.928001403808594
1788678595381111600,0.973111572265625,-13.590001106262207,-36.4010009765625,-21.939001083374023
1788678595397223700,0.9892236328125,-14.324000358581543,-36.39200210571289,-21.327001571655273
1788678595413443600,1.005443603515625,-12.600000381469727,-37.358001708984375,-21.236000061035156
1788678595429575000,1.021574951171875,-11.653000831604004,-37.04300308227539,-21.642000198364258
1788678595445633300,1.03763330078125,-14.649001121520996,-37.58300018310547,-22.25400161743164
1788678595461785900,1.053785888671875,-11.51300048828125,-37.78000259399414,-20.630001068115234
1788678595477899800,1.069899658203125,-13.248001098632812,-37.361000061035156,-21.540000915527344
1788678595494118400,1.086118408203125,-14.182001113891602,-37.34300231933594,-20.317001342773438
1788678595510255000,1.102255126953125,-13.158000946044922,-35.967002868652344,-21.426000595092773
1788678595526322000,1.118322021484375,-13.795001029968262,-37.36800003051758,-22.1510009765625
1788678595542473000,1.134472900390625,-13.142000198364258,-36.605003356933594,-21.126001358032227
1788678595558582800,1.150582763671875,-12.792000770568848,-38.10100173950195,-20.733001708984375
1788678595574799600,1.166799560546875,-13.221000671386719,-37.4530029296875,-20.421001434326172
1788678595590945000,1.182945068359375,-14.009000778198242,-36.50400161743164,-21.634000778198242
1788678595607020800,1.199020751953125,-14.22900104522705,-36.39900207519531,-21.836000442504883
1788678595623169800,1.215169677734375,-12.611001014709473,-35.95900344848633,-20.816001892089844
1788678595639280400,1.2312802734375,-13.242000579833984,-37.790000915527344,-21.54400062561035
1788678595655497500,1.24749755859375,-13.906001091003418,-36.93800354003906,-22.045001983642578
1788678595671646700,1.263646728515625,-13.908000946044922,-37.5880012512207,-22.560001373291016
1788678595687675100,1.279675048828125,-14.965001106262207,-37.040000915527344,-21.73900032043457
1788678595703826400,1.295826416015625,-13.6850004196167,-37.79900360107422,-22.257001876831055
1788678595719940400,1.3119404296875,-12.358000755310059,-38.422000885009766,-20.634000778198242
1788678595736159700,1.32815966796875,-12.601000785827637,-38.979000091552734,-22.269001007080078
1788678595752317700,1.344317626953125,-11.643000602722168,-38.44200134277344,-22.06100082397461
1788678595768354800,1.360354736328125,-11.770000457763672,-36.94200134277344,-22.04800033569336
1788678595784503600,1.376503662109375,-13.016000747680664,-38.86300277709961,-21.6560001373291
1788678595800612900,1.39261279296875,-14.834000587463379,-37.13300323486328,-20.72100067138672
1788678595816829200,1.4088291015625,-12.941000938415527,-37.694000244140625,-22.35900115966797
1788678595832949800,1.42494970703125,-13.91100025177002,-36.72500228881836,-22.145000457763672
1788678595849007400,1.44100732421875,-12.5910005569458,-37.677001953125,-21.035001754760742
1788678595865160000,1.457159912109375,-13.804000854492188,-36.72500228881836,-22.145000457763672
1788678595881257200,1.47325732421875,-13.65000057220459,-37.345001220703125,-20.41900062561035
1788678595897475600,1.4894755859375,-12.782000541687012,-37.3380012512207,-19.80900001525879
1788678595913603600,1.505603515625,-13.03600025177002,-37.25400161743164,-21.540000915527344
1788678595929661400,1.521661376953125,-13.664000511169434,-37.13800048828125,-20.927000045776367
1788678595945780200,1.5377802734375,-12.706000328063965,-37.573001861572266,-21.339000701904297
1788678595961888800,1.553888671875,-12.790000915527344,-38.42400360107422,-20.83700180053711
1788678595978105600,1.570105712890625,-13.566000938415527,-36.819000244140625,-21.128000259399414
1788678595994244600,1.58624462890625,-12.596000671386719,-38.00400161743164,-21.44500160217285
1788678596010307000,1.60230712890625,-13.042000770568848,-36.28499984741211,-21.226001739501953
1788678596026455600,1.61845556640625,-13.880001068115234,-36.81500244140625,-20.82200050354004
1788678596042567200,1.634567138671875,-14.076000213623047,-37.236000061035156,-20.316001892089844
1788678596058783200,1.650783203125,-15.568000793457031,-36.80000305175781,-19.90300178527832
1788678596074921000,1.6669208984375,-15.292000770568848,-36.71900177001953,-21.838001251220703
1788678596090991900,1.682991943359375,-14.391000747680664,-38.31300354003906,-20.73200035095215
1788678596107139600,1.6991396484375,-13.224000930786133,-37.2390022277832,-20.41900062561035
1788678596123251000,1.7152509765625,-12.793000221252441,-37.020999908447266,-20.112001419067383
1788678596139468300,1.73146826171875,-13.207000732421875,-38.20100021362305,-20.224000930786133
1788678596155617000,1.747616943359375,-13.891000747680664,-37.470001220703125,-21.744001388549805
1788678596171642400,1.763642333984375,-15.790000915527344,-37.02000045776367,-20.41400146484375
1788678596187790000,1.7797900390625,-14.928000450134277,-37.125,-20.110000610351562
1788678596203898000,1.795898193359375,-17.18000030517578,-36.91100311279297,-20.411001205444336
1788678596220113700,1.81211376953125,-15.387001037597656,-35.415000915527344,-20.50200080871582
1788678596236267000,1.82826708984375,-14.200000762939453,-36.70500183105469,-20.71900177001953
1788678596252294000,1.8442939453125,-15.134000778198242,-37.12000274658203,-19.804000854492188
1788678596268454400,1.860454345703125,-15.474000930786133,-36.051002502441406,-19.998001098632812
1788678596284567600,1.876567626953125,-13.637001037597656,-38.09400177001953,-20.32400131225586
1788678596300787000,1.892786865234375,-15.474000930786133,-37.02400207519531,-20.618000030517578
1788678596316906800,1.90890673828125,-16.648000717163086,-36.2650032043457,-20.100000381469727
1788678596332953300,1.924953369140625,-15.821001052856445,-36.28200149536133,-21.32400131225586
1788678596349099000,1.94109912109375,-15.167000770568848,-37.24800109863281,-21.33300018310547
1788678596365212000,1.9572119140625,-15.801000595092773,-37.027000427246094,-20.92300033569336
1788678596381428700,1.9734287109375,-15.13800048828125,-37.3390007019043,-20.112001419067383
1788678596397559600,1.9895595703125,-15.585000991821289,-36.702003479003906,-20.615001678466797
1788678596413621800,2.005621826171875,-16.767000198364258,-36.380001068115234,-20.71200180053711
1788678596429772500,2.0217724609375,-14.492000579833984,-36.58000183105469,-19.393001556396484
1788678596445880600,2.037880615234375,-13.868000984191895,-37.34800338745117,-20.623001098632812
1788678596462093000,2.054093017578125,-16.21500015258789,-36.694000244140625,-20.10500144958496
1788678596478224100,2.07022412109375,-15.362000465393066,-37.56100082397461,-20.725000381469727
1788678596494281700,2.08628173828125,-18.145000457763672,-36.5880012512207,-20.407001495361328
1788678596510430000,2.102429931640625,-13.680000305175781,-35.85000228881836,-20.81300163269043
1788678596526541300,2.118541259765625,-14.5260009765625,-36.92500305175781,-21.12700080871582
1788678596542758700,2.134758544921875,-14.309000968933105,-37.031002044677734,-21.027000427246094
1788678596558907000,2.150906982421875,-14.067000389099121,-37.12200164794922,-19.806001663208008
1788678596574934300,2.166934326171875,-13.680000305175781,-36.499000549316406,-21.227001190185547
1788678596591082200,2.183082275390625,-12.545001029968262,-37.75699996948242,-18.998001098632812
1788678596607190500,2.1991904296875,-14.340001106262207,-37.374000549316406,-22.660001754760742
1788678596623404800,2.21540478515625,-13.965001106262207,-35.93600082397461,-19.286001205444336
1788678596639555600,2.2315556640625,-15.796000480651855,-37.888999938964844,-21.236000061035156
1788678596655589400,2.24758935546875,-15.803000450134277,-36.59600067138672,-20.716001510620117
1788678596671737900,2.26373779296875,-14.283000946044922,-36.58300018310547,-19.597000122070312
1788678596687848200,2.27984814453125,-15.367000579833984,-37.02400207519531,-20.618000030517578
1788678596704066000,2.296066162109375,-15.562000274658203,-38.525001525878906,-20.733001708984375
1788678596720228600,2.312228515625,-14.743000984191895,-36.819000244140625,-21.22800064086914
1788678596736269800,2.328269775390625,-15.903000831604004,-36.592002868652344,-20.410001754760742
1788678596752420000,2.344420166015625,-15.485000610351562,-36.27300262451172,-20.611000061035156
1788678596768559000,2.36055908203125,-16.84000015258789,-37.656002044677734,-20.010000228881836
1788678596784773400,2.3767734375,-16.520000457763672,-38.41400146484375,-20.527000427246094
1788678596800923400,2.39292333984375,-15.78700065612793,-37.23500061035156,-20.416000366210938
1788678596816985000,2.408985107421875,-14.893000602722168,-37.320003509521484,-18.68600082397461
1788678596833131500,2.425131591796875,-15.370000839233398,-37.025001525878906,-20.720001220703125
1788678596849241900,2.441241943359375,-15.117000579833984,-37.5420036315918,-19.299001693725586
1788678596865460700,2.457460693359375,-15.369000434875488,-36.592002868652344,-20.410001754760742
1788678596881591600,2.473591552734375,-15.417000770568848,-38.39400100708008,-18.898000717163086
1788678596897639400,2.489639404296875,-14.270000457763672,-37.22300338745117,-19.39900016784668
1788678596913790000,2.5057900390625,-16.541000366210938,-36.913002014160156,-20.514001846313477
1788678596929899000,2.52189892578125,-13.724000930786133,-38.082000732421875,-19.407001495361328
1788678596946112300,2.5381123046875,-14.314001083374023,-36.49400329589844,-20.920000076293945
1788678596962251000,2.5542509765625,-14.50200080871582,-37.34300231933594,-20.316001892089844
1788678596978318000,2.570318115234375,-15.873001098632812,-36.57400131225586,-19.08500099182129
1788678596994469000,2.58646923828125,-15.894001007080078,-37.23500061035156,-20.415000915527344
1788678597010579500,2.602579345703125,-17.08500099182129,-37.027000427246094,-21.023000717163086
1788678597026797300,2.61879736328125,-16.33100128173828,-36.69900131225586,-20.512001037597656
1788678597042942700,2.634942626953125,-14.410000801086426,-36.92000198364258,-20.720001220703125
1788678597058971100,2.65097119140625,-15.316000938415527,-37.42500305175781,-18.584001541137695
1788678597075122700,2.667122802734375,-16.894001007080078,-37.04100036621094,-22.042001724243164
1788678597091233300,2.6832333984375,-14.634000778198242,-36.49300003051758,-20.920000076293945
1788678597107452400,2.699452392578125,-15.61500072479248,-36.720001220703125,-21.939001083374023
1788678597123611000,2.71561083984375,-15.363000869750977,-36.69700241088867,-20.20800018310547
1788678597139637000,2.731636962890625,-14.44800090789795,-36.294002532958984,-22.03900146484375
1788678597155789000,2.7477890625,-11.942000389099121,-37.13199996948242,-20.31800079345703
1788678597171899400,2.7638994140625,-16.44500160217285,-36.8120002746582,-20.920000076293945
1788678597188116500,2.780116455078125,-14.949000358581543,-36.92100143432617,-20.92300033569336
1788678597204274200,2.796274169921875,-17.10700035095215,-36.06700134277344,-21.422000885009766
1788678597220296200,2.812296142578125,-16.655000686645508,-36.37700271606445,-20.509000778198242
1788678597236442000,2.828442138671875,-16.253000259399414,-35.42000198364258,-21.010000228881836
1788678597252548000,2.844548095703125,-15.682001113891602,-36.803001403808594,-20.20800018310547
1788678597268765200,2.86076513671875,-15.36600112915039,-36.807003021240234,-20.41200065612793
1788678597284884200,2.87688427734375,-14.934000968933105,-37.12900161743164,-20.416000366210938
1788678597300930800,2.892930908203125,-14.28600025177002,-37.342002868652344,-20.21500015258789
1788678597317072100,2.909072021484375,-14.332000732421875,-36.829002380371094,-21.942001342773438
1788678597333179000,2.925178955078125,-14.11400032043457,-36.827003479003906,-21.738000869750977
1788678597349392600,2.941392578125,-14.460000991821289,-36.301002502441406,-22.54800033569336
1788678597365511400,2.957511474609375,-13.903000831604004,-37.47700119018555,-22.25400161743164
1788678597381569800,2.97356982421875,-14.867000579833984,-37.04500198364258,-22.147001266479492
1788678597397721300,2.989721435546875,-13.242000579833984,-37.25,-21.23400115966797
1788678597413831400,3.00583154296875,-13.578001022338867,-36.177001953125,-21.224000930786133
1788678597430048000,3.022048095703125,-13.690000534057617,-37.586002349853516,-22.35700035095215
1788678597446179300,3.038179443359375,-13.248001098632812,-37.685001373291016,-21.74700164794922
1788678597462244900,3.054244873046875,-15.602001190185547,-35.84700012207031,-20.81100082397461
1788678597478390500,3.070390625,-14.642001152038574,-35.957000732421875,-20.915000915527344
1788678597494499300,3.086499267578125,-13.891000747680664,-37.470001220703125,-21.744001388549805
1788678597510717400,3.102717529296875,-15.040000915527344,-36.91200256347656,-20.21000099182129
1788678597526867000,3.118866943359375,-15.27500057220459,-36.16800308227539,-20.71200180053711
1788678597542895900,3.134895751953125,-14.321001052856445,-36.93100357055664,-21.535001754760742
1788678597559043800,3.1510439453125,-16.440000534057617,-37.13300323486328,-20.92300033569336
1788678597575154200,3.167154296875,-15.408000946044922,-36.400001525878906,-22.03900146484375
1788678597591368400,3.183368408203125,-15.182001113891602,-35.63600158691406,-21.01300048828125
1788678597607522300,3.199522216796875,-13.660000801086426,-36.81100082397461,-20.516000747680664
1788678597623557600,3.2155576171875,-15.07300090789795,-35.31100082397461,-20.705001831054688
1788678597639705600,3.23170556640625,-14.633000373840332,-36.92500305175781,-21.12700080871582
1788678597655816400,3.24781640625,-14.521000862121582,-37.13800048828125,-21.02800178527832
1788678597672033000,3.264032958984375,-16.437000274658203,-36.375,-20.30500030517578
1788678597688149200,3.280149169921875,-14.749000549316406,-35.41699981689453,-20.60500144958496
1788678597704191000,3.29619091796875,-15.387001037597656,-37.25200271606445,-21.639001846313477
1788678597720337400,3.31233740234375,-14.566000938415527,-35.3280029296875,-21.928001403808594
1788678597736447200,3.328447265625,-16.246000289916992,-36.7130012512207,-21.5310001373291
1788678597752663600,3.34466357421875,-14.964000701904297,-36.60700225830078,-21.43000030517578
1788678597768784400,3.360784423828125,-15.183000564575195,-37.25800323486328,-22.046001434326172
1788678597784843800,3.37684375,-16.04800033569336,-35.75,-21.625001907348633
1788678597800994000,3.392994140625,-14.85200023651123,-36.17100143432617,-20.917001724243164
1788678597817107500,3.409107421875,-15.792000770568848,-37.99500274658203,-21.135000228881836
1788678597833326600,3.42532666015625,-12.51300048828125,-36.61300277709961,-21.637001037597656
1788678597849457700,3.441457763671875,-14.762001037597656,-37.262001037597656,-22.35300064086914
1788678597865514200,3.45751416015625,-15.075000762939453,-37.14900207519531,-21.944000244140625
1788678597881664000,3.4736640625,-14.723000526428223,-37.13100051879883,-20.518001556396484
1788678597897774800,3.48977490234375,-13.696001052856445,-36.29300308227539,-21.836000442504883
1788678597913990400,3.505990478515625,-14.511000633239746,-37.02400207519531,-20.517000198364258
1788678597930132500,3.522132568359375,-14.828001022338867,-36.5890007019043,-20.10500144958496
1788678597946201900,3.538201904296875,-15.170001029968262,-36.169002532958984,-20.814001083374023
1788678597962352000,3.55435205078125,-15.605000495910645,-35.30900192260742,-20.60300064086914
1788678597978463500,3.57046337890625,-14.839000701904297,-37.784000396728516,-21.338001251220703
1788678597994679300,3.58667919921875,-14.975000381469727,-35.6410026550293,-21.319000244140625
1788678598010825700,3.60282568359375,-14.438000679016113,-34.55900192260742,-20.496000289916992
1788678598026898400,3.6188984375,-14.516000747680664,-37.45900344848633,-21.030000686645508
1788678598043050200,3.63505029296875,-14.093000411987305,-36.70600128173828,-20.71900177001953
1788678598059160000,3.65116015625,-15.180000305175781,-36.608001708984375,-21.5310001373291
1788678598075375400,3.667375244140625,-16.6820011138916,-36.070003509521484,-21.525001525878906
1788678598091523800,3.68352392578125,-15.909000396728516,-36.270999908447266,-20.509000778198242
1788678598107548700,3.699548583984375,-16.43400001525879,-36.91400146484375,-20.514001846313477
1788678598123701800,3.71570166015625,-16.665000915527344,-36.49100112915039,-21.019001007080078
1788678598139816700,3.731816650390625,-13.555000305175781,-37.35200119018555,-20.929000854492188
1788678598156035600,3.74803564453125,-12.38900089263916,-38.00800323486328,-21.751001358032227
1788678598172195800,3.76419580078125,-15.582000732421875,-37.781002044677734,-21.134000778198242
1788678598188233500,3.7802333984375,-13.426000595092773,-36.79900360107422,-19.600000381469727
1788678598204381000,3.796380859375,-14.927000999450684,-36.04300308227539,-19.387001037597656
1788678598220489500,3.812489501953125,-13.332000732421875,-37.67100143432617,-20.72800064086914
1788678598236704800,3.828704833984375,-14.195000648498535,-37.027000427246094,-20.72100067138672
1788678598252828000,3.844827880859375,-14.279000282287598,-37.33700180053711,-19.909000396728516
1788678598268882400,3.86088232421875,-14.193000793457031,-37.0260009765625,-20.619001388549805
1788678598285026800,3.87702685546875,-14.745000839233398,-36.711002349853516,-21.227001190185547
1788678598301136000,3.893135986328125,-14.208001136779785,-35.954002380371094,-20.610000610351562
1788678598317347800,3.909347900390625,-14.718000411987305,-36.371002197265625,-19.79800033569336
1788678598333468200,3.92546826171875,-13.194000244140625,-37.97700119018555,-19.509000778198242
1788678598349528000,3.941528076171875,-14.082000732421875,-37.34700012207031,-20.62200164794922
1788678598365676000,3.957676025390625,-14.066000938415527,-37.3380012512207,-19.909000396728516
1788678598381784600,3.97378466796875,-13.750000953674316,-37.34100341796875,-20.113000869750977
1788678598397999400,3.989999267578125,-14.245000839233398,-36.99300003051758,-18.174001693725586
1788678598414131700,4.006131591796875,-13.679000854492188,-37.36300277709961,-21.744001388549805
1788678598430194200,4.022194091796875,-15.325000762939453,-38.29500198364258,-19.509000778198242
1788678598446342400,4.03834228515625,-13.41200065612793,-38.62800216674805,-20.125001907348633
1788678598462454300,4.054454345703125,-11.601000785827637,-38.30900192260742,-20.125001907348633
1788678598478672000,4.070671875,-12.367000579833984,-37.454002380371094,-20.422000885009766
1788678598494819300,4.0868193359375,-13.340001106262207,-37.784000396728516,-21.137001037597656
1788678598510891000,4.10289111328125,-14.712000846862793,-36.90800094604492,-19.905000686645508
1788678598527040500,4.11904052734375,-15.02500057220459,-37.659000396728516,-20.01300048828125
1788678598543148800,4.135148681640625,-13.840001106262207,-38.08700180053711,-19.814001083374023
1788678598559361300,4.151361328125,-14.277000427246094,-38.20000076293945,-20.32400131225586
1788678598575519000,4.16751904296875,-11.834000587463379,-38.861000061035156,-21.352001190185547
1788678598591547000,4.183546875,-12.35200023651123,-38.41800308227539,-20.32900047302246
1788678598607695400,4.1996953125,-12.546000480651855,-38.29800033569336,-19.410001754760742
1788678598623830500,4.21583056640625,-13.856000900268555,-38.20500183105469,-20.630001068115234
1788678598640044300,4.232044189453125,-12.176000595092773,-37.79300308227539,-21.647001266479492
1788678598656154600,4.248154541015625,-14.193000793457031,-36.37700271606445,-20.20600128173828
1788678598672194000,4.264194091796875,-14.306000709533691,-37.24500274658203,-21.029001235961914
1788678598688342300,4.28034228515625,-13.100000381469727,-37.552001953125,-19.81100082397461
1788678598704454000,4.296453857421875,-13.315000534057617,-37.12000274658203,-19.60300064086914
1788678598720667600,4.312667724609375,-11.721000671386719,-37.884002685546875,-20.426000595092773
1788678598736789500,4.32878955078125,-12.297000885009766,-36.612003326416016,-21.535001754760742
1788678598752839000,4.3448388671875,-13.878000259399414,-36.59700012207031,-20.61600112915039
1788678598768988200,4.36098828125,-12.132000923156738,-37.874000549316406,-19.713001251220703
1788678598785100000,4.37710009765625,-11.509000778198242,-37.5620002746582,-20.32200050354004
1788678598801316900,4.39331689453125,-12.576000213623047,-37.99100112915039,-20.52800178527832
1788678598817449000,4.409448974609375,-12.76400089263916,-37.652000427246094,-19.201000213623047
1788678598833510100,4.42551025390625,-12.802000999450684,-37.242000579833984,-20.623001098632812
1788678598849658600,4.44165869140625,-14.398000717163086,-37.4530029296875,-20.5210018157959
1788678598865769500,4.45776953125,-15.29900074005127,-39.46800231933594,-19.112001419067383
1788678598881985800,4.47398583984375,-13.430000305175781,-37.01700210571289,-19.907001495361328
1788678598898126300,4.490126220703125,-13.845000267028809,-37.874000549316406,-19.91400146484375
1788678598914199800,4.50619970703125,-17.393001556396484,-37.88300323486328,-21.030000686645508
1788678598930353400,4.522353515625,-13.824000358581543,-38.402000427246094,-19.308000564575195
1788678598946467000,4.538467041015625,-14.836000442504883,-36.37700271606445,-20.3070011138916
1788678598962688300,4.554688232421875,-15.349000930786133,-37.87700271606445,-20.32000160217285
1788678598978842000,4.570842041015625,-16.657001495361328,-35.297000885009766,-19.88800048828125
1788678598994907000,4.586906982421875,-17.52400016784668,-35.52000045776367,-20.602001190185547
1788678599011059200,4.60305908203125,-17.67300033569336,-37.21000289916992,-18.783000946044922
1788678599027172400,4.61917236328125,-18.134000778198242,-35.393001556396484,-19.174001693725586
1788678599043389700,4.6353896484375,-16.963001251220703,-35.61300277709961,-19.483001708984375
1788678599059543000,4.65154296875,-16.21500015258789,-36.04600143432617,-19.69099998474121
1788678599075567400,4.6675673828125,-16.564001083374023,-35.7390022277832,-20.809001922607422
1788678599091716000,4.683716064453125,-15.585000991821289,-36.37800216674805,-20.408000946044922
1788678599107827500,4.699827392578125,-14.931000709533691,-37.01900100708008,-20.211000442504883
1788678599124056300,4.716056396484375,-17.095001220703125,-36.816001892089844,-21.327001571655273
1788678599140174000,4.732174072265625,-14.421000480651855,-37.14200210571289,-21.33300018310547
1788678599156220000,4.748219970703125,-14.851000785827637,-37.25100326538086,-21.53700065612793
1788678599172372200,4.764372314453125,-15.169000625610352,-36.60100173950195,-21.022001266479492
1788678599188517000,4.78051708984375,-14.533000946044922,-35.41600036621094,-20.503000259399414
1788678599204735000,4.79673486328125,-13.11400032043457,-37.345001220703125,-20.31800079345703
1788678599220897500,4.8128974609375,-15.362000465393066,-36.5880012512207,-20.10500144958496
1788678599236985000,4.828985107421875,-13.23900032043457,-37.68000030517578,-21.34000015258789
1788678599253131800,4.8451318359375,-16.35300064086914,-36.388999938964844,-21.32400131225586
1788678599269237000,4.861237060546875,-15.984001159667969,-36.46800231933594,-19.18600082397461
1788678599285453800,4.877453857421875,-16.176000595092773,-37.211002349853516,-18.683000564575195
1788678599301575200,4.8935751953125,-16.946001052856445,-36.89900207519531,-19.494001388549805
1788678599317633500,4.909633544921875,-15.761000633239746,-36.78700256347656,-18.986000061035156
1788678599333786000,4.9257861328125,-15.334000587463379,-37.00300216674805,-19.09000015258789
1788678599349897500,4.9418974609375,-16.431001663208008,-35.50699996948242,-19.483001708984375
1788678599366114000,4.958114013671875,-15.742000579833984,-36.88300323486328,-18.171001434326172
1788678599382250200,4.974250244140625,-16.148000717163086,-37.73400115966797,-17.770999908447266
1788678599398317800,4.99031787109375,-14.016000747680664,-39.14500045776367,-18.80500030517578
1788678599414477000,5.00647705078125,-13.802000999450684,-37.84800338745117,-17.979000091552734
1788678599430584800,5.022584716796875,-12.732000350952148,-39.794002532958984,-19.118000030517578
1788678599446803700,5.0388037109375,-14.00100040435791,-38.919002532958984,-17.988000869750977
1788678599462943500,5.054943603515625,-13.765000343322754,-39.87900161743164,-17.589000701904297
1788678599478968600,5.070968505859375,-12.317000389099121,-38.9370002746582,-19.111000061035156
1788678599495126500,5.08712646484375,-13.667000770568848,-39.236000061035156,-17.584001541137695
1788678599511233300,5.1032333984375,-13.217000961303711,-38.57400131225586,-16.152000427246094
1788678599527453200,5.119453125,-13.116000175476074,-38.470001220703125,-16.35500144958496
1788678599543597600,5.13559765625,-13.667000770568848,-38.26300048828125,-16.964000701904297
1788678599559629800,5.1516298828125,-14.848000526428223,-39.23800277709961,-17.88800048828125
1788678599575783400,5.167783447265625,-13.35300064086914,-39.45600128173828,-17.993000030517578
1788678599591899000,5.18389892578125,-14.420001029968262,-39.022003173828125,-17.683000564575195
1788678599608105500,5.20010546875,-15.27500057220459,-39.4530029296875,-17.99100112915039
1788678599624269300,5.216269287109375,-14.416000366210938,-38.479000091552734,-17.16900062561035
1788678599640311800,5.232311767578125,-14.009000778198242,-37.84400177001953,-17.67300033569336
1788678599656465200,5.248465087890625,-13.344000816345215,-38.262001037597656,-16.862001419067383
1788678599672573700,5.26457373046875,-14.062000274658203,-39.432003021240234,-16.261001586914062
1788678599688791300,5.280791259765625,-15.357000350952148,-39.871002197265625,-17.18000030517578
1788678599704913700,5.29691357421875,-13.322000503540039,-40.194000244140625,-17.08300018310547
1788678599720967400,5.312967529296875,-14.625000953674316,-39.125,-17.378000259399414
1788678599737117200,5.3291171875,-12.67300033569336,-39.974002838134766,-16.572999954223633
1788678599753227800,5.345227783203125,-13.370000839233398,-38.71000289916992,-18.292001724243164
1788678599769447000,5.361447021484375,-12.13900089263916,-40.29900360107422,-16.780000686645508
1788678599785572900,5.37757275390625,-14.164000511169434,-40.402000427246094,-16.677000045776367
1788678599801634000,5.393634033203125,-10.971000671386719,-39.87200164794922,-16.777999877929688
1788678599817780200,5.4097802734375,-13.754000663757324,-40.62900161743164,-17.59600067138672
1788678599833893000,5.42589306640625,-12.356000900268555,-39.544002532958984,-16.468000411987305
1788678599850106000,5.442106201171875,-12.580000877380371,-39.33400344848633,-16.770999908447266
1788678599866239000,5.458239013671875,-11.211000442504883,-38.26700210571289,-16.96700096130371
1788678599882306800,5.474306884765625,-11.51300048828125,-39.768001556396484,-17.082000732421875
1788678599898454500,5.49045458984375,-11.375000953674316,-40.182003021240234,-15.965001106262207
1788678599914563000,5.50656298828125,-13.116000175476074,-39.44300079345703,-16.975000381469727
1788678599930777600,5.522777587890625,-13.969000816345215,-39.76400375366211,-17.07900047302246
1788678599946928400,5.538928466796875,-11.598000526428223,-39.647003173828125,-16.062000274658203
1788678599962999300,5.554999267578125,-12.36500072479248,-39.55000305175781,-16.875
1788678599979118800,5.571118896484375,-13.342000961303711,-38.58500289916992,-16.96700096130371
1788678599995231500,5.5872314453125,-12.71500015258789,-38.37900161743164,-17.475000381469727
1788678600011455200,5.603455322265625,-11.862000465393066,-39.137001037597656,-17.993000030517578
1788678600027619300,5.619619384765625,-12.597000122070312,-40.20900344848633,-18.10300064086914
1788678600043643100,5.63564306640625,-11.952000617980957,-39.88300323486328,-17.69300079345703
1788678600059800000,5.651800048828125,-10.697000503540039,-38.604000091552734,-18.091001510620117
1788678600075915800,5.667915771484375,-12.385000228881836,-39.77800369262695,-17.895999908447266
1788678600092130800,5.684130859375,-12.595000267028809,-39.34300231933594,-17.48400115966797
1788678600108247800,5.700247802734375,-10.558000564575195,-38.801002502441406,-16.769001007080078
1788678600124296000,5.7162958984375,-12.24000072479248,-40.40300369262695,-16.577001571655273
1788678600140443600,5.732443603515625,-13.950000762939453,-40.294002532958984,-16.57400131225586
1788678600156554200,5.74855419921875,-15.914000511169434,-39.884002685546875,-18.197999954223633
1788678600172774000,5.76477392578125,-11.867000579833984,-38.60000228881836,-17.886001586914062
1788678600188905200,5.7809052734375,-13.980000495910645,-38.90700149536133,-17.071001052856445
1788678600204965600,5.796965576171875,-11.440000534057617,-38.816001892089844,-17.990001678466797
1788678600221109500,5.813109619140625,-14.610000610351562,-39.87200164794922,-17.181001663208008
1788678600237218600,5.829218505859375,-15.26400089263916,-39.87900161743164,-17.791000366210938
1788678600253436700,5.845436767578125,-13.857000350952148,-38.78900146484375,-16.255001068115234
1788678600269572400,5.861572265625,-13.5600004196167,-39.560001373291016,-17.790000915527344
1788678600285648000,5.87764794921875,-12.273000717163086,-39.12700271606445,-17.279001235961914
1788678600301803000,5.893802978515625,-15.155000686645508,-38.25699996948242,-16.6560001373291
1788678600317917000,5.9099169921875,-13.379000663757324,-38.176002502441406,-18.39000129699707
1788678600334132200,5.92613232421875,-12.506000518798828,-38.922000885009766,-17.990001678466797
1788678600350283000,5.942282958984375,-13.480000495910645,-37.95600128173828,-17.98000144958496
1788678600366357200,5.958357177734375,-14.016000747680664,-38.605003356933594,-18.494001388549805
1788678600382510300,5.97451025390625,-12.816000938415527,-39.45600128173828,-17.892000198364258
1788678600398628000,5.990628173828125,-12.283000946044922,-38.592002868652344,-17.376001358032227
1788678600414847700,6.00684765625,-13.868000984191895,-38.6870002746582,-16.66200065612793
1788678600430963500,6.02296337890625,-13.885000228881836,-37.617000579833984,-16.75400161743164
1788678600446991600,6.03899169921875,-14.414000511169434,-37.93800354003906,-16.756000518798828
1788678600463138600,6.055138671875,-12.732000350952148,-38.49700164794922,-18.291000366210938
1788678600479244300,6.071244384765625,-13.224000930786133,-38.90300369262695,-16.66400146484375
1788678600495409000,6.087408935546875,-12.082000732421875,-38.492000579833984,-17.885000228881836
1788678600511515400,6.103515380859375,-13.890000343322754,-37.40400314331055,-16.854000091552734
1788678600527550500,6.119550537109375,-14.825000762939453,-38.143001556396484,-16.145999908447266
1788678600543696600,6.135696533203125,-11.532000541687012,-38.375,-17.069000244140625
1788678600559803000,6.151802978515625,-13.363000869750977,-37.518001556396484,-17.26300048828125
1788678600576020200,6.168020263671875,-13.993000984191895,-39.78000259399414,-18.19900131225586
1788678600592140000,6.18414013671875,-13.25200080871582,-39.35200119018555,-18.196001052856445
1788678600608188200,6.200188232421875,-12.831000328063965,-39.24800109863281,-18.400001525878906
1788678600624337000,6.2163369140625,-13.78600025177002,-38.487003326416016,-17.679000854492188
1788678600640445200,6.232445068359375,-12.509000778198242,-38.492000579833984,-17.884000778198242
1788678600656662300,6.248662353515625,-10.998000144958496,-38.052001953125,-16.86400032043457
1788678600672785200,6.26478515625,-13.35200023651123,-39.672000885009766,-18.097000122070312
1788678600688850400,6.280850341796875,-10.56100082397461,-39.884002685546875,-17.593000411987305
1788678600705000700,6.297000732421875,-10.982000350952148,-39.55500030517578,-17.08100128173828
1788678600721113300,6.31311328125,-11.420000076293945,-40.21000289916992,-18.003000259399414
1788678600737330400,6.329330322265625,-8.642000198364258,-40.53700256347656,-18.111000061035156
1788678600753462300,6.345462158203125,-10.522000312805176,-40.941001892089844,-16.48200035095215
1788678600769522000,6.36152197265625,-9.394000053405762,-39.0260009765625,-17.38300132751465
1788678600785665800,6.377665771484375,-7.543000221252441,-39.65500259399414,-16.16900062561035
1788678600801772300,6.393772216796875,-11.59000015258789,-41.047000885009766,-16.584001541137695
1788678600817990100,6.409990234375,-12.038000106811523,-39.871002197265625,-16.7760009765625
1788678600834126600,6.426126708984375,-9.276000022888184,-38.695003509521484,-16.668001174926758
1788678600850187300,6.442187255859375,-9.483000755310059,-40.3120002746582,-17.395000457763672
1788678600866337000,6.4583369140625,-9.256999969482422,-39.54800033569336,-16.3700008392334
1788678600882445600,6.474445556640625,-8.530000686645508,-39.4530029296875,-17.185001373291016
1788678600898658300,6.490658203125,-8.393000602722168,-40.30000305175781,-16.37700080871582
1788678600914805200,6.50680517578125,-9.683000564575195,-40.62700271606445,-16.990001678466797
1788678600930832400,6.522832275390625,-9.284000396728516,-39.45600128173828,-17.48900032043457
1788678600946983400,6.5389833984375,-7.5360002517700195,-40.191001892089844,-16.174001693725586
1788678600963095800,6.555095703125,-11.374000549316406,-39.749000549316406,-15.656001091003418
1788678600979313000,6.57131298828125,-9.903000831604004,-39.65800094604492,-16.67500114440918
1788678600995471400,6.587471435546875,-10.00100040435791,-39.3280029296875,-16.06100082397461
1788678601011498800,6.603498779296875,-9.221000671386719,-41.36300277709961,-15.87600040435791
1788678601027652400,6.61965234375,-7.967000484466553,-40.51700210571289,-16.584001541137695
1788678601043762000,6.635761962890625,-10.51400089263916,-39.531002044677734,-15.247000694274902
1788678601059976200,6.65197607421875,-10.938000679016113,-40.717002868652344,-15.868000984191895
1788678601076092400,6.668092529296875,-9.892000198364258,-39.327003479003906,-15.959000587463379
1788678601092133400,6.68413330078125,-8.406000137329102,-40.19900131225586,-16.886001586914062
1788678601108280300,6.7002802734375,-9.671000480651855,-40.836002349853516,-16.584001541137695
1788678601124389600,6.7163896484375,-7.506000518798828,-41.03700256347656,-15.36600112915039
1788678601140608000,6.73260791015625,-10.224000930786133,-39.98200225830078,-16.881999969482422
1788678601156724700,6.748724853515625,-9.220000267028809,-40.93000030517578,-15.567000389099121
1788678601172766700,6.7647666015625,-8.788000106811523,-40.604000091552734,-15.157000541687012
1788678601188920600,6.780920654296875,-10.084000587463379,-40.39400100708008,-15.66300106048584
1788678601205029600,6.797029541015625,-9.482000350952148,-40.74300003051758,-17.602001190185547
1788678601221247700,6.813247802734375,-10.719000816345215,-40.60600280761719,-15.562000274658203
1788678601237372700,6.82937255859375,-12.113000869750977,-40.71600341796875,-15.867000579833984
1788678601253434400,6.845434326171875,-9.042000770568848,-39.22300338745117,-16.06100082397461
1788678601269586400,6.86158642578125,-9.122000694274902,-40.827003479003906,-15.872000694274902
1788678601285696800,6.87769677734375,-8.701000213623047,-41.48100280761719,-16.591001510620117
1788678601301913900,6.893913818359375,-9.976000785827637,-40.28600311279297,-15.5600004196167
1788678601318036500,6.910036376953125,-10.29800033569336,-40.070003509521484,-15.456000328063965
1788678601334097000,6.926096923828125,-7.964000225067139,-40.62300109863281,-16.483001708984375
1788678601350247400,6.942247314453125,-7.737000465393066,-40.400001525878906,-15.768000602722168
1788678601366357000,6.95835693359375,-9.861000061035156,-40.605003356933594,-15.360000610351562
1788678601382573600,6.974573486328125,-9.230000495910645,-40.39600372314453,-15.664000511169434
1788678601398721300,6.99072119140625,-9.88800048828125,-40.621002197265625,-16.582000732421875
1788678601414748000,7.006747802734375,-7.115000247955322,-39.22300338745117,-15.860000610351562
1788678601430894600,7.02289453125,-7.494000434875488,-41.57100296020508,-15.167000770568848
1788678601447001300,7.03900146484375,-9.873000144958496,-40.720001220703125,-15.972001075744629
1788678601463213000,7.055213134765625,-8.571000099182129,-41.89900207519531,-15.780000686645508
1788678601479364000,7.071364013671875,-9.848000526428223,-40.38100051879883,-14.644001007080078
1788678601495400400,7.087400390625,-9.219000816345215,-40.17300033569336,-15.051000595092773
1788678601511547400,7.10354736328125,-9.233000755310059,-39.6410026550293,-15.352001190185547
1788678601527657500,7.119657470703125,-11.122000694274902,-40.2660026550293,-14.234000205993652
1788678601543871000,7.13587109375,-10.916000366210938,-41.02800369262695,-15.056000709533691
1788678601559979300,7.151979248046875,-9.529000282287598,-40.599002838134766,-14.851000785827637
1788678601576030500,7.168030517578125,-10.158000946044922,-41.13100051879883,-14.6510009765625
1788678601592171300,7.184171142578125,-10.519000053405762,-39.64200210571289,-15.554000854492188
1788678601608279600,7.200279541015625,-10.593000411987305,-40.7030029296875,-14.748001098632812
1788678601624493300,7.216493408203125,-9.077000617980957,-41.44900131225586,-14.247000694274902
1788678601640611300,7.232611328125,-9.398000717163086,-40.69200134277344,-13.833000183105469
1788678601656675300,7.24867529296875,-10.629000663757324,-40.61600112915039,-16.275001525878906
1788678601672825600,7.26482568359375,-9.847000122070312,-41.24500274658203,-15.16100025177002
1788678601688936700,7.280936767578125,-10.47700023651123,-40.698001861572266,-14.3410005569458
1788678601705151500,7.2971513671875,-11.38800048828125,-39.43300247192383,-16.060001373291016
1788678601721282800,7.31328271484375,-10.295000076293945,-40.069000244140625,-15.35400104522705
1788678601737341200,7.329341064453125,-9.856000900268555,-40.60200119018555,-15.156001091003418
1788678601753487400,7.3454873046875,-10.612000465393066,-40.17400360107422,-15.253000259399414
1788678601769594400,7.361594482421875,-10.913000106811523,-40.37800216674805,-14.541000366210938
1788678601785811500,7.3778115234375,-10.508000373840332,-39.96000289916992,-15.25100040435791
1788678601801953000,7.393953125,-11.863000869750977,-40.694000244140625,-14.237000465393066
1788678601818018800,7.410018798828125,-11.166000366210938,-40.51000213623047,-16.376001358032227
1788678601834165000,7.4261650390625,-12.305000305175781,-40.59400177001953,-14.847001075744629
1788678601850273500,7.4422734375,-10.958000183105469,-39.108001708984375,-15.75200080871582
1788678601866485200,7.4584853515625,-9.663000106811523,-39.31800079345703,-15.247000694274902
1788678601882634000,7.474634033203125,-9.981000900268555,-39.316001892089844,-15.144001007080078
1788678601898654700,7.49065478515625,-11.351000785827637,-39.303001403808594,-14.327000617980957
1788678601914797600,7.506797607421875,-10.961000442504883,-39.43400192260742,-16.06100082397461
1788678601930903800,7.52290380859375,-11.168000221252441,-39.538002014160156,-15.858000755310059
1788678601947115000,7.539114990234375,-10.749000549316406,-38.4630012512207,-15.543001174926758
1788678601963247400,7.555247314453125,-10.306000709533691,-38.99400329589844,-15.141000747680664
1788678601979300900,7.57130078125,-10.533000946044922,-38.35300064086914,-15.339000701904297
1788678601995419100,7.587419189453125,-9.898000717163086,-38.89800262451172,-15.956000328063965
1788678602011558700,7.60355859375,-8.368000030517578,-39.3120002746582,-14.637001037597656
1788678602027769000,7.61976904296875,-10.942000389099121,-39.9630012512207,-15.556000709533691
1788678602043927300,7.63592724609375,-10.993000984191895,-38.5890007019043,-16.970001220703125
1788678602059969300,7.65196923828125,-8.60200023651123,-39.108001708984375,-15.450000762939453
1788678602076115500,7.668115478515625,-9.292000770568848,-39.35300064086914,-17.79400062561035
1788678602092223000,7.684222900390625,-8.413000106811523,-39.663002014160156,-16.881000518798828
1788678602108437500,7.7004375,-8.394000053405762,-40.19200134277344,-16.376001358032227
1788678602124560100,7.71656005859375,-10.644000053405762,-39.329002380371094,-16.16200065612793
1788678602140620800,7.732620849609375,-10.208000183105469,-40.297000885009766,-16.375
1788678602156767200,7.748767333984375,-12.629000663757324,-40.16400146484375,-14.74100112915039
1788678602172875300,7.764875244140625,-9.704000473022461,-38.47800064086914,-16.56300163269043
1788678602189092400,7.78109228515625,-10.221000671386719,-39.54800033569336,-16.470001220703125
1788678602205227000,7.79722705078125,-12.54900074005127,-40.07200241088867,-15.861001014709473
1788678602221293800,7.8132939453125,-9.882000923156738,-39.75300216674805,-15.759000778198242
1788678602237438500,7.8294384765625,-11.213000297546387,-39.13300323486328,-17.586000442504883
1788678602253544400,7.84554443359375,-10.363000869750977,-39.137001037597656,-17.791000366210938
1788678602269757000,7.8617568359375,-10.862000465393066,-39.65500259399414,-16.57200050354004
1788678602285895700,7.877895751953125,-9.057000160217285,-39.23200225830078,-16.775001525878906
1788678602301974300,7.893974365234375,-8.194000244140625,-39.22800064086914,-16.368000030517578
1788678602318126300,7.910126220703125,-7.778000354766846,-38.803001403808594,-16.569000244140625
1788678602334237700,7.92623779296875,-9.27400016784668,-39.9900016784668,-17.392000198364258
1788678602350454300,7.942454345703125,-11.623000144958496,-38.3650016784668,-16.356000900268555
1788678602366601200,7.958601318359375,-9.063000679016113,-39.12800216674805,-16.977001190185547
1788678602382631200,7.974631103515625,-10.5260009765625,-39.64600372314453,-15.860000610351562
1788678602398781400,7.990781494140625,-8.407000541687012,-39.768001556396484,-16.678001403808594
1788678602414893800,8.006893798828125,-9.564000129699707,-39.8640022277832,-15.965001106262207
1788678602431073300,8.0230732421875,-10.528000831604004,-39.64800262451172,-15.961000442504883
1788678602447233300,8.0392333984375,-9.777000427246094,-39.755001068115234,-15.861001014709473
1788678602463276800,8.05527685546875,-10.533000946044922,-39.11000061035156,-15.855000495910645
1788678602479426800,8.0714267578125,-7.121000289916992,-39.983001708984375,-16.579999923706055
1788678602495539000,8.0875390625,-10.530000686645508,-40.189002990722656,-16.374000549316406
1788678602511754000,8.10375390625,-10.769000053405762,-38.691001892089844,-16.564001083374023
1788678602527873300,8.119873291015624,-9.383000373840332,-39.01900100708008,-16.874000549316406
1788678602543919600,8.135919677734375,-10.236000061035156,-39.77300262451172,-17.28700065612793
1788678602560064300,8.152064208984376,-7.972000598907471,-40.19600296020508,-16.58100128173828
1788678602576174600,8.168174560546875,-8.29900074005127,-38.362003326416016,-15.749000549316406
1788678602592390100,8.18439013671875,-9.946000099182129,-38.711002349853516,-17.99100112915039
1788678602608507000,8.2005068359375,-8.180000305175781,-39.43600082397461,-15.861001014709473
1788678602624551000,8.216551025390626,-7.249000549316406,-38.59100341796875,-16.66900062561035
1788678602640701000,8.232700927734374,-10.663000106811523,-38.26000213623047,-16.356000900268555
1788678602656816600,8.248816650390625,-9.605000495910645,-38.70000076293945,-17.075000762939453
1788678602673033500,8.265033447265624,-9.031000137329102,-40.189002990722656,-16.172000885009766
1788678602689163000,8.2811630859375,-8.914999961853027,-39.535003662109375,-15.351000785827637
1788678602705224400,8.297224365234374,-11.368000984191895,-40.070003509521484,-15.557001113891602
1788678602721372700,8.31337255859375,-7.958000183105469,-40.72800064086914,-16.280000686645508
1788678602737483000,8.32948291015625,-8.393000602722168,-38.678001403808594,-15.344000816345215
1788678602753699800,8.345699951171875,-7.52400016784668,-40.724002838134766,-15.975000381469727
1788678602769843200,8.36184326171875,-8.370000839233398,-39.96200180053711,-15.152000427246094
1788678602785906700,8.37790673828125,-9.041000366210938,-38.57400131225586,-15.648000717163086
1788678602802057200,8.39405712890625,-8.821000099182129,-39.54300308227539,-15.963000297546387
1788678602818169600,8.410169677734375,-10.721000671386719,-39.85100173950195,-15.148000717163086
1788678602834387200,8.42638720703125,-8.776000022888184,-40.704002380371094,-14.649001121520996
1788678602850537200,8.442537109375,-9.4350004196167,-39.5260009765625,-14.73900032043457
1788678602866562000,8.45856201171875,-6.674000263214111,-39.43100357055664,-15.35300064086914
1788678602882709800,8.474709716796875,-8.596000671386719,-39.75200271606445,-15.557001113891602
1788678602898823400,8.490823486328125,-9.645000457763672,-39.7400016784668,-14.74100112915039
1788678602915046400,8.50704638671875,-8.587000846862793,-40.39500045776367,-15.563000679016113
1788678602931208400,8.52320849609375,-9.542000770568848,-39.20100021362305,-14.533000946044922
1788678602947251500,8.53925146484375,-9.748000144958496,-40.06100082397461,-14.744000434875488
1788678602963401000,8.55540087890625,-9.635000228881836,-40.16600036621094,-14.541000366210938
1788678602979509800,8.571509765625,-10.075000762939453,-39.20000076293945,-14.532000541687012
1788678602995689000,8.58768896484375,-10.075000762939453,-39.20000076293945,-14.532000541687012
1788678603011804200,8.60380419921875,-10.076000213623047,-39.63300323486328,-14.8410005569458
1788678603027849000,8.619848876953125,-8.808000564575195,-39.535003662109375,-15.351000785827637
1788678603043996700,8.63599658203125,-7.728000164031982,-41.04300308227539,-15.774001121520996
1788678603060105200,8.652105224609375,-10.530000686645508,-39.00100326538086,-15.65000057220459
1788678603076319000,8.668319091796874,-8.801000595092773,-41.044002532958984,-15.976000785827637
1788678603092447000,8.684447021484376,-10.302000045776367,-40.073001861572266,-15.660000801086426
1788678603108499000,8.7004990234375,-11.1510009765625,-39.31100082397461,-14.939001083374023
1788678603124643800,8.716643798828125,-10.166000366210938,-38.86600112915039,-13.612000465393066
1788678603140750300,8.732750244140625,-10.928000450134277,-39.522003173828125,-14.636000633239746
1788678603156961800,8.7489619140625,-11.759000778198242,-40.156002044677734,-14.029000282287598
1788678603173089300,8.76508935546875,-8.461000442504883,-40.816001892089844,-14.956000328063965
1788678603189153300,8.7811533203125,-11.247000694274902,-39.0890007019043,-14.326000213623047
1788678603205300500,8.797300537109376,-10.812000274658203,-39.51700210571289,-14.22800064086914
1788678603221442300,8.8134423828125,-10.081000328063965,-38.663002014160156,-14.42500114440918
1788678603237655800,8.82965576171875,-11.039000511169434,-39.20000076293945,-14.633000373840332
1788678603253775000,8.845775146484375,-9.897000312805176,-38.46600341796875,-15.646000862121582
1788678603269833700,8.861833740234376,-9.428000450134277,-40.49400329589844,-15.053000450134277
1788678603285991000,8.877990966796874,-9.643000602722168,-39.09000015258789,-14.226000785827637
1788678603302093800,8.89409375,-10.087000846862793,-39.85600280761719,-15.454000473022461
1788678603318311000,8.910310791015625,-8.690999984741211,-39.42100143432617,-14.8410005569458
1788678603334467300,8.92646728515625,-10.095000267028809,-40.72600173950195,-16.37900161743164
1788678603350500000,8.9425,-9.579000473022461,-39.11600112915039,-16.16200065612793
1788678603366648000,8.95864794921875,-9.223999977111816,-39.85200119018555,-15.04800033569336
1788678603382756000,8.974756103515626,-9.358000755310059,-39.00400161743164,-15.75300121307373
1788678603398967800,8.9909677734375,-5.8480000495910645,-40.20600128173828,-17.093000411987305
1788678603415120400,9.007120361328125,-7.142000198364258,-39.564002990722656,-17.28900146484375
1788678603431150300,9.023150390625,-7.163000106811523,-38.387001037597656,-17.483001708984375
1788678603447296500,9.039296630859376,-7.314000129699707,-39.970001220703125,-15.66300106048584
1788678603463403500,9.055403564453124,-7.563000202178955,-40.53200149536133,-17.60300064086914
1788678603479617300,9.0716171875,-8.719000816345215,-40.195003509521484,-16.579999923706055
1788678603495736600,9.087736572265625,-9.780000686645508,-39.540000915527344,-15.860000610351562
1788678603511803000,9.103802978515626,-7.235000133514404,-39.23100280761719,-16.47100067138672
1788678603527942400,9.1199423828125,-9.57300090789795,-39.43600082397461,-16.06300163269043
1788678603544049400,9.13604931640625,-9.808000564575195,-39.34100341796875,-16.97800064086914
1788678603560262400,9.152262451171875,-9.281000137329102,-40.319000244140625,-17.904001235961914
1788678603576388000,9.16838818359375,-7.880000591278076,-39.77300262451172,-16.985000610351562
1788678603592455400,9.184455322265626,-8.277000427246094,-40.94300079345703,-16.38300132751465
1788678603608605400,9.20060546875,-7.579000473022461,-40.650001525878906,-18.41900062561035
1788678603624714500,9.216714599609375,-9.723000526428223,-38.38199996948242,-17.37700080871582
1788678603640892000,9.232891845703126,-7.125000476837158,-39.986000061035156,-16.784000396728516
1788678603657022200,9.249022216796876,-6.818000316619873,-39.88600158691406,-17.292001724243164
1788678603673077200,9.2650771484375,-7.255000114440918,-39.78300094604492,-17.69900131225586
1788678603689215200,9.28121533203125,-7.328000545501709,-39.43800354003906,-15.964000701904297
1788678603705325300,9.2973251953125,-7.87000036239624,-40.307003021240234,-16.887001037597656
1788678603721538300,9.313538330078124,-7.112000465393066,-40.95000076293945,-16.792001724243164
1788678603737679000,9.32967919921875,-6.687000274658203,-39.979000091552734,-16.275001525878906
1788678603753783800,9.34578369140625,-6.735000133514404,-38.49500274658203,-17.48400115966797
1788678603769933300,9.361933349609375,-5.418000221252441,-40.53000259399414,-17.197999954223633
1788678603786043000,9.37804296875,-7.788000583648682,-40.2140007019043,-17.905000686645508
1788678603802257200,9.394257080078125,-6.687000274658203,-40.30400085449219,-16.481000900268555
1788678603818403300,9.4104033203125,-8.390000343322754,-39.650001525878906,-15.862000465393066
1788678603834425600,9.426425537109376,-6.703000545501709,-39.77300262451172,-16.884000778198242
1788678603850575600,9.44257568359375,-6.7920002937316895,-40.086002349853516,-16.2760009765625
1788678603866682000,9.45868212890625,-6.9150004386901855,-39.880001068115234,-16.885000228881836
1788678603882899700,9.474899658203125,-8.641000747680664,-39.13100051879883,-17.1820011138916
1788678603899010600,9.491010498046874,-6.807000160217285,-39.3390007019043,-16.47300148010254
1788678603915038700,9.507038818359375,-6.988000392913818,-40.50800323486328,-15.770000457763672
1788678603931185200,9.52318505859375,-4.985000133514404,-40.310001373291016,-16.78900146484375
1788678603947289300,9.539289306640624,-8.171000480651855,-40.40300369262695,-16.072999954223633
1788678603963501600,9.55550146484375,-5.151000022888184,-41.25400161743164,-15.269001007080078
1788678603979618800,9.571618896484376,-7.51900053024292,-41.26100158691406,-16.08100128173828
1788678603995661000,9.5876611328125,-7.741000175476074,-40.294002532958984,-15.869000434875488
1788678604011776500,9.603776611328126,-6.635000228881836,-41.24500274658203,-14.758000373840332
1788678604027884500,9.619884521484375,-7.085000514984131,-40.93400192260742,-15.570000648498535
1788678604044096500,9.636096435546875,-7.533000469207764,-41.05400085449219,-16.589000701904297
1788678604060222700,9.65222265625,-8.891000747680664,-41.89800262451172,-15.780000686645508
1788678604076279800,9.66827978515625,-6.436000347137451,-41.68600082397461,-15.679000854492188
1788678604092427300,9.68442724609375,-7.516000270843506,-39.9630012512207,-15.153000831604004
1788678604108534300,9.7005341796875,-6.430000305175781,-41.14200210571289,-15.063000679016113
1788678604124751600,9.716751708984376,-6.840000152587891,-41.02300262451172,-14.247000694274902
1788678604140889300,9.732889404296875,-8.06100082397461,-39.64500045776367,-15.455000877380371
1788678604156952800,9.748952880859376,-7.067000389099121,-41.35600280761719,-15.064001083374023
1788678604173097000,9.765096923828125,-4.758000373840332,-40.62700271606445,-16.385000228881836
1788678604189205000,9.781205078125,-7.521000385284424,-40.72300338745117,-15.873001098632812
1788678604205417000,9.7974169921875,-6.656000137329102,-40.069000244140625,-14.951001167297363
1788678604221560600,9.813560546875,-7.4120001792907715,-40.72200012207031,-15.771000862121582
1788678604237632300,9.82963232421875,-8.167000770568848,-40.83300018310547,-16.179000854492188
1788678604253781000,9.845781005859376,-6.357000350952148,-40.29900360107422,-16.07400131225586
1788678604269889500,9.8618896484375,-6.76300048828125,-40.393001556396484,-15.158000946044922
1788678604286102800,9.878102783203126,-7.5410003662109375,-41.275001525878906,-17.100000381469727
1788678604302260000,9.894260009765626,-7.333000183105469,-39.7650032043457,-16.374000549316406
1788678604318291000,9.910291015625,-4.843000411987305,-41.694000244140625,-16.089000701904297
1788678604334439200,9.926439208984375,-6.889000415802002,-41.80900192260742,-16.902000427246094
1788678604350547000,9.942546875,-5.191000461578369,-41.17000198364258,-17
1788678604366759000,9.958759033203124,-6.568000316619873,-41.16100311279297,-16.48900032043457
1788678604382871800,9.974871826171874,-6.702000141143799,-39.9890022277832,-16.988000869750977
1788678604398914300,9.990914306640626,-6.381000518798828,-40.42100143432617,-17.196001052856445
1788678604415060000,10.00706005859375,-6.244000434875488,-40.61900329589844,-15.975000381469727
1788678604431204600,10.02320458984375,-8.152000427246094,-42.121002197265625,-16.292001724243164
1788678604447420200,10.039420166015624,-7.248000144958496,-40.10300064086914,-17.599000930786133
1788678604463572200,10.055572265625,-7.549000263214111,-40.415000915527344,-16.888999938964844
1788678604479653000,10.071653076171875,-8.830000877380371,-40.737003326416016,-17.0939998626709
1788678604495807500,10.087807373046875,-8.070000648498535,-40.51400375366211,-16.380001068115234
1788678604511914500,10.10391455078125,-6.918000221252441,-39.88100051879883,-16.987001419067383
1788678604528131300,10.12013134765625,-6.913000106811523,-41.176002502441406,-17.60900115966797
1788678604544265200,10.13626513671875,-5.753000259399414,-39.78200149536133,-17.395000457763672
1788678604560322600,10.152322509765625,-7.448000431060791,-39.986000061035156,-16.885000228881836
1788678604576472300,10.168472412109375,-5.430000305175781,-40.32100296020508,-17.604000091552734
1788678604592581400,10.184581298828125,-7.3520002365112305,-40.31800079345703,-17.601001739501953
1788678604608799700,10.2007998046875,-5.13200044631958,-39.362003326416016,-18.003000259399414
1788678604624935700,10.216935791015626,-5.825000286102295,-41.814002990722656,-17.10700035095215
1788678604641000200,10.233000244140625,-6.503000259399414,-40.970001220703125,-18.21900177001953
1788678604657143800,10.249143798828126,-5.413000106811523,-41.3910026550293,-17.511001586914062
1788678604673251800,10.265251953125,-5.867000102996826,-40.11000061035156,-17.907001495361328
1788678604689464800,10.28146484375,-4.965000152587891,-42.24400329589844,-17.112001419067383
1788678604705606100,10.297606201171876,-4.130000114440918,-40.85200119018555,-17.101001739501953
1788678604721676000,10.313676025390626,-4.6080002784729,-40.9900016784668,-19.444000244140625
1788678604737824000,10.329823974609376,-3.814000129699707,-40.855003356933594,-17.30500030517578
1788678604753936600,10.3459365234375,-6.928000450134277,-40.428001403808594,-17.806001663208008
1788678604770154200,10.362154296875,-2.8620002269744873,-41.402000427246094,-18.02400016784668
1788678604786300200,10.378300048828125,-5.553000450134277,-39.790000915527344,-18.006000518798828
1788678604802325000,10.394324951171875,-4.785000324249268,-41.94000244140625,-18.43400001525879
1788678604818472400,10.410472412109375,-4.3580002784729,-42.2650032043457,-18.641000747680664
1788678604834580500,10.42658056640625,-4.016000270843506,-42.36100387573242,-17.725000381469727
1788678604850794200,10.442794189453124,-3.261000156402588,-42.78900146484375,-17.628000259399414
1788678604866904000,10.458904052734376,-4.081000328063965,-41.319000244140625,-19.957000732421875
1788678604882936800,10.474936767578125,-4.89300012588501,-41.400001525878906,-18.123001098632812
1788678604899044900,10.491044921875,-2.8470001220703125,-42.474002838134766,-18.033000946044922
1788678604915185400,10.507185302734374,-3.7150001525878906,-41.61600112915039,-18.12700080871582
1788678604931399400,10.5233994140625,-1.9280000925064087,-41.09600067138672,-19.041000366210938
1788678604947556000,10.53955615234375,-1.3990000486373901,-42.72100067138672,-20.279001235961914
1788678604963633700,10.555633544921875,-3.130000114440918,-40.246002197265625,-19.7450008392334
1788678604979783200,10.571783203125,-2.1660001277923584,-40.78600311279297,-19.955001831054688
1788678604995893500,10.5878935546875,-3.4040000438690186,-41.62200164794922,-18.535001754760742
1788678605012103400,10.604103515625,-0.5530000329017639,-40.78200149536133,-19.448001861572266
1788678605028223700,10.6202236328125,-1.0860000848770142,-40.88800048828125,-19.448001861572266
1788678605044277800,10.63627783203125,-1.290000081062317,-40.55800247192383,-18.83300018310547
1788678605060423700,10.652423583984374,-1.505000114440918,-41.31500244140625,-19.349000930786133
1788678605076530700,10.66853076171875,-4.184000015258789,-40.7760009765625,-19.44300079345703
1788678605092743700,10.68474365234375,-0.4140000343322754,-41.51900100708008,-18.43600082397461
1788678605108876800,10.700876708984374,-2.868000030517578,-41.62200164794922,-18.433000564575195
1788678605124929500,10.716929443359374,-0.5330000519752502,-41.09400177001953,-18.737001419067383
1788678605141086000,10.7330859375,-1.6470000743865967,-40.90400314331055,-20.670000076293945
1788678605157195500,10.749195556640625,-0.5520000457763672,-41.2130012512207,-19.655000686645508
1788678605173410300,10.765410400390625,-0.9740000367164612,-41.21000289916992,-19.451000213623047
1788678605189558500,10.78155859375,-2.2300000190734863,-42.38100051879883,-19.052000045776367
1788678605205628700,10.797628662109375,-1.069000005722046,-42.06700134277344,-19.45800018310547
1788678605221773800,10.81377392578125,0.9950000643730164,-42.04800033569336,-17.83100128173828
1788678605237883000,10.8298828125,-0.3100000023841858,-42.277000427246094,-19.054000854492188
1788678605254094800,10.8460947265625,-2.5240001678466797,-42.14900207519531,-17.725000381469727
1788678605270229800,10.862229736328125,-1.5430001020431519,-43.759002685546875,-17.843000411987305
1788678605286295300,10.87829541015625,1.0090000629425049,-43.444000244140625,-18.047000885009766
1788678605302444300,10.8944443359375,-2.495000123977661,-42.45500183105469,-16.608001708984375
1788678605318547700,10.910547607421876,-2.739000082015991,-42.04100036621094,-17.724000930786133
1788678605334757400,10.92675732421875,-1.5430001020431519,-42.78600311279297,-17.22300148010254
1788678605350913300,10.942913330078126,-1.8700001239776611,-43.43800354003906,-17.94099998474121
1788678605366948600,10.958948486328126,-2.008000135421753,-41.40300369262695,-18.025001525878906
1788678605383093000,10.975093017578125,-1.8870000839233398,-42.90800094604492,-18.34400177001953
1788678605399219000,10.991218994140626,-1.2300000190734863,-42.57500076293945,-17.42500114440918
1788678605415431000,11.007430908203125,-0.9410000443458557,-41.189002990722656,-17.92300033569336
1788678605431553500,11.023553466796875,-2.18500018119812,-42.03000259399414,-16.808000564575195
1788678605447600400,11.039600341796875,-2.4230000972747803,-42.58400344848633,-18.23900032043457
1788678605463746300,11.055746337890625,-1.162000060081482,-41.95000076293945,-18.744001388549805
1788678605479884300,11.07188427734375,-3.5240001678466797,-41.95500183105469,-19.352001190185547
1788678605496095200,11.08809521484375,-2.0320000648498535,-40.77000045776367,-18.733001708984375
1788678605512204300,11.104204345703126,-2.7860000133514404,-40.66400146484375,-18.93400001525879
1788678605528266800,11.120266845703124,-2.003000020980835,-43.022003173828125,-18.854000091552734
1788678605544413000,11.136412841796876,-2.9020001888275146,-40.67000198364258,-19.34200096130371
1788678605560521700,11.152521728515625,-3.0950000286102295,-42.60200119018555,-19.66400146484375
1788678605576737500,11.168737548828124,-2.9220001697540283,-41.00600051879883,-20.46500015258789
1788678605592872400,11.18487255859375,-1.7300001382827759,-40.457000732421875,-19.341001510620117
1788678605608937500,11.2009375,-1.0730000734329224,-40.66400146484375,-18.733001708984375
1788678605625079000,11.2170791015625,-2.0360000133514404,-41.961002349853516,-19.660001754760742
1788678605641187300,11.233187255859375,-3.5350000858306885,-40.23200225830078,-18.726001739501953
1788678605657400800,11.24940087890625,-1.9830000400543213,-39.61600112915039,-20.556001663208008
1788678605673540600,11.26554052734375,-2.203000068664551,-40.268001556396484,-21.275001525878906
1788678605689610200,11.2816103515625,-0.47300001978874207,-38.204002380371094,-19.017000198364258
1788678605705760000,11.297760009765625,-2.621000051498413,-40.262001037597656,-20.86600112915039
1788678605721869600,11.31386962890625,-1.5460001230239868,-38.314002990722656,-19.323001861572266
1788678605738083000,11.3300830078125,-3.6710002422332764,-39.60100173950195,-19.637001037597656
1788678605754227000,11.34622705078125,-3.055000066757202,-38.75300216674805,-20.24100112915039
1788678605770251500,11.36225146484375,-4.195000171661377,-39.486000061035156,-19.126001358032227
1788678605786396700,11.378396728515625,-2.9630000591278076,-39.194000244140625,-21.16200065612793
1788678605802505200,11.394505126953124,-1.3480000495910645,-38.97200012207031,-20.44900131225586
1788678605818720000,11.410719970703125,-4.88700008392334,-39.40800094604492,-21.365001678466797
1788678605834830600,11.42683056640625,-4.210999965667725,-39.928001403808594,-20.148000717163086
1788678605850870300,11.442870361328126,-0.7970000505447388,-38.96200180053711,-19.635000228881836
1788678605867017200,11.459017333984375,-3.1740002632141113,-39.73200225830078,-21.3700008392334
1788678605883125200,11.475125244140624,-1.755000114440918,-40.47200012207031,-20.46200180053711
1788678605899339300,11.49133935546875,-1.4470000267028809,-39.39900207519531,-20.351001739501953
1788678605915459800,11.5074599609375,0.6640000343322754,-38.552001953125,-20.856000900268555
1788678605931503600,11.523503662109375,-1.1150000095367432,-40.25700378417969,-20.35900115966797
1788678605947651000,11.539651123046875,-1.0230000019073486,-39.18600082397461,-20.350000381469727
1788678605963761000,11.555760986328124,-0.9410000443458557,-38.87700271606445,-21.264001846313477
1788678605979974000,11.571973876953125,0.6660000085830688,-39.19900131225586,-21.167001724243164
1788678605996097800,11.588097900390625,0.7780000567436218,-38.87300109863281,-20.757001876831055
1788678606012150500,11.604150634765626,-0.2750000059604645,-38.2140007019043,-19.731000900268555
1788678606028297500,11.62029736328125,0.7770000100135803,-38.98100280761719,-20.85900115966797
1788678606044404700,11.63640478515625,-0.5290000438690186,-39.10300064086914,-22.08100128173828
1788678606060596200,11.65259619140625,0.7360000610351562,-37.169002532958984,-21.5570011138916
1788678606076728300,11.668728271484374,-0.7460000514984131,-38.02400207519531,-21.562000274658203
1788678606092792300,11.684792236328125,0.5590000152587891,-37.47100067138672,-20.13300132751465
1788678606108937200,11.700937255859374,-0.19600000977516174,-37.367000579833984,-20.437000274658203
1788678606125044700,11.717044677734375,1.8580000400543213,-38.435001373291016,-19.939001083374023
1788678606141261800,11.73326171875,-2.2330000400543213,-37.909000396728516,-21.152000427246094
1788678606157407000,11.749406982421876,1.8350000381469727,-38.448001861572266,-20.95800018310547
1788678606173434400,11.765434326171874,-0.7390000224113464,-37.695003509521484,-21.05000114440918
1788678606189586700,11.781586669921875,-1.4810000658035278,-38.23200225830078,-21.1560001373291
1788678606205731800,11.79773193359375,-0.6130000352859497,-38.7650032043457,-20.856000900268555
1788678606221952000,11.813951904296875,1.3040000200271606,-38.3380012512207,-20.753000259399414
1788678606238110700,11.83011083984375,-0.01100000087171793,-36.952003479003906,-21.452001571655273
1788678606254182400,11.846182373046876,-1.7930001020431519,-38.22600173950195,-20.748001098632812
1788678606270337000,11.8623369140625,-0.8020000457763672,-38.42500305175781,-19.52800178527832
1788678606286440400,11.8784404296875,0.032999999821186066,-37.573001861572266,-19.827001571655273
1788678606302657300,11.8946572265625,0.44700002670288086,-36.60900115966797,-19.819000244140625
1788678606318777900,11.91077783203125,-0.37300002574920654,-38.53300094604492,-19.530000686645508
1788678606334822400,11.926822509765625,-0.18000000715255737,-37.573001861572266,-19.827001571655273
1788678606350971600,11.9429716796875,-2.2320001125335693,-36.17900085449219,-20.016000747680664
1788678606367082200,11.959082275390625,-1.1200000047683716,-37.55900192260742,-18.909000396728516
1788678606383299800,11.9752998046875,-1.2200000286102295,-38.74300003051758,-19.327001571655273
1788678606399419400,11.99141943359375,-2.0920000076293945,-36.91600036621094,-19.00400161743164
1788678606415472400,12.007472412109376,-2.8370001316070557,-37.4530029296875,-19.21200180053711
1788678606431620000,12.0236201171875,-0.6960000395774841,-37.020999908447266,-18.701000213623047
1788678606447727600,12.0397275390625,-1.718000054359436,-34.89500045776367,-20.10700035095215
1788678606463942000,12.05594189453125,0.24400001764297485,-36.71000289916992,-19.413000106811523
1788678606480076500,12.07207666015625,-2.1050000190734863,-37.1400032043457,-19.71900177001953
1788678606496138200,12.08813818359375,-0.6200000047683716,-36.60700225830078,-19.81800079345703
1788678606512287700,12.104287841796875,-1.7000000476837158,-35.53300094604492,-19.705001831054688
1788678606528398600,12.120398681640625,0.09400000423192978,-35.224002838134766,-20.418001174926758
1788678606544619000,12.136618896484375,-2.330000162124634,-35.849002838134766,-19.402000427246094
1788678606560759300,12.15275927734375,-0.2630000114440918,-32.86800003051758,-20.600000381469727
1788678606576828200,12.168828125,-3.127000093460083,-34.58100128173828,-20.816001892089844
1788678606592952300,12.184952392578126,-1.3960000276565552,-35.21800231933594,-20.21200180053711
1788678606609064200,12.201064208984375,-2.8610000610351562,-35.73800277709961,-19.196001052856445
1788678606625283300,12.217283447265626,-3.0350000858306885,-33.83400344848633,-21.01300048828125
1788678606641430000,12.233429931640625,-2.3610000610351562,-33.59800338745117,-19.381999969482422
1788678606657502200,12.249502197265626,-2.2810001373291016,-33.83100128173828,-20.70800018310547
1788678606673648000,12.265648193359375,-2.3910000324249268,-34.913002014160156,-21.533000946044922
1788678606689779500,12.281779541015625,-2.7320001125335693,-32.763999938964844,-21.106000900268555
1788678606705997300,12.297997314453125,-4.087000370025635,-32.525001525878906,-19.472000122070312
1788678606722150100,12.314150146484375,-4.4150004386901855,-34.259002685546875,-20.913000106811523
1788678606738174200,12.33017431640625,-2.6010000705718994,-33.182003021240234,-20.295000076293945
1788678606754320000,12.34631982421875,-3.6650002002716064,-33.28600311279297,-20.192001342773438
1788678606770460700,12.362460693359376,-4.75,-31.998001098632812,-20.18000030517578
1788678606786673700,12.378673583984375,-4.982000350952148,-31.684001922607422,-20.788000106811523
1788678606802822100,12.394822265625,-4.084000110626221,-32.7400016784668,-19.474000930786133
1788678606818895000,12.41089501953125,-4.5329999923706055,-32.428001403808594,-20.286001205444336
1788678606835049500,12.427049560546875,-3.997000217437744,-32.104000091552734,-19.97800064086914
1788678606851150800,12.44315087890625,-4.76800012588501,-32.009002685546875,-20.9950008392334
1788678606867368200,12.4593681640625,-3.0310001373291016,-33.29100036621094,-20.499000549316406
1788678606883498200,12.475498291015626,-5.1670002937316895,-33.07200241088867,-20.392000198364258
1788678606899553800,12.4915537109375,-5.063000202178955,-32.858001708984375,-20.391000747680664
1788678606915700700,12.50770068359375,-3.253000259399414,-32.647003173828125,-20.493000030517578
1788678606931809800,12.523809814453125,-4.953000068664551,-32.9640007019043,-20.290000915527344
1788678606948026000,12.540026123046875,-4.3580002784729,-30.506000518798828,-20.77800178527832
1788678606964157000,12.556156982421875,-1.9480000734329224,-32.09400177001953,-19.06300163269043
1788678606980217300,12.57221728515625,-4.6610002517700195,-30.279001235961914,-19.85900115966797
1788678606996363500,12.588363525390625,-6.28000020980835,-30.288002014160156,-20.672000885009766
1788678607012505300,12.60450537109375,-3.892000198364258,-31.781002044677734,-19.873001098632812
1788678607028724700,12.620724853515625,-5.389000415802002,-31.347002029418945,-19.66400146484375
1788678607044867800,12.636867919921874,-4.939000129699707,-32.307003021240234,-19.26500129699707
1788678607060942000,12.652942138671875,-3.6700000762939453,-31.560001373291016,-19.362001419067383
1788678607077092600,12.669092529296876,-3.9080002307891846,-30.81800079345703,-19.96700096130371
1788678607093205200,12.685205322265626,-6.3460001945495605,-32.42399978637695,-20.181001663208008
1788678607109422000,12.701422119140625,-2.9580001831054688,-31.47500228881836,-20.89000129699707
1788678607125575200,12.7175751953125,-5.383000373840332,-32.10000228881836,-19.874000549316406
1788678607141608000,12.73360791015625,-4.183000087738037,-32.303001403808594,-18.85900115966797
1788678607157717800,12.7497177734375,-4.200000286102295,-30.908000946044922,-18.7450008392334
1788678607173826000,12.765825927734374,-4.323000431060791,-30.702001571655273,-19.354000091552734
1788678607190043400,12.78204345703125,-5.571000099182129,-31.652002334594727,-18.444000244140625
1788678607206200300,12.798200439453124,-5.153000354766846,-31.11800193786621,-18.541000366210938
1788678607222237400,12.814237548828125,-4.830000400543213,-30.144001007080078,-17.82000160217285
1788678607238384000,12.830384033203124,-4.840000152587891,-31.447002410888672,-19.054000854492188
1788678607254526700,12.846526611328125,-6.650000095367432,-31.3330020904541,-18.7450008392334
1788678607270741500,12.862741455078124,-4.9770002365112305,-28.76300048828125,-18.725000381469727
1788678607286888200,12.87888818359375,-6.1080002784729,-30.57200050354004,-17.924001693725586
1788678607302960000,12.894960205078124,-7.734000205993652,-30.261001586914062,-18.836000442504883
1788678607319108900,12.91110888671875,-6.111000061035156,-31.007001876831055,-18.336000442504883
1788678607335254300,12.927254150390626,-7.75100040435791,-30.055002212524414,-19.446001052856445
1788678607351468500,12.943468505859375,-5.379000186920166,-30.90900230407715,-18.94700050354004
1788678607367625500,12.95962548828125,-6.867000102996826,-30.038002014160156,-18.12200164794922
1788678607383682600,12.9756826171875,-6.87000036239624,-30.364002227783203,-18.431001663208008
1788678607399836000,12.9918359375,-7.907000541687012,-30.45100212097168,-17.106000900268555
1788678607415940000,13.007940185546875,-6.2330002784729,-30.907001495361328,-18.946001052856445
1788678607432158500,13.024158447265625,-6.197000503540039,-30.886001586914062,-17.31599998474121
1788678607448273700,13.040273681640626,-4.805000305175781,-31.31800079345703,-17.42300033569336
1788678607464368600,13.05636865234375,-5.2270002365112305,-31.854001998901367,-17.529001235961914
1788678607480516900,13.072516845703126,-6.842000484466553,-32.07600021362305,-18.242000579833984
1788678607496628700,13.088628662109375,-7.478000164031982,-30.559001922607422,-17.10700035095215
1788678607512846000,13.10484619140625,-6.174000263214111,-31.845001220703125,-16.917001724243164
1788678607528989700,13.12098974609375,-8.093000411987305,-31.407001495361328,-16.503000259399414
1788678607545016000,13.13701611328125,-6.39900016784668,-32.06700134277344,-17.530000686645508
1788678607561158700,13.15315869140625,-7.3580002784729,-30.33500099182129,-16.393001556396484
1788678607577268700,13.169268798828124,-7.992000579833984,-30.546001434326172,-16.190000534057617
1788678607593485000,13.185485107421876,-6.716000556945801,-32.281002044677734,-17.5310001373291
1788678607609629200,13.201629150390625,-7.567000389099121,-30.87200164794922,-16.499000549316406
1788678607625700000,13.2177001953125,-7.277000427246094,-30.999000549316406,-17.927000045776367
1788678607641845500,13.233845458984375,-7.569000244140625,-30.55000114440918,-16.394001007080078
1788678607657956600,13.24995654296875,-5.940000057220459,-31.400001525878906,-15.691000938415527
1788678607674168600,13.26616845703125,-7.487000465393066,-30.889001846313477,-17.722000122070312
1788678607690322200,13.282322265625,-6.589000225067139,-30.4320011138916,-15.47800064086914
1788678607706359300,13.298359375,-5.948000431060791,-31.297000885009766,-15.995000839233398
1788678607722506200,13.31450634765625,-6.817000389099121,-30.87200164794922,-16.398000717163086
1788678607738614800,13.33061474609375,-10.229000091552734,-30.10700225830078,-15.67400074005127
1788678607754828000,13.346828125,-8.184000015258789,-31.93800163269043,-16.100000381469727
1788678607770941000,13.36294091796875,-8.419000625610352,-29.897001266479492,-15.7760009765625
1788678607787046700,13.379046630859374,-9.142000198364258,-30.31300163269043,-14.964000701904297
1788678607803190800,13.395190673828125,-9.379000663757324,-30.11100196838379,-15.879000663757324
1788678607819298000,13.411298095703126,-10.427000045776367,-30.530000686645508,-15.270000457763672
1788678607835512800,13.427512939453125,-10.847000122070312,-31.065000534057617,-15.274001121520996
1788678607851637500,13.443637451171876,-9.50100040435791,-30.336002349853516,-16.69500160217285
1788678607867696400,13.4596962890625,-11.930000305175781,-30.424001693725586,-15.57300090789795
1788678607883840800,13.4758408203125,-9.384000778198242,-29.898000717163086,-15.97900104522705
1788678607899981300,13.491981201171875,-10.748000144958496,-29.989002227783203,-14.959000587463379
1788678607916195600,13.508195556640626,-10.131000518798828,-28.60000228881836,-15.1510009765625
1788678607932310500,13.524310546875,-10.454000473022461,-30.222002029418945,-16.286001205444336
1788678607948404000,13.540404052734376,-12.378000259399414,-29.463001251220703,-15.869000434875488
1788678607964549000,13.556549072265625,-10.220000267028809,-29.237001419067383,-14.749000549316406
1788678607980647000,13.57264697265625,-8.317000389099121,-30.00800132751465,-16.08300018310547
1788678607996860000,13.58885986328125,-9.359000205993652,-30.74700164794922,-15.375000953674316
1788678608013007400,13.60500732421875,-11.915000915527344,-30.19900131225586,-14.756000518798828
1788678608029075200,13.6210751953125,-9.822000503540039,-29.47100067138672,-16.178001403808594
1788678608045188900,13.63718896484375,-10.788000106811523,-29.905000686645508,-16.690000534057617
1788678608061298400,13.65329833984375,-10.425000190734863,-29.880001068115234,-14.755001068115234
1788678608077513000,13.669512939453124,-7.6650004386901855,-30.543001174926758,-15.885001182556152
1788678608093672700,13.685672607421875,-7.034000396728516,-29.46900177001953,-15.672000885009766
1788678608109700000,13.7017001953125,-8.079999923706055,-30.535001754760742,-15.375000953674316
1788678608125851000,13.717850830078126,-7.563000202178955,-29.033000946044922,-15.158000946044922
1788678608141960000,13.7339599609375,-8.092000007629395,-30.00200080871582,-15.574000358581543
1788678608158173700,13.750173583984376,-8.094000816345215,-29.679000854492188,-15.469000816345215
1788678608174332400,13.76633251953125,-10.19800090789795,-29.87200164794922,-14.144001007080078
1788678608190369800,13.782369873046875,-9.350000381469727,-31.066001892089844,-15.17400074005127
1788678608206517000,13.79851708984375,-9.140000343322754,-31.285001754760742,-15.482000350952148
1788678608222623700,13.814623779296875,-6.488000392913818,-30.327001571655273,-15.681000709533691
1788678608238839600,13.830839599609375,-8,-29.795001983642578,-16.08100128173828
1788678608254959400,13.84695947265625,-6.909000396728516,-30.97100067138672,-15.78800106048584
1788678608271009500,13.863009521484376,-9.308000564575195,-32.44600296020508,-14.168000221252441
1788678608287201500,13.879201416015626,-8.392000198364258,-30.96200180053711,-15.2760009765625
1788678608303309800,13.895309814453125,-6.664000511169434,-31.601001739501953,-14.77500057220459
1788678608319523800,13.91152392578125,-5.617000102996826,-30.750001907348633,-15.176000595092773
1788678608335647000,13.92764697265625,-6.75700044631958,-31.917001724243164,-14.370000839233398
1788678608351701800,13.94370166015625,-7.837000370025635,-31.70600128173828,-14.774001121520996
1788678608367846700,13.9598466796875,-7.192000389099121,-31.704002380371094,-14.571001052856445
1788678608383954000,13.975953857421874,-7.722000598907471,-32.134002685546875,-14.676000595092773
1788678608400171000,13.9921708984375,-8.0600004196167,-31.171001434326172,-14.871000289916992
1788678608416301300,14.00830126953125,-8.451000213623047,-32.77000045776367,-14.273000717163086
1788678608432356900,14.02435693359375,-6.764000415802002,-31.921001434326172,-14.676000595092773
1788678608448505000,14.040505126953125,-6.7310004234313965,-32.65700149536133,-13.66300106048584
1788678608464615200,14.056615234375,-7.872000217437744,-33.28300094604492,-12.547000885009766
1788678608480831200,14.072831298828126,-7.688000202178955,-32.4370002746582,-13.355000495910645
1788678608496955400,14.088955322265624,-8.542000770568848,-32.76000213623047,-13.5600004196167
1788678608513025000,14.10502490234375,-6.717000484466553,-32.54100036621094,-12.949000358581543
1788678608529166800,14.121166748046875,-8.336000442504883,-31.57600212097168,-13.143000602722168
1788678608545310500,14.137310546875,-8.188000679016113,-32.7400016784668,-12.032000541687012
1788678608561527000,14.153527099609375,-7.595000267028809,-32.121002197265625,-13.759000778198242
1788678608577658000,14.169658203125,-7.246000289916992,-32.861000061035156,-12.952000617980957
1788678608593728500,14.185728515625,-8.096000671386719,-33.83000183105469,-13.366000175476074
1788678608609873400,14.201873291015625,-8.636000633239746,-32.428001403808594,-12.742000579833984
1788678608625977300,14.217977294921875,-8.086000442504883,-33.39200210571289,-12.65000057220459
1788678608642192100,14.234192138671874,-7.543000221252441,-32.73800277709961,-11.830000877380371
1788678608658304800,14.2503046875,-7.955000400543213,-34.45800018310547,-12.25200080871582
1788678608674344700,14.2663447265625,-7.139000415802002,-32.75300216674805,-12.849000930786133
1788678608690491400,14.282491455078125,-6.0400004386901855,-33.16800308227539,-11.733000755310059
1788678608706600200,14.29860009765625,-5.624000072479248,-33.5,-12.450000762939453
1788678608722815000,14.31481494140625,-7.7870001792907715,-31.027002334594727,-12.120000839233398
1788678608738967600,14.330967529296874,-6.505000114440918,-33.191001892089844,-13.465001106262207
1788678608755012600,14.3470126953125,-7.357000350952148,-33.079002380371094,-13.259000778198242
1788678608771162600,14.36316259765625,-7.327000141143799,-33.60200119018555,-12.245000839233398
1788678608787273200,14.379273193359374,-6.457000255584717,-33.702003479003906,-11.636000633239746
1788678608803489000,14.395489013671876,-5.62000036239624,-33.82100296020508,-12.453001022338867
1788678608819613400,14.411613525390624,-9.267000198364258,-33.71800231933594,-13.160000801086426
1788678608835673600,14.427673583984374,-6.5970001220703125,-33.83000183105469,-13.165000915527344
1788678608851823000,14.443822998046874,-7.119000434875488,-33.82200241088867,-12.655000686645508
1788678608867933400,14.459933349609376,-6.490000247955322,-33.505001068115234,-12.958000183105469
1788678608884149200,14.476149169921875,-6.812000274658203,-32.20899963378906,-12.233000755310059
1788678608900284400,14.492284423828124,-8.069000244140625,-33.165000915527344,-11.731000900268555
1788678608916327700,14.50832763671875,-5.8470001220703125,-33.829002380371094,-13.064001083374023
1788678608932474400,14.524474365234376,-7.321000576019287,-34.67900085449219,-12.66200065612793
1788678608948615200,14.540615234375,-7.978000164031982,-33.823001861572266,-12.857000350952148
1788678608964830000,14.556829833984375,-4.948000431060791,-34.236000061035156,-11.337000846862793
1788678608980965400,14.57296533203125,-8.178000450134277,-32.842002868652344,-11.62600040435791
1788678608997071400,14.5890712890625,-6.754000186920166,-34.11900329589844,-10.824000358581543
1788678609013227500,14.6052275390625,-9.23900032043457,-33.80900192260742,-11.939000129699707
1788678609029368600,14.62136865234375,-8.895000457763672,-35.52400207519531,-11.954000473022461
1788678609045580500,14.63758056640625,-7.969000339508057,-32.19600296020508,-11.417000770568848
1788678609061712000,14.6537119140625,-7.633000373840332,-33.48400115966797,-11.530000686645508
1788678609077775400,14.669775390625,-8.189000129699707,-34.03700256347656,-12.859000205993652
1788678609093916700,14.685916748046875,-9.031000137329102,-33.59600067138672,-12.039000511169434
1788678609110019600,14.70201953125,-8.522000312805176,-34.36900329589844,-13.676000595092773
1788678609126235600,14.718235595703124,-7.559000492095947,-34.909000396728516,-13.886000633239746
1788678609142391000,14.73439111328125,-8.184000015258789,-34.68300247192383,-13.068000793457031
1788678609158434600,14.7504345703125,-8.50100040435791,-34.788002014160156,-12.967000961303711
1788678609174584300,14.766584228515624,-8.755000114440918,-33.30000305175781,-13.870000839233398
1788678609190691000,14.782691162109375,-6.700000286102295,-33.611000061035156,-12.857000350952148
1788678609206906400,14.79890625,-7.64900016784668,-33.81800079345703,-12.450000762939453
1788678609223024600,14.815024658203125,-4.154000282287598,-34.16600036621094,-13.986001014709473
1788678609239069000,14.83106884765625,-7.728000164031982,-34.66600036621094,-11.744000434875488
1788678609255218200,14.84721826171875,-6.464000225067139,-35.21900177001953,-12.871000289916992
1788678609271323400,14.863323486328126,-8.096000671386719,-33.83000183105469,-13.366000175476074
1788678609287533300,14.879533203125,-8.837000846862793,-33.5,-12.85300064086914
1788678609303661800,14.895661865234375,-8.011000633239746,-34.70800018310547,-14.902000427246094
1788678609319715600,14.911715576171876,-6.497000217437744,-34.48200225830078,-13.884000778198242
1788678609335862300,14.9278623046875,-5.835000514984131,-34.038002014160156,-12.658000946044922
1788678609351969800,14.9439697265625,-6.717000484466553,-33.8380012512207,-13.7760009765625
1788678609368186000,14.96018603515625,-7.777000427246094,-33.72300338745117,-13.366000175476074
1788678609384325000,14.9763251953125,-5.384000301361084,-34.13199996948242,-11.641000747680664
1788678609400389000,14.99238916015625,-7.630000591278076,-34.996002197265625,-12.359000205993652
1788678609416536800,15.008536865234374,-7.206000328063965,-33.80900192260742,-11.738000869750977
1788678609432644600,15.02464453125,-7.418000221252441,-33.70000076293945,-11.634000778198242
1788678609448858400,15.0408583984375,-6.14900016784668,-34.46600341796875,-12.66100025177002
1788678609465000200,15.057000244140625,-6.440000534057617,-35.3120002746582,-11.854000091552734
1788678609481073200,15.0730732421875,-8.409000396728516,-34.04100036621094,-13.164000511169434
1788678609497217800,15.0892177734375,-4.922000408172607,-35.51700210571289,-10.941000938415527
1788678609513325300,15.1053251953125,-6.1710004806518555,-35.236000061035156,-14.094000816345215
1788678609529541400,15.121541259765625,-4.5360002517700195,-35.32600021362305,-12.671000480651855
1788678609545688600,15.1376884765625,-7.211000442504883,-33.92100143432617,-12.044000625610352
1788678609561713400,15.15371337890625,-6.350000381469727,-34.242000579833984,-11.946000099182129
1788678609577866200,15.1698662109375,-5.802000045776367,-36.395999908447266,-12.679000854492188
1788678609593966000,15.185966064453124,-7.729000568389893,-35.74700164794922,-12.467000961303711
1788678609610179000,15.202178955078125,-6.090000152587891,-36.48400115966797,-11.253000259399414
1788678609626286800,15.218286865234376,-7.178000450134277,-36.27799987792969,-12.065000534057617
1788678609642349800,15.234349853515624,-9.188000679016113,-36.480003356933594,-11.351000785827637
1788678609658491400,15.250491455078125,-6.8460001945495605,-36.16400146484375,-11.45300006866455
1788678609674632700,15.2666328125,-5.240000247955322,-36.163002014160156,-11.25100040435791
1788678609690849000,15.28284912109375,-6.909000396728516,-38.19000244140625,-10.758000373840332
1788678609706996700,15.298996826171875,-5.949000358581543,-38.625,-11.069000244140625
1788678609723069700,15.315069580078125,-6.028000354766846,-37.63500213623047,-9.226000785827637
1788678609739220700,15.331220703125,-6.729000091552734,-36.698001861572266,-11.356000900268555
1788678609755319000,15.347319091796875,-5.824000358581543,-38.28900146484375,-10.047000885009766
1788678609771533300,15.363533203125,-3.8410000801086426,-35.94300079345703,-10.640000343322754
1788678609787651600,15.379651611328125,-5.8460001945495605,-38.51900100708008,-11.170000076293945
1788678609803704600,15.39570458984375,-4.486999988555908,-36.702003479003906,-11.359000205993652
1788678609819850800,15.411850830078125,-6.699000358581543,-38.08500289916992,-10.859000205993652
1788678609835959300,15.427959228515626,-5.986000061035156,-37.242000579833984,-11.871000289916992
1788678609852172000,15.444172119140624,-5.529000282287598,-37.441001892089844,-10.6510009765625
1788678609868305700,15.4603056640625,-4.700000286102295,-38.2140007019043,-12.289000511169434
1788678609884366600,15.47636669921875,-4.64300012588501,-39.26000213623047,-10.363000869750977
1788678609900512800,15.4925126953125,-6.845000267028809,-38.54100036621094,-12.90000057220459
1788678609916620500,15.50862060546875,-6.175000190734863,-38.52400207519531,-11.577000617980957
1788678609932829700,15.52482958984375,-6.73900032043457,-37.35200119018555,-12.177000999450684
1788678609948969000,15.540968994140625,-4.781000137329102,-38.630001068115234,-11.37600040435791
1788678609965036800,15.557036865234375,-7.00700044631958,-38.94200134277344,-10.866000175476074
1788678609981183500,15.57318359375,-5.777000427246094,-37.570003509521484,-12.282000541687012
1788678609997289700,15.589289794921875,-5.990000247955322,-38.75800323486328,-13.005001068115234
1788678610013501000,15.6055009765625,-6.954000473022461,-37.35300064086914,-12.278000831604004
1788678610029654500,15.621654541015625,-6.964000225067139,-37.68300247192383,-12.893000602722168
1788678610045683700,15.63768359375,-6.617000102996826,-38.74800109863281,-12.393000602722168
1788678610061799000,15.653798828125,-6.617000102996826,-38.10000228881836,-11.980000495910645
1788678610077905000,15.66990478515625,-5.130000114440918,-38.53900146484375,-12.597000122070312
1788678610094118700,15.68611865234375,-5.01200008392334,-39.505001068115234,-12.707000732421875
1788678610110255600,15.702255615234375,-4.931000232696533,-38.98100280761719,-13.518000602722168
1788678610126325800,15.71832568359375,-4.379000186920166,-38.755001068115234,-12.600000381469727
1788678610142471700,15.7344716796875,-6.741000175476074,-39.191001892089844,-13.416000366210938
1788678610158575600,15.75057568359375,-6.838000297546387,-39.4010009765625,-13.112000465393066
1788678610174788000,15.7667880859375,-5.9770002365112305,-39.182003021240234,-12.703001022338867
1788678610190901000,15.78290087890625,-6.119000434875488,-38.3380012512207,-13.714000701904297
1788678610206978000,15.79897802734375,-4.941000461578369,-38.87900161743164,-13.92400074005127
1788678610223118600,15.81511865234375,-6.749000549316406,-39.0880012512207,-13.720000267028809
1788678610239256000,15.831256103515624,-5.3560004234313965,-40.2760009765625,-14.242000579833984
1788678610255468500,15.847468505859375,-4.615000247955322,-40.605003356933594,-14.755001068115234
1788678610271620900,15.863620849609376,-4.820000171661377,-39.95100021362305,-13.934000968933105
1788678610287703000,15.879703125,-4.279000282287598,-40.92000198364258,-14.249000549316406
1788678610303858200,15.895858154296874,-5.670000076293945,-40.05500030517578,-13.832000732421875
1788678610319969000,15.911968994140626,-6.085000514984131,-41.560001373291016,-14.25200080871582
1788678610336182800,15.928182861328125,-4.284000396728516,-40.707000732421875,-14.349000930786133
1788678610352316000,15.94431591796875,-4.278000354766846,-39.8390007019043,-13.5260009765625
1788678610368378000,15.960378173828126,-2.9020001888275146,-40.281002044677734,-14.347001075744629
1788678610384523000,15.97652294921875,-2.8960001468658447,-39.737003326416016,-13.731000900268555
1788678610400628700,15.992628662109375,-2.892000198364258,-40.707000732421875,-14.147000312805176
1788678610416846000,16.00884619140625,-3.433000087738037,-39.84600067138672,-13.9350004196167
1788678610432984800,16.02498486328125,-3.6710002422332764,-40.07600021362305,-15.159000396728516
1788678610449011200,16.04101123046875,-2.8910000324249268,-41.24700164794922,-14.457000732421875
1788678610465158000,16.057157958984376,-4.353000164031982,-39.66800308227539,-16.784000396728516
1788678610481264400,16.073264404296875,-3.3550002574920654,-39.21500015258789,-14.846000671386719
1788678610497475600,16.0894755859375,-2.498000144958496,-40.40400314331055,-15.469000816345215
1788678610513624000,16.1056240234375,-2.822000026702881,-40.297000885009766,-15.569001197814941
1788678610529643300,16.121643310546876,-3.1550002098083496,-39.1150016784668,-15.355000495910645
1788678610545791700,16.137791748046876,-4.276000022888184,-41.999000549316406,-14.768000602722168
1788678610561896400,16.153896484375,-2.9060001373291016,-40.82400131225586,-14.861001014709473
1788678610578109700,16.170109619140625,-3.0310001373291016,-41.159000396728516,-15.882000923156738
1788678610594217500,16.186217529296876,-4.181000232696533,-41.250003814697266,-14.863000869750977
1788678610610251500,16.20225146484375,-3.884000301361084,-40.94000244140625,-15.676000595092773
1788678610626402000,16.218402099609374,-2.134999990463257,-41.56700134277344,-14.257000923156738
1788678610642511400,16.234511474609373,-2.0260000228881836,-42.2140007019043,-14.569000244140625
1788678610658725400,16.250725341796876,-3.7370002269744873,-41.67300033569336,-14.358000755310059
1788678610674846500,16.266846435546874,-5.3460001945495605,-41.999000549316406,-14.868000984191895
1788678610690899200,16.282899169921876,-3.882000207901001,-41.37200164794922,-15.883000373840332
1788678610707046700,16.299046630859376,-2.7930002212524414,-41.25200271606445,-14.86500072479248
1788678610723179300,16.31517919921875,-5.567000389099121,-41.24700164794922,-14.759000778198242
1788678610739399000,16.33139892578125,-2.372000217437744,-42.33700180053711,-15.792000770568848
1788678610755537200,16.347537109375,-3.19100022315979,-42.531002044677734,-14.36600112915039
1788678610771599400,16.363599365234375,-1.7110000848770142,-42.32600021362305,-14.87600040435791
1788678610787749000,16.3797490234375,-5.331000328063965,-42.09800338745117,-14.258000373840332
1788678610803892000,16.39589208984375,-4.080000400543213,-42.01000213623047,-15.583001136779785
1788678610820107800,16.412107666015626,-4.593000411987305,-41.02400207519531,-14.046000480651855
1788678610836243200,16.4282431640625,-5.511000156402588,-41.53700256347656,-12.419000625610352
1788678610852307500,16.444307373046875,-7.213000297546387,-42.178001403808594,-12.52400016784668
1788678610868461300,16.46046142578125,-4.663000106811523,-42.406002044677734,-13.243000984191895
1788678610884568800,16.47656884765625,-4.584000110626221,-41.55900192260742,-13.94800090789795
1788678610900785200,16.49278515625,-5.51800012588501,-42.189002990722656,-13.13800048828125
1788678610916932400,16.508932373046875,-3.6000001430511475,-42.84400177001953,-13.757000923156738
1788678610932967200,16.52496728515625,-3.627000093460083,-42.75200271606445,-14.87700080871582
1788678610949113600,16.541113525390625,-3.819000244140625,-43.60300064086914,-14.47700023651123
1788678610965220400,16.557220458984375,-6.24500036239624,-42.500003814697266,-12.427000999450684
1788678610981434400,16.573434326171874,-4.236000061035156,-42.08300018310547,-13.03700065612793
1788678610997582800,16.589582763671874,-5.505000114440918,-44.55900192260742,-14.076000213623047
1788678611013614800,16.60561474609375,-4.345000267028809,-43.057003021240234,-13.758000373840332
1788678611029756400,16.62175634765625,-5.019000053405762,-42.428001403808594,-14.872000694274902
1788678611045898800,16.637898681640625,-4.464000225067139,-43.496002197265625,-14.577000617980957
1788678611062115600,16.654115478515624,-3.578000068664551,-44.45100021362305,-13.772000312805176
1788678611078231300,16.670231201171877,-5.408000469207764,-43.052001953125,-13.553000450134277
1788678611094272800,16.686272705078125,-5.307000160217285,-42.948001861572266,-13.756000518798828
1788678611110421500,16.70242138671875,-7.207000255584717,-43.90400314331055,-13.355000495910645
1788678611126529300,16.718529296875,-6.591000080108643,-42.94700241088867,-13.856000900268555
1788678611142742000,16.734741943359374,-5.500000476837158,-43.47500228881836,-13.14900016784668
1788678611158861000,16.750861083984375,-7.634000301361084,-44.552001953125,-13.767000198364258
1788678611174908400,16.766908447265624,-5.729000091552734,-42.512001037597656,-13.242000579833984
1788678611191037000,16.783036865234376,-5.9730000495910645,-41.77400207519531,-14.152000427246094
1788678611207145000,16.79914501953125,-5.404000282287598,-43.15800094604492,-13.452000617980957
1788678611223358500,16.8153583984375,-6.363000392913818,-42.50700378417969,-12.93600082397461
1788678611239487700,16.83148779296875,-4.385000228881836,-42.10900115966797,-14.972001075744629
1788678611255584800,16.847584716796874,-5.425000190734863,-43.17000198364258,-14.369000434875488
1788678611271731200,16.863731201171873,-5.7220001220703125,-42.18400192260742,-12.730000495910645
1788678611287839000,16.8798388671875,-6.825000286102295,-42.95900344848633,-14.773000717163086
1788678611304054300,16.89605419921875,-3.6070001125335693,-43.496002197265625,-14.476000785827637
1788678611320194300,16.9121943359375,-5.873000144958496,-42.64200210571289,-14.975000381469727
1788678611336264700,16.9282646484375,-4.904000282287598,-43.720001220703125,-15.291000366210938
1788678611352408000,16.944407958984375,-6.372000217437744,-42.18800354003906,-13.137001037597656
1788678611368548000,16.960548095703125,-5.744000434875488,-43.71000289916992,-14.679000854492188
1788678611384766700,16.9767666015625,-7.238000392913818,-42.302001953125,-13.748001098632812
1788678611400899300,16.9928994140625,-8.086000442504883,-42.945003509521484,-13.85400104522705
1788678611416957700,17.008957763671877,-5.081000328063965,-43.37300109863281,-13.455000877380371
1788678611433115400,17.025115478515627,-6.807000160217285,-41.97600173950195,-13.338000297546387
1788678611449222100,17.04122216796875,-6.492000102996826,-42.19600296020508,-13.748001098632812
1788678611465445600,17.057445556640626,-6.180000305175781,-42.63300323486328,-14.363000869750977
1788678611481600800,17.073600830078124,-7.044000148773193,-42.53000259399414,-14.769001007080078
1788678611497620200,17.0896201171875,-8.711000442504883,-43.04300308227539,-13.243000984191895
1788678611513767700,17.105767578125,-7.438000202178955,-43.2660026550293,-13.756000518798828
1788678611529876200,17.121876220703125,-6.64300012588501,-41.14200210571289,-15.063000679016113
1788678611546091000,17.138091064453125,-6.816000461578369,-42.630001068115234,-14.159000396728516
1788678611562212900,17.154212890625,-6.058000087738037,-42.08400344848633,-13.340001106262207
1788678611578262000,17.170261962890624,-7.6660003662109375,-43.05800247192383,-14.26300048828125
1788678611594410800,17.18641064453125,-6.607000350952148,-41.76900100708008,-13.846000671386719
1788678611610522600,17.202522705078124,-7.777000427246094,-42.737003326416016,-14.260000228881836
1788678611626738400,17.218738525390624,-5.0980000495910645,-43.1670036315918,-14.064001083374023
1788678611642866400,17.234866455078127,-5.5400004386901855,-41.55400085449219,-13.744000434875488
1788678611658922800,17.2509228515625,-8.01200008392334,-42.20900344848633,-14.867000579833984
1788678611675073800,17.26707373046875,-7.133000373840332,-42.51900100708008,-13.954000473022461
1788678611691180500,17.2831806640625,-6.386000156402588,-41.980003356933594,-13.644001007080078
1788678611707394300,17.299394287109376,-6.826000213623047,-42.52800369262695,-14.565000534057617
1788678611723532800,17.31553271484375,-5.985000133514404,-41.45600128173828,-14.455000877380371
1788678611739601400,17.331601318359375,-6.218000411987305,-41.14400100708008,-15.165000915527344
1788678611755752700,17.347752685546876,-5.324000358581543,-42.742000579833984,-14.36500072479248
1788678611771865300,17.363865234375,-5.314000129699707,-43.2760009765625,-14.268000602722168
1788678611788082000,17.38008203125,-6.6110005378723145,-44.14800262451172,-15.497000694274902
1788678611804224500,17.396224609375,-3.6070001125335693,-43.06300354003906,-14.167000770568848
1788678611820269600,17.41226953125,-5.0970001220703125,-43.05800247192383,-13.961000442504883
1788678611836413000,17.428412841796874,-6.086000442504883,-42.20900344848633,-14.665000915527344
1788678611852518400,17.444518310546876,-6.176000118255615,-42.415000915527344,-14.056000709533691
1788678611868731100,17.460731201171875,-5.323000431060791,-42.63300323486328,-14.26300048828125
1788678611884863200,17.47686328125,-5.420000076293945,-43.492000579833984,-14.372000694274902
1788678611900892700,17.492892578125,-4.4720001220703125,-42.09600067138672,-14.055000305175781
1788678611917037600,17.50903759765625,-1.787000060081482,-43.71200180053711,-14.379000663757324
1788678611933145300,17.525145263671874,-5.0960001945495605,-42.95000076293945,-13.858000755310059
1788678611949359600,17.541359619140625,-6.99500036239624,-42.60900115966797,-12.630001068115234
1788678611965468700,17.55746875,-4.460000038146973,-41.98100280761719,-13.443000793457031
1788678611981508000,17.573508056640627,-6.560000419616699,-43.03700256347656,-12.533000946044922
1788678611997651700,17.589651611328126,-5.498000144958496,-42.28600311279297,-12.324000358581543
1788678612013762000,17.605761962890625,-5.408000469207764,-42.40400314331055,-13.140000343322754
1788678612029976000,17.62197607421875,-6.019000053405762,-42.38500213623047,-11.815000534057617
1788678612046089700,17.63808984375,-4.630000114440918,-43.79100036621094,-12.644001007080078
1788678612062130200,17.654130126953124,-4.394000053405762,-43.454002380371094,-11.419000625610352
1788678612078246700,17.67024658203125,-4.671000003814697,-41.979000091552734,-13.3410005569458
1788678612094354700,17.686354736328123,-6.419000148773193,-43.0160026550293,-11.005000114440918
1788678612110567700,17.702567626953126,-5.88800048828125,-43.99100112915039,-11.72700023651123
1788678612126689000,17.71868896484375,-5.082000255584717,-41.320003509521484,-12.214000701904297
1788678612142742000,17.734741943359374,-6.219000339508057,-42.592002868652344,-11.307000160217285
1788678612158891000,17.75089111328125,-3.7710001468658447,-43.46600341796875,-12.235000610351562
1788678612175000000,17.767,-4.492000102996826,-43.88100051879883,-11.321000099182129
1788678612191214800,17.78321484375,-5.2310004234313965,-42.902000427246094,-10.292000770568848
1788678612207341300,17.79934130859375,-3.739000082015991,-43.12200164794922,-10.60200023651123
1788678612223401500,17.8154013671875,-3.3590002059936523,-42.070003509521484,-12.019001007080078
1788678612239553300,17.83155322265625,-4.396000385284424,-41.94200134277344,-10.5910005569458
1788678612255663900,17.847663818359376,-3.9580001831054688,-42.801002502441406,-10.599000930786133
1788678612271879200,17.863879150390623,-6.9720001220703125,-42.487003326416016,-11.509000778198242
1788678612288018400,17.880018310546873,-6.104000091552734,-42.80400085449219,-11.105000495910645
1788678612304087300,17.89608740234375,-6.01300048828125,-42.4890022277832,-11.612000465393066
1788678612320236800,17.91223681640625,-4.934000015258789,-43.349002838134766,-11.621000289916992
1788678612336343000,17.928343017578126,-6.195000171661377,-43.44300079345703,-10.805000305175781
1788678612352555800,17.9445556640625,-4.8520002365112305,-42.82400131225586,-12.431000709533691
1788678612368703700,17.960703857421876,-6.111000061035156,-41.83500289916992,-10.791000366210938
1788678612384779300,17.976779296875,-5.697000503540039,-42.16800308227539,-11.610000610351562
1788678612400927500,17.992927490234376,-6.23900032043457,-41.7400016784668,-11.707000732421875
1788678612417035500,18.009035400390626,-6.974000453948975,-42.8120002746582,-11.817000389099121
1788678612433252900,18.0252529296875,-6.349000453948975,-42.7140007019043,-12.428000450134277
1788678612449366800,18.04136669921875,-6.779000282287598,-42.17500305175781,-12.219000816345215
1788678612465407000,18.057406982421874,-6.533000469207764,-43.345001220703125,-11.517000198364258
1788678612481554000,18.073553955078125,-7.735000133514404,-42.49500274658203,-12.221000671386719
1788678612497660400,18.089660400390624,-8.144000053405762,-41.83500289916992,-10.992000579833984
1788678612513873400,18.105873291015627,-8.17199993133545,-40.12300109863281,-11.181000709533691
1788678612529986600,18.121986572265627,-6.685000419616699,-42.39900207519531,-12.9350004196167
1788678612546030800,18.13803076171875,-7.431000232696533,-40.66800308227539,-11.79800033569336
1788678612562176500,18.154176513671874,-7.224000453948975,-40.88800048828125,-12.207000732421875
1788678612578275800,18.17027587890625,-8.37700080871582,-41.954002380371094,-11.910000801086426
1788678612594491000,18.186490966796875,-8.705000877380371,-41.5260009765625,-12.008000373840332
1788678612610604800,18.202604736328126,-6.136000156402588,-41.310001373291016,-11.601000785827637
1788678612626660000,18.21866015625,-6.99500036239624,-41.63600158691406,-12.011000633239746
1788678612642807300,18.234807373046873,-7.561000347137451,-41.76300048828125,-13.539000511169434
1788678612658914300,18.250914306640624,-7.445000171661377,-40.461002349853516,-12.305000305175781
1788678612675128300,18.26712841796875,-6.397000312805176,-41.55500030517578,-13.844000816345215
1788678612691264500,18.283264404296876,-9.559000015258789,-41.20100021362305,-11.800000190734863
1788678612707325700,18.29932568359375,-7.209000110626221,-41.63600158691406,-12.010000228881836
1788678612723473000,18.315472900390624,-5.923000335693359,-41.95900344848633,-12.015000343322754
1788678612739579400,18.331579345703126,-5.838000297546387,-40.676002502441406,-12.207000732421875
1788678612755812600,18.3478125,-7.02400016784668,-40.573001861572266,-12.612000465393066
1788678612771955500,18.36395556640625,-7.583000183105469,-40.695003509521484,-13.835000991821289
1788678612788017700,18.380017578125,-8.963000297546387,-41.445003509521484,-13.942000389099121
1788678612804170800,18.396170654296874,-8.086000442504883,-41.108001708984375,-12.718000411987305
1788678612820281300,18.41228125,-6.133000373840332,-41.41600036621094,-11.500000953674316
1788678612836498700,18.428498779296874,-6.579000473022461,-41.535003662109375,-12.418000221252441
1788678612852655400,18.4446552734375,-8.52500057220459,-41.43800354003906,-13.433000564575195
1788678612868695300,18.4606953125,-6.350000381469727,-41.634002685546875,-11.808000564575195
1788678612884842200,18.47684228515625,-7.647000312805176,-41.64200210571289,-12.519001007080078
1788678612900951300,18.492951416015625,-7.446000576019287,-41.86600112915039,-13.235000610351562
1788678612917165000,18.5091650390625,-8.29699993133545,-41.32200241088867,-12.719000816345215
1788678612933277400,18.52527734375,-6.37600040435791,-41.43400192260742,-12.825000762939453
1788678612949310000,18.54131005859375,-6.811000347137451,-40.03300094604492,-12.302000999450684
1788678612965450800,18.55745068359375,-7.11400032043457,-40.77800369262695,-12.003000259399414
1788678612981556500,18.573556396484374,-7.9810004234313965,-39.16400146484375,-11.580000877380371
1788678612997771500,18.589771484375,-6.060000419616699,-40.897003173828125,-12.718000411987305
1788678613013887500,18.605887451171874,-6.991000175476074,-40.76900100708008,-11.290000915527344
1788678613029964300,18.62196435546875,-7.207000255584717,-40.44600296020508,-11.1850004196167
1788678613046112800,18.63811279296875,-4.88700008392334,-40.7920036315918,-12.719000816345215
1788678613062221600,18.6542216796875,-7.969000339508057,-41.534000396728516,-12.518000602722168
1788678613078438700,18.670438720703125,-7.2220001220703125,-41.320003509521484,-12.415000915527344
1788678613094568200,18.686568115234376,-6.654000282287598,-40.867000579833984,-10.57800006866455
1788678613110626000,18.7026259765625,-7.836000442504883,-40.329002380371094,-10.572000503540039
1788678613126768600,18.7187685546875,-8.907999992370605,-40.33000183105469,-10.77400016784668
1788678613142875600,18.734875732421877,-7.086000442504883,-40.65400314331055,-10.678000450134277
1788678613159087600,18.751087646484375,-7.609000205993652,-40.10600280761719,-9.857000350952148
1788678613175214800,18.76721484375,-8.006999969482422,-41.384002685546875,-9.359000205993652
1788678613191269400,18.783269287109373,-6.549000263214111,-40.544002532958984,-10.474000930786133
1788678613207426800,18.7994267578125,-7.635000228881836,-39.90500259399414,-10.874000549316406
1788678613223540500,18.81554052734375,-8.450000762939453,-41.71800231933594,-10.278000831604004
1788678613239758600,18.831758544921875,-7.942000389099121,-41.194000244140625,-11.089000701904297
1788678613255897300,18.8478974609375,-8.883000373840332,-40.6400032043457,-9.860000610351562
1788678613271966500,18.863966552734375,-6.0970001220703125,-40.20600128173828,-9.147000312805176
1788678613288116000,18.880115966796875,-6.543000221252441,-40.97300338745117,-10.47700023651123
1788678613304225000,18.89622509765625,-5.236000061035156,-41.500003814697266,-9.669000625610352
1788678613320438300,18.912438232421874,-7.582000255584717,-41.38600158691406,-9.461000442504883
1788678613336583700,18.928583740234377,-6.077000141143799,-41.16600036621094,-8.850000381469727
1788678613352609000,18.944609130859376,-7.354000568389893,-41.27000045776367,-8.747000694274902
1788678613368758800,18.9607587890625,-7.109000205993652,-42.224002838134766,-7.941000461578369
1788678613384868000,18.9768681640625,-7.246000289916992,-41.37700271606445,-8.748000144958496
1788678613401088300,18.993088134765625,-6.510000228881836,-39.76400375366211,-8.226000785827637
1788678613417196800,19.00919677734375,-6.038000106811523,-42.332000732421875,-7.841000556945801
1788678613433236200,19.025236328125,-6.924000263214111,-41.16100311279297,-8.543000221252441
1788678613449383700,19.0413837890625,-7.783000469207764,-39.8650016784668,-7.919000148773193
1788678613465490700,19.05749072265625,-7.00700044631958,-41.25400161743164,-7.52500057220459
1788678613481707800,19.073707763671877,-6.073000431060791,-40.624000549316406,-8.336000442504883
1788678613497823700,19.08982373046875,-7.75700044631958,-41.25400161743164,-7.62600040435791
1788678613513870000,19.1058701171875,-6.6050004959106445,-41.27000045776367,-8.646000862121582
1788678613530017000,19.12201708984375,-7.478000164031982,-40.52400207519531,-9.046000480651855
1788678613546124300,19.138124267578124,-6.78000020980835,-40.05800247192383,-6.191000461578369
1788678613562300700,19.15430078125,-7.3460001945495605,-41.04900360107422,-8.236000061035156
1788678613578428400,19.170428466796874,-6.4720001220703125,-41.14600372314453,-7.423000335693359
1788678613594485800,19.18648583984375,-6.055000305175781,-41.58500289916992,-8.140000343322754
1788678613610629000,19.202629150390624,-4.871000289916992,-40.93300247192383,-7.321000576019287
1788678613626769400,19.218769287109374,-6.253000259399414,-41.03600311279297,-7.117000102996826
1788678613642985500,19.2349853515625,-6.236000061035156,-42.32200241088867,-7.128000259399414
1788678613659104300,19.251104248046875,-6.043000221252441,-41.794002532958984,-7.735000133514404
1788678613675200500,19.267200439453124,-6.478000164031982,-41.691001892089844,-8.039000511169434
1788678613691342600,19.283342529296874,-6.686000347137451,-41.470001220703125,-7.629000186920166
1788678613707482400,19.299482421875,-8.520000457763672,-39.96600341796875,-7.512000560760498
1788678613723697200,19.315697265625,-6.241000175476074,-40.92000198364258,-6.504000186920166
1788678613739830300,19.331830322265624,-6.6710004806518555,-39.624000549316406,-5.779000282287598
1788678613755891500,19.347891357421876,-8.506000518798828,-40.82200241088867,-7.418000221252441
1788678613772037600,19.36403759765625,-6.906000137329102,-40.82600021362305,-7.521000385284424
1788678613788147000,19.38014697265625,-8.641000747680664,-39.867000579833984,-8.122000694274902
1788678613804362200,19.3963623046875,-6.993000507354736,-41.246002197265625,-6.914000511169434
1788678613820514300,19.412514404296875,-6.709000110626221,-40.944000244140625,-8.338000297546387
1788678613836542200,19.428542236328123,-6.095000267028809,-40.204002380371094,-9.045000076293945
1788678613852689400,19.444689453125,-5.9710001945495605,-39.97800064086914,-8.12600040435791
1788678613868799000,19.460799072265626,-6.935000419616699,-40.41100311279297,-8.53600025177002
1788678613885013800,19.477013671875,-6.9120001792907715,-41.26100158691406,-8.035000801086426
1788678613901127400,19.49312744140625,-4.401000022888184,-40,-9.555000305175781
1788678613917163300,19.509163330078124,-5.345000267028809,-39.880001068115234,-8.737000465393066
1788678613933306600,19.525306640625,-6.964000225067139,-39.78000259399414,-9.44800090789795
1788678613949417700,19.541417724609374,-6.808000087738037,-41.047000885009766,-8.032999992370605
1788678613965633500,19.557633544921874,-7.1660003662109375,-41.285003662109375,-9.868000030517578
1788678613981753300,19.57375341796875,-5.581000328063965,-39.569000244140625,-9.54900074005127
1788678613997802200,19.58980224609375,-5.241000175476074,-41.50300216674805,-9.872000694274902
1788678614013952000,19.605951904296877,-4.39900016784668,-41.29500198364258,-10.279000282287598
1788678614030061600,19.6220615234375,-5.236000061035156,-41.82400131225586,-9.875
1788678614046280200,19.6382802734375,-7.6110005378723145,-40.43100357055664,-10.166000366210938
1788678614062412000,19.654412109375,-7.369000434875488,-40.84700012207031,-9.151000022888184
1788678614078469600,19.6704697265625,-6.7360005378723145,-41.176002502441406,-9.664000511169434
1788678614094619400,19.686619384765624,-5.999000072479248,-40.75100326538086,-9.86500072479248
1788678614110728200,19.702728271484375,-6.440000534057617,-40.868003845214844,-10.57800006866455
1788678614126942200,19.718942138671874,-5.260000228881836,-41.62200164794922,-10.790000915527344
1788678614143075800,19.735075927734375,-5.714000225067139,-40.77400207519531,-11.495000839233398
1788678614159137000,19.751136962890627,-5.451000213623047,-42.04100036621094,-10.081000328063965
1788678614175263700,19.767263671875,-7.377000331878662,-40.95900344848633,-9.559000015258789
1788678614191371000,19.78337109375,-7.598000526428223,-41.720001220703125,-10.381000518798828
1788678614207584500,19.79958447265625,-5.6620001792907715,-41.93100357055664,-9.87600040435791
1788678614223730700,19.815730712890623,-5.560000419616699,-41.39400100708008,-9.769000053405762
1788678614239754800,19.831754638671875,-6.63800048828125,-40.20900344848633,-9.452000617980957
1788678614255902500,19.84790234375,-4.968000411987305,-40.884002685546875,-11.599000930786133
1788678614272009700,19.864009765625,-6.5460004806518555,-42.272003173828125,-11.406000137329102
1788678614288223700,19.8802236328125,-6.534000396728516,-40.319000244140625,-9.657000541687012
1788678614304379100,19.896379150390626,-5.584000110626221,-41.19200134277344,-10.684000968933105
1788678614320436200,19.912436279296877,-6.75100040435791,-41.18600082397461,-10.37700080871582
1788678614336585000,19.9285849609375,-7.478000164031982,-40.415000915527344,-8.943000793457031
1788678614352734000,19.94473388671875,-6.058000087738037,-41.371002197265625,-8.138999938964844
1788678614368951600,19.96095166015625,-5.031000137329102,-41.073001861572266,-9.767000198364258
1788678614385065200,19.977065185546873,-6.294000148773193,-42.573001861572266,-9.881000518798828
1788678614401098500,19.993098388671875,-7.479000568389893,-42.14500045776367,-10.079000473022461
1788678614417246200,20.00924609375,-6.693000316619873,-42.772003173828125,-8.761000633239746
1788678614433357800,20.02535791015625,-6.714000225067139,-42.24400329589844,-9.368000030517578
1788678614449576200,20.041576171875,-5.023000240325928,-41.500003814697266,-9.669000625610352
1788678614465705000,20.057705078125,-7.267000198364258,-40.85000228881836,-9.355000495910645
1788678614481761800,20.07376171875,-4.371000289916992,-41.819000244140625,-9.367000579833984
1788678614497913600,20.08991357421875,-5.922000408172607,-43.62300109863281,-8.260000228881836
1788678614514029000,20.106029052734375,-7.573000431060791,-41.057003021240234,-8.847000122070312
1788678614530248200,20.122248291015627,-7.028000354766846,-42.02400207519531,-8.958000183105469
1788678614546379800,20.1383798828125,-6.084000110626221,-41.60300064086914,-9.46500015258789
1788678614562438000,20.15443798828125,-7.305000305175781,-42.53700256347656,-7.332000255584717
1788678614578590000,20.17058984375,-7.328000545501709,-42.33500289916992,-8.247000694274902
1788678614594704000,20.186703857421875,-6.812000274658203,-43.211002349853516,-9.580000877380371
1788678614610922800,20.2029228515625,-5.317000389099121,-42.56500244140625,-9.169000625610352
1788678614627062500,20.2190625,-6.937000274658203,-42.03300094604492,-9.671000480651855
1788678614643128800,20.23512890625,-4.793000221252441,-42.031002044677734,-9.267000198364258
1788678614659279600,20.251279541015624,-6.723000526428223,-41.277000427246094,-9.156000137329102
1788678614675388000,20.267387939453126,-6.709000110626221,-42.24100112915039,-9.164000511169434
1788678614691581700,20.283581787109377,-6.284000396728516,-42.45900344848633,-9.370000839233398
1788678614707732500,20.299732421875,-7.156000137329102,-42.46800231933594,-10.184000015258789
1788678614723764700,20.3157646484375,-8.289000511169434,-43.198001861572266,-8.76300048828125
1788678614739915000,20.3319150390625,-8.86400032043457,-42.03300094604492,-9.873000144958496
1788678614756049200,20.348049072265624,-5.5370001792907715,-43.10900115966797,-9.784000396728516
1788678614772266000,20.364265869140624,-6.505000114440918,-41.92300033569336,-9.36500072479248
1788678614788427800,20.380427734375,-6.612000465393066,-43.220001220703125,-10.192000389099121
