time,seconds_elapsed,z,y,x
1788678594578069500,0.170069580078125,9.66539192199707,1.4484920501708984,0.5770025849342346
1788678594594192100,0.186192138671875,9.706093788146973,1.5753847360610962,0.5578489899635315
1788678594610351000,0.20235107421875,9.967061996459961,1.5897499322891235,0.8403648138046265
1788678594626482700,0.218482666015625,10.096348762512207,1.702277421951294,0.9050082564353943
1788678594642584800,0.234584716796875,9.84495735168457,1.6759412288665771,0.8044517636299133
1788678594658739000,0.250739013671875,9.890447616577148,1.558625340461731,0.730231523513794
1788678594674848000,0.266847900390625,9.916783332824707,1.5658079385757446,0.811634361743927
1788678594691022800,0.28302294921875,9.787496566772461,1.7070658206939697,0.8906430602073669
1788678594707169500,0.29916943359375,9.279925346374512,1.8315643072128296,0.7924807667732239
1788678594723280400,0.3152802734375,8.13789176940918,1.8291701078414917,1.170764684677124
1788678594739429400,0.331429443359375,9.713275909423828,1.6304513216018677,0.7374141216278076
1788678594755570200,0.347570068359375,9.93354320526123,1.3287819623947144,0.9289502501487732
1788678594771759400,0.36375927734375,10.192116737365723,1.436521053314209,0.6129156351089478
1788678594787865000,0.379864990234375,10.007762908935547,1.6711528301239014,1.091755986213684
1788678594803974400,0.395974365234375,9.526528358459473,1.7836803197860718,1.4748282432556152
1788678594820124000,0.4121240234375,9.196128845214844,1.479616641998291,0.8427590131759644
1788678594836234800,0.42823486328125,10.043676376342773,1.4484920501708984,0.2825157940387726
1788678594852387000,0.444386962890625,10.579977035522461,1.4293384552001953,0.5961562395095825
1788678594868517600,0.460517578125,10.484209060668945,1.4844050407409668,0.828393816947937
1788678594884629500,0.47662939453125,10.196905136108398,1.5825673341751099,0.8906430602073669
1788678594900780300,0.4927802734375,10.034099578857422,1.8363527059555054,1.1971008777618408
1788678594916889000,0.50888916015625,10.005369186401367,2.008735179901123,1.0773907899856567
1788678594933049300,0.52504931640625,9.90241813659668,2.049436569213867,0.9888052940368652
1788678594949177000,0.541177001953125,9.433155059814453,1.8411411046981812,1.158793568611145
1788678594965291800,0.557291748046875,9.464279174804688,1.7693150043487549,0.8212111592292786
1788678594981443300,0.573443359375,10.551246643066406,1.9081788063049316,0.1867477297782898
1788678594997552600,0.589552734375,10.187328338623047,1.6041151285171509,0.3998316824436188
1788678595013721000,0.60572119140625,9.80904483795166,1.5634137392044067,0.45010992884635925
1788678595029854700,0.621854736328125,9.603142738342285,1.501164436340332,0.8379706144332886
1788678595045964000,0.637964111328125,9.354146003723145,1.6352397203445435,0.6991068720817566
1788678595062109400,0.654109375,9.191340446472168,1.6496049165725708,0.4836287498474121
1788678595078217700,0.6702177734375,9.35654067993164,1.534683346748352,0.5746083855628967
1788678595094392600,0.686392578125,10.101137161254883,1.4173674583435059,0.7733271718025208
1788678595110534100,0.7025341796875,10.44350814819336,1.3958195447921753,0.8810662031173706
1788678595126644700,0.718644775390625,10.280701637268066,1.5705963373184204,0.790086567401886
1788678595142793000,0.73479296875,9.892841339111328,1.7381904125213623,0.730231523513794
1788678595158901800,0.75090185546875,9.399636268615723,1.8411411046981812,0.7565677165985107
1788678595175085300,0.767085205078125,9.282320022583008,1.8722656965255737,0.6799532771110535
1788678595191183000,0.78318310546875,9.437943458557129,1.8507179021835327,0.6560112833976746
1788678595207294700,0.799294677734375,9.746794700622559,1.821987509727478,0.9026140570640564
1788678595223445800,0.81544580078125,9.983820915222168,1.7621324062347412,1.0654197931289673
1788678595239560200,0.831560302734375,9.995792388916016,1.7693150043487549,0.9361328482627869
1788678595255752400,0.84775244140625,9.864110946655273,1.7860745191574097,0.9145850539207458
1788678595271851500,0.8638515625,9.864110946655273,1.8315643072128296,0.6823474764823914
1788678595287972600,0.87997265625,9.737217903137207,1.8100165128707886,0.6200982332229614
1788678595304131300,0.89613134765625,9.768342971801758,1.7286136150360107,0.6200982332229614
1788678595320243000,0.912242919921875,9.801861763000488,1.7190368175506592,0.6823474764823914
1788678595336398300,0.9283984375,9.840168952941895,1.680729627609253,0.8451532125473022
1788678595352522200,0.944522216796875,9.725247383117676,1.8267759084701538,0.8403648138046265
1788678595368635100,0.96063525390625,9.701305389404297,1.9967641830444336,0.6392518281936646
1788678595384783400,0.976783447265625,9.555258750915527,1.9752163887023926,0.45010992884635925
1788678595400896300,0.992896240234375,9.564835548400879,1.8579005002975464,0.47405192255973816
1788678595417060900,1.009060791015625,9.516951560974121,1.8315643072128296,0.45250412821769714
1788678595433191200,1.025191162109375,9.651026725769043,1.8076223134994507,0.363918662071228
1788678595449305900,1.041305908203125,9.677363395690918,1.8052281141281128,0.24899697303771973
1788678595465458000,1.0574580078125,9.710882186889648,1.8818424940109253,0.28730419278144836
1788678595481571600,1.073571533203125,9.679757118225098,1.8698714971542358,0.45010992884635925
1788678595497742800,1.089742919921875,9.78989028930664,1.8483237028121948,0.6057330369949341
1788678595513880000,1.105880126953125,10.101137161254883,1.7836803197860718,0.6224924325942993
1788678595529993000,1.121992919921875,10.335768699645996,1.7334020137786865,0.5530605912208557
1788678595546143700,1.138143798828125,10.287884712219238,1.7597382068634033,0.5793967843055725
1788678595562253800,1.15425390625,10.429142951965332,1.8746598958969116,0.5339069962501526
1788678595578433300,1.170433349609375,10.08198356628418,1.766920804977417,0.6655880808830261
1788678595594579200,1.1865791015625,9.670180320739746,1.6496049165725708,0.2513911724090576
1788678595610692900,1.20269287109375,9.579200744628906,1.723825216293335,-0.14365209639072418
1788678595626841000,1.218841064453125,9.289502143859863,1.8794482946395874,0.05267243832349777
1788678595642951700,1.23495166015625,9.330204010009766,2.360682964324951,0.49320554733276367
1788678595659133700,1.2511337890625,9.636661529541016,2.142810583114624,0.8068459630012512
1788678595675235600,1.267235595703125,9.0859956741333,2.030282974243164,0.4429273009300232
1788678595691347500,1.283347412109375,9.421183586120605,1.5418659448623657,0.011971008032560349
1788678595707499300,1.299499267578125,9.375694274902344,1.9800047874450684,-0.035913024097681046
1788678595723613000,1.315613037109375,9.409213066101074,2.6216509342193604,0.49799394607543945
1788678595739807200,1.33180712890625,10.268731117248535,2.4851813316345215,0.751779317855835
1788678595755915500,1.34791552734375,10.35252857208252,2.078166961669922,0.8547300100326538
1788678595772025600,1.364025634765625,9.888052940368652,1.7477672100067139,0.507570743560791
1788678595788175000,1.380175048828125,9.792284965515137,1.5203180313110352,0.17238251864910126
1788678595804283600,1.39628369140625,10.019734382629395,1.5705963373184204,0.08858546614646912
1788678595820438000,1.41243798828125,10.15141487121582,1.6903064250946045,0.14844051003456116
1788678595836565200,1.428565185546875,9.86889934539795,1.843535304069519,0.22505496442317963
1788678595852678400,1.444678466796875,9.734824180603027,1.7980455160140991,0.33039984107017517
1788678595868832000,1.46083203125,9.84256362915039,1.7381904125213623,0.42377370595932007
1788678595884929800,1.4769296875,9.890447616577148,1.7764976024627686,0.43335050344467163
1788678595901088500,1.493088623046875,9.794678688049316,1.8531121015548706,0.4692635238170624
1788678595917221600,1.5092216796875,9.672574996948242,1.8818424940109253,0.4668693244457245
1788678595933333000,1.5253330078125,9.670180320739746,1.965639591217041,0.42856210470199585
1788678595949450800,1.54145068359375,9.667786598205566,2.0159177780151367,0.43095630407333374
1788678595965560300,1.557560302734375,9.59835433959961,2.0015525817871094,0.5123591423034668
1788678595981730600,1.57373046875,9.543288230895996,2.3056161403656006,0.7589619159698486
1788678595997866200,1.5898662109375,9.232041358947754,2.056619167327881,0.5530605912208557
1788678596013978000,1.60597802734375,9.519346237182617,1.8076223134994507,0.31842881441116333
1788678596030127900,1.6221279296875,9.612719535827637,1.7477672100067139,0.1604115068912506
1788678596046238200,1.63823828125,9.78989028930664,1.8602946996688843,0.17238251864910126
1788678596062409000,1.654408935546875,9.84495735168457,1.900996208190918,0.2944868206977844
1788678596078550500,1.670550537109375,9.708487510681152,1.9800047874450684,0.5267243981361389
1788678596094663000,1.686662841796875,9.75637149810791,2.0039467811584473,0.5003881454467773
1788678596110810600,1.702810546875,9.888052940368652,1.9393033981323242,0.38546648621559143
1788678596126922000,1.718921875,9.981427192687988,1.8794482946395874,0.3902548849582672
1788678596143106300,1.735106201171875,9.911994934082031,1.8555063009262085,0.27054479718208313
1788678596159203300,1.751203369140625,9.765948295593262,1.8555063009262085,0.2537853717803955
1788678596175313000,1.76731298828125,9.770736694335938,1.886630892753601,0.19871874153614044
1788678596191460600,1.783460693359375,9.78989028930664,1.9081788063049316,0.23702596127986908
1788678596207569200,1.799569091796875,9.914389610290527,1.8555063009262085,0.2968810200691223
1788678596223756500,1.815756591796875,9.967061996459961,1.86508309841156,0.3256114423274994
1788678596239853000,1.83185302734375,9.890447616577148,1.8698714971542358,0.272938996553421
1788678596255973000,1.84797314453125,9.873687744140625,1.8698714971542358,0.23942017555236816
1788678596272126000,1.8641259765625,9.816226959228516,1.86508309841156,0.24420857429504395
1788678596288239600,1.880239501953125,9.761159896850586,1.9033904075622559,0.181959331035614
1788678596304393700,1.896393798828125,9.737217903137207,1.8794482946395874,0.26575639843940735
1788678596320513800,1.912513671875,9.691728591918945,1.8555063009262085,0.35673606395721436
1788678596336624600,1.928624755859375,9.619902610778809,1.9273324012756348,0.30885201692581177
1788678596352771000,1.94477099609375,9.72285270690918,1.9249382019042969,0.33997663855552673
1788678596368883200,1.96088330078125,9.758766174316406,1.9273324012756348,0.35434186458587646
1788678596385046500,1.977046630859375,9.799467086791992,1.9321208000183105,0.3447650372982025
1788678596401179400,1.993179443359375,9.861717224121094,1.9369091987609863,0.3687070608139038
1788678596417293000,2.00929296875,9.859322547912598,1.9321208000183105,0.40940847992897034
1788678596433443300,2.025443359375,9.849745750427246,1.8842366933822632,0.40222588181495667
1788678596449551400,2.04155126953125,9.782708168029785,1.8746598958969116,0.35913026332855225
1788678596465715200,2.057715087890625,9.761159896850586,1.8602946996688843,0.3423708379268646
1788678596481840600,2.073840576171875,9.804255485534668,1.8746598958969116,0.3423708379268646
1788678596497952000,2.089951904296875,9.835380554199219,1.8483237028121948,0.33518823981285095
1788678596514101000,2.10610107421875,9.921571731567383,1.8171991109848022,0.33758243918418884
1788678596530212600,2.122212646484375,9.8784761428833,1.802833914756775,0.31842881441116333
1788678596546394600,2.13839453125,9.75637149810791,1.8770540952682495,0.2585737705230713
1788678596562493000,2.154492919921875,9.667786598205566,1.8579005002975464,0.2968810200691223
1788678596578605800,2.170605712890625,9.636661529541016,1.886630892753601,0.2992752194404602
1788678596594753300,2.186753173828125,9.66299819946289,1.9249382019042969,0.2801215946674347
1788678596610861000,2.202861083984375,9.682151794433594,1.9560627937316895,0.3280056416988373
1788678596627044600,2.219044677734375,9.761159896850586,1.9728221893310547,0.2849099934101105
1788678596643148500,2.2351484375,9.775525093078613,1.922544002532959,0.2082955539226532
1788678596659260400,2.251260498046875,9.773131370544434,1.8794482946395874,0.1843535304069519
1788678596675408600,2.26740869140625,9.710882186889648,1.9033904075622559,0.20111294090747833
1788678596691519200,2.283519287109375,9.732429504394531,1.9512743949890137,0.2298433631658554
1788678596707715300,2.29971533203125,9.660603523254395,2.0015525817871094,0.20111294090747833
1788678596723831000,2.3158310546875,9.823410034179688,2.0661959648132324,0.20350714027881622
1788678596739941400,2.33194140625,9.849745750427246,1.941697597503662,0.31124621629714966
1788678596756090400,2.34809033203125,9.600749015808105,1.7884687185287476,0.15562310814857483
1788678596772229600,2.364229736328125,9.885659217834473,1.968033790588379,0.047884032130241394
1788678596788412400,2.380412353515625,10.014945983886719,1.968033790588379,0.38307225704193115
1788678596804545500,2.396545654296875,10.311826705932617,1.900996208190918,0.2777273952960968
1788678596820655400,2.4126552734375,10.002974510192871,1.6759412288665771,0.1364694982767105
1788678596836802600,2.428802490234375,9.648633003234863,1.6903064250946045,-0.06703764945268631
1788678596852913700,2.44491357421875,9.648633003234863,1.922544002532959,-0.20350714027881622
1788678596869079600,2.46107958984375,9.682151794433594,2.030282974243164,-0.004788403399288654
1788678596885199000,2.47719921875,9.605537414550781,2.051830768585205,0.1149216815829277
1788678596901310500,2.493310546875,9.730035781860352,1.9704279899597168,0.16998831927776337
1788678596917460500,2.50946044921875,9.9000244140625,1.900996208190918,0.2082955539226532
1788678596933569300,2.5255693359375,9.909601211547852,1.9249382019042969,0.17717093229293823
1788678596949738500,2.541738525390625,9.876082420349121,1.9033904075622559,0.19871874153614044
1788678596965877800,2.557877685546875,9.828198432922363,1.8986018896102905,0.17956513166427612
1788678596981990100,2.573990234375,9.84256362915039,1.8818424940109253,0.21787235140800476
1788678596998140400,2.590140380859375,9.691728591918945,1.821987509727478,0.27054479718208313
1788678597014251300,2.606251220703125,9.557653427124023,1.8267759084701538,0.2537853717803955
1788678597030429400,2.622429443359375,9.694122314453125,1.800439715385437,0.3064578175544739
1788678597046529500,2.638529541015625,9.9000244140625,1.7621324062347412,0.38546648621559143
1788678597062643200,2.654643310546875,9.952696800231934,1.8483237028121948,0.3447650372982025
1788678597078794000,2.6707939453125,10.04846477508545,1.8962076902389526,0.35673606395721436
1788678597094905600,2.686905517578125,9.998186111450195,1.8579005002975464,0.2968810200691223
1788678597111096800,2.703096923828125,9.86889934539795,1.8555063009262085,0.22505496442317963
1788678597127196700,2.71919677734375,9.90241813659668,1.7812861204147339,0.18914192914962769
1788678597143311600,2.7353115234375,10.0580415725708,1.8579005002975464,0.10773907601833344
1788678597159459800,2.7514599609375,9.591172218322754,1.8195933103561401,0.1867477297782898
1788678597175574500,2.767574462890625,9.66299819946289,1.721431016921997,0.5147533416748047
1788678597191763700,2.783763671875,10.036493301391602,1.8626888990402222,0.40701428055763245
1788678597207859500,2.799859375,10.144232749938965,1.8267759084701538,0.3711012601852417
1788678597223966200,2.81596630859375,10.08437728881836,1.8363527059555054,0.4189853072166443
1788678597240112400,2.8321123046875,9.821015357971191,1.8986018896102905,0.4429273009300232
1788678597256218600,2.848218505859375,9.703699111938477,1.9991583824157715,0.4668693244457245
1788678597272373000,2.864373046875,9.481039047241211,2.0039467811584473,0.2322375625371933
1788678597288492500,2.880492431640625,9.605537414550781,1.9249382019042969,0.06464344263076782
1788678597304601900,2.896601806640625,9.569623947143555,1.9057846069335938,0.15562310814857483
1788678597320742400,2.912742431640625,9.643844604492188,1.8770540952682495,0.5674257874488831
1788678597336850000,2.928849853515625,9.619902610778809,1.8938134908676147,0.8523358106613159
1788678597353000400,2.94500048828125,9.674968719482422,1.9967641830444336,0.8259995579719543
1788678597369129200,2.961129150390625,9.481039047241211,2.0446481704711914,0.7852981686592102
1788678597385242000,2.9772421875,9.32302188873291,2.1739351749420166,0.4596867263317108
1788678597401392000,2.99339208984375,9.30386734008789,2.075772762298584,0.9816226959228516
1788678597417503000,3.0095029296875,9.612719535827637,2.142810583114624,0.9457096457481384
1788678597433669400,3.02566943359375,7.601590633392334,1.6065093278884888,0.2777273952960968
1788678597449803800,3.0418037109375,9.943120002746582,1.6639702320098877,0.3519476354122162
1788678597465916000,3.057916015625,10.213664054870605,1.580173134803772,0.8451532125473022
1788678597482061600,3.0740615234375,9.315838813781738,2.212242364883423,1.3623007535934448
1788678597498171000,3.0901708984375,9.710882186889648,2.1954829692840576,1.0678139925003052
1788678597514354400,3.1063544921875,10.012551307678223,1.4413094520568848,0.37828385829925537
1788678597530454500,3.12245458984375,10.24000072479248,1.601720929145813,0.4644751250743866
1788678597546567000,3.13856689453125,10.053253173828125,2.056619167327881,0.49799394607543945
1788678597562715400,3.15471533203125,9.825803756713867,2.0015525817871094,0.5889736413955688
1788678597578825200,3.1708251953125,10.070012092590332,1.7836803197860718,0.7230489253997803
1788678597595009800,3.187009765625,10.192116737365723,1.965639591217041,0.950498104095459
1788678597611116800,3.20311669921875,9.835380554199219,1.8818424940109253,1.1085153818130493
1788678597627228200,3.219228271484375,10.335768699645996,1.7334020137786865,0.6751648783683777
1788678597643377400,3.23537744140625,11.159374237060547,1.7812861204147339,0.12210428714752197
1788678597659487200,3.2514873046875,10.541669845581055,1.7812861204147339,-0.06224924325942993
1788678597675637800,3.2676376953125,9.849745750427246,1.7980455160140991,0.08619125932455063
1788678597691749600,3.28374951171875,10.041281700134277,1.886630892753601,0.2849099934101105
1788678597707863300,3.29986328125,10.194510459899902,1.8842366933822632,0.3758896589279175
1788678597724008400,3.316008544921875,10.050858497619629,1.843535304069519,0.5434837937355042
1788678597740118800,3.332118896484375,10.098742485046387,1.8818424940109253,0.49320554733276367
1788678597756271000,3.34827099609375,10.074800491333008,1.8818424940109253,0.33279404044151306
1788678597772404000,3.364404052734375,9.41639518737793,1.8267759084701538,0.33997663855552673
1788678597788515600,3.380515625,8.901641845703125,1.802833914756775,0.3280056416988373
1788678597804665900,3.396665771484375,8.865729331970215,1.8315643072128296,0.3663128614425659
1788678597820779500,3.412779541015625,8.808267593383789,1.7286136150360107,1.1468225717544556
1788678597836944400,3.4289443359375,9.536105155944824,1.7717092037200928,0.9409212470054626
1788678597853074200,3.44507421875,9.955090522766113,1.7070658206939697,0.706289529800415
1788678597869185500,3.461185546875,10.029311180114746,1.5514427423477173,0.751779317855835
1788678597885335300,3.477335205078125,9.605537414550781,1.4293384552001953,1.4077905416488647
1788678597901446000,3.49344580078125,9.497797966003418,1.8507179021835327,0.6967126727104187
1788678597917618200,3.5096181640625,9.428366661071777,1.9536685943603516,0.23942017555236816
1788678597933758000,3.525758056640625,9.344569206237793,1.8052281141281128,0.2753331959247589
1788678597949873400,3.541873291015625,9.521739959716797,1.764526605606079,0.507570743560791
1788678597966023400,3.5580234375,9.86889934539795,1.8411411046981812,0.6200982332229614
1788678597982134500,3.574134521484375,10.11550235748291,1.8291701078414917,0.6536170840263367
1788678597998315500,3.5903154296875,10.189722061157227,1.7836803197860718,0.6631938815116882
1788678598014459100,3.606459228515625,10.089165687561035,1.8052281141281128,0.6416460275650024
1788678598030570800,3.62257080078125,9.952696800231934,1.8315643072128296,0.5315127968788147
1788678598046722000,3.63872216796875,9.84256362915039,1.8986018896102905,0.40940847992897034
1788678598062831000,3.6548310546875,9.806650161743164,1.9536685943603516,0.4189853072166443
1788678598079012600,3.6710126953125,9.8784761428833,1.9704279899597168,0.5722141861915588
1788678598095110000,3.68710986328125,10.06043529510498,1.944091796875,0.7015010714530945
1788678598111225000,3.70322509765625,10.163386344909668,1.9249382019042969,0.8547300100326538
1788678598127380500,3.71938037109375,10.091560363769531,1.920149803161621,0.8762778043746948
1788678598143492400,3.735492431640625,9.923966407775879,1.9393033981323242,0.8834604024887085
1788678598159685600,3.751685546875,9.746794700622559,1.9632453918457031,0.8834604024887085
1788678598175797500,3.767797607421875,9.643844604492188,1.944091796875,0.7948749661445618
1788678598191905500,3.783905517578125,9.59835433959961,1.9752163887023926,0.7589619159698486
1788678598208052500,3.800052490234375,9.378087997436523,1.9800047874450684,0.7876923680305481
1788678598224160800,3.816160888671875,9.253589630126953,2.0039467811584473,0.7422025203704834
1788678598240317400,3.8323173828125,9.41639518737793,1.9608511924743652,0.5674257874488831
1788678598256441300,3.84844140625,9.586383819580078,1.886630892753601,0.4381389021873474
1788678598272553000,3.864552978515625,9.516951560974121,1.8387469053268433,0.4357447028160095
1788678598288697900,3.88069775390625,9.373299598693848,1.8363527059555054,0.43335050344467163
1788678598304805400,3.896805419921875,9.342175483703613,1.8315643072128296,0.36152446269989014
1788678598320957700,3.912957763671875,9.368511199951172,1.800439715385437,0.38546648621559143
1788678598337087200,3.929087158203125,10.010157585144043,1.5753847360610962,0.44532153010368347
1788678598353198600,3.945198486328125,10.766724586486816,1.6065093278884888,0.3495534360408783
1788678598369346800,3.961346923828125,10.711658477783203,1.4293384552001953,0.9433154463768005
1788678598385455600,3.97745556640625,9.854534149169922,1.886630892753601,0.5961562395095825
1788678598401621200,3.993621337890625,9.344569206237793,2.121262788772583,-0.1628057211637497
1788678598417758500,4.009758544921875,9.095572471618652,2.03507137298584,-0.22266076505184174
1788678598433866200,4.0258662109375,9.275136947631836,1.7932571172714233,0.4644751250743866
1788678598450013700,4.042013671875,9.59596061706543,1.7549498081207275,0.8954314589500427
1788678598466126000,4.0581259765625,10.074800491333008,1.8531121015548706,0.9145850539207458
1788678598482307600,4.0743076171875,10.24239444732666,1.9536685943603516,0.4596867263317108
1788678598498451000,4.090450927734375,10.002974510192871,1.886630892753601,0.28969839215278625
1788678598514562300,4.106562255859375,9.68694019317627,1.8698714971542358,0.4357447028160095
1788678598530711000,4.1227109375,9.548076629638672,1.8962076902389526,0.5267243981361389
1788678598546820000,4.138820068359375,9.911994934082031,1.9249382019042969,0.5363011956214905
1788678598563007200,4.15500732421875,10.340557098388672,1.843535304069519,0.7805097699165344
1788678598579108000,4.171108154296875,10.228029251098633,1.9177556037902832,0.5530605912208557
1788678598595218200,4.18721826171875,9.50737476348877,1.9632453918457031,0.016759412363171577
1788678598611367000,4.203366943359375,9.708487510681152,1.7764976024627686,0.06464344263076782
1788678598627501600,4.21950146484375,10.359710693359375,1.5658079385757446,0.49799394607543945
1788678598643645000,4.23564501953125,10.144232749938965,1.6160861253738403,0.7972691655158997
1788678598659756300,4.25175634765625,9.730035781860352,1.7310078144073486,0.6512228846549988
1788678598675865300,4.267865234375,9.588777542114258,1.7956513166427612,0.4165911078453064
1788678598692014300,4.284014404296875,9.670180320739746,1.8148049116134644,0.395043283700943
1788678598708125000,4.300125,9.962273597717285,1.8626888990402222,0.45010992884635925
1788678598724277800,4.31627783203125,9.943120002746582,1.9752163887023926,0.4572925269603729
1788678598740397600,4.3323974609375,9.768342971801758,1.987187385559082,0.6823474764823914
1788678598756510200,4.34851025390625,9.737217903137207,1.987187385559082,1.137245774269104
1788678598772660700,4.36466064453125,9.615114212036133,2.030282974243164,1.3120225667953491
1788678598788771000,4.38077099609375,9.445125579833984,2.0805611610412598,1.015141487121582
1788678598804935700,4.396935791015625,9.327810287475586,2.070984363555908,0.8092401623725891
1788678598821068500,4.413068603515625,9.428366661071777,1.9847931861877441,0.7805097699165344
1788678598837181700,4.429181640625,9.780313491821289,1.9704279899597168,0.9744400978088379
1788678598853329700,4.44532958984375,9.72285270690918,1.9536685943603516,1.0821791887283325
1788678598869441000,4.46144091796875,9.373299598693848,2.0374655723571777,0.8451532125473022
1788678598885613300,4.47761328125,9.045293807983398,2.188300371170044,0.9911994934082031
1788678598901757700,4.4937578125,8.959102630615234,1.9608511924743652,0.545877993106842
1788678598917871900,4.509871826171875,9.816226959228516,1.7980455160140991,0.45010992884635925
1788678598934025200,4.526025146484375,9.780313491821289,1.3263877630233765,0.5027823448181152
1788678598950138600,4.542138671875,9.059659004211426,1.4460978507995605,1.1228805780410767
1788678598966327600,4.55832763671875,9.696516990661621,1.161187767982483,0.6799532771110535
1788678598982429400,4.574429443359375,11.109095573425293,1.6855180263519287,0.26096799969673157
1788678598998578400,4.590578369140625,10.551246643066406,1.3623007535934448,0.035913024097681046
1788678599014730200,4.606730224609375,10.122684478759766,0.5793967843055725,-0.3758896589279175
1788678599030844200,4.62284423828125,10.498574256896973,1.5179238319396973,0.2561795711517334
1788678599047029000,4.639029052734375,9.670180320739746,1.6328455209732056,-0.20350714027881622
1788678599063128300,4.65512841796875,9.208099365234375,1.53707754611969,0.06703764945268631
1788678599079238700,4.67123876953125,9.397241592407227,1.414973258972168,0.8044517636299133
1788678599095389700,4.6873896484375,9.744400978088379,1.4508862495422363,0.9840168952941895
1788678599111510500,4.703510498046875,10.627861022949219,1.414973258972168,0.7733271718025208
1788678599127659800,4.71965966796875,11.080365180969238,1.5179238319396973,1.3407529592514038
1788678599143777500,4.735777587890625,11.142614364624023,1.6927006244659424,1.403002142906189
1788678599159892000,4.75189208984375,9.880870819091797,1.8507179021835327,0.7948749661445618
1788678599176043800,4.768043701171875,8.365341186523438,1.8938134908676147,0.2944868206977844
1788678599192188700,4.784188720703125,6.983886241912842,2.0877439975738525,0.4429273009300232
1788678599208385300,4.80038525390625,7.184999465942383,1.7118542194366455,0.9720458984375
1788678599224509200,4.81650927734375,8.868123054504395,1.115697979927063,2.9520506858825684
1788678599240657200,4.8326572265625,10.302249908447266,2.1930887699127197,2.0231003761291504
1788678599256802800,4.848802734375,10.912771224975586,2.4588451385498047,1.4460978507995605
1788678599272908500,4.864908447265625,11.267112731933594,2.2649147510528564,0.5339069962501526
1788678599289062700,4.881062744140625,11.216835021972656,1.86508309841156,-0.08379705995321274
1788678599305192200,4.897192138671875,10.900800704956055,1.6663644313812256,-0.14604631066322327
1788678599321305600,4.9133056640625,10.663774490356445,1.3527239561080933,0.1364694982767105
1788678599337457400,4.92945751953125,10.493785858154297,1.1300631761550903,0.47644615173339844
1788678599353569300,4.9455693359375,10.436325073242188,1.0007762908935547,-0.002394201699644327
1788678599369738200,4.96173828125,10.704475402832031,1.1875240802764893,0.0071826050989329815
1788678599385876000,4.9778759765625,10.512939453125,1.867477297782898,0.2777273952960968
1788678599401989400,4.9939892578125,8.853757858276367,2.7269957065582275,0.849941611289978
1788678599418149000,5.010149169921875,7.565677165985107,2.9664158821105957,1.3335703611373901
1788678599434256400,5.02625634765625,7.096413612365723,3.4165258407592773,0.8595184087753296
1788678599450429700,5.0424296875,7.613561630249023,3.313575267791748,0.42616790533065796
1788678599466531800,5.05853173828125,8.7268648147583,2.6144683361053467,0.6177040338516235
1788678599482641000,5.074640869140625,10.24000072479248,2.2194249629974365,0.5171475410461426
1788678599498798300,5.09079833984375,11.17852783203125,2.190694570541382,0.1173158809542656
1788678599514905600,5.106905517578125,11.3269681930542,2.190694570541382,-0.07900865375995636
1788678599531083500,5.12308349609375,10.982203483581543,2.1475989818573,0.0933738648891449
1788678599547186200,5.139186279296875,10.086771965026855,2.207453966140747,0.27054479718208313
1788678599563301600,5.155301513671875,9.157821655273438,2.4013843536376953,0.2346317619085312
1788678599579455500,5.17145556640625,8.865729331970215,2.4851813316345215,0.05746084079146385
1788678599595571500,5.187571533203125,9.169792175292969,2.4372973442077637,0.1843535304069519
1788678599611756500,5.203756591796875,9.677363395690918,2.3918075561523438,0.44771572947502136
1788678599627871000,5.21987109375,10.091560363769531,2.365471363067627,0.507570743560791
1788678599643984400,5.235984375,10.27591323852539,2.363077163696289,0.3423708379268646
1788678599660136200,5.25213623046875,10.268731117248535,2.3798365592956543,0.14844051003456116
1788678599676246000,5.26824609375,10.153809547424316,2.3367409706115723,0.22266076505184174
1788678599692403200,5.2844033203125,10.0580415725708,2.3271639347076416,0.3926490843296051
1788678599708528400,5.3005283203125,9.955090522766113,2.2577321529388428,0.5051765441894531
1788678599724638500,5.316638427734375,10.007762908935547,2.2170307636260986,0.43095630407333374
1788678599740787700,5.33278759765625,10.043676376342773,2.2146365642547607,0.31603461503982544
1788678599756899600,5.348899658203125,9.986215591430664,2.233790159225464,0.1843535304069519
1788678599773059800,5.365059814453125,9.9000244140625,2.315192937850952,0.09576806426048279
1788678599789190700,5.381190673828125,9.84256362915039,2.3918075561523438,0.11252748221158981
1788678599805305000,5.39730517578125,9.619902610778809,2.367865562438965,0.1867477297782898
1788678599821453300,5.413453369140625,9.32541561126709,2.3582887649536133,0.15083470940589905
1788678599837564200,5.429564208984375,9.370905876159668,2.451662540435791,0.12210428714752197
1788678599853728800,5.445728759765625,9.461885452270508,2.4803929328918457,0.20350714027881622
1788678599869867300,5.4618671875,9.461885452270508,2.382230758666992,0.33518823981285095
1788678599885977600,5.4779775390625,9.521739959716797,2.4229321479797363,0.38546648621559143
1788678599902125600,5.49412548828125,9.428366661071777,2.4660277366638184,0.35434186458587646
1788678599918234000,5.510234130859375,9.232041358947754,2.434903144836426,0.33518823981285095
1788678599934417200,5.526417236328125,9.07641887664795,2.4205379486083984,0.2753331959247589
1788678599950514000,5.542513916015625,9.279925346374512,2.470816135406494,0.31842881441116333
1788678599966670000,5.558670166015625,9.35893440246582,2.406172752380371,0.33997663855552673
1788678599982793200,5.574793212890625,9.461885452270508,2.4205379486083984,0.3256114423274994
1788678599998907400,5.590907470703125,9.512163162231445,2.516305923461914,0.2944868206977844
1788678600015104500,5.6071044921875,9.387664794921875,2.5977089405059814,0.35434186458587646
1788678600031204900,5.623204833984375,9.29189682006836,2.719813108444214,0.44771572947502136
1788678600047323100,5.6393232421875,9.165003776550293,2.8107926845550537,0.6153098344802856
1788678600063476000,5.65547607421875,9.14585018157959,2.851494312286377,0.7398083209991455
1788678600079586300,5.67158642578125,9.244012832641602,2.942473888397217,0.7924807667732239
1788678600095735300,5.6877353515625,9.301473617553711,2.959233283996582,0.7757213711738586
1788678600111853000,5.70385302734375,9.390059471130371,2.9233202934265137,0.6607996821403503
1788678600127967000,5.719967041015625,9.502586364746094,2.9759926795959473,0.4668693244457245
1788678600144115500,5.736115478515625,9.548076629638672,2.999934673309326,0.3902548849582672
1788678600160226800,5.752226806640625,9.528923034667969,3.004723072052002,0.44771572947502136
1788678600176391000,5.768390869140625,9.57441234588623,2.999934673309326,0.5889736413955688
1788678600192522000,5.78452197265625,9.763554573059082,3.00711727142334,0.7589619159698486
1788678600208636200,5.80063623046875,9.86650562286377,2.956839084625244,0.8451532125473022
1788678600224780500,5.816780517578125,9.816226959228516,2.956839084625244,0.8475474119186401
1788678600240890400,5.832890380859375,9.452308654785156,2.9975404739379883,0.9528923034667969
1788678600257059000,5.84905908203125,9.035717010498047,3.138798475265503,0.993593692779541
1788678600273194200,5.8651943359375,8.71728801727295,3.2632968425750732,0.8212111592292786
1788678600289319200,5.881319091796875,8.865729331970215,3.3854012489318848,0.7134721279144287
1788678600305473800,5.897473876953125,9.033323287963867,3.380612850189209,0.6967126727104187
1788678600321588200,5.913588134765625,9.172186851501465,3.3949780464172363,0.7206547260284424
1788678600337770800,5.929770751953125,9.191340446472168,3.512293815612793,0.706289529800415
1788678600353912600,5.94591259765625,9.141061782836914,3.5936968326568604,0.7134721279144287
1788678600370027500,5.962027587890625,9.114726066589355,3.6080620288848877,0.828393816947937
1788678600386182400,5.978182373046875,9.239224433898926,3.49314022064209,0.768538773059845
1788678600402300200,5.994300048828125,9.667786598205566,3.3518824577331543,0.3734954595565796
1788678600418449700,6.01044970703125,10.235212326049805,3.2632968425750732,-0.13168109953403473
1788678600434551300,6.02655126953125,10.87446403503418,3.0382418632507324,-0.1843535304069519
1788678600450662700,6.04266259765625,11.283872604370117,2.7892448902130127,0.090979665517807
1788678600466808600,6.05880859375,11.314997673034668,2.7222073078155518,0.1604115068912506
1788678600482914600,6.07491455078125,11.30063247680664,2.7509377002716064,0.1149216815829277
1788678600499007700,6.0910078125,11.14500904083252,2.7126305103302,0.21308395266532898
1788678600515110100,6.107110107421875,10.891223907470703,2.540247917175293,0.40222588181495667
1788678600531221500,6.123221435546875,10.778696060180664,2.3247697353363037,0.5482721924781799
1788678600547367000,6.139366943359375,10.673351287841797,2.0829553604125977,0.7086837291717529
1788678600563474700,6.155474609375,10.448296546936035,1.9608511924743652,0.646434485912323
1788678600579628800,6.17162890625,10.295066833496094,1.98958158493042,0.3902548849582672
1788678600595749400,6.187749267578125,10.409989356994629,1.9033904075622559,0.07422025501728058
1788678600611859500,6.203859375,10.14902114868164,1.7932571172714233,-0.21787235140800476
1788678600628008200,6.22000830078125,9.579200744628906,1.7597382068634033,-0.5530605912208557
1788678600644118500,6.236118408203125,9.050082206726074,1.9369091987609863,-0.6536170840263367
1788678600660275200,6.252275146484375,9.009381294250488,2.1571757793426514,-0.629675030708313
1788678600676409900,6.268409912109375,9.124302864074707,2.22660756111145,-0.4644751250743866
1788678600692522200,6.284522216796875,9.121908187866211,2.298433542251587,0.043095629662275314
1788678600708673500,6.300673583984375,8.83699893951416,2.3942017555236816,0.42377370595932007
1788678600724785000,6.316784912109375,8.774748802185059,2.5761611461639404,0.15562310814857483
1788678600740949000,6.332948974609375,9.0859956741333,2.456450939178467,-0.37828385829925537
1788678600757082400,6.349082275390625,9.351752281188965,2.0925323963165283,-0.4644751250743866
1788678600773192400,6.3651923828125,9.205705642700195,0.6584054827690125,0.7972691655158997
1788678600789336000,6.381336181640625,9.167398452758789,1.7118542194366455,-0.2585737705230713
1788678600805443800,6.39744384765625,9.38048267364502,2.8419175148010254,-1.0869675874710083
1788678600821614600,6.413614501953125,9.330204010009766,2.8227639198303223,-0.38067805767059326
1788678600837753900,6.42975390625,8.822632789611816,2.205059766769409,0.6560112833976746
1788678600853859000,6.445859130859375,8.662221908569336,2.1116859912872314,0.5315127968788147
1788678600870007600,6.462007568359375,9.107542991638184,2.296039342880249,-0.08140286058187485
1788678600886115600,6.478115478515625,9.643844604492188,2.3487119674682617,-0.4620809257030487
1788678600902296000,6.494296142578125,9.892841339111328,2.43011474609375,-0.5674257874488831
1788678600918390300,6.510390380859375,9.624691009521484,2.535459518432617,-0.4836287498474121
1788678600934503400,6.52650341796875,9.363722801208496,2.760514497756958,-0.2849099934101105
1788678600950656300,6.54265625,9.327810287475586,2.8610711097717285,-0.05027823522686958
1788678600966766000,6.55876611328125,8.99740982055664,2.7772738933563232,0.2537853717803955
1788678600982959000,6.574958984375,8.69095230102539,2.8227639198303223,0.33518823981285095
1788678600999057400,6.591057373046875,8.65982723236084,2.9305028915405273,0.004788403399288654
1788678601015171000,6.607171142578125,9.265560150146484,2.7988216876983643,-0.33997663855552673
1788678601031323600,6.62332373046875,10.292673110961914,2.47560453414917,-0.3280056416988373
1788678601047433200,6.63943310546875,10.778696060180664,2.425326347351074,-0.26815059781074524
1788678601063579600,6.65557958984375,10.589553833007812,2.6192567348480225,-0.42616790533065796
1788678601079695600,6.671695556640625,9.921571731567383,2.849100112915039,-0.3878606855869293
1788678601095804200,6.68780419921875,9.162610054016113,2.9951462745666504,-0.1173158809542656
1788678601111950800,6.703950927734375,8.911218643188477,2.9496564865112305,0.42616790533065796
1788678601128060200,6.72006005859375,9.129091262817383,2.7964274883270264,0.6416460275650024
1788678601144212700,6.736212646484375,9.840168952941895,2.6671407222747803,0.36152446269989014
1788678601160329700,6.752329833984375,10.972626686096191,2.5019407272338867,-0.06224924325942993
1788678601176438000,6.76843798828125,11.458649635314941,2.2625205516815186,-0.3447650372982025
1788678601192591600,6.784591552734375,11.3269681930542,2.1763293743133545,-0.47644615173339844
1788678601208701000,6.800700927734375,10.41956615447998,2.4612393379211426,-0.47884035110473633
1788678601224859600,6.816859619140625,9.476250648498535,2.87064790725708,0.0454898327589035
1788678601240991000,6.832990966796875,8.954314231872559,3.0119056701660156,0.6344634294509888
1788678601257106400,6.8491064453125,9.26795482635498,2.736572504043579,1.072602391242981
1788678601273258200,6.86525830078125,10.225635528564453,2.073378562927246,1.2689268589019775
1788678601289368000,6.8813681640625,11.003750801086426,1.534683346748352,1.1420341730117798
1788678601305528800,6.89752880859375,11.164162635803223,1.5394717454910278,0.7445967197418213
1788678601321662500,6.913662353515625,10.812214851379395,1.8507179021835327,0.2513911724090576
1788678601337769000,6.92976904296875,10.096348762512207,2.2170307636260986,-0.002394201699644327
1788678601353918000,6.94591796875,9.421183586120605,2.427720546722412,0.0933738648891449
1788678601370028500,6.962028564453125,8.863334655761719,2.473210334777832,0.6129156351089478
1788678601386209800,6.978209716796875,8.434772491455078,2.5258827209472656,0.9888052940368652
1788678601402311200,6.994311279296875,8.14028549194336,2.626439332962036,1.1827356815338135
1788678601418418700,7.010418701171875,8.245630264282227,2.5282769203186035,1.3335703611373901
1788678601434565600,7.026565673828125,8.734047889709473,2.535459518432617,0.8954314589500427
1788678601450671900,7.042671875,9.390059471130371,2.298433542251587,0.5554547905921936
1788678601466857200,7.058857177734375,9.703699111938477,2.205059766769409,0.2513911724090576
1788678601482961000,7.0749609375,9.615114212036133,2.341529369354248,-0.16519992053508759
1788678601499071000,7.091071044921875,9.131484985351562,2.5713725090026855,-0.44771572947502136
1788678601515217700,7.1072177734375,8.710105895996094,2.6886885166168213,-0.31842881441116333
1788678601531328000,7.123327880859375,8.508993148803711,2.75812029838562,-0.10055647045373917
1788678601547470300,7.13947021484375,8.497021675109863,2.868253707885742,0.19632454216480255
1788678601563578400,7.155578369140625,8.446743965148926,2.980781078338623,0.33997663855552673
1788678601579700700,7.17170068359375,8.540117263793945,2.9735984802246094,0.363918662071228
1788678601595841800,7.187841796875,8.959102630615234,2.9233202934265137,0.3064578175544739
1788678601611949800,7.20394970703125,9.464279174804688,2.7964274883270264,0.1364694982767105
1788678601628100600,7.2201005859375,9.763554573059082,2.7437551021575928,0.035913024097681046
1788678601644235300,7.2362353515625,9.593565940856934,2.827552318572998,0.023942016065120697
1788678601660347400,7.252347412109375,9.014169692993164,3.004723072052002,0.028730420395731926
1788678601676497400,7.268497314453125,8.774748802185059,3.0837318897247314,-0.08140286058187485
1788678601692608300,7.284608154296875,8.882488250732422,3.1076738834381104,0.11252748221158981
1788678601708772600,7.300772705078125,9.138668060302734,3.177105665206909,0.23702596127986908
1788678601724902400,7.31690234375,9.466673851013184,3.114856481552124,0.1149216815829277
1788678601741068000,7.333068115234375,9.785101890563965,3.07415509223938,-0.038307227194309235
1788678601757158000,7.349157958984375,10.074800491333008,3.1004912853240967,-0.06703764945268631
1788678601773265700,7.365265625,10.04846477508545,3.023876667022705,-0.12928688526153564
1788678601789443000,7.381443115234375,9.859322547912598,2.9735984802246094,-0.11252748221158981
1788678601805581600,7.39758154296875,9.782708168029785,2.9257144927978516,-0.05746084079146385
1788678601821689900,7.41368994140625,9.742006301879883,2.760514497756958,0.043095629662275314
1788678601837834800,7.429834716796875,9.50737476348877,2.63362193107605,0.1412578970193863
1788678601853943600,7.445943603515625,9.284713745117188,2.75812029838562,0.2059013396501541
1788678601870124800,7.462124755859375,9.651026725769043,2.8826189041137695,0.17238251864910126
1788678601886218800,7.47821875,10.211270332336426,2.7485435009002686,0.021547814831137657
1788678601902324700,7.49432470703125,10.714052200317383,2.58813214302063,-0.19153612852096558
1788678601918470400,7.510470458984375,11.128249168395996,2.3127987384796143,-0.40462008118629456
1788678601934574800,7.526574951171875,11.705251693725586,1.8794482946395874,-0.4692635238170624
1788678601950741000,7.542740966796875,12.248735427856445,1.2282254695892334,0.038307227194309235
1788678601966831900,7.558831787109375,11.96861457824707,1.0773907899856567,-0.06703764945268631
1788678601982971400,7.574971435546875,11.966219902038574,1.2066776752471924,0.07661445438861847
1788678601999089400,7.59108935546875,11.307814598083496,1.9608511924743652,-0.35673606395721436
1788678602015228700,7.607228759765625,9.337387084960938,2.231395959854126,-1.2497732639312744
1788678602031416000,7.623416015625,8.224082946777344,1.922544002532959,-1.4867992401123047
1788678602047536600,7.63953662109375,8.712499618530273,2.1308395862579346,-0.7805097699165344
1788678602063640600,7.655640625,9.742006301879883,2.0446481704711914,0.5027823448181152
1788678602079786500,7.671786376953125,10.371682167053223,1.824381709098816,1.0821791887283325
1788678602095894300,7.687894287109375,10.66137981414795,1.8076223134994507,0.8547300100326538
1788678602112047600,7.704047607421875,10.319009780883789,1.821987509727478,0.31124621629714966
1788678602128179200,7.72017919921875,9.940725326538086,1.8579005002975464,-0.21308395266532898
1788678602144292000,7.7362919921875,9.593565940856934,1.9560627937316895,-0.6871358752250671
1788678602160437500,7.7524375,9.006986618041992,2.0398597717285156,-0.7541735172271729
1788678602176546600,7.768546630859375,8.530540466308594,2.1715409755706787,-0.6153098344802856
1788678602192718000,7.784718017578125,8.197746276855469,2.387019157409668,-0.3232172429561615
1788678602208854500,7.8008544921875,7.8098859786987305,2.58813214302063,-0.14844051003456116
1788678602224963600,7.816963623046875,7.797914981842041,2.7269957065582275,-0.19153612852096558
1788678602241109200,7.833109130859375,8.054094314575195,2.7030537128448486,-0.13407529890537262
1788678602257215000,7.849215087890625,8.370129585266113,2.693476915359497,-0.16998831927776337
1788678602273383200,7.865383056640625,8.939949035644531,2.7246015071868896,-0.26336219906806946
1788678602289530400,7.8815302734375,9.387664794921875,2.7222073078155518,-0.24660277366638184
1788678602305646800,7.897646728515625,9.301473617553711,2.7317841053009033,-0.24899697303771973
1788678602321798100,7.913798095703125,9.284713745117188,2.762908697128296,-0.26336219906806946
1788678602337909500,7.929909423828125,9.30386734008789,2.719813108444214,-0.3423708379268646
1788678602354091500,7.946091552734375,9.296685218811035,2.7246015071868896,-0.5171475410461426
1788678602370193400,7.962193359375,9.294290542602539,2.7748796939849854,-0.6129156351089478
1788678602386303000,7.978302978515625,9.493009567260742,2.829946517944336,-0.7541735172271729
1788678602402453200,7.994453369140625,9.787496566772461,2.9759926795959473,-0.8427590131759644
1788678602418566100,8.010566162109376,9.627084732055664,2.940079689025879,-0.6703764796257019
1788678602434720800,8.026720703125,9.560047149658203,2.8850131034851074,-0.4908113479614258
1788678602450835500,8.04283544921875,9.885659217834473,2.8826189041137695,-0.33518823981285095
1788678602466948000,8.058947998046875,10.41956615447998,2.7557260990142822,-0.3016694188117981
1788678602483097900,8.075097900390626,10.773907661437988,2.626439332962036,-0.27054479718208313
1788678602499210000,8.0912099609375,11.08754825592041,2.518700122833252,-0.22266076505184174
1788678602515363300,8.10736328125,11.408370971679688,2.537853717803955,-0.019153613597154617
1788678602531482000,8.123482177734376,11.310209274291992,2.628833532333374,0.05267243832349777
1788678602547590100,8.139590087890625,11.027692794799805,2.7222073078155518,0.08379705995321274
1788678602563735000,8.155735107421876,10.864887237548828,2.564189910888672,0.38546648621559143
1788678602579845400,8.171845458984375,10.94150161743164,2.1811177730560303,0.9074024558067322
1788678602595996200,8.18799609375,11.57357120513916,1.8100165128707886,1.3910311460494995
1788678602612127000,8.204126953125,12.172121047973633,1.400607943534851,1.4460978507995605
1788678602628223000,8.220222900390626,11.93509578704834,1.2976573705673218,0.9409212470054626
1788678602644371500,8.236371337890626,10.771512985229492,1.601720929145813,0.10773907601833344
1788678602660488400,8.252488525390625,9.516951560974121,1.8411411046981812,-0.18914192914962769
1788678602676651000,8.268651123046874,8.614337921142578,1.9919757843017578,0.12210428714752197
1788678602692790500,8.28479052734375,7.891288757324219,2.1284453868865967,0.7230489253997803
1788678602708897800,8.300897705078125,7.546523571014404,2.2912509441375732,1.2449848651885986
1788678602725044200,8.317044189453124,7.534552574157715,2.2912509441375732,1.455674648284912
1788678602741154000,8.333154052734375,7.771578788757324,2.2361843585968018,1.2066776752471924
1788678602757330000,8.349329833984376,8.042123794555664,2.1811177730560303,0.5674257874488831
1788678602773474300,8.365474365234375,8.38688850402832,2.030282974243164,-0.05985504388809204
1788678602789578200,8.381578125,8.597578048706055,1.9704279899597168,-0.31842881441116333
1788678602805728500,8.397728515625,8.583212852478027,2.097320795059204,-0.5051765441894531
1788678602821841700,8.413841552734375,8.403648376464844,2.293645143508911,-0.586579442024231
1788678602838025500,8.430025390625,8.180987358093262,2.425326347351074,-0.5291185975074768
1788678602854123000,8.446123046875,8.355764389038086,2.47560453414917,-0.22505496442317963
1788678602870233600,8.462233642578125,8.638279914855957,2.5474305152893066,0.19153612852096558
1788678602886382300,8.47838232421875,8.913613319396973,2.6647465229034424,0.3974374830722809
1788678602902501000,8.494501220703125,9.107542991638184,2.655169725418091,0.43095630407333374
1788678602918697200,8.510697265625,9.387664794921875,2.604891538619995,0.3064578175544739
1788678602934811600,8.526811767578126,9.617507934570312,2.604891538619995,0.026336219161748886
1788678602950922200,8.542922119140625,9.576807022094727,2.6384103298187256,-0.2346317619085312
1788678602967071700,8.55907177734375,9.330204010009766,2.7485435009002686,-0.3663128614425659
1788678602983180800,8.575180908203125,9.193734169006348,2.8993782997131348,-0.40701428055763245
1788678602999294700,8.591294677734375,9.174580574035645,3.004723072052002,-0.2298433631658554
1788678603015411000,8.607410888671875,9.186552047729492,3.1100680828094482,-0.031124621629714966
1788678603031519200,8.623519287109374,9.251194953918457,3.1220390796661377,0.043095629662275314
1788678603047667500,8.63966748046875,9.72285270690918,3.112462282180786,0.14844051003456116
1788678603063775700,8.655775634765625,10.141838073730469,2.8778305053710938,0.16998831927776337
1788678603079937000,8.67193701171875,10.366893768310547,2.559401512145996,0.17477671802043915
1788678603096061700,8.688061767578125,10.678139686584473,2.2433669567108154,0.24660277366638184
1788678603112169200,8.704169189453125,10.76193618774414,1.8794482946395874,-0.016759412363171577
1788678603128314400,8.720314453125,10.678139686584473,1.8746598958969116,-0.5147533416748047
1788678603144420400,8.73642041015625,10.577583312988281,2.0614075660705566,-0.9576807022094727
1788678603160580600,8.75258056640625,10.81700325012207,2.1356279850006104,-0.9385270476341248
1788678603176713000,8.768712890625,11.367670059204102,2.0254945755004883,-0.5195417404174805
1788678603192825000,8.7848251953125,11.994950294494629,1.7405846118927002,0.021547814831137657
1788678603208971800,8.8009716796875,12.607866287231445,1.4053963422775269,0.0071826050989329815
1788678603225113900,8.81711376953125,12.847286224365234,1.173158884048462,-0.33758243918418884
1788678603241265700,8.833265625,11.97100830078125,1.194706678390503,-0.7230489253997803
1788678603257361200,8.849361083984375,10.577583312988281,1.5538369417190552,-1.1109095811843872
1788678603273504800,8.8655048828125,9.715670585632324,1.9321208000183105,-0.9600749015808105
1788678603289663000,8.8816630859375,9.53849983215332,2.0374655723571777,-0.45250412821769714
1788678603305765400,8.897765380859376,9.62947940826416,1.944091796875,-0.06464344263076782
1788678603321954300,8.913954345703125,9.588777542114258,1.8842366933822632,0.17717093229293823
1788678603338061600,8.9300615234375,9.459490776062012,1.8483237028121948,0.14604631066322327
1788678603354171100,8.946171142578125,9.205705642700195,1.7477672100067139,-0.14365209639072418
1788678603370318800,8.96231884765625,9.028534889221191,1.7118542194366455,-0.5219359993934631
1788678603386426400,8.97842626953125,8.619126319885254,1.7836803197860718,-0.849941611289978
1788678603402612000,8.994612060546874,8.322244644165039,1.9105730056762695,-0.8140285611152649
1788678603418712000,9.010712158203125,8.152256965637207,2.073378562927246,-0.5147533416748047
1788678603434821400,9.0268212890625,8.01339340209961,2.1164743900299072,-0.4668693244457245
1788678603450966500,9.042966552734375,7.9176249504089355,2.1595699787139893,-0.5027823448181152
1788678603467073500,9.059073486328124,8.090007781982422,2.2409727573394775,-0.44532153010368347
1788678603483224000,9.07522412109375,8.537723541259766,2.322375535964966,-0.33279404044151306
1788678603499364600,9.091364501953125,9.20091724395752,2.3080103397369385,-0.2082955539226532
1788678603515474400,9.107474365234374,9.634267807006836,2.293645143508911,-0.12928688526153564
1788678603531613700,9.12361376953125,9.75637149810791,2.389413356781006,-0.1149216815829277
1788678603547720000,9.139719970703124,9.519346237182617,2.4803929328918457,-0.033518824726343155
1788678603563876600,9.155876708984374,9.26795482635498,2.5450363159179688,0.090979665517807
1788678603580016600,9.1720166015625,9.244012832641602,2.513911724090576,0.2298433631658554
1788678603596125700,9.188125732421875,9.299078941345215,2.5498247146606445,0.2513911724090576
1788678603612276500,9.2042763671875,9.287108421325684,2.516305923461914,0.11971008777618408
1788678603628385800,9.2203857421875,9.363722801208496,2.3965959548950195,-0.37828385829925537
1788678603644513300,9.23651318359375,9.603142738342285,2.6647465229034424,-0.7661445140838623
1788678603660642000,9.25264208984375,9.880870819091797,2.782062292098999,-0.5793967843055725
1788678603676747500,9.26874755859375,10.153809547424316,2.676717519760132,-0.35913026332855225
1788678603692886500,9.284886474609374,10.488997459411621,2.3367409706115723,-0.17238251864910126
1788678603708996000,9.30099609375,11.034875869750977,2.027888774871826,0.07900865375995636
1788678603725170700,9.317170654296875,11.597513198852539,1.9081788063049316,0.07661445438861847
1788678603741312000,9.33331201171875,11.726799964904785,1.889025092124939,0.10295066982507706
1788678603757455400,9.349455322265625,11.279084205627441,2.094926595687866,0.05027823522686958
1788678603773603800,9.365603759765625,10.594342231750488,2.1547815799713135,0.2801215946674347
1788678603789713700,9.381713623046876,10.103530883789062,2.10210919380188,0.5554547905921936
1788678603805893600,9.3978935546875,10.077195167541504,1.9153614044189453,0.730231523513794
1788678603821987800,9.41398779296875,11.0300874710083,1.4748282432556152,0.871489405632019
1788678603838102300,9.430102294921875,11.987768173217773,1.0965443849563599,0.6344634294509888
1788678603854246000,9.446245849609374,11.882423400878906,1.1037269830703735,0.011971008032560349
1788678603870357000,9.46235693359375,10.56800651550293,1.400607943534851,-0.5913678407669067
1788678603886503000,9.4785029296875,9.277531623840332,1.6687586307525635,-0.5578489899635315
1788678603902610400,9.4946103515625,8.707711219787598,1.965639591217041,0.031124621629714966
1788678603918708500,9.51070849609375,8.504204750061035,2.0039467811584473,0.7829039692878723
1788678603934854700,9.526854736328126,8.468291282653809,1.8698714971542358,1.194706678390503
1788678603950959600,9.542959716796876,8.516175270080566,1.9033904075622559,1.0103530883789062
1788678603967112700,9.55911279296875,8.678980827331543,1.9369091987609863,0.4620809257030487
1788678603983225600,9.5752255859375,8.992621421813965,1.9369091987609863,-0.05746084079146385
1788678603999331000,9.5913310546875,9.279925346374512,1.821987509727478,-0.2849099934101105
1788678604015447000,9.607447021484376,9.284713745117188,1.8842366933822632,-0.47884035110473633
1788678604031554600,9.623554443359374,8.916007041931152,2.073378562927246,-0.5410895943641663
1788678604047715600,9.639715576171875,8.422801971435547,2.166752576828003,-0.4572925269603729
1788678604063842600,9.655842529296875,8.042123794555664,2.3271639347076416,-0.38067805767059326
1788678604079951400,9.671951416015625,7.929595947265625,2.5450363159179688,-0.13168109953403473
1788678604096097500,9.68809765625,8.169015884399414,2.655169725418091,0.07661445438861847
1788678604112205300,9.704205322265626,8.480262756347656,2.631227731704712,0.09576806426048279
1788678604128377000,9.720377197265625,8.880094528198242,2.5905263423919678,0.009576806798577309
1788678604144511500,9.736511474609374,9.241618156433105,2.5330653190612793,0.10055647045373917
1788678604160623000,9.752623046875,9.409213066101074,2.5091233253479004,0.05985504388809204
1788678604176767700,9.768767822265625,9.452308654785156,2.4899697303771973,-0.08379705995321274
1788678604192875300,9.784875244140625,9.519346237182617,2.47560453414917,-0.22744916379451752
1788678604209052000,9.801052001953124,9.670180320739746,2.513911724090576,-0.3519476354122162
1788678604225194000,9.817194091796875,9.768342971801758,2.5737667083740234,-0.272938996553421
1788678604241303800,9.8333037109375,9.780313491821289,2.7485435009002686,-0.2513911724090576
1788678604257451500,9.849451416015626,9.914389610290527,2.8347349166870117,-0.17956513166427612
1788678604273560300,9.865560302734375,10.340557098388672,2.7988216876983643,-0.26096799969673157
1788678604289748000,9.881748046875,10.893617630004883,2.477998733520508,-0.26096799969673157
1788678604305855000,9.89785498046875,11.065999984741211,2.013523578643799,-0.026336219161748886
1788678604321961700,9.913961669921875,10.474632263183594,1.556231141090393,0.004788403399288654
1788678604338109400,9.930109375,9.6989107131958,1.4772224426269531,-0.3208230137825012
1788678604354217000,9.946217041015625,9.607931137084961,1.6711528301239014,-1.0630255937576294
1788678604370362000,9.962362060546875,10.251971244812012,1.9273324012756348,-1.7094600200653076
1788678604386475500,9.9784755859375,11.106701850891113,1.9584569931030273,-1.4197616577148438
1788678604402585600,9.994585693359374,12.109871864318848,1.7286136150360107,-0.17956513166427612
1788678604418731800,10.010731689453126,12.631808280944824,1.3527239561080933,0.7924807667732239
1788678604434876000,10.0268759765625,12.375628471374512,1.2545616626739502,0.6799532771110535
1788678604451064800,10.04306494140625,11.437101364135742,1.3886369466781616,-0.026336219161748886
1788678604467183900,10.059183837890625,10.141838073730469,1.7118542194366455,-0.7038952708244324
1788678604483324000,10.075323974609375,9.521739959716797,1.9536685943603516,-0.6775590777397156
1788678604499478500,10.091478515625,9.610325813293457,2.070984363555908,-0.17238251864910126
1788678604515585800,10.107585693359376,9.847352027893066,2.0829553604125977,0.2537853717803955
1788678604531753000,10.1237529296875,9.607931137084961,2.2697031497955322,0.29209262132644653
1788678604547882200,10.13988232421875,9.232041358947754,2.346317768096924,0.19632454216480255
1788678604563994000,10.155994140625,9.074024200439453,2.0661959648132324,0.14365209639072418
1788678604580143000,10.17214306640625,9.20091724395752,1.8842366933822632,0.1149216815829277
1788678604596252700,10.188252685546875,9.548076629638672,1.8411411046981812,0.0694318488240242
1788678604612425500,10.204425537109374,9.86889934539795,1.7717092037200928,0.35434186458587646
1788678604628561000,10.220560791015625,9.459490776062012,1.8076223134994507,0.033518824726343155
1788678604644670700,10.236670654296875,8.796297073364258,1.9081788063049316,-0.5027823448181152
1788678604660814800,10.25281494140625,8.200140953063965,2.011129379272461,-0.7661445140838623
1788678604676922400,10.26892236328125,7.999027729034424,2.075772762298584,-0.6153098344802856
1788678604693094400,10.285094482421876,8.252813339233398,2.2002713680267334,-0.3016694188117981
1788678604709236200,10.301236328125,8.65743350982666,2.296039342880249,-0.11013327538967133
1788678604725346800,10.317346923828126,8.904036521911621,2.315192937850952,-0.06464344263076782
1788678604741495800,10.333495849609376,8.880094528198242,2.3487119674682617,-0.2777273952960968
1788678604757609000,10.34960888671875,8.822632789611816,2.3750481605529785,-0.6224924325942993
1788678604773789000,10.365788818359375,8.927978515625,2.4013843536376953,-0.768538773059845
1788678604789886000,10.381885986328125,9.071630477905273,2.516305923461914,-0.6703764796257019
1788678604805996500,10.39799658203125,9.313444137573242,2.6455929279327393,-0.44532153010368347
1788678604822143000,10.41414306640625,9.581595420837402,2.7724854946136475,-0.4189853072166443
1788678604838250500,10.43025048828125,9.770736694335938,2.8610711097717285,-0.5123591423034668
1788678604854394000,10.44639404296875,10.0580415725708,2.7772738933563232,-0.40222588181495667
1788678604870499800,10.462499755859374,10.491392135620117,2.5546131134033203,-0.2585737705230713
1788678604886607000,10.478607177734375,10.845733642578125,2.363077163696289,-0.040701430290937424
1788678604902715400,10.49471533203125,11.298237800598145,2.1571757793426514,0.13168109953403473
1788678604918856000,10.51085595703125,12.040440559387207,1.9321208000183105,0.3471592366695404
1788678604935045600,10.527045654296876,12.270283699035645,1.9105730056762695,0.33758243918418884
1788678604951160600,10.54316064453125,11.580753326416016,2.1284453868865967,0.038307227194309235
1788678604967304200,10.55930419921875,10.627861022949219,2.3247697353363037,0.07182604819536209
1788678604983454500,10.575454345703125,10.000580787658691,2.183511972427368,0.524330198764801
1788678604999563500,10.5915634765625,9.856928825378418,1.8962076902389526,1.0558429956436157
1788678605015714800,10.60771484375,10.651803016662598,1.45806884765625,1.5298948287963867
1788678605031839500,10.623839599609376,11.374852180480957,1.0223240852355957,1.5203180313110352
1788678605047948300,10.6399482421875,11.314997673034668,1.0534487962722778,0.6799532771110535
1788678605064094200,10.65609423828125,10.625467300415039,1.4700398445129395,-0.13407529890537262
1788678605080201000,10.672200927734375,9.5624418258667,1.6855180263519287,0.05267243832349777
1788678605096366600,10.68836669921875,8.561665534973145,1.9800047874450684,0.608127236366272
1788678605112499700,10.704499755859375,7.90086555480957,2.2840683460235596,1.0869675874710083
1788678605128600000,10.72060009765625,7.55131196975708,2.33913516998291,1.3623007535934448
1788678605144757000,10.736757080078124,7.489062786102295,2.3056161403656006,1.170764684677124
1788678605160866800,10.75286669921875,7.972691535949707,2.183511972427368,0.6584054827690125
1788678605177046500,10.769046630859375,8.580819129943848,1.98958158493042,0.2825157940387726
1788678605193191000,10.78519091796875,8.829815864562988,1.968033790588379,0.090979665517807
1788678605209298200,10.801298095703125,8.597578048706055,2.0685901641845703,0.24660277366638184
1788678605225444600,10.817444580078124,8.04691219329834,2.1116859912872314,0.24181437492370605
1788678605241554000,10.833553955078125,7.481880187988281,2.1930887699127197,0.033518824726343155
1788678605257720000,10.849719970703125,7.283161640167236,2.190694570541382,-0.2298433631658554
1788678605273824000,10.865823974609375,7.4100542068481445,2.1954829692840576,-0.4596867263317108
1788678605289967600,10.881967529296874,8.061277389526367,2.2673089504241943,-0.42616790533065796
1788678605306114800,10.89811474609375,8.786720275878906,2.2409727573394775,-0.22505496442317963
1788678605322218200,10.91421826171875,9.342175483703613,2.3056161403656006,-0.05506663769483566
1788678605338404900,10.93040478515625,9.947908401489258,2.341529369354248,0.05985504388809204
1788678605354511400,10.946511474609375,10.697293281555176,2.33913516998291,0.023942016065120697
1788678605370620000,10.962619873046876,11.006145477294922,2.516305923461914,-0.07422025501728058
1788678605386764000,10.978763916015625,10.836156845092773,2.652775526046753,-0.26336219906806946
1788678605402889200,10.99488916015625,10.469843864440918,2.8993782997131348,-0.5147533416748047
1788678605419043600,11.011043701171875,10.283096313476562,3.0310592651367188,-0.4213795065879822
1788678605435167000,11.0271669921875,10.256759643554688,3.095702886581421,-0.18914192914962769
1788678605451271000,11.04327099609375,10.668562889099121,3.047818660736084,0.2944868206977844
1788678605467416800,11.059416748046875,11.408370971679688,2.7126305103302,0.7206547260284424
1788678605483554800,11.075554931640625,12.045228958129883,2.389413356781006,0.8762778043746948
1788678605499695900,11.09169580078125,12.047622680664062,2.140416383743286,0.8571242094039917
1788678605515830500,11.10783056640625,11.243170738220215,2.0638017654418945,0.4836287498474121
1788678605531937300,11.123937255859374,10.417171478271484,2.097320795059204,0.1388636976480484
1788678605548083500,11.14008349609375,10.465055465698242,2.0446481704711914,0.4213795065879822
1788678605564192800,11.15619287109375,10.977415084838867,2.03507137298584,0.5770025849342346
1788678605580363000,11.172363037109376,11.15697956085205,1.6927006244659424,0.5051765441894531
1788678605596502300,11.188502197265626,11.24795913696289,1.4460978507995605,0.20350714027881622
1788678605612608000,11.20460791015625,10.92953109741211,1.4317326545715332,0.05267243832349777
1788678605628750800,11.220750732421875,10.1753568649292,1.6328455209732056,-0.1412578970193863
1788678605644857900,11.23685791015625,9.423578262329102,1.8195933103561401,-0.33279404044151306
1788678605661031200,11.25303125,9.239224433898926,1.9560627937316895,-0.26336219906806946
1788678605677172500,11.26917236328125,9.519346237182617,1.9728221893310547,-0.047884032130241394
1788678605693281800,11.28528173828125,9.955090522766113,1.8171991109848022,0.16759411990642548
1788678605709430800,11.3014306640625,10.41956615447998,1.764526605606079,0.3064578175544739
1788678605725540400,11.317540283203124,10.558429718017578,1.7405846118927002,0.23702596127986908
1788678605741718500,11.333718505859375,10.486603736877441,1.745373010635376,-0.05985504388809204
1788678605757812200,11.349812255859375,10.26394271850586,1.7501614093780518,-0.38546648621559143
1788678605773922600,11.365922607421876,9.979032516479492,1.7501614093780518,-0.6368576288223267
1788678605790067700,11.382067626953125,9.66299819946289,1.843535304069519,-0.7972691655158997
1788678605806176800,11.3981767578125,9.205705642700195,1.9081788063049316,-0.7589619159698486
1788678605822320600,11.414320556640625,8.497021675109863,2.0183119773864746,-0.7254431247711182
1788678605838430500,11.430430419921874,7.970297336578369,2.049436569213867,-0.7876923680305481
1788678605854541000,11.446541015625,7.647080421447754,2.1116859912872314,-0.8044517636299133
1788678605870687500,11.4626875,7.565677165985107,2.1571757793426514,-0.5027823448181152
1788678605886796000,11.478796142578124,7.661445617675781,2.205059766769409,-0.22026655077934265
1788678605902947600,11.494947509765625,8.01339340209961,2.3798365592956543,0.17238251864910126
1788678605919064300,11.511064208984376,8.360552787780762,2.449268341064453,0.6512228846549988
1788678605935174400,11.52717431640625,8.719682693481445,2.432508945465088,0.7996633648872375
1788678605951322000,11.543322021484375,9.090784072875977,2.2912509441375732,0.7110779285430908
1788678605967432400,11.559432373046874,9.421183586120605,2.2601263523101807,0.33518823981285095
1788678605983585500,11.57558544921875,9.718064308166504,2.3367409706115723,-0.038307227194309235
1788678605999711200,11.591711181640624,9.773131370544434,2.4372973442077637,-0.2944868206977844
1788678606015821600,11.607821533203126,9.782708168029785,2.5043349266052246,-0.5027823448181152
1788678606031968500,11.623968505859375,10.012551307678223,2.38462495803833,-0.2537853717803955
1788678606048074200,11.64007421875,10.285490036010742,2.1571757793426514,0.2059013396501541
1788678606064217300,11.65621728515625,10.47942066192627,1.9823989868164062,0.5410895943641663
1788678606080353000,11.67235302734375,10.869675636291504,1.9345149993896484,0.4668693244457245
1788678606096462800,11.688462890625,11.422736167907715,2.0422539710998535,0.2585737705230713
1788678606112608300,11.704608154296874,11.307814598083496,1.9393033981323242,-0.13168109953403473
1788678606128716800,11.720716796875,10.438719749450684,2.049436569213867,-0.4165911078453064
1788678606144898000,11.73689794921875,9.77791976928711,2.3750481605529785,-0.36152446269989014
1788678606160995000,11.7529951171875,10.283096313476562,2.051830768585205,0.33279404044151306
1788678606177106700,11.769106689453125,11.346121788024902,1.7262194156646729,1.0414776802062988
1788678606193259300,11.78525927734375,11.894393920898438,1.501164436340332,1.1061211824417114
1788678606209403600,11.801403564453125,11.63342571258545,1.5466543436050415,0.6703764796257019
1788678606225597700,11.81759765625,10.656591415405273,1.8195933103561401,-0.026336219161748886
1788678606241709300,11.833709228515625,9.509769439697266,1.9584569931030273,-0.19393034279346466
1788678606257853400,11.849853515625,8.81784439086914,2.0614075660705566,0.05027823522686958
1788678606274008000,11.866008056640625,8.671798706054688,2.1068975925445557,0.4118026793003082
1788678606290111700,11.88211181640625,8.786720275878906,1.9967641830444336,0.5841852426528931
1788678606306264600,11.8982646484375,9.028534889221191,1.9776105880737305,0.44532153010368347
1788678606322381800,11.9143818359375,9.08838939666748,1.9369091987609863,0.42856210470199585
1788678606338493700,11.93049365234375,8.968679428100586,1.9081788063049316,0.4884171485900879
1788678606354642700,11.946642578125,8.753201484680176,1.9560627937316895,0.5578489899635315
1788678606370753800,11.96275390625,8.432378768920898,2.0207061767578125,0.5410895943641663
1788678606386910700,11.97891064453125,7.977479934692383,2.1068975925445557,0.3878606855869293
1788678606403031300,11.99503125,7.6997528076171875,2.2385785579681396,0.24899697303771973
1788678606419143000,12.011142822265626,7.687781810760498,2.3247697353363037,0.24181437492370605
1788678606435290000,12.0272900390625,7.762001991271973,2.4013843536376953,0.2513911724090576
1788678606451398000,12.04339794921875,7.977479934692383,2.427720546722412,0.29209262132644653
1788678606467565800,12.05956591796875,8.482656478881836,2.4229321479797363,0.30885201692581177
1788678606483698000,12.075697998046875,9.186552047729492,2.4636335372924805,0.31603461503982544
1788678606499810000,12.09181005859375,9.57201862335205,2.473210334777832,0.22026655077934265
1788678606515959800,12.107959716796875,9.718064308166504,2.5713725090026855,-0.047884032130241394
1788678606532070000,12.12406982421875,9.63187313079834,2.760514497756958,-0.13168109953403473
1788678606548245800,12.140245849609375,9.59835433959961,2.889801502227783,0.07182604819536209
1788678606564385500,12.156385498046875,9.550470352172852,2.96162748336792,0.2849099934101105
1788678606580499000,12.1724990234375,9.643844604492188,2.999934673309326,0.6272808313369751
1788678606596624400,12.188624267578126,9.837775230407715,3.0310592651367188,1.0103530883789062
1788678606612736300,12.204736328125,10.11789608001709,2.9975404739379883,1.0127472877502441
1788678606628918000,12.22091796875,10.54406452178955,2.7748796939849854,0.768538773059845
1788678606645063000,12.23706298828125,11.013327598571777,2.4636335372924805,0.6536170840263367
1788678606661173000,12.253173095703126,11.317391395568848,2.1978771686553955,0.6823474764823914
1788678606677319000,12.26931884765625,11.39400577545166,2.0590133666992188,1.0534487962722778
1788678606693452300,12.285452392578126,10.958261489868164,2.300827741622925,1.1659762859344482
1788678606709640200,12.30164013671875,10.72841739654541,2.6192567348480225,0.9744400978088379
1788678606725735400,12.3177353515625,11.216835021972656,2.5522189140319824,0.9624691009521484
1788678606741845000,12.333844970703124,12.198457717895508,1.9991583824157715,1.1109095811843872
1788678606757990000,12.349989990234375,13.187262535095215,1.41257905960083,1.039083480834961
1788678606774131000,12.366130859375,13.263877868652344,1.335964560508728,0.3926490843296051
1788678606790312400,12.3823125,12.267889976501465,1.4987702369689941,-0.10534487664699554
1788678606806423800,12.398423828125,10.797849655151367,1.580173134803772,-0.07661445438861847
1788678606822565600,12.414565673828125,9.77791976928711,1.8052281141281128,-0.07900865375995636
1788678606838720500,12.430720458984375,9.320627212524414,1.944091796875,-0.08379705995321274
1788678606854822400,12.446822509765624,9.119514465332031,2.0422539710998535,-0.004788403399288654
1788678606870987000,12.462987060546874,8.975862503051758,2.056619167327881,0.15562310814857483
1788678606887115500,12.479115478515626,8.746018409729004,1.9608511924743652,0.2537853717803955
1788678606903224300,12.495224365234375,8.497021675109863,1.745373010635376,0.2825157940387726
1788678606919371300,12.511371337890624,8.255207061767578,1.644816517829895,0.13168109953403473
1788678606935480600,12.52748046875,8.092401504516602,1.580173134803772,0.16519992053508759
1788678606951644700,12.543644775390625,8.20492935180664,1.6903064250946045,0.2585737705230713
1788678606967779000,12.559779052734376,8.152256965637207,1.7501614093780518,0.2801215946674347
1788678606983888100,12.57588818359375,7.580042362213135,1.8291701078414917,0.13407529890537262
1788678607000034000,12.592033935546874,7.354987621307373,1.9776105880737305,-0.040701430290937424
1788678607016177700,12.608177734375,7.898471355438232,2.1595699787139893,-0.004788403399288654
1788678607032355000,12.62435498046875,8.595184326171875,2.298433542251587,0.07182604819536209
1788678607048499200,12.640499267578125,8.93037223815918,2.387019157409668,0.040701430290937424
1788678607064613600,12.656613525390625,9.232041358947754,2.494758129119873,0.0933738648891449
1788678607080764000,12.672763916015626,9.394847869873047,2.542642116546631,0.21547815203666687
1788678607096876800,12.688876708984376,9.349357604980469,2.6360161304473877,0.26815059781074524
1788678607113064700,12.705064697265625,9.272743225097656,2.698265314102173,0.3256114423274994
1788678607129167000,12.7211669921875,9.607931137084961,2.765302896499634,0.5027823448181152
1788678607145279000,12.737279052734374,10.146626472473145,2.8131868839263916,0.5985504388809204
1788678607161388000,12.753387939453125,10.522516250610352,2.9759926795959473,0.3495534360408783
1788678607177497300,12.769497314453124,10.656591415405273,3.1052796840667725,-0.019153613597154617
1788678607193690000,12.785690185546875,10.752359390258789,3.0358476638793945,-0.05267243832349777
1788678607209797400,12.80179736328125,10.955866813659668,2.695871114730835,0.21308395266532898
1788678607225908700,12.81790869140625,11.331756591796875,2.449268341064453,0.5410895943641663
1788678607242056000,12.834055908203124,11.966219902038574,2.2242133617401123,0.9840168952941895
1788678607258198000,12.850197998046875,12.33013916015625,2.1308395862579346,1.0869675874710083
1788678607274376000,12.8663759765625,12.042834281921387,2.3798365592956543,0.730231523513794
1788678607290489000,12.882489013671876,11.592724800109863,2.4420857429504395,0.5482721924781799
1788678607306631200,12.898631103515624,11.403582572937012,2.231395959854126,0.8834604024887085
1788678607322780700,12.91478076171875,11.652579307556152,1.702277421951294,1.335964560508728
1788678607338925600,12.930925537109376,11.887211799621582,1.2856862545013428,1.460463047027588
1788678607355114800,12.94711474609375,11.417947769165039,1.2186486721038818,1.2042834758758545
1788678607371241200,12.9632412109375,10.35252857208252,1.5179238319396973,0.4213795065879822
1788678607387353300,12.979353271484374,9.27034854888916,1.6855180263519287,-0.16519992053508759
1788678607403506200,12.995506103515625,8.209717750549316,1.8698714971542358,-0.07661445438861847
1788678607419611400,13.011611328125,7.462726593017578,2.140416383743286,0.4812345504760742
1788678607435759400,13.02775927734375,6.916848659515381,2.248155355453491,1.1037269830703735
1788678607451896300,13.043896240234375,6.658275127410889,2.248155355453491,1.414973258972168
1788678607468040400,13.06004052734375,6.854599475860596,2.2409727573394775,1.3072341680526733
1788678607484189000,13.07618896484375,7.7643961906433105,2.1284453868865967,0.7781155705451965
1788678607500299000,13.092299072265625,8.5903959274292,1.9369091987609863,0.3974374830722809
1788678607516478200,13.108478271484374,9.14585018157959,1.8602946996688843,0.13407529890537262
1788678607532575200,13.1245751953125,9.41400146484375,1.9823989868164062,-0.004788403399288654
1788678607548686000,13.14068603515625,9.299078941345215,2.1523873805999756,-0.12689268589019775
1788678607564829700,13.15682958984375,8.755595207214355,2.2864625453948975,-0.1149216815829277
1788678607580939500,13.172939453125,8.010998725891113,2.4013843536376953,0.05985504388809204
1788678607597120000,13.1891201171875,7.548917770385742,2.583343744277954,0.21308395266532898
1788678607613262600,13.2052626953125,7.647080421447754,2.6671407222747803,0.26815059781074524
1788678607629371600,13.22137158203125,8.154650688171387,2.626439332962036,0.3687070608139038
1788678607645519600,13.23751953125,8.966285705566406,2.585737943649292,0.5482721924781799
1788678607661627100,13.253627197265626,9.425971984863281,2.52109432220459,0.6368576288223267
1788678607677814500,13.269814453125,9.476250648498535,2.5258827209472656,0.38546648621559143
1788678607693921300,13.28592138671875,9.066842079162598,2.5689783096313477,0.0933738648891449
1788678607710030300,13.3020302734375,9.009381294250488,2.5522189140319824,0.15083470940589905
1788678607726176300,13.31817626953125,9.373299598693848,2.473210334777832,0.38067805767059326
1788678607742284800,13.334284912109375,10.271124839782715,2.5258827209472656,0.545877993106842
1788678607758430500,13.350430419921874,11.12106704711914,2.387019157409668,0.5746083855628967
1788678607774574800,13.366574951171875,11.559206008911133,2.2170307636260986,0.47165772318840027
1788678607790717400,13.382717529296874,11.628637313842773,1.9273324012756348,0.545877993106842
1788678607806861000,13.398861083984375,11.298237800598145,1.7357962131500244,0.5434837937355042
1788678607822968600,13.414968505859376,10.69489860534668,1.8602946996688843,0.38067805767059326
1788678607839124700,13.431124755859376,10.134655952453613,2.0853497982025146,0.42856210470199585
1788678607855257300,13.44725732421875,10.381258964538574,2.207453966140747,0.5650315880775452
1788678607871366100,13.4633662109375,11.678915977478027,2.051830768585205,0.646434485912323
1788678607887510800,13.4795107421875,12.966996192932129,1.644816517829895,0.6560112833976746
1788678607903651800,13.49565185546875,13.46259593963623,1.2497732639312744,0.2968810200691223
1788678607919800600,13.511800537109375,11.997344970703125,1.479616641998291,-0.6416460275650024
1788678607935936500,13.5279365234375,9.677363395690918,1.7836803197860718,-0.9624691009521484
1788678607952074000,13.544073974609375,8.62391471862793,1.9919757843017578,-0.6823474764823914
1788678607968220200,13.56022021484375,8.927978515625,2.0614075660705566,-0.12449848651885986
1788678607984317700,13.576317626953125,9.758766174316406,1.8602946996688843,0.3256114423274994
1788678608000496600,13.59249658203125,10.165780067443848,1.723825216293335,0.3495534360408783
1788678608016638000,13.608637939453125,9.99100399017334,1.6424223184585571,0.047884032130241394
1788678608032745500,13.624745361328126,9.57201862335205,1.558625340461731,-0.19153612852096558
1788678608048859600,13.640859619140626,9.23443603515625,1.5155296325683594,-0.12689268589019775
1788678608064969200,13.65696923828125,9.169792175292969,1.5538369417190552,0.0071826050989329815
1788678608081159400,13.673159423828125,9.062053680419922,1.699883222579956,0.08379705995321274
1788678608097261600,13.689261474609374,8.638279914855957,1.8507179021835327,0.07182604819536209
1788678608113372200,13.7053720703125,8.1139497756958,2.011129379272461,-0.05985504388809204
1788678608129521400,13.721521484375,7.90086555480957,2.166752576828003,-0.014365210197865963
1788678608145630700,13.737630615234375,8.015787124633789,2.2601263523101807,0.07900865375995636
1788678608161821400,13.753821533203125,8.382100105285645,2.252943754196167,0.272938996553421
1788678608177930500,13.769930419921875,8.712499618530273,2.315192937850952,0.48602294921875
1788678608194041000,13.786041015625,9.138668060302734,2.4013843536376953,0.5817909836769104
1788678608210188800,13.802188720703125,9.440337181091309,2.33913516998291,0.5722141861915588
1788678608226294800,13.818294677734375,9.560047149658203,2.403778553009033,0.4357447028160095
1788678608242448600,13.83444873046875,9.670180320739746,2.473210334777832,0.3998316824436188
1788678608258569500,13.850569580078124,10.005369186401367,2.607285737991333,0.4141969084739685
1788678608274681000,13.86668115234375,10.182539939880371,2.652775526046753,0.28969839215278625
1788678608290871600,13.88287158203125,10.168174743652344,2.7533318996429443,-0.10055647045373917
1788678608306979800,13.898979736328124,10.1753568649292,2.7246015071868896,-0.272938996553421
1788678608323137500,13.915137451171875,10.575188636779785,2.5019407272338867,0.026336219161748886
1788678608339262200,13.93126220703125,10.831368446350098,2.2816741466522217,0.5722141861915588
1788678608355372300,13.947372314453125,10.843339920043945,2.229001760482788,0.8786720037460327
1788678608371516700,13.9635166015625,10.984597206115723,2.2457611560821533,0.727837324142456
1788678608387625000,13.979625,11.188104629516602,2.190694570541382,0.4644751250743866
1788678608403790000,13.9957900390625,11.240777015686035,2.1978771686553955,0.2777273952960968
1788678608419920100,14.011920166015624,10.943896293640137,2.205059766769409,0.2753331959247589
1788678608436029200,14.028029296875,10.429142951965332,2.099714994430542,0.4381389021873474
1788678608452177000,14.044177001953125,10.450690269470215,1.8052281141281128,0.7230489253997803
1788678608468286500,14.060286376953124,11.736376762390137,1.5275006294250488,1.094150185585022
1788678608484442000,14.076442138671876,12.287043571472168,1.2306196689605713,0.8355764150619507
1788678608500584700,14.092584716796875,11.274295806884766,1.259350061416626,0.11971008777618408
1788678608516695600,14.108695556640624,9.622296333312988,1.580173134803772,-0.5267243981361389
1788678608532837600,14.124837646484375,8.348581314086914,1.8770540952682495,-0.35434186458587646
1788678608548981500,14.1409814453125,7.493851184844971,2.1308395862579346,0.27054479718208313
1788678608565145900,14.157145751953125,7.29034423828125,2.2697031497955322,0.7350199222564697
1788678608581292300,14.173292236328125,7.687781810760498,2.2673089504241943,1.0079588890075684
1788678608597400600,14.189400634765626,8.461109161376953,2.2242133617401123,0.8667010068893433
1788678608613545000,14.205544921875,8.38449478149414,2.293645143508911,0.7852981686592102
1788678608629648400,14.2216484375,9.703699111938477,1.8363527059555054,0.27054479718208313
1788678608645792800,14.237792724609376,9.643844604492188,2.0805611610412598,0.10534487664699554
1788678608661902800,14.25390283203125,9.404424667358398,2.0853497982025146,0.3280056416988373
1788678608678015700,14.270015625,8.801085472106934,2.1284453868865967,0.2825157940387726
1788678608694163000,14.286162841796875,7.9415669441223145,2.1978771686553955,0.11971008777618408
1788678608710270500,14.3022705078125,7.400477409362793,2.315192937850952,0.17477671802043915
1788678608726457900,14.318457763671875,7.390900611877441,2.3965959548950195,0.272938996553421
1788678608742572000,14.334572021484375,7.797914981842041,2.516305923461914,0.3663128614425659
1788678608758684200,14.35068408203125,8.257601737976074,2.5474305152893066,0.5889736413955688
1788678608774834200,14.366834228515625,8.712499618530273,2.5498247146606445,0.7876923680305481
1788678608790944300,14.3829443359375,8.96389102935791,2.5234885215759277,0.8643068075180054
1788678608807102500,14.3991025390625,9.035717010498047,2.564189910888672,0.7613561153411865
1788678608823231500,14.4152314453125,9.435548782348633,2.6001031398773193,0.5913678407669067
1788678608839344600,14.4313447265625,9.835380554199219,2.7078421115875244,0.4644751250743866
1788678608855493600,14.44749365234375,9.93593692779541,2.8586769104003906,0.3711012601852417
1788678608871604700,14.463604736328126,10.002974510192871,3.069366693496704,0.33997663855552673
1788678608887771100,14.479771240234374,10.424354553222656,3.1483752727508545,0.26575639843940735
1788678608903890000,14.495889892578125,11.128249168395996,2.9328970909118652,0.40701428055763245
1788678608919998700,14.511998779296874,11.63103199005127,2.5067291259765625,0.5889736413955688
1788678608936145000,14.528144775390626,11.84650993347168,1.9488801956176758,0.768538773059845
1788678608952286200,14.5442861328125,11.66455078125,1.6136919260025024,0.7469909191131592
1788678608968455700,14.56045556640625,10.66137981414795,1.7764976024627686,0.3974374830722809
1788678608984599300,14.576599365234374,9.555258750915527,2.255337953567505,-0.11252748221158981
1788678609000742000,14.592741943359375,9.581595420837402,2.47560453414917,-0.021547814831137657
1788678609016898300,14.608898193359375,10.718840599060059,2.2409727573394775,0.3734954595565796
1788678609033039000,14.6250390625,11.851298332214355,1.723825216293335,0.6129156351089478
1788678609049204700,14.641204833984375,12.351686477661133,1.5658079385757446,0.5051765441894531
1788678609065304300,14.65730419921875,11.781867027282715,1.5729905366897583,-0.011971008032560349
1788678609081446400,14.6734462890625,10.309432983398438,1.7573440074920654,-0.4836287498474121
1788678609097588500,14.68958837890625,9.14585018157959,2.0614075660705566,-0.49320554733276367
1788678609113691100,14.705691162109375,8.983044624328613,2.3127987384796143,-0.2753331959247589
1788678609129878300,14.721878173828125,9.21288776397705,2.2218191623687744,0.10055647045373917
1788678609145995500,14.73799560546875,9.308655738830566,2.164358377456665,0.28969839215278625
1788678609162106400,14.7541064453125,9.169792175292969,2.1954829692840576,0.3974374830722809
1788678609178254800,14.7702548828125,9.169792175292969,1.968033790588379,0.6536170840263367
1788678609194361900,14.78636181640625,9.5408935546875,1.7477672100067139,0.9624691009521484
1788678609210514200,14.80251416015625,9.880870819091797,1.6400281190872192,1.05105459690094
1788678609226630100,14.818630126953124,9.895236015319824,1.6352397203445435,0.7206547260284424
1788678609242740200,14.834740234375,9.63187313079834,1.6639702320098877,0.3663128614425659
1788678609258889200,14.85088916015625,9.169792175292969,1.8148049116134644,0.14604631066322327
1788678609274993700,14.86699365234375,8.5903959274292,1.965639591217041,0.20350714027881622
1788678609291152400,14.88315234375,8.037335395812988,2.0183119773864746,0.4620809257030487
1788678609307277800,14.89927783203125,8.063671112060547,2.03507137298584,0.667982280254364
1788678609323386000,14.91538623046875,8.547300338745117,2.1092917919158936,0.6177040338516235
1788678609339532300,14.9315322265625,8.803479194641113,2.1787235736846924,0.2968810200691223
1788678609355640800,14.947640869140624,8.911218643188477,2.3271639347076416,-0.26575639843940735
1788678609371815200,14.963815185546874,8.918401718139648,2.4181437492370605,-0.5889736413955688
1788678609387950600,14.97995068359375,9.05487060546875,2.408566951751709,-0.4884171485900879
1788678609404060000,14.996059814453124,9.349357604980469,2.454056739807129,-0.19871874153614044
1788678609420206800,15.012206787109376,9.655815124511719,2.5043349266052246,-0.21547815203666687
1788678609436316200,15.028316162109375,9.75637149810791,2.4803929328918457,-0.2944868206977844
1788678609452490800,15.04449072265625,9.801861763000488,2.542642116546631,-0.395043283700943
1788678609468633900,15.0606337890625,10.007762908935547,2.4444799423217773,-0.3734954595565796
1788678609484744700,15.07674462890625,10.218452453613281,2.3104045391082764,-0.09816227108240128
1788678609500888300,15.092888427734374,10.290278434753418,2.2385785579681396,0.3734954595565796
1788678609516996900,15.108996826171875,10.613495826721191,2.1475989818573,0.8164227604866028
1788678609533179400,15.125179443359375,11.204863548278809,2.1356279850006104,0.9528923034667969
1788678609549274400,15.1412744140625,10.702081680297852,2.250549554824829,0.6536170840263367
1788678609565389800,15.157389892578125,9.564835548400879,2.456450939178467,0.2346317619085312
1788678609581538000,15.1735380859375,8.44195556640625,2.5713725090026855,0.11013327538967133
1788678609597636400,15.18963623046875,8.501810073852539,2.3750481605529785,0.49799394607543945
1788678609613779700,15.20577978515625,10.66137981414795,1.6879122257232666,1.2425906658172607
1788678609629880800,15.221880859375,13.778631210327148,0.9002198576927185,1.7764976024627686
1788678609646019800,15.238019775390624,14.765042304992676,0.6560112833976746,0.8236053586006165
1788678609662162200,15.254162109375,13.73074722290039,1.01753568649292,-0.6224924325942993
1788678609678303700,15.2703037109375,11.765107154846191,1.256955862045288,-1.3886369466781616
1788678609694489000,15.286489013671876,10.002974510192871,1.580173134803772,-1.0462661981582642
1788678609710600200,15.30260009765625,8.734047889709473,1.886630892753601,-0.15083470940589905
1788678609726739500,15.318739501953125,7.948749542236328,2.0685901641845703,0.727837324142456
1788678609742891000,15.33489111328125,7.716512203216553,2.2218191623687744,1.1994950771331787
1788678609758989000,15.350989013671875,7.943961143493652,2.1811177730560303,1.173158884048462
1788678609775144200,15.367144287109374,8.370129585266113,2.166752576828003,0.6871358752250671
1788678609791266600,15.3832666015625,8.877699851989746,2.1523873805999756,0.2801215946674347
1788678609807375000,15.399375,8.951920509338379,2.1930887699127197,0.06703764945268631
1788678609823521800,15.415521728515625,8.669404029846191,2.2457611560821533,0.08379705995321274
1788678609839629600,15.431629638671875,8.291120529174805,2.2912509441375732,0.19153612852096558
1788678609855795000,15.447794921875,7.891288757324219,2.3271639347076416,0.24420857429504395
1788678609871929900,15.463929931640624,7.572859764099121,2.3918075561523438,0.2106897532939911
1788678609888037600,15.48003759765625,7.773972988128662,2.4396915435791016,0.2849099934101105
1788678609904183000,15.49618310546875,8.360552787780762,2.5019407272338867,0.4668693244457245
1788678609920290600,15.51229052734375,8.595184326171875,2.5761611461639404,0.5770025849342346
1788678609936460500,15.52846044921875,8.619126319885254,2.6886885166168213,0.44532153010368347
1788678609952600600,15.5446005859375,8.801085472106934,2.6791117191314697,0.4213795065879822
1788678609968707300,15.560707275390625,9.105149269104004,2.6168625354766846,0.4668693244457245
1788678609984853800,15.576853759765624,9.445125579833984,2.6384103298187256,0.6272808313369751
1788678610000959500,15.59295947265625,9.775525093078613,2.782062292098999,0.7637503147125244
1788678610017147000,15.60914697265625,9.950302124023438,2.9688100814819336,0.629675030708313
1788678610033246700,15.625246826171875,10.017339706420898,3.114856481552124,0.44532153010368347
1788678610049353500,15.641353515625,10.254365921020508,3.098097085952759,0.12210428714752197
1788678610065468700,15.65746875,10.690110206604004,2.9735984802246094,0.06464344263076782
1788678610081575200,15.6735751953125,11.252747535705566,2.7054479122161865,0.2849099934101105
1788678610097748700,15.689748779296876,11.875240325927734,2.494758129119873,0.6153098344802856
1788678610113857300,15.705857177734375,12.035652160644531,2.296039342880249,1.1516109704971313
1788678610129996300,15.721996337890625,11.425130844116211,2.4229321479797363,1.170764684677124
1788678610146141700,15.7381416015625,10.47702693939209,2.470816135406494,0.7158663272857666
1788678610162247000,15.754246826171874,10.532093048095703,2.3127987384796143,0.21547815203666687
1788678610178392600,15.770392578125,11.920730590820312,1.8746598958969116,0.10295066982507706
1788678610194507300,15.78650732421875,13.390769958496094,1.4437036514282227,0.2849099934101105
1788678610210648000,15.80264794921875,13.35964584350586,1.3192051649093628,0.2106897532939911
1788678610226788400,15.818788330078124,11.477803230285645,1.6280571222305298,-0.2298433631658554
1788678610242926000,15.834926025390626,8.820239067077637,2.0398597717285156,-0.47644615173339844
1788678610259112400,15.851112548828125,7.228095054626465,2.410961151123047,-0.1364694982767105
1788678610275232800,15.867232666015624,7.264008045196533,2.518700122833252,0.272938996553421
1788678610291374300,15.883374267578125,8.10437297821045,2.367865562438965,0.6057330369949341
1788678610307529700,15.89952978515625,8.482656478881836,2.276885747909546,0.706289529800415
1788678610323639800,15.915639892578126,8.360552787780762,2.121262788772583,0.8379706144332886
1788678610339803100,15.93180322265625,8.214506149291992,1.8531121015548706,0.8690952062606812
1788678610355939800,15.94793994140625,8.508993148803711,1.6543933153152466,0.6847416758537292
1788678610372049000,15.964048828125,9.239224433898926,1.5322890281677246,0.33997663855552673
1788678610388192500,15.980192626953125,9.792284965515137,1.4700398445129395,-0.05506663769483566
1788678610404299500,15.996299560546875,9.84495735168457,1.7046716213226318,-0.6224924325942993
1788678610420476700,16.0124765625,10.093954086303711,2.1092917919158936,-0.727837324142456
1788678610436571000,16.02857080078125,10.163386344909668,2.233790159225464,-0.17477671802043915
1788678610452682500,16.0446826171875,9.452308654785156,2.164358377456665,0.2825157940387726
1788678610468828200,16.060828125,8.547300338745117,2.205059766769409,0.3998316824436188
1788678610484934000,16.076933837890625,8.17141056060791,2.3965959548950195,0.3734954595565796
1788678610501115100,16.093115234375,8.288725852966309,2.4588451385498047,0.5123591423034668
1788678610517207600,16.10920751953125,8.96389102935791,2.3702597618103027,0.8355764150619507
1788678610533314800,16.125314697265626,9.423578262329102,2.3271639347076416,1.05105459690094
1788678610549461800,16.141461669921874,9.196128845214844,2.432508945465088,1.0558429956436157
1788678610565567200,16.157567138671876,8.846575736999512,2.4875755310058594,1.036689281463623
1788678610581708800,16.173708740234375,8.83939266204834,2.650381326675415,0.8930372595787048
1788678610597812700,16.189812744140625,9.198522567749023,2.8419175148010254,0.5099649429321289
1788678610613922600,16.205922607421876,9.622296333312988,2.782062292098999,0.181959331035614
1788678610630072800,16.22207275390625,10.237606048583984,2.5091233253479004,0.12210428714752197
1788678610646181400,16.238181396484375,10.919954299926758,2.341529369354248,0.4141969084739685
1788678610662333400,16.25433349609375,11.106701850891113,2.274491548538208,0.6967126727104187
1788678610678459000,16.270458984375,11.037269592285156,2.2577321529388428,0.6368576288223267
1788678610694569500,16.286569580078126,11.073183059692383,2.3080103397369385,0.38067805767059326
1788678610710717000,16.302717041015626,10.735600471496582,2.434903144836426,0.011971008032560349
1788678610726851000,16.31885107421875,9.840168952941895,2.717418909072876,-0.009576806798577309
1788678610743023400,16.3350234375,9.258378028869629,2.846705913543701,0.6392518281936646
1788678610759158500,16.351158447265625,9.35893440246582,2.3942017555236816,1.644816517829895
1788678610775270400,16.3672705078125,10.730812072753906,1.867477297782898,2.365471363067627
1788678610791420700,16.383420654296874,12.263101577758789,1.4437036514282227,2.123656988143921
1788678610807563000,16.39956298828125,12.15057373046875,1.3120225667953491,0.8762778043746948
1788678610823732500,16.415732421875,10.92953109741211,1.577778935432434,-0.37828385829925537
1788678610839872000,16.4318720703125,10.127472877502441,1.7836803197860718,-0.6703764796257019
1788678610855978200,16.447978271484374,9.622296333312988,1.8483237028121948,-0.19153612852096558
1788678610872132000,16.464132080078127,9.083600997924805,1.9584569931030273,0.7254431247711182
1788678610888241000,16.480240966796874,8.456320762634277,2.0470423698425293,1.2114660739898682
1788678610904422400,16.49642236328125,7.965508937835693,2.123656988143921,1.0462661981582642
1788678610920526800,16.51252685546875,8.02536392211914,2.0805611610412598,0.6129156351089478
1788678610936638000,16.528637939453127,8.655038833618164,1.9297266006469727,0.4908113479614258
1788678610952784000,16.544783935546874,9.23682975769043,1.821987509727478,0.4884171485900879
1788678610968891100,16.56089111328125,9.349357604980469,1.889025092124939,0.5626373887062073
1788678610985071000,16.577071044921876,9.160215377807617,1.9297266006469727,0.8690952062606812
1788678611001175000,16.593175048828126,8.695740699768066,1.968033790588379,0.7613561153411865
1788678611017286000,16.609285888671874,8.085219383239746,2.1284453868865967,0.5386953949928284
1788678611033427500,16.625427490234376,7.398083209991455,2.248155355453491,0.608127236366272
1788678611049570000,16.641570068359375,7.180211067199707,2.3942017555236816,0.7469909191131592
1788678611065719600,16.657719482421875,7.843404769897461,2.5234885215759277,0.9217676520347595
1788678611081835000,16.6738349609375,8.767566680908203,2.557007312774658,1.3263877630233765
1788678611097943000,16.689943115234374,9.519346237182617,2.535459518432617,1.37906014919281
1788678611114092500,16.706092529296875,10.019734382629395,2.5713725090026855,1.0989385843276978
1788678611130199000,16.722198974609373,10.096348762512207,2.63362193107605,0.8834604024887085
1788678611146353000,16.738352783203126,9.926360130310059,2.7293899059295654,0.6272808313369751
1788678611162468000,16.754468017578127,9.945513725280762,2.8179752826690674,0.33758243918418884
1788678611178579500,16.770579345703126,9.947908401489258,2.892195701599121,0.08140286058187485
1788678611194708200,16.786708251953126,10.177751541137695,2.8993782997131348,0.11252748221158981
1788678611210816000,16.80281591796875,10.45547866821289,2.7461493015289307,0.17477671802043915
1788678611226978800,16.818978759765624,11.075576782226562,2.4899697303771973,0.40940847992897034
1788678611243112200,16.8351123046875,11.599906921386719,2.1380221843719482,0.8667010068893433
1788678611259255600,16.851255615234376,11.75792407989502,1.8267759084701538,1.1875240802764893
1788678611275401500,16.8674013671875,11.470620155334473,1.824381709098816,1.2066776752471924
1788678611291510000,16.883510009765626,10.474632263183594,1.9776105880737305,0.8331822156906128
1788678611307685000,16.89968505859375,10.096348762512207,2.10210919380188,0.4572925269603729
1788678611323827200,16.9158271484375,10.608707427978516,1.9847931861877441,0.4189853072166443
1788678611339936000,16.93193603515625,11.743558883666992,1.580173134803772,0.5841852426528931
1788678611356078800,16.948078857421876,12.674903869628906,1.357512354850769,0.667982280254364
1788678611372219100,16.96421923828125,11.8225679397583,1.2665326595306396,0.09576806426048279
1788678611388387600,16.9803876953125,9.816226959228516,1.3910311460494995,-0.5841852426528931
1788678611404484400,16.996484375,8.38449478149414,1.6519991159439087,-0.933738648891449
1788678611420630300,17.01263037109375,8.434772491455078,1.8171991109848022,-0.9792284965515137
1788678611436787500,17.028787353515625,9.346963882446289,1.7932571172714233,-0.6536170840263367
1788678611452899000,17.044899169921877,10.182539939880371,1.742978811264038,-0.2298433631658554
1788678611469089500,17.061089599609375,10.24239444732666,1.7884687185287476,0.0454898327589035
1788678611485181200,17.07718115234375,9.998186111450195,1.7621324062347412,0.27054479718208313
1788678611501290800,17.093290771484376,9.607931137084961,1.5897499322891235,0.3926490843296051
1788678611517438500,17.1094384765625,9.318233489990234,1.53707754611969,0.2537853717803955
1788678611533546200,17.125546142578123,9.042900085449219,1.5298948287963867,0.014365210197865963
1788678611549700400,17.141700439453125,9.030928611755371,1.6400281190872192,-0.26575639843940735
1788678611565821200,17.1578212890625,9.198522567749023,1.7334020137786865,-0.2322375625371933
1788678611581933300,17.173933349609374,9.038111686706543,1.8100165128707886,-0.15801730751991272
1788678611598082600,17.19008251953125,8.686163902282715,1.86508309841156,-0.10055647045373917
1788678611614194000,17.20619384765625,8.482656478881836,1.9704279899597168,0.07422025501728058
1788678611630355500,17.22235546875,8.379706382751465,2.032677173614502,0.1628057211637497
1788678611646480400,17.23848046875,8.367734909057617,2.188300371170044,0.1173158809542656
1788678611662593500,17.254593505859376,8.525752067565918,2.3343467712402344,0.090979665517807
1788678611678744600,17.27074462890625,8.918401718139648,2.3582887649536133,0.1604115068912506
1788678611694850600,17.2868505859375,9.361329078674316,2.3367409706115723,0.4213795065879822
1788678611711020000,17.30302001953125,9.677363395690918,2.3056161403656006,0.7445967197418213
1788678611727159600,17.31915966796875,9.66299819946289,2.365471363067627,0.7565677165985107
1788678611743272700,17.335272705078125,9.509769439697266,2.5091233253479004,0.3663128614425659
1788678611759424800,17.3514248046875,9.521739959716797,2.652775526046753,-0.12449848651885986
1788678611775535900,17.367535888671874,9.794678688049316,2.6671407222747803,-0.30885201692581177
1788678611791715300,17.38371533203125,10.196905136108398,2.513911724090576,-0.009576806798577309
1788678611807833000,17.3998330078125,10.845733642578125,2.3487119674682617,0.5410895943641663
1788678611823939600,17.415939697265625,11.063606262207031,2.2170307636260986,0.7134721279144287
1788678611840083500,17.43208349609375,11.238382339477539,2.161964178085327,0.6200982332229614
1788678611856189400,17.448189453125,11.652579307556152,2.140416383743286,0.3711012601852417
1788678611872355600,17.46435546875,11.398794174194336,1.9512743949890137,0.009576806798577309
1788678611888455200,17.480455078125,10.723628997802734,2.0446481704711914,-0.08858546614646912
1788678611904562400,17.4965625,9.95748519897461,2.343923568725586,-0.05746084079146385
1788678611920708400,17.512708251953125,9.818621635437012,2.0685901641845703,0.3734954595565796
1788678611936816000,17.528816162109376,10.836156845092773,1.6927006244659424,0.828393816947937
1788678611952959500,17.54495947265625,11.932701110839844,1.4963760375976562,0.9265560507774353
1788678611969069800,17.56106982421875,11.585541725158691,1.5658079385757446,0.3208230137825012
1788678611985179100,17.57717919921875,10.572794914245605,1.577778935432434,-0.05985504388809204
1788678612001323800,17.59332373046875,9.816226959228516,1.558625340461731,0.15801730751991272
1788678612017433600,17.60943359375,9.442731857299805,1.6663644313812256,0.6129156351089478
1788678612033580500,17.62558056640625,9.033323287963867,1.7693150043487549,1.0127472877502441
1788678612049693700,17.641693603515623,8.595184326171875,1.86508309841156,1.139639973640442
1788678612065800700,17.65780078125,8.310274124145508,2.094926595687866,1.0247182846069336
1788678612081917400,17.67391748046875,8.372523307800293,2.1045033931732178,0.7422025203704834
1788678612098025500,17.690025390625,8.59997272491455,2.0207061767578125,0.43095630407333374
1788678612114177800,17.706177734375,8.798690795898438,1.9967641830444336,0.2059013396501541
1788678612130303000,17.722302978515625,8.81784439086914,2.118868589401245,0.07182604819536209
1788678612146413300,17.738413330078124,8.334216117858887,2.22660756111145,0.002394201699644327
1788678612162561800,17.754561767578124,7.65186882019043,2.3511061668395996,-0.13168109953403473
1788678612178671600,17.770671630859376,7.438784599304199,2.494758129119873,-0.26575639843940735
1788678612194833000,17.7868330078125,7.587224960327148,2.612074136734009,-0.10055647045373917
1788678612210961400,17.80296142578125,7.752425193786621,2.7293899059295654,0.21308395266532898
1788678612227072800,17.81907275390625,8.1139497756958,2.832340717315674,0.6799532771110535
1788678612243224300,17.835224365234374,8.686163902282715,2.873042106628418,1.0319008827209473
1788678612259334700,17.851334716796874,9.102754592895508,2.8371291160583496,1.0534487962722778
1788678612275508500,17.867508544921876,9.495404243469238,2.784456491470337,0.727837324142456
1788678612291649000,17.88364892578125,10.067618370056152,2.7557260990142822,0.43335050344467163
1788678612307759400,17.89975927734375,10.596736907958984,2.7509377002716064,0.19153612852096558
1788678612323907300,17.9159072265625,10.752359390258789,2.868253707885742,-0.20350714027881622
1788678612340013600,17.932013671875,10.587160110473633,3.002328872680664,-0.40222588181495667
1788678612356197400,17.948197265625,10.225635528564453,3.050212860107422,-0.21308395266532898
1788678612372339700,17.964339599609374,10.11550235748291,2.9735984802246094,0.14844051003456116
1788678612388450800,17.980450927734374,10.371682167053223,2.7461493015289307,0.5171475410461426
1788678612404599000,17.99659912109375,10.721235275268555,2.4205379486083984,0.7805097699165344
1788678612420709400,18.01270947265625,10.982203483581543,2.1787235736846924,0.667982280254364
1788678612436853800,18.028853759765624,10.843339920043945,2.0685901641845703,0.5123591423034668
1788678612452970000,18.044969970703125,10.357316970825195,2.1308395862579346,0.2849099934101105
1788678612469076500,18.061076416015624,10.287884712219238,2.1332337856292725,-0.009576806798577309
1788678612485223700,18.0772236328125,10.656591415405273,1.9943699836730957,-0.1412578970193863
1788678612501330400,18.093330322265626,11.267112731933594,1.5825673341751099,0.11013327538967133
1788678612517476400,18.109476318359373,11.781867027282715,1.3000515699386597,0.35913026332855225
1788678612533593900,18.12559375,11.513715744018555,1.290474772453308,0.15322890877723694
1788678612549700400,18.141700439453125,10.010157585144043,1.5203180313110352,-0.3711012601852417
1788678612565847300,18.157847412109376,8.700529098510742,1.7118542194366455,-0.6655880808830261
1788678612581946600,18.173946533203125,8.825027465820312,1.8579005002975464,-0.4596867263317108
1788678612598093800,18.19009375,9.610325813293457,1.8387469053268433,-0.26815059781074524
1788678612614220800,18.206220703125,10.192116737365723,1.7741034030914307,-0.26575639843940735
1788678612630331000,18.222330810546875,10.093954086303711,1.7980455160140991,-0.30885201692581177
1788678612646477600,18.2384775390625,9.792284965515137,1.9033904075622559,-0.12689268589019775
1788678612662585300,18.25458544921875,9.57201862335205,1.8842366933822632,0.26815059781074524
1788678612678754800,18.2707548828125,9.646238327026367,1.800439715385437,0.4213795065879822
1788678612694884600,18.286884521484374,9.603142738342285,1.8124107122421265,0.38546648621559143
1788678612710997200,18.302997314453126,9.272743225097656,1.9057846069335938,0.1364694982767105
1788678612727142700,18.319142578125,8.676587104797363,1.968033790588379,-0.05506663769483566
1788678612743251200,18.335251220703125,8.336610794067383,2.0470423698425293,-0.07182604819536209
1788678612759447600,18.351447509765624,8.276755332946777,2.0614075660705566,0.10534487664699554
1788678612775580400,18.367580322265624,8.38688850402832,2.0901381969451904,0.002394201699644327
1788678612791690000,18.38368994140625,8.40843677520752,3.0597896575927734,0.5267243981361389
1788678612807841800,18.399841796875,8.070854187011719,2.075772762298584,0.19871874153614044
1788678612823953200,18.415953125,8.058882713317871,2.2888567447662354,-0.47884035110473633
1788678612840142600,18.432142578125,8.487444877624512,2.4684219360351562,-0.2753331959247589
1788678612856256800,18.4482568359375,8.678980827331543,2.33913516998291,0.09816227108240128
1788678612872365800,18.46436572265625,8.939949035644531,2.343923568725586,0.4213795065879822
1788678612888513000,18.480512939453124,9.2033109664917,2.434903144836426,0.6177040338516235
1788678612904621600,18.49662158203125,9.390059471130371,2.5713725090026855,0.49799394607543945
1788678612920767200,18.512767333984375,9.677363395690918,2.628833532333374,0.033518824726343155
1788678612936872200,18.5288720703125,10.170568466186523,2.715024709701538,-0.3711012601852417
1788678612952981000,18.54498095703125,10.481815338134766,2.6623523235321045,-0.4429273009300232
1788678612969121500,18.56112158203125,10.90798282623291,2.3798365592956543,-0.07661445438861847
1788678612985227300,18.577227294921876,11.317391395568848,2.051830768585205,0.395043283700943
1788678613001378600,18.593378662109377,11.796232223510742,1.6687586307525635,0.5770025849342346
1788678613017495000,18.6094951171875,12.24155330657959,1.625662922859192,0.4836287498474121
1788678613033636000,18.625635986328124,11.8441162109375,1.8148049116134644,0.19153612852096558
1788678613049783600,18.641783447265624,10.924742698669434,1.9033904075622559,-0.1173158809542656
1788678613065893000,18.65789306640625,10.565611839294434,2.075772762298584,0.07900865375995636
1788678613082057500,18.674057373046875,10.556035041809082,1.845929503440857,0.545877993106842
1788678613098187300,18.690187255859374,11.044452667236328,1.3910311460494995,1.1635819673538208
1788678613114296800,18.706296875,11.820174217224121,1.0414776802062988,1.3670891523361206
1788678613130438700,18.722438720703124,11.671732902526855,1.0606313943862915,0.7086837291717529
1788678613146546000,18.7385458984375,10.754754066467285,1.357512354850769,-0.27054479718208313
1788678613162703000,18.754703125,9.782708168029785,1.5418659448623657,-0.6631938815116882
1788678613178835700,18.770835693359373,9.167398452758789,1.556231141090393,-0.10055647045373917
1788678613194941000,18.78694091796875,8.554482460021973,1.6376339197158813,0.45489832758903503
1788678613211099000,18.803098876953126,8.090007781982422,1.7166426181793213,1.05105459690094
1788678613227213000,18.819213134765626,8.08043098449707,1.824381709098816,1.1635819673538208
1788678613243386600,18.83538671875,8.508993148803711,1.7836803197860718,0.8307880163192749
1788678613259525400,18.851525390625,9.002198219299316,1.6424223184585571,0.3878606855869293
1788678613275638300,18.86763818359375,9.397241592407227,1.6400281190872192,0.090979665517807
1788678613291787300,18.883787353515626,9.313444137573242,1.7286136150360107,0.13407529890537262
1788678613307896000,18.89989599609375,8.920795440673828,1.9057846069335938,0.33758243918418884
1788678613324075800,18.91607568359375,8.334216117858887,2.03507137298584,0.42616790533065796
1788678613340169200,18.932169189453123,7.922413349151611,2.126051187515259,0.395043283700943
1788678613356280600,18.948280517578127,8.075642585754395,2.1499931812286377,0.26815059781074524
1788678613372432400,18.964432373046876,8.547300338745117,2.185906171798706,0.11013327538967133
1788678613388544500,18.98054443359375,9.258378028869629,2.1978771686553955,0.07422025501728058
1788678613404688100,18.996688232421874,9.821015357971191,2.1954829692840576,0.17238251864910126
1788678613420798000,19.0127978515625,9.818621635437012,2.1954829692840576,0.45250412821769714
1788678613436906500,19.028906494140625,9.684545516967773,2.2888567447662354,0.5315127968788147
1788678613453054000,19.045053955078124,9.406818389892578,2.382230758666992,0.3447650372982025
1788678613469163000,19.0611630859375,8.971074104309082,2.473210334777832,-0.028730420395731926
1788678613485313300,19.077313232421876,8.901641845703125,2.535459518432617,-0.22505496442317963
1788678613501433000,19.09343310546875,9.368511199951172,2.580949544906616,-0.22505496442317963
1788678613517541600,19.109541748046876,10.038887977600098,2.542642116546631,-0.12449848651885986
1788678613533687000,19.12568701171875,10.467450141906738,2.518700122833252,-0.2825157940387726
1788678613549795000,19.141795166015626,10.984597206115723,2.2577321529388428,-0.2585737705230713
1788678613565917700,19.157917724609376,11.681309700012207,1.9249382019042969,0.16759411990642548
1788678613582014700,19.1740146484375,11.781867027282715,1.7573440074920654,0.33518823981285095
1788678613598156800,19.19015673828125,11.063606262207031,1.8722656965255737,0.2944868206977844
1788678613614299400,19.20629931640625,9.660603523254395,2.0805611610412598,-0.023942016065120697
1788678613630440200,19.222440185546876,7.673416614532471,2.2433669567108154,-1.3024457693099976
1788678613646592800,19.2385927734375,8.22887134552002,2.3032219409942627,-1.625662922859192
1788678613662726700,19.2547265625,10.685321807861328,2.0925323963165283,0.2825157940387726
1788678613678871000,19.27087109375,12.868834495544434,1.9177556037902832,0.9720458984375
1788678613695012900,19.287012939453124,12.148179054260254,1.3646949529647827,0.15083470940589905
1788678613711151900,19.30315185546875,10.771512985229492,1.2042834758758545,-1.4844050407409668
1788678613727319000,19.319319091796874,10.055646896362305,1.4724340438842773,-2.188300371170044
1788678613743461000,19.335461181640625,10.45547866821289,1.601720929145813,-1.7693150043487549
1788678613759562500,19.3515625,10.831368446350098,1.53707754611969,-1.1851298809051514
1788678613775708400,19.36770849609375,10.47702693939209,1.5682021379470825,-0.8954314589500427
1788678613791818000,19.38381787109375,9.655815124511719,1.5729905366897583,-0.524330198764801
1788678613808003600,19.400003662109373,9.11233139038086,1.6280571222305298,-0.2753331959247589
1788678613824105700,19.416105712890626,9.306262016296387,1.5825673341751099,0.031124621629714966
1788678613840213000,19.432212890625,9.734824180603027,1.3862427473068237,0.17238251864910126
1788678613856361000,19.44836083984375,10.101137161254883,1.3431471586227417,-0.07661445438861847
1788678613872470500,19.464470458984376,9.940725326538086,1.4173674583435059,-0.42856210470199585
1788678613888617200,19.4806171875,9.251194953918457,1.6184803247451782,-0.7541735172271729
1788678613904723500,19.496723388671874,8.40843677520752,1.8722656965255737,-0.7565677165985107
1788678613920834300,19.512834228515626,8.034940719604492,2.097320795059204,-0.44771572947502136
1788678613936978200,19.528978271484377,8.26239013671875,2.2409727573394775,-0.15322890877723694
1788678613953089300,19.54508935546875,8.53293514251709,2.233790159225464,-0.040701430290937424
1788678613969242000,19.5612421875,8.62630844116211,2.2577321529388428,-0.028730420395731926
1788678613985363000,19.577363037109375,8.700529098510742,2.2840683460235596,-0.004788403399288654
1788678614001474800,19.593474853515627,8.722076416015625,2.2888567447662354,0.019153613597154617
1788678614017623300,19.609623291015627,8.908824920654297,2.3511061668395996,0.1364694982767105
1788678614033733400,19.6257333984375,9.306262016296387,2.3271639347076416,0.31124621629714966
1788678614049898000,19.64189794921875,9.591172218322754,2.1763293743133545,0.3423708379268646
1788678614066029300,19.658029296875,9.481039047241211,2.2002713680267334,0.13407529890537262
1788678614082141700,19.6741416015625,9.457097053527832,2.248155355453491,-0.011971008032560349
1788678614098291000,19.690291015625,9.718064308166504,2.296039342880249,-0.08858546614646912
1788678614114400000,19.70639990234375,9.926360130310059,2.3271639347076416,-0.19871874153614044
1788678614130563300,19.722563232421876,10.007762908935547,2.252943754196167,-0.24181437492370605
1788678614146697200,19.738697265625,10.091560363769531,2.0638017654418945,-0.1843535304069519
1788678614162807800,19.754807861328125,10.484209060668945,1.987187385559082,-0.181959331035614
1788678614178933800,19.770933837890624,10.977415084838867,1.8794482946395874,0.004788403399288654
1788678614195042000,19.7870419921875,11.382035255432129,1.7884687185287476,0.028730420395731926
1788678614211221500,19.803221435546874,11.525687217712402,1.9345149993896484,-0.11252748221158981
1788678614227315500,19.8193154296875,10.886435508728027,2.094926595687866,-0.2322375625371933
1788678614243426000,19.835426025390625,10.127472877502441,2.1308395862579346,-0.06224924325942993
1788678614259573500,19.851573486328125,9.445125579833984,1.9177556037902832,0.45250412821769714
1788678614275682000,19.86768212890625,10.141838073730469,1.7956513166427612,0.9002198576927185
1788678614291868400,19.883868408203124,11.956643104553223,1.5418659448623657,1.039083480834961
1788678614307965400,19.89996533203125,12.658143997192383,1.1683704853057861,0.6440402865409851
1788678614324113200,19.916113037109376,11.743558883666992,1.0630255937576294,-0.2944868206977844
1788678614340261000,19.93226123046875,10.498574256896973,1.3551181554794312,-1.0103530883789062
1788678614356405200,19.9484052734375,9.548076629638672,1.4987702369689941,-0.7661445140838623
1788678614372553200,19.96455322265625,8.810662269592285,1.5945383310317993,-0.10534487664699554
1788678614388667100,19.980667236328124,8.372523307800293,1.721431016921997,0.45489832758903503
1788678614404769000,19.99676904296875,8.269572257995605,1.922544002532959,0.9528923034667969
1788678614420917800,20.012917724609373,8.49941635131836,1.9297266006469727,1.1085153818130493
1788678614437029000,20.029029052734376,8.884882926940918,1.920149803161621,0.8307880163192749
1788678614453191000,20.04519091796875,8.98543930053711,1.946485996246338,0.26815059781074524
1788678614469320400,20.061320556640624,8.769960403442383,2.011129379272461,-0.07422025501728058
1788678614485434400,20.077434326171876,8.401253700256348,2.142810583114624,-0.27054479718208313
1788678614501586000,20.0935859375,8.01339340209961,2.1811177730560303,-0.22744916379451752
1788678614517700900,20.109700927734377,7.845798969268799,2.255337953567505,-0.2585737705230713
1788678614533864400,20.125864501953124,7.85537576675415,2.360682964324951,-0.2513911724090576
1788678614549995800,20.141995849609376,8.276755332946777,2.4229321479797363,0.011971008032560349
1788678614566110500,20.1581103515625,8.796297073364258,2.535459518432617,0.3208230137825012
1788678614582262300,20.17426220703125,8.983044624328613,2.607285737991333,0.5003881454467773
1788678614598375700,20.190375732421874,9.05247688293457,2.5905263423919678,0.6751648783683777
1788678614614550000,20.206550048828124,9.172186851501465,2.5091233253479004,0.6536170840263367
1788678614630687200,20.222687255859373,9.497797966003418,2.451662540435791,0.3663128614425659
1788678614646800600,20.238800537109373,9.703699111938477,2.4420857429504395,0.07422025501728058
1788678614662950100,20.2549501953125,9.732429504394531,2.516305923461914,-0.17956513166427612
1788678614679059500,20.2710595703125,9.988609313964844,2.7030537128448486,-0.33039984107017517
1788678614695217400,20.287217529296875,10.453084945678711,2.698265314102173,-0.28969839215278625
1788678614711322600,20.303322509765625,10.970232009887695,2.5330653190612793,-0.35434186458587646
1788678614727436300,20.319436279296873,11.257535934448242,2.279279947280884,-0.35913026332855225
1788678614743587000,20.335587158203126,11.295844078063965,2.0207061767578125,-0.18914192914962769
1788678614759721200,20.35172119140625,11.30302619934082,1.7405846118927002,0.3256114423274994
1788678614775914200,20.367914306640625,10.975020408630371,1.7812861204147339,0.667982280254364
1788678614792022300,20.384022216796875,10.44350814819336,1.8818424940109253,0.4836287498474121
1788678614808135700,20.4001357421875,10.345345497131348,1.8052281141281128,0.23702596127986908
1788678614824287200,20.416287353515624,10.958261489868164,1.7118542194366455,0.11013327538967133
1788678614840400600,20.432400634765624,11.57596492767334,1.3623007535934448,0.033518824726343155
1788678614856582700,20.448582763671876,11.918335914611816,1.1444283723831177,-0.17717093229293823
1788678614872701400,20.464701416015625,11.45146656036377,1.158793568611145,-0.6248866319656372
1788678614888817000,20.48081689453125,10.211270332336426,1.357512354850769,-1.0247182846069336
1788678614904963300,20.49696337890625,9.222464561462402,1.4963760375976562,-1.0869675874710083
1788678614921068500,20.513068603515624,9.117119789123535,1.6160861253738403,-0.8954314589500427
1788678614937219000,20.529218994140624,9.478644371032715,1.534683346748352,-0.49320554733276367
1788678614953335600,20.54533544921875,9.622296333312988,1.482010841369629,-0.21547815203666687
1788678614969449000,20.561448974609377,9.339780807495117,1.5490485429763794,-0.10295066982507706
1788678614985595600,20.577595703125,8.990227699279785,1.5107412338256836,0.15801730751991272
1788678615001704400,20.593704345703124,8.96389102935791,1.3503297567367554,0.38307225704193115
1788678615017867500,20.609867431640627,9.136273384094238,1.3072341680526733,0.2968810200691223
1788678615033995800,20.625995849609374,9.217676162719727,1.3479355573654175,-0.028730420395731926
1788678615050103000,20.64210302734375,9.095572471618652,1.460463047027588,-0.5913678407669067
1788678615066252500,20.65825244140625,8.769960403442383,1.5969325304031372,-0.9265560507774353
1788678615082362000,20.674362060546876,8.508993148803711,1.7334020137786865,-0.7158663272857666
1788678615098528300,20.6905283203125,8.59997272491455,1.9345149993896484,-0.3902548849582672
1788678615114659000,20.7066591796875,8.762778282165527,1.9800047874450684,-0.028730420395731926
1788678615130770000,20.72277001953125,8.892065048217773,2.006340980529785,0.1843535304069519
1788678615146918000,20.73891796875,8.987833023071289,2.1547815799713135,0.2968810200691223
1788678615163027500,20.75502734375,9.275136947631836,2.212242364883423,0.5003881454467773
1788678615179200500,20.771200439453125,9.461885452270508,2.10210919380188,0.586579442024231
