time,seconds_elapsed,z,y,x
1788656948789644300,0.170644287109375,0.1481313705444336,0.048479318618774414,-0.0005655214190483093
1788656948813713000,0.194712890625,0.15662860870361328,0.10474109649658203,0.030817456543445587
1788656948829794800,0.210794921875,0.0896444320678711,0.12923288345336914,0.05883925035595894
1788656948853935400,0.234935302734375,-0.17691516876220703,0.11612176895141602,0.034246258437633514
1788656948870043000,0.25104296875,-0.0899648666381836,0.09239029884338379,0.03956691175699234
1788656948886111500,0.267111572265625,0.0060176849365234375,0.03911161422729492,0.021265670657157898
1788656948902162400,0.283162353515625,0.0018224716186523438,0.020812511444091797,-0.026254236698150635
1788656948918248400,0.29924853515625,0.06930351257324219,0.05092358589172363,-0.01649414747953415
1788656948934327600,0.31532763671875,0.08532524108886719,0.027218341827392578,-0.04409673810005188
1788656948950454300,0.331454345703125,0.10379600524902344,0.03661608695983887,-0.039305225014686584
1788656948966538000,0.3475380859375,0.0937032699584961,0.024111032485961914,-0.04549048840999603
1788656948982586600,0.363586669921875,0.1076517105102539,0.016002416610717773,-0.01704360544681549
1788656948998671600,0.379671630859375,0.047153472900390625,0.0010256767272949219,-0.01267930120229721
1788656949014749400,0.39574951171875,0.0038766860961914062,0.013751506805419922,0.009408868849277496
1788656949030832400,0.411832275390625,0.0889291763305664,0.0026710033416748047,-0.0017773136496543884
1788656949046926800,0.4279267578125,0.13920974731445312,-0.04062247276306152,-0.002997159957885742
1788656949062978600,0.443978515625,0.20694732666015625,-0.028466224670410156,-0.008251950144767761
1788656949079070200,0.4600703125,0.29085636138916016,0.023375511169433594,0.05021269619464874
1788656949095149300,0.4761494140625,0.26603031158447266,-0.02203512191772461,-0.011583179235458374
1788656949111244500,0.49224462890625,0.122802734375,-0.011581659317016602,0.008132711052894592
1788656949127347500,0.508347412109375,-0.048882484436035156,-0.04981064796447754,0.01037183403968811
1788656949143403300,0.5244033203125,-0.1111593246459961,0.01951432228088379,-0.00416526198387146
1788656949159495000,0.540494873046875,-0.15062999725341797,0.05636000633239746,0.01776033639907837
1788656949175581200,0.556581298828125,0.016608238220214844,0.12190103530883789,0.06401373445987701
1788656949191692800,0.57269287109375,0.18547725677490234,0.01265263557434082,-0.04622936248779297
1788656949207813000,0.588813232421875,0.3067026138305664,-0.03982114791870117,-0.03073105216026306
1788656949223870000,0.604869873046875,0.18729782104492188,-0.02401256561279297,-0.018077656626701355
1788656949239965000,0.62096484375,-0.019641876220703125,0.029417753219604492,0.001598156988620758
1788656949256050200,0.63705029296875,-0.06644248962402344,0.09092211723327637,0.024595078080892563
1788656949272169000,0.6531689453125,0.16864871978759766,0.07296085357666016,0.009780004620552063
1788656949288297500,0.66929736328125,0.22417926788330078,0.10760951042175293,-0.03148161619901657
1788656949304355000,0.68535498046875,0.2157602310180664,0.061147212982177734,-0.019228793680667877
1788656949320447500,0.701447509765625,0.1984710693359375,0.05082392692565918,-0.00002181529998779297
1788656949336532200,0.7175322265625,0.11205005645751953,0.051557064056396484,0.032158128917217255
1788656949352661000,0.733660888671875,0.06797027587890625,0.02339029312133789,0.07075411081314087
1788656949368748000,0.749748046875,0.11173057556152344,0.03099203109741211,0.05832603946328163
1788656949384803300,0.76580322265625,0.17677021026611328,-0.006057262420654297,0.11220215260982513
1788656949400897500,0.7818974609375,0.2160654067993164,0.003020048141479492,0.15133169293403625
1788656949416982300,0.797982177734375,0.1340198516845703,0.0026407241821289062,0.1198248416185379
1788656949433113900,0.81411376953125,0.038005828857421875,-0.006157636642456055,0.14289149641990662
1788656949449198000,0.830197998046875,-0.04173851013183594,-0.0015552043914794922,0.09299564361572266
1788656949465253400,0.84625341796875,-0.02211761474609375,-0.007813215255737305,0.11280505359172821
1788656949481357600,0.862357666015625,0.142974853515625,-0.002802133560180664,0.05612385272979736
1788656949497440300,0.878440185546875,0.10494041442871094,0.003482341766357422,0.013221047818660736
1788656949513525500,0.894525390625,0.09842491149902344,-0.0009646415710449219,0.0489540733397007
1788656949529624300,0.910624267578125,0.0919036865234375,-0.0005710124969482422,0.04057984799146652
1788656949545680000,0.926679931640625,0.14495277404785156,0.007846593856811523,0.05402487516403198
1788656949561793000,0.94279296875,0.15728378295898438,-0.03635835647583008,0.05548541247844696
1788656949577874000,0.9588740234375,0.09797191619873047,0.0027008056640625,-0.01299837976694107
1788656949593972000,0.974971923828125,0.10309123992919922,-0.0007135868072509766,0.09810410439968109
1788656949610077400,0.991077392578125,0.17516708374023438,-0.011065959930419922,0.022668013349175453
1788656949626134300,1.00713427734375,0.08748722076416016,-0.03052806854248047,-0.0013265721499919891
1788656949642259200,1.02325927734375,-0.02161693572998047,-0.01442718505859375,0.02426617220044136
1788656949658346500,1.039346435546875,-0.10737895965576172,-0.02527761459350586,0.019147001206874847
1788656949674454000,1.0554541015625,-0.0026826858520507812,0.010137081146240234,0.03449084609746933
1788656949690572000,1.071572021484375,0.19958114624023438,-0.0005948543548583984,0.01851772703230381
1788656949706629600,1.087629638671875,0.16318511962890625,0.010374784469604492,-0.016768909990787506
1788656949722764500,1.1037646484375,0.038908958435058594,0.08631038665771484,-0.009064218029379845
1788656949738850000,1.11985009765625,0.04171466827392578,0.04917645454406738,0.004265072755515575
1788656949754969600,1.135969482421875,0.0873270034790039,0.048812150955200195,-0.0369134321808815
1788656949771099100,1.15209912109375,0.1299896240234375,0.04289579391479492,-0.029505237936973572
1788656949787153000,1.16815283203125,0.22966766357421875,0.03827691078186035,0.023443419486284256
1788656949803246300,1.184246337890625,0.23149776458740234,0.06146383285522461,0.009892558678984642
1788656949819330600,1.20033056640625,0.1812276840209961,0.07339358329772949,0.018488939851522446
1788656949835458000,1.2164580078125,0.13640499114990234,0.08340859413146973,0.01814085617661476
1788656949851543300,1.232543212890625,0.11363601684570312,0.09435129165649414,-0.007710940204560757
1788656949867599000,1.24859912109375,0.09582042694091797,0.08088421821594238,-0.029395896941423416
1788656949883693300,1.264693359375,0.11118221282958984,0.07559943199157715,-0.017459305003285408
1788656949899778800,1.28077880859375,0.14788055419921875,0.051778316497802734,-0.034545429050922394
1788656949915869200,1.296869140625,0.07963371276855469,0.02200603485107422,-0.05046016722917557
1788656949931972600,1.31297265625,0.06410408020019531,0.06153535842895508,-0.047569599002599716
1788656949948033000,1.329032958984375,0.12011051177978516,0.04444408416748047,-0.016843289136886597
1788656949964100600,1.3451005859375,0.13982486724853516,-0.009855031967163086,-0.05336479842662811
1788656949980191700,1.361191650390625,0.08518791198730469,-0.003915548324584961,-0.03609948605298996
1788656949996294100,1.377294189453125,0.08805179595947266,0.011481046676635742,0.010936038568615913
1788656950012402400,1.39340234375,0.08134937286376953,0.0028998851776123047,-0.007576754316687584
1788656950028461800,1.4094619140625,0.04581642150878906,-0.014968395233154297,-0.028516266494989395
1788656950044557600,1.4255576171875,0.007840156555175781,0.03195643424987793,-0.019823769107460976
1788656950060646100,1.441646240234375,0.027063369750976562,0.014997243881225586,-0.04315558075904846
1788656950076750300,1.457750244140625,0.06264591217041016,0.00878143310546875,-0.050704024732112885
1788656950092866300,1.4738662109375,0.15314197540283203,0.03893136978149414,-0.04707213491201401
1788656950108920800,1.4899208984375,0.17935943603515625,0.008172273635864258,-0.08947189152240753
1788656950125011200,1.50601123046875,0.09354400634765625,0.03343391418457031,-0.06857717037200928
1788656950141095200,1.52209521484375,0.024710655212402344,0.048475027084350586,-0.05034443363547325
1788656950157205500,1.53820556640625,0.020341873168945312,0.052062034606933594,-0.01776716485619545
1788656950173332000,1.55433203125,0.1064291000366211,0.05237984657287598,-0.037386205047369
1788656950189388800,1.570388916015625,0.07713794708251953,0.05640435218811035,0.001958513632416725
1788656950205483300,1.586483154296875,0.057373046875,0.07973337173461914,0.025015272200107574
1788656950221569000,1.602569091796875,0.03532981872558594,0.06681299209594727,0.06466971337795258
1788656950237684000,1.61868408203125,0.04926872253417969,0.04411435127258301,0.04608863964676857
1788656950253762300,1.63476220703125,0.1111001968383789,0.05729508399963379,0.06781060993671417
1788656950269811700,1.650811767578125,0.11316204071044922,0.05347871780395508,0.02567158080637455
1788656950285906400,1.666906494140625,0.12493228912353516,0.09719252586364746,-0.012007832527160645
1788656950301987600,1.682987548828125,0.2733926773071289,0.05169844627380371,0.013714270666241646
1788656950318113000,1.699113037109375,0.30254364013671875,0.04092121124267578,-0.032858241349458694
1788656950334199600,1.715199462890625,0.16679859161376953,0.04596257209777832,-0.019263576716184616
1788656950350253000,1.731253173828125,0.11959171295166016,0.05592060089111328,0.014482079073786736
1788656950366348800,1.747348876953125,0.03394508361816406,0.08304953575134277,0.0648571252822876
1788656950382428000,1.763427978515625,0.09665107727050781,0.09611368179321289,0.05683876574039459
1788656950398560300,1.779560302734375,0.16419029235839844,0.08273458480834961,-0.016243204474449158
1788656950414652700,1.795652587890625,0.17230510711669922,0.06092262268066406,-0.05924585834145546
1788656950430713300,1.81171337890625,0.14984512329101562,0.06861186027526855,-0.040910691022872925
1788656950446828000,1.827828125,0.05792522430419922,0.05960559844970703,-0.0074032992124557495
1788656950462919000,1.8439189453125,0.07302284240722656,0.0431056022644043,-0.05092862248420715
1788656950479021600,1.860021484375,0.1685314178466797,0.03903818130493164,-0.03409045189619064
1788656950495125000,1.876125,0.23777294158935547,0.03717660903930664,-0.04754793271422386
1788656950511185000,1.892184814453125,0.2265148162841797,0.0327153205871582,-0.027788134291768074
1788656950527305200,1.90830517578125,0.1036520004272461,0.039963483810424805,-0.03807904198765755
1788656950543395800,1.924395751953125,-0.028557777404785156,0.03219032287597656,0.019903920590877533
1788656950559503400,1.94050341796875,-0.06572437286376953,0.02172112464904785,0.03050948493182659
1788656950575629600,1.956629638671875,-0.044259071350097656,0.0291290283203125,-0.009680449962615967
1788656950591689700,1.972689697265625,0.06504249572753906,0.007561922073364258,0.005951345898211002
1788656950607824100,1.98882421875,0.10278606414794922,0.004385709762573242,-0.02099054493010044
1788656950623908900,2.004908935546875,0.055060386657714844,0.013504981994628906,0.007694427389651537
1788656950640024800,2.02102490234375,-0.02554798126220703,0.018410444259643555,-0.04304908961057663
1788656950656152300,2.03715234375,-0.11820793151855469,0.016368389129638672,-0.036050643771886826
1788656950672218600,2.053218505859375,-0.17105960845947266,0.009698867797851562,-0.010071164928376675
1788656950688356400,2.0693564453125,-0.0697784423828125,-0.002287626266479492,-0.028018947690725327
1788656950704455200,2.085455078125,0.11376571655273438,-0.005072593688964844,-0.028017304837703705
1788656950720579800,2.101579833984375,0.19405841827392578,-0.021327972412109375,0.06090546399354935
1788656950736661800,2.117661865234375,0.33032894134521484,-0.04497075080871582,0.0016589825972914696
1788656950752720400,2.133720458984375,0.29099082946777344,-0.00847315788269043,0.003725121496245265
1788656950768814000,2.14981396484375,0.1427316665649414,0.046068668365478516,0.041435662657022476
1788656950784898800,2.16589892578125,0.03537750244140625,0.04734611511230469,0.017543913796544075
1788656950801029000,2.182029052734375,0.09987354278564453,0.03341031074523926,0.018367797136306763
1788656950817118000,2.198117919921875,0.11344432830810547,0.05247211456298828,0.05981792137026787
1788656950833176600,2.214176513671875,0.1576395034790039,0.11129450798034668,-0.012052330188453197
1788656950849274400,2.2302744140625,0.1566028594970703,0.07360625267028809,-0.016102921217679977
1788656950865364700,2.24636474609375,0.20409011840820312,0.053214311599731445,0.001723170280456543
1788656950881464600,2.262464599609375,0.14405345916748047,0.05613994598388672,-0.06736001372337341
1788656950897568500,2.278568603515625,0.1126871109008789,0.049674034118652344,-0.046714261174201965
1788656950913631200,2.29463134765625,0.09093475341796875,0.07661962509155273,-0.032829783856868744
1788656950929727200,2.310727294921875,0.07676410675048828,0.05212855339050293,0.026835983619093895
1788656950945816000,2.326816162109375,0.08202362060546875,0.06752991676330566,-0.015353672206401825
1788656950961914600,2.34291455078125,0.05383491516113281,0.04919934272766113,-0.07028663903474808
1788656950978021600,2.359021728515625,0.15206432342529297,0.0011212825775146484,-0.07524685561656952
1788656950994081300,2.375081298828125,0.1785259246826172,-0.03035116195678711,-0.04630469158291817
1788656951010177800,2.391177734375,0.0952310562133789,-0.05333447456359863,-0.02248060330748558
1788656951026261000,2.407260986328125,-0.002429962158203125,-0.06914162635803223,-0.052782945334911346
1788656951042372600,2.42337255859375,0.011861801147460938,-0.05217123031616211,-0.01414791401475668
1788656951058488000,2.439488037109375,0.09237957000732422,-0.05919909477233887,-0.055369459092617035
1788656951074546400,2.45554638671875,0.11039352416992188,-0.053499460220336914,-0.049925804138183594
1788656951090651400,2.4716513671875,0.09490394592285156,-0.016710281372070312,-0.03614840656518936
1788656951106743800,2.487743896484375,0.05080223083496094,-0.037714481353759766,-0.006218399852514267
1788656951122850800,2.503850830078125,0.019033432006835938,-0.04301905632019043,0.01260908879339695
1788656951138979300,2.519979248046875,0.028229713439941406,0.015547037124633789,0.0009667631238698959
1788656951155041300,2.536041259765625,0.035004615783691406,0.009545564651489258,-0.017228199169039726
1788656951171136500,2.552136474609375,0.0033092498779296875,0.01598954200744629,-0.05216233432292938
1788656951187223000,2.56822314453125,0.06711673736572266,0.013643026351928711,-0.021312616765499115
1788656951203346000,2.584345947265625,0.06831741333007812,0.019536972045898438,-0.01768876425921917
1788656951219476000,2.60047607421875,0.1099996566772461,-0.012221813201904297,-0.007896672934293747
1788656951235533000,2.616532958984375,0.18756961822509766,0.006380558013916016,-0.008224699646234512
1788656951251632600,2.632632568359375,0.1528921127319336,-0.023715734481811523,-0.0054875630885362625
1788656951267721700,2.6487216796875,0.14730548858642578,0.009761333465576172,-0.011198963969945908
1788656951283858200,2.664858154296875,0.1396160125732422,-0.01746201515197754,-0.010104373097419739
1788656951299969000,2.680968994140625,0.11523914337158203,-0.037706851959228516,-0.00021747872233390808
1788656951316029000,2.69702880859375,0.10030746459960938,-0.01207733154296875,0.01957479864358902
1788656951332138000,2.713137939453125,0.015732765197753906,-0.02173447608947754,0.008077908307313919
1788656951348231400,2.7292314453125,0.026538848876953125,-0.0446319580078125,0.012182094156742096
1788656951364325400,2.745325439453125,0.1280345916748047,-0.04990410804748535,0.0018533729016780853
1788656951380412200,2.761412109375,0.07893943786621094,-0.04867839813232422,-0.0009465590119361877
1788656951396470500,2.777470458984375,-0.046021461486816406,0.003021717071533203,0.007479321211576462
1788656951412583400,2.79358349609375,-0.08719158172607422,-0.002760648727416992,0.03518635407090187
1788656951428664000,2.8096640625,0.026021957397460938,0.016646623611450195,-0.0017447620630264282
1788656951444763100,2.82576318359375,0.1544485092163086,-0.019195079803466797,-0.03432462364435196
1788656951460870700,2.84187060546875,0.25640106201171875,-0.0018703937530517578,0.07141045480966568
1788656951476930600,2.8579306640625,0.23955535888671875,0.000823974609375,0.0029661916196346283
1788656951493055000,2.874054931640625,0.20443153381347656,0.02484130859375,0.09097050130367279
1788656951509143300,2.890143310546875,0.24419784545898438,0.05877375602722168,-0.012121595442295074
1788656951525253000,2.906253173828125,0.20331573486328125,0.06407356262207031,-0.003348506987094879
1788656951541371600,2.92237158203125,0.1005716323852539,0.04187464714050293,-0.013472024351358414
1788656951557437400,2.9384375,0.1366262435913086,0.06055426597595215,-0.04176145792007446
1788656951573573400,2.954573486328125,0.10072708129882812,0.07722973823547363,-0.024716876447200775
1788656951589661700,2.97066162109375,0.028676986694335938,0.0563356876373291,-0.04501417651772499
1788656951605781200,2.98678125,-0.012438774108886719,0.05036735534667969,-0.05976462364196777
1788656951621914600,3.00291455078125,0.022904396057128906,0.035276174545288086,-0.08782032132148743
1788656951637975300,3.018975341796875,0.09641838073730469,0.039754629135131836,-0.041930388659238815
1788656951654111700,3.03511181640625,0.059810638427734375,0.015502452850341797,-0.043822117149829865
1788656951670203000,3.051202880859375,0.05863189697265625,0.0023040771484375,-0.00861121341586113
1788656951686328000,3.067328125,0.06653499603271484,0.019336700439453125,0.014247208833694458
1788656951702417000,3.0834169921875,0.12433338165283203,0.011179685592651367,-0.002032637596130371
1788656951718479400,3.099479248046875,0.1294536590576172,0.0030486583709716797,0.015779823064804077
1788656951734577200,3.1155771484375,0.1446390151977539,0.02933669090270996,0.0020241625607013702
1788656951750666500,3.13166650390625,0.1074371337890625,-0.0027129650115966797,0.006921395659446716
1788656951766808800,3.147808837890625,0.07034778594970703,0.005604743957519531,-0.04267119616270065
1788656951782910700,3.16391064453125,0.13600921630859375,0.012164592742919922,-0.029420888051390648
1788656951798973400,3.179973388671875,0.14918899536132812,0.0397183895111084,-0.035438358783721924
1788656951815073000,3.196072998046875,0.04076385498046875,0.025061368942260742,-0.016981638967990875
1788656951831163600,3.21216357421875,0.025856971740722656,0.04110097885131836,0.014031119644641876
1788656951847258400,3.22825830078125,0.11579513549804688,0.003607034683227539,-0.031545404344797134
1788656951863362000,3.244362060546875,0.17206764221191406,0.06473636627197266,0.14986327290534973
1788656951879422000,3.260421875,0.20204830169677734,0.12093496322631836,-0.010000547394156456
1788656951895517200,3.27651708984375,0.2895336151123047,0.0309445858001709,-0.036443259567022324
1788656951911604700,3.292604736328125,0.32258129119873047,0.03716921806335449,-0.07363065332174301
1788656951927709200,3.308709228515625,0.2365264892578125,0.039182186126708984,-0.251916766166687
1788656951943822600,3.324822509765625,0.28738880157470703,-0.010396480560302734,-0.10437825322151184
1788656951959883800,3.3408837890625,0.03242301940917969,0.05794930458068848,-0.19616079330444336
1788656951975985400,3.3569853515625,0.07203102111816406,0.05905318260192871,-0.040464624762535095
1788656951992074500,3.373074462890625,0.2909965515136719,0.08718752861022949,-0.02810516580939293
1788656952008191500,3.38919140625,0.2831096649169922,0.005896568298339844,-0.01312459260225296
1788656952024316700,3.405316650390625,0.2810211181640625,-0.004210710525512695,-0.06377435475587845
1788656952040381400,3.42138134765625,0.32558441162109375,-0.00830841064453125,0.029926493763923645
1788656952056481300,3.437481201171875,0.01009368896484375,-0.016894817352294922,-0.13909310102462769
1788656952072569900,3.45356982421875,-0.14232349395751953,-0.006823062896728516,-0.08003965765237808
1788656952088690400,3.4696904296875,-0.04340553283691406,-0.024999618530273438,-0.10549819469451904
1788656952104822000,3.485822021484375,0.019309043884277344,-0.027593135833740234,-0.13421976566314697
1788656952120886300,3.50188623046875,0.2227487564086914,-0.05254626274108887,-0.0690540224313736
1788656952136988000,3.51798779296875,-0.07477664947509766,-0.07331442832946777,-0.07500295341014862
1788656952153083000,3.534082763671875,-0.29415321350097656,-0.05037689208984375,-0.0810091495513916
1788656952169213400,3.55021337890625,0.038628578186035156,-0.007569551467895508,0.002468198537826538
1788656952185294000,3.566294189453125,0.5830631256103516,0.0017840862274169922,0.056447833776474
1788656952201356800,3.582356689453125,1.1839160919189453,-0.0785512924194336,-0.24112306535243988
1788656952217461200,3.598461181640625,0.6414146423339844,-0.09099650382995605,-0.3192026615142822
1788656952233554200,3.61455419921875,-0.21874141693115234,-0.017440080642700195,-0.3072388470172882
1788656952249695500,3.630695556640625,-0.10032081604003906,0.06285357475280762,-0.07554715871810913
1788656952265802500,3.646802490234375,-0.03546714782714844,0.25094175338745117,0.3032500743865967
1788656952281873700,3.662873779296875,-0.4777259826660156,0.31529855728149414,0.6067551374435425
1788656952297979400,3.6789794921875,-0.4094047546386719,0.3709068298339844,0.5887563228607178
1788656952314083300,3.695083251953125,0.06537628173828125,0.4090688228607178,0.5674197673797607
1788656952330182000,3.711181884765625,0.30180835723876953,0.3464515209197998,0.4396352171897888
1788656952346289200,3.7272890625,0.15447235107421875,0.19874882698059082,0.20031726360321045
1788656952362357200,3.743357177734375,0.16155052185058594,0.12108612060546875,0.015013396739959717
1788656952378466300,3.75946630859375,0.1227560043334961,0.15289926528930664,-0.03557944297790527
1788656952394572300,3.775572265625,0.1679668426513672,0.09760665893554688,0.13082802295684814
1788656952410678300,3.79167822265625,0.09783554077148438,0.12464714050292969,0.20445162057876587
1788656952426792400,3.80779248046875,0.11535167694091797,0.10169792175292969,0.18806618452072144
1788656952442858000,3.82385791015625,-0.07266712188720703,0.08129739761352539,-0.007070660591125488
1788656952458978000,3.83997802734375,-0.08413410186767578,0.019027233123779297,0.013120055198669434
1788656952475077600,3.85607763671875,0.012080192565917969,0.048095703125,0.049413084983825684
1788656952491186700,3.872186767578125,-0.12282180786132812,0.12050795555114746,0.03064507246017456
1788656952507307500,3.8883076171875,-0.1347970962524414,0.1253654956817627,0.039148569107055664
1788656952523368200,3.9043681640625,0.0750274658203125,0.11172080039978027,-0.06579303741455078
1788656952539497000,3.9204970703125,0.12633991241455078,0.06670188903808594,-0.09049355983734131
1788656952555593700,3.93659375,0.2256307601928711,0.06632161140441895,0.0011870861053466797
1788656952571712300,3.952712158203125,0.1529998779296875,0.07608723640441895,0.01676011085510254
1788656952587843800,3.96884375,-0.15504932403564453,0.13625454902648926,-0.03259170055389404
1788656952603907800,3.984907958984375,-0.30598926544189453,0.09345126152038574,0.10833883285522461
1788656952620047400,4.00104736328125,-0.11324691772460938,0.15144872665405273,0.17565488815307617
1788656952636117200,4.0171171875,0.19460296630859375,0.21349287033081055,0.09384787082672119
1788656952652254500,4.03325439453125,0.39131736755371094,0.11896371841430664,0.1408233642578125
1788656952668398300,4.0493984375,0.28538990020751953,0.0346369743347168,0.14262652397155762
1788656952684464000,4.065464111328125,0.18223285675048828,0.22362613677978516,0.04060184955596924
1788656952700566000,4.08156591796875,-0.029458045959472656,0.09881734848022461,0.15420687198638916
1788656952716667100,4.097667236328125,-0.163543701171875,0.14069843292236328,0.006398916244506836
1788656952732812500,4.1138125,-0.03203392028808594,0.09181356430053711,0.07193911075592041
1788656952748915700,4.129915771484375,0.1374959945678711,0.09503889083862305,0.0007131099700927734
1788656952764978400,4.145978515625,0.28127384185791016,0.09551000595092773,-0.03452789783477783
1788656952781074700,4.16207470703125,0.2173328399658203,0.09184598922729492,-0.08513152599334717
1788656952797173200,4.17817333984375,-0.001674652099609375,0.046402931213378906,-0.08302104473114014
1788656952813282000,4.194281982421875,-0.04569721221923828,0.013302803039550781,-0.041698336601257324
1788656952829398800,4.210398681640625,0.1215810775756836,0.027866840362548828,-0.057723402976989746
1788656952845464000,4.226464111328125,0.25153255462646484,0.019778728485107422,-0.08317291736602783
1788656952861563600,4.242563720703125,0.2664213180541992,-0.003085613250732422,-0.10633707046508789
1788656952877659000,4.258658935546875,0.19399070739746094,0.029818058013916016,-0.047742605209350586
1788656952893767000,4.274766845703125,0.03938484191894531,0.06785821914672852,0.04388117790222168
1788656952909886500,4.290886474609375,-0.2203845977783203,0.11288738250732422,0.0709601640701294
1788656952925948400,4.306948486328125,-0.1850881576538086,0.13308143615722656,0.14968371391296387
1788656952942045000,4.323044921875,-0.1761455535888672,0.1333465576171875,0.155623197555542
1788656952958148000,4.339148193359375,-0.16104888916015625,0.10046720504760742,0.12768936157226562
1788656952974271500,4.355271484375,-0.019207000732421875,0.07165050506591797,0.157478928565979
1788656952990406400,4.371406494140625,-0.4673013687133789,0.03225231170654297,0.06420242786407471
1788656953006469000,4.38746923828125,-0.5621509552001953,0.06277608871459961,0.12874555587768555
1788656953022568700,4.403568603515625,0.09836864471435547,0.10471725463867188,0.16799390316009521
1788656953038666500,4.41966650390625,0.12313461303710938,-0.006999969482421875,0.1544332504272461
1788656953054802200,4.43580224609375,0.21852493286132812,-0.014050483703613281,0.07168817520141602
1788656953070936000,4.45193603515625,0.3951578140258789,-0.013943195343017578,-0.011687159538269043
1788656953086997200,4.467997314453125,0.5231857299804688,0.013890266418457031,0.06126606464385986
1788656953103103500,4.484103515625,0.2412118911743164,0.08576583862304688,0.05099892616271973
1788656953119199000,4.500198974609375,-0.16779232025146484,0.07512569427490234,-0.048300862312316895
1788656953135341300,4.51634130859375,-0.2119007110595703,0.05232381820678711,-0.020327329635620117
1788656953151441200,4.532441162109375,-0.2706413269042969,0.05224132537841797,0.028385519981384277
1788656953167505000,4.5485048828125,-0.23960590362548828,0.09433460235595703,0.11983168125152588
1788656953183614700,4.56461474609375,0.057292938232421875,0.15191078186035156,0.127640962600708
1788656953199712800,4.580712646484375,0.642918586730957,0.14289188385009766,0.21359455585479736
1788656953215814700,4.596814697265625,0.39746665954589844,0.10365486145019531,0.0360790491104126
1788656953231923700,4.612923828125,0.0025510787963867188,0.045006752014160156,-0.21486985683441162
1788656953247992300,4.628992431640625,-0.2170553207397461,-0.045805931091308594,-0.33683574199676514
1788656953264114700,4.64511474609375,0.24071788787841797,-0.030219078063964844,-0.017921805381774902
1788656953280212200,4.661212158203125,0.6589288711547852,0.06049990653991699,0.2753385305404663
1788656953296318200,4.677318115234375,0.6887702941894531,0.09378385543823242,0.5126360654830933
1788656953320451600,4.70145166015625,0.2691946029663086,0.11942243576049805,0.10286605358123779
1788656953336530700,4.71753076171875,-0.1091766357421875,0.1117408275604248,-0.16018033027648926
1788656953352625400,4.73362548828125,-0.2842903137207031,-0.014667987823486328,-0.15248346328735352
1788656953376812300,4.757812255859375,0.11282634735107422,0.0076465606689453125,0.3121550679206848
1788656953392934000,4.773933837890625,0.20810604095458984,0.19643688201904297,0.24800056219100952
1788656953433134800,4.814134765625,0.7272787094116211,-0.12231636047363281,-0.37510058283805847
1788656953449252400,4.83025244140625,0.35863304138183594,-0.07782149314880371,-0.6718904972076416
1788656953465376300,4.846376220703125,0.4960489273071289,-0.23724913597106934,-0.785268247127533
1788656953481467000,4.862466796875,0.48133373260498047,-0.3435962200164795,-0.8468275666236877
1788656953497546200,4.878546142578125,0.35128021240234375,-0.31682610511779785,-0.8334864377975464
1788656953513631200,4.89463134765625,0.34010887145996094,-0.3009226322174072,-0.5560528039932251
1788656953529751800,4.910751708984375,0.30541229248046875,-0.2116708755493164,-0.5947965383529663
1788656953545886000,4.926885986328125,0.11812114715576172,-0.17809319496154785,-0.5540881752967834
1788656953561970000,4.942969970703125,0.0038509368896484375,-0.11742401123046875,-0.34969091415405273
1788656953578015500,4.959015380859375,-0.16879749298095703,-0.006361246109008789,-0.22982120513916016
1788656953594101000,4.97510107421875,-0.25051403045654297,0.0698707103729248,-0.09406030178070068
1788656953610245000,4.9912451171875,-0.2277851104736328,0.12246870994567871,0.03986737132072449
1788656953634405400,5.0154052734375,0.14583778381347656,0.16549205780029297,0.1762099266052246
1788656953650463200,5.031463134765625,0.2805805206298828,0.2279820442199707,0.2404094934463501
1788656953666552300,5.04755224609375,0.15134525299072266,0.29294276237487793,0.26700255274772644
1788656953682636800,5.06363671875,0.018685340881347656,0.28752636909484863,0.42326483130455017
1788656953698722600,5.07972265625,0.006336212158203125,0.24278545379638672,0.4633302390575409
1788656953714809300,5.095809326171875,0.08464813232421875,0.2207186222076416,0.32104361057281494
1788656953730857700,5.111857666015625,0.039895057678222656,0.1293799877166748,0.21078288555145264
1788656953746942000,5.12794189453125,0.05358409881591797,0.0030438899993896484,0.13376927375793457
1788656953763024000,5.14402392578125,0.2760295867919922,-0.06157493591308594,0.09404519200325012
1788656953787148800,5.168148681640625,0.48183345794677734,-0.10799908638000488,-0.08770127594470978
1788656953803232000,5.18423193359375,0.41033267974853516,-0.11496758460998535,-0.05129988491535187
1788656953819277300,5.20027734375,0.12424373626708984,-0.09501838684082031,0.019728943705558777
1788656953835362300,5.2163623046875,0.03171825408935547,-0.08073759078979492,0.03220665454864502
1788656953851467300,5.23246728515625,0.03232097625732422,-0.08436727523803711,0.05944705009460449
1788656953867586800,5.2485869140625,0.16054344177246094,-0.12067317962646484,0.0206109881401062
1788656953883669800,5.264669677734375,0.0886068344116211,-0.05159783363342285,-0.038866907358169556
1788656953899717000,5.280717041015625,-0.11927223205566406,-0.048356056213378906,-0.05921809375286102
1788656953915796500,5.29679638671875,-0.2299938201904297,-0.07831525802612305,-0.1371815949678421
1788656953931908000,5.312908203125,-0.06933307647705078,-0.1400442123413086,-0.16256672143936157
1788656953948029700,5.32902978515625,0.18399620056152344,-0.2023787498474121,-0.1334957778453827
1788656953964114000,5.345114013671875,0.28942108154296875,-0.1416635513305664,-0.11992646753787994
1788656953980132900,5.3611328125,0.154632568359375,-0.07068777084350586,-0.20357279479503632
1788656953996215000,5.377215087890625,-0.11574172973632812,-0.056943416595458984,-0.27141129970550537
1788656954012341800,5.393341796875,-0.17896366119384766,-0.05465865135192871,-0.3429049551486969
1788656954028480000,5.40947998046875,-0.03770923614501953,-0.0535430908203125,-0.21691614389419556
1788656954044569900,5.42556982421875,0.1253337860107422,0.06925392150878906,-0.06608718633651733
1788656954060620300,5.441620361328125,0.2422008514404297,0.06812787055969238,0.0655921921133995
1788656954076706300,5.457706298828125,0.3225555419921875,0.13418364524841309,0.029384829103946686
1788656954092845000,5.473844970703125,0.17215251922607422,0.19399333000183105,0.043778106570243835
1788656954108944000,5.48994384765625,0.019455909729003906,0.1290593147277832,-0.187856525182724
1788656954125034200,5.5060341796875,-0.07474517822265625,0.1513969898223877,-0.17746256291866302
1788656954141097000,5.522096923828125,0.0498504638671875,0.13429880142211914,0.03940834850072861
1788656954157184300,5.538184326171875,0.2671966552734375,0.08759260177612305,-0.16078896820545197
1788656954173278200,5.5542783203125,0.3678092956542969,0.1495206356048584,-0.1117902547121048
1788656954189386500,5.570386474609375,0.10862445831298828,0.17363929748535156,0.028070859611034393
1788656954205478700,5.586478759765625,0.0012378692626953125,0.10925126075744629,0.01855228841304779
1788656954221546000,5.6025458984375,0.004256248474121094,0.09213376045227051,-0.1636078655719757
1788656954237633300,5.61863330078125,-0.2128925323486328,0.05808091163635254,-0.19291557371616364
1788656954253738000,5.634738037109375,-0.2586803436279297,0.02659320831298828,-0.19990268349647522
1788656954269855000,5.65085498046875,-0.1876535415649414,-0.031252384185791016,-0.20423856377601624
1788656954285949200,5.66694921875,-0.03810882568359375,-0.06041884422302246,-0.10916633903980255
1788656954302024700,5.683024658203125,0.033049583435058594,0.0034770965576171875,0.06032425910234451
1788656954318115800,5.69911572265625,0.1851968765258789,-0.0320887565612793,0.048108309507369995
1788656954334232800,5.71523291015625,0.3095722198486328,-0.04129910469055176,0.0016536489129066467
1788656954350350800,5.731350830078125,0.3019380569458008,-0.04130864143371582,0.05137085169553757
1788656954366437400,5.747437255859375,0.1931905746459961,-0.01723504066467285,0.03521791845560074
1788656954382519800,5.763519775390625,0.10501670837402344,-0.003955364227294922,-0.005288831889629364
1788656954398607000,5.779607177734375,-0.023250579833984375,-0.030511856079101562,-0.02678779885172844
1788656954414727700,5.795727783203125,-0.10597705841064453,0.0026743412017822266,-0.0322161428630352
1788656954430859000,5.81185888671875,-0.18189716339111328,0.027263402938842773,-0.04173504561185837
1788656954446952000,5.827951904296875,-0.2020740509033203,0.06340360641479492,-0.06593206524848938
1788656954463047000,5.844046875,-0.06796073913574219,0.028728723526000977,-0.0203092098236084
1788656954479137300,5.86013720703125,0.18347549438476562,0.001215219497680664,0.02146119624376297
1788656954495264000,5.876263916015625,0.3263521194458008,0.007955789566040039,-0.0666857659816742
1788656954511409200,5.8924091796875,0.2294912338256836,0.030960798263549805,-0.18672870099544525
1788656954527510300,5.90851025390625,0.054518699645996094,0.06610250473022461,-0.1526833176612854
1788656954543571000,5.924571044921875,-0.10676956176757812,0.12453746795654297,-0.1817697286605835
1788656954559663400,5.940663330078125,-0.17911720275878906,0.09950447082519531,-0.11900697648525238
1788656954575806200,5.95680615234375,-0.009531021118164062,0.06105160713195801,-0.15415361523628235
1788656954591907600,5.972907470703125,0.1401348114013672,0.06288266181945801,-0.09474048018455505
1788656954608042200,5.989042236328125,0.22546863555908203,0.06630897521972656,-0.14111009240150452
1788656954624098800,6.005098876953125,0.19171142578125,0.07058835029602051,-0.11397029459476471
1788656954640190200,6.021190185546875,0.08456611633300781,0.13027167320251465,-0.1085958331823349
1788656954656289800,6.037289794921875,-0.007867813110351562,0.1220548152923584,-0.08216164261102676
1788656954672402200,6.053402099609375,-0.01910686492919922,0.1550281047821045,-0.04376351833343506
1788656954696527400,6.07752734375,0.0736551284790039,0.2177109718322754,-0.12168416380882263
1788656954712621300,6.093621337890625,0.1363201141357422,0.16296124458312988,-0.06123582646250725
1788656954728716300,6.10971630859375,0.1582927703857422,0.14180445671081543,0.0024437755346298218
1788656954744820700,6.12582080078125,0.23767852783203125,0.029752492904663086,-0.053733088076114655
1788656954760934100,6.14193408203125,0.2881736755371094,-0.0005452632904052734,-0.06109360605478287
1788656954776998000,6.157997802734375,0.3347177505493164,-0.018675565719604492,-0.04518332704901695
1788656954793091600,6.174091552734375,0.31581878662109375,-0.03127717971801758,0.04711596667766571
1788656954809183200,6.190183349609375,0.16233348846435547,0.09012532234191895,0.029403135180473328
1788656954825298700,6.206298583984375,-0.0834035873413086,0.1129453182220459,0.22234854102134705
1788656954841424600,6.222424560546875,-0.20731735229492188,0.08148598670959473,0.18149492144584656
1788656954857485800,6.23848583984375,-0.21306610107421875,0.07314014434814453,0.12439703196287155
1788656954873583000,6.2545830078125,-0.14433670043945312,0.08704328536987305,0.1387007236480713
1788656954889676000,6.270676025390625,-0.08885478973388672,0.07068252563476562,0.048539578914642334
1788656954905798100,6.286798095703125,-0.02952861785888672,0.09981012344360352,0.0246117040514946
1788656954921927000,6.302927001953125,0.10067272186279297,0.11218523979187012,-0.00896356999874115
1788656954937987000,6.318987060546875,0.20640945434570312,0.12595057487487793,-0.0762581005692482
1788656954954086000,6.3350859375,0.36255931854248047,0.11311793327331543,-0.09233222901821136
1788656954970180900,6.351180908203125,0.4669055938720703,0.10527253150939941,-0.020848363637924194
1788656954986315800,6.367315673828125,0.32633399963378906,0.1434187889099121,-0.09073677659034729
1788656955002454500,6.38345458984375,0.11964893341064453,0.12893271446228027,-0.06615635752677917
1788656955018517500,6.399517578125,0.0636749267578125,0.1554877758026123,0.0037185251712799072
1788656955034619600,6.41561962890625,0.08384990692138672,0.14252638816833496,0.0031301677227020264
1788656955050712000,6.431712158203125,0.094329833984375,0.14191794395446777,-0.013375431299209595
1788656955066845400,6.447845458984375,0.08607006072998047,0.11632061004638672,-0.03261718899011612
1788656955082936300,6.463936279296875,0.08532047271728516,0.10184955596923828,-0.0016174465417861938
1788656955098995000,6.479994873046875,0.12293052673339844,0.10161018371582031,-0.006241843104362488
1788656955115102500,6.4961025390625,0.12487316131591797,0.0863804817199707,0.03449374437332153
1788656955131193600,6.512193603515625,0.09340572357177734,0.06369280815124512,0.032258540391922
1788656955147286300,6.528286376953125,0.07629585266113281,0.019448518753051758,0.021292880177497864
1788656955163388700,6.544388671875,0.10659217834472656,0.002767324447631836,0.011062026023864746
1788656955179448300,6.5604482421875,0.17988204956054688,-0.03525185585021973,0.06673890352249146
1788656955195561000,6.57656103515625,0.141387939453125,-0.06087636947631836,0.1130848377943039
1788656955211656000,6.592656005859375,-0.1041412353515625,-0.03697490692138672,0.13746872544288635
1788656955227757300,6.60875732421875,-0.4090890884399414,0.017110109329223633,0.2328074425458908
1788656955243861500,6.624861572265625,-0.5566768646240234,0.09718465805053711,0.34060215950012207
1788656955259917000,6.6409169921875,-0.41357898712158203,0.20275497436523438,0.36666521430015564
1788656955276027400,6.65702734375,-0.21563720703125,0.27547311782836914,0.36648446321487427
1788656955292117000,6.673116943359375,-0.03539562225341797,0.3516089916229248,0.3497897982597351
1788656955308221200,6.68922119140625,0.0549163818359375,0.3197050094604492,0.2398228943347931
1788656955324356000,6.705356201171875,0.14499282836914062,0.3435990810394287,0.3450500965118408
1788656955340412200,6.721412109375,0.5086631774902344,0.25194478034973145,0.017337828874588013
1788656955356532200,6.7375322265625,0.6928071975708008,0.31670165061950684,-0.05194222927093506
1788656955372622000,6.7536220703125,0.6553335189819336,0.45052433013916016,0.03704914450645447
1788656955388732200,6.769732177734375,0.25957298278808594,0.5637412071228027,0.03846651315689087
1788656955404853000,6.78585302734375,-0.023240089416503906,0.5760190486907959,0.041648805141448975
1788656955420911400,6.801911376953125,-0.13181495666503906,0.6050670146942139,-0.008122265338897705
1788656955437036500,6.81803662109375,-0.13751602172851562,0.60825514793396,-0.0406700074672699
1788656955453129000,6.83412890625,-0.08832168579101562,0.6000814437866211,-0.042905598878860474
1788656955469246000,6.850245849609375,-0.1384563446044922,0.6222517490386963,-0.012978404760360718
1788656955485374500,6.86637451171875,-0.3170127868652344,0.7128469944000244,0.0790424644947052
1788656955501433600,6.88243359375,-0.4636192321777344,0.7138934135437012,0.07548072934150696
1788656955517525800,6.89852587890625,-0.5879602432250977,0.6984307765960693,-0.04975202679634094
1788656955533617700,6.91461767578125,-0.5944585800170898,0.6105706691741943,-0.16609983146190643
1788656955549754000,6.930754150390625,-0.4649667739868164,0.5105059146881104,-0.2650032639503479
1788656955565843500,6.946843505859375,-0.2657175064086914,0.39417338371276855,-0.3511708676815033
1788656955581902800,6.96290283203125,-0.1672210693359375,0.32187771797180176,-0.34448808431625366
1788656955597998600,6.97899853515625,-0.2976970672607422,0.2408294677734375,-0.23220807313919067
1788656955614093300,6.99509326171875,-0.4407367706298828,0.19533491134643555,-0.14324809610843658
1788656955630187500,7.0111875,-0.5258989334106445,0.15495586395263672,-0.04444541037082672
1788656955646286600,7.02728662109375,-0.46952152252197266,0.1534276008605957,0.04535651206970215
1788656955662349000,7.04334912109375,-0.27320098876953125,0.16487836837768555,0.11678415536880493
1788656955678447400,7.059447265625,-0.15318775177001953,0.1877906322479248,0.16372719407081604
1788656955694539000,7.0755390625,-0.0487823486328125,0.2249736785888672,0.19839796423912048
1788656955710642000,7.091641845703125,-0.10747623443603516,0.27424168586730957,0.225616455078125
1788656955726754000,7.107754150390625,-0.24368858337402344,0.332165002822876,0.2831067740917206
1788656955742813700,7.123813720703125,-0.2385711669921875,0.3731105327606201,0.26633119583129883
1788656955758909400,7.139909423828125,-0.10793590545654297,0.4073679447174072,0.2328605055809021
1788656955775001000,7.1560009765625,0.18915748596191406,0.4510502815246582,0.14005136489868164
1788656955791113000,7.172113037109375,0.48298168182373047,0.4342834949493408,0.09812209010124207
1788656955807235600,7.188235595703125,0.636082649230957,0.4120025634765625,0.09489992260932922
1788656955823291600,7.204291748046875,0.6639127731323242,0.3916492462158203,0.1448686122894287
1788656955839382000,7.220382080078125,0.6903114318847656,0.3631110191345215,0.21975916624069214
1788656955855473400,7.236473388671875,0.8891935348510742,0.26378297805786133,0.3454076945781708
1788656955871599000,7.25259912109375,1.0531196594238281,0.17779946327209473,0.4279393255710602
1788656955887728600,7.268728759765625,1.0461320877075195,0.2157142162322998,0.533572793006897
1788656955903791900,7.2847919921875,0.7530288696289062,0.46067190170288086,0.6850964426994324
1788656955919888600,7.300888671875,0.5328035354614258,0.34546613693237305,0.6462166905403137
1788656955935980500,7.31698046875,0.6279964447021484,-0.005163669586181641,0.25185224413871765
1788656955952111000,7.333111083984375,1.1054601669311523,-0.17894315719604492,-0.10233360528945923
1788656955968211000,7.3492109375,1.735386848449707,-0.353684663772583,-0.365270733833313
1788656955984268300,7.365268310546875,2.2334728240966797,-0.6725754737854004,-0.48629629611968994
1788656956000369700,7.38136962890625,2.354429244995117,-0.9151351451873779,-0.5032452940940857
1788656956016457200,7.397457275390625,2.2165613174438477,-1.1259818077087402,-0.5556297302246094
1788656956032594700,7.4135947265625,1.850372314453125,-1.4145750999450684,-0.5714684724807739
1788656956048691000,7.42969091796875,1.1199016571044922,-1.5721807479858398,-0.5582060813903809
1788656956064755200,7.445755126953125,0.11715126037597656,-1.5126307010650635,-0.47517359256744385
1788656956080863500,7.461863525390625,-0.7653484344482422,-1.3057200908660889,-0.4704999327659607
1788656956096942600,7.477942626953125,-1.2067508697509766,-1.1566433906555176,-0.46699830889701843
1788656956113080000,7.494080078125,-1.0827255249023438,-1.054368019104004,-0.5453230738639832
1788656956129197300,7.510197265625,-0.6131448745727539,-1.0549392700195312,-0.5558478236198425
1788656956145260300,7.52626025390625,-0.13764572143554688,-1.1432271003723145,-0.5115715265274048
1788656956161376800,7.542376708984375,0.05637073516845703,-1.1810927391052246,-0.5737758874893188
1788656956177464800,7.55846484375,0.20261478424072266,-1.1468420028686523,-0.45652657747268677
1788656956193563100,7.574563232421875,0.27048397064208984,-1.026038646697998,-0.3488413691520691
1788656956209671200,7.590671142578125,0.3497610092163086,-0.8797500133514404,-0.24090321362018585
1788656956225732900,7.60673291015625,0.5021429061889648,-0.8504452705383301,-0.15935766696929932
1788656956241854000,7.62285400390625,0.5858755111694336,-0.8047161102294922,-0.2715548276901245
1788656956257941500,7.63894140625,0.4856452941894531,-0.7486135959625244,-0.3701021075248718
1788656956274049500,7.655049560546875,0.3446788787841797,-0.6977753639221191,-0.3398629426956177
1788656956290166300,7.671166259765625,0.06316947937011719,-0.5460119247436523,-0.4322398900985718
1788656956306235100,7.687235107421875,-0.35366344451904297,-0.3959236145019531,-0.3288857042789459
1788656956322372600,7.70337255859375,-0.8413162231445312,-0.2146148681640625,-0.2794620394706726
1788656956338471200,7.71947119140625,-1.0097932815551758,-0.11359047889709473,-0.24875636398792267
1788656956354599400,7.735599365234375,-1.2182650566101074,-0.06668853759765625,-0.22774222493171692
1788656956370731800,7.751731689453125,-1.192483901977539,-0.0031006336212158203,-0.318823903799057
1788656956386793500,7.76779345703125,-0.7844142913818359,0.047051429748535156,-0.3116258978843689
1788656956402939100,7.783939208984375,-0.5249252319335938,0.03556489944458008,-0.23487401008605957
1788656956419034000,7.8000341796875,-0.3223886489868164,0.13423562049865723,-0.25321295857429504
1788656956435166500,7.81616650390625,-0.29505062103271484,0.178879976272583,-0.08527067303657532
1788656956451262200,7.83226220703125,-0.4942779541015625,0.1698470115661621,-0.05790238082408905
1788656956467320600,7.848320556640625,-0.5727834701538086,0.16062092781066895,-0.05878289043903351
1788656956483418400,7.86441845703125,-0.46514320373535156,0.1982278823852539,-0.07246460020542145
1788656956499513600,7.880513671875,-0.15659141540527344,0.2863616943359375,-0.21560662984848022
1788656956515611100,7.896611083984375,0.1633319854736328,0.37703609466552734,-0.37053757905960083
1788656956531719200,7.91271923828125,0.344451904296875,0.5753839015960693,-0.4186488389968872
1788656956547777800,7.92877783203125,0.18035411834716797,0.7335300445556641,-0.21835538744926453
1788656956563876400,7.94487646484375,0.09958553314208984,0.7695517539978027,-0.06907249242067337
1788656956579974400,7.960974365234375,0.19849014282226562,0.6915247440338135,-0.004480704665184021
1788656956596081700,7.97708154296875,0.5702619552612305,0.5181789398193359,0.021922916173934937
1788656956612190000,7.99318994140625,0.9868526458740234,0.37071895599365234,-0.07961021363735199
1788656956628252000,8.009251953125,1.1215734481811523,0.5921828746795654,-0.2617013454437256
1788656956644345600,8.025345703125,0.9691390991210938,0.9255349636077881,-0.062323495745658875
1788656956660409000,8.0414091796875,0.946263313293457,0.4115304946899414,-0.04785417020320892
1788656956676522000,8.05752197265625,1.5767202377319336,-0.06725025177001953,-0.21245956420898438
1788656956692643300,8.073643310546874,2.6559743881225586,-0.3772871494293213,-0.1932159811258316
1788656956708700200,8.0897001953125,3.19693660736084,-0.7163045406341553,-0.07481863349676132
1788656956724794400,8.10579443359375,3.0726118087768555,-0.9814684391021729,-0.1732897311449051
1788656956740861000,8.12186083984375,2.683439254760742,-1.0251705646514893,-0.10854688286781311
1788656956756956000,8.137955810546876,2.134230613708496,-1.074601173400879,-0.22162926197052002
1788656956773076000,8.154075927734375,1.2415771484375,-1.0566763877868652,-0.11782718449831009
1788656956789140200,8.17014013671875,0.28431224822998047,-0.8864247798919678,0.1449262499809265
1788656956805241000,8.186240966796875,-1.0094671249389648,-0.7696688175201416,0.4152940511703491
1788656956821316000,8.202316162109375,-1.621734619140625,-0.7824015617370605,0.5120977759361267
1788656956837426400,8.218426513671876,-1.462052822113037,-0.849348783493042,0.8752633929252625
1788656956853549600,8.234549560546874,-0.6174087524414062,-1.1257684230804443,1.3333722352981567
1788656956869609500,8.250609375,0.4191246032714844,-1.4586021900177002,1.520429015159607
1788656956885705500,8.26670556640625,1.1502265930175781,-1.7470715045928955,1.3869378566741943
1788656956901784800,8.282784912109374,1.4233894348144531,-1.8691682815551758,1.18926203250885
1788656956917904100,8.298904052734375,1.100956916809082,-1.8642840385437012,0.9651650190353394
1788656956933985500,8.314985595703124,0.581181526184082,-1.645448923110962,0.7111577391624451
1788656956950043400,8.33104345703125,0.0650777816772461,-1.3241896629333496,0.42175665497779846
1788656956966143700,8.347143798828125,-0.3818483352661133,-1.1406290531158447,0.11850184202194214
1788656956982230800,8.363230712890624,-0.8043003082275391,-0.9469034671783447,-0.07335124909877777
1788656956998367700,8.37936767578125,-1.1975131034851074,-0.7276268005371094,-0.061094194650650024
1788656957014478000,8.39547802734375,-1.4020490646362305,-0.6139636039733887,-0.10801822692155838
1788656957030538800,8.411538818359375,-1.413520336151123,-0.5861308574676514,-0.00992736965417862
1788656957046651100,8.427651123046875,-1.2812786102294922,-0.42049503326416016,0.07784341275691986
1788656957062748200,8.443748046875,-1.038161277770996,-0.3578927516937256,0.22470954060554504
1788656957078850000,8.45985009765625,-0.7312383651733398,-0.32335638999938965,0.3009359836578369
1788656957094963700,8.475963623046875,-0.4971923828125,-0.23090457916259766,0.4089067578315735
1788656957111028200,8.4920283203125,-0.3011159896850586,-0.08628654479980469,0.43041136860847473
1788656957127155700,8.50815576171875,-0.19501018524169922,-0.05404067039489746,0.5565515160560608
1788656957143251000,8.5242509765625,-0.19744491577148438,-0.01828312873840332,0.6361069083213806
1788656957159358000,8.54035791015625,-0.17005443572998047,0.15389609336853027,0.6103171706199646
1788656957175470600,8.556470703125,-0.05693244934082031,0.20897197723388672,0.6255013942718506
1788656957191532800,8.57253271484375,-0.021661758422851562,0.31280946731567383,0.6453298926353455
1788656957207659300,8.5886591796875,0.12343692779541016,0.4126884937286377,0.545811116695404
1788656957223754500,8.60475439453125,0.30190467834472656,0.48667311668395996,0.3635634779930115
1788656957239872000,8.6208720703125,0.43231773376464844,0.5179829597473145,0.11121436953544617
1788656957256001000,8.6370009765625,0.4606618881225586,0.4965028762817383,-0.02204042673110962
1788656957272060200,8.65306005859375,0.4743938446044922,0.47315168380737305,-0.09845102578401566
1788656957288195800,8.66919580078125,0.7073888778686523,0.3126044273376465,-0.23738546669483185
1788656957304289500,8.68528955078125,0.9900856018066406,0.13954734802246094,-0.3089774250984192
1788656957320409000,8.7014091796875,1.1147527694702148,-0.04237055778503418,-0.009066537022590637
1788656957336536600,8.71753662109375,1.054117202758789,-0.060938119888305664,0.18536771833896637
1788656957352595200,8.73359521484375,0.7847557067871094,0.4844841957092285,0.2357003092765808
1788656957368735700,8.74973583984375,0.8096208572387695,0.25978827476501465,0.3165230453014374
1788656957384828400,8.765828369140625,1.0177192687988281,-0.10007262229919434,0.15926353633403778
1788656957400955100,8.781955078125,1.3506174087524414,-0.07090091705322266,-0.01496802270412445
1788656957417042400,8.79804248046875,1.93212890625,-0.17635893821716309,-0.29859745502471924
1788656957433097700,8.81409765625,2.5022048950195312,-0.574542760848999,-0.40838679671287537
1788656957449192700,8.830192626953124,2.6593456268310547,-0.7272336483001709,-0.4834243059158325
1788656957465265700,8.846265625,1.9978227615356445,-0.7532515525817871,-0.40637990832328796
1788656957481366800,8.86236669921875,1.082280158996582,-0.7980382442474365,-0.40235191583633423
1788656957497462800,8.878462890625,0.2667732238769531,-0.7516171932220459,-0.28327837586402893
1788656957513525500,8.894525390625,-0.2806367874145508,-0.7452104091644287,-0.2506939768791199
1788656957529620500,8.910620361328125,-0.627039909362793,-0.7809147834777832,-0.3108472228050232
1788656957545723000,8.926722900390626,-0.8273153305053711,-0.8677337169647217,-0.36966007947921753
1788656957561825000,8.942824951171875,-0.767857551574707,-0.9643459320068359,-0.37421149015426636
1788656957577942300,8.9589423828125,-0.5670537948608398,-1.0438361167907715,-0.37798500061035156
1788656957594002400,8.97500244140625,-0.2978200912475586,-1.0495023727416992,-0.39760294556617737
1788656957610101200,8.991101318359375,-0.021689414978027344,-1.0143072605133057,-0.42278534173965454
1788656957626192400,9.0071923828125,0.2275524139404297,-1.0261399745941162,-0.3308659493923187
1788656957642294000,9.0232939453125,0.3699493408203125,-0.9722001552581787,-0.2700766324996948
1788656957658401500,9.039401611328126,0.40086936950683594,-0.8183667659759521,-0.25344592332839966
1788656957674465000,9.055465087890624,0.3366975784301758,-0.6964247226715088,-0.2715311050415039
1788656957690560500,9.071560546875,0.1529684066772461,-0.596813440322876,-0.24238398671150208
1788656957706652200,9.087652099609375,-0.08230972290039062,-0.48636293411254883,-0.2340049296617508
1788656957722769000,9.103768798828124,-0.421875,-0.35799384117126465,-0.16787731647491455
1788656957738907400,9.119907470703126,-0.6073293685913086,-0.37907958030700684,-0.1073458343744278
1788656957754969300,9.13596923828125,-0.8282384872436523,-0.2972602844238281,-0.09310144186019897
1788656957771066000,9.152066162109374,-1.0083026885986328,-0.15727949142456055,-0.02389119565486908
1788656957787155500,9.168155517578125,-1.1396551132202148,-0.05757951736450195,-0.045295365154743195
1788656957803280000,9.18427978515625,-1.1068572998046875,0.052233219146728516,-0.09873489290475845
1788656957819408400,9.200408447265625,-1.0125713348388672,0.20473408699035645,-0.1093461811542511
1788656957835468000,9.216468017578125,-0.8530330657958984,0.3219411373138428,-0.11496943980455399
1788656957851564800,9.232564697265625,-0.7713212966918945,0.3711564540863037,-0.13339772820472717
1788656957867657500,9.248657470703124,-0.7291793823242188,0.42183661460876465,-0.17310208082199097
1788656957883786200,9.2647861328125,-0.46891307830810547,0.47144627571105957,-0.3687189221382141
1788656957899878700,9.280878662109375,-0.15781307220458984,0.4498767852783203,-0.44979164004325867
1788656957915945200,9.2969453125,0.13140869140625,0.40346479415893555,-0.3800019323825836
1788656957932046600,9.313046630859375,0.25182247161865234,0.4384317398071289,-0.2790127098560333
1788656957948142000,9.32914208984375,0.1300191879272461,0.5122308731079102,-0.2079603374004364
1788656957964236000,9.345236083984375,-0.04140186309814453,0.5353343486785889,-0.09157806634902954
1788656957980338200,9.361338134765624,-0.04445457458496094,0.5521728992462158,-0.007404625415802002
1788656957996397600,9.3773974609375,0.21132469177246094,0.46967005729675293,0.09647901356220245
1788656958012496400,9.393496337890625,0.6297712326049805,0.3714179992675781,0.028844565153121948
1788656958028589600,9.409589599609374,1.0186433792114258,0.23746275901794434,-0.05442367494106293
1788656958044682200,9.42568212890625,1.2053108215332031,0.2523934841156006,-0.15019874274730682
1788656958060787700,9.44178759765625,0.8801507949829102,0.6045658588409424,-0.2763756215572357
1788656958076848000,9.45784814453125,0.3623781204223633,1.0812170505523682,-0.01884138584136963
1788656958092963800,9.4739638671875,0.22362899780273438,0.5508763790130615,0.11735112965106964
1788656958109055700,9.4900556640625,0.13079833984375,0.36150479316711426,0.0068265944719314575
1788656958125157400,9.506157470703124,0.8807411193847656,0.30486392974853516,0.12759120762348175
1788656958141278700,9.52227880859375,2.025893211364746,-0.2453758716583252,0.06691572070121765
1788656958157341700,9.538341796875,2.8313398361206055,-0.7362444400787354,-0.09395268559455872
1788656958173467000,9.554466796875,2.9169082641601562,-0.8264689445495605,-0.1789456456899643
1788656958189539000,9.5705390625,2.34560489654541,-0.7735044956207275,-0.1577504277229309
1788656958205630500,9.58663037109375,1.2441520690917969,-0.7325339317321777,-0.038558267056941986
1788656958221746700,9.60274658203125,0.008929252624511719,-0.5851950645446777,0.14323782920837402
1788656958237808400,9.618808349609376,-1.1626677513122559,-0.35773682594299316,0.20410701632499695
1788656958253942300,9.6349423828125,-1.871811866760254,-0.3090939521789551,0.405698299407959
1788656958270024700,9.651024658203125,-1.6730170249938965,-0.38979649543762207,0.6108866930007935
1788656958286142000,9.667141845703124,-0.8567132949829102,-0.547950029373169,1.0813066959381104
1788656958302279700,9.68327978515625,-0.13570117950439453,-0.8625998497009277,1.251738429069519
1788656958318338600,9.699338623046875,0.6897134780883789,-1.199570655822754,1.2534048557281494
1788656958334474800,9.715474853515625,1.415781021118164,-1.3613307476043701,1.0439872741699219
1788656958350554600,9.7315546875,1.674295425415039,-1.509050965309143,0.7000269889831543
1788656958366684400,9.747684326171875,1.4622583389282227,-1.5004593133926392,0.43596845865249634
1788656958382771200,9.763771240234375,0.8490200042724609,-1.1760389804840088,0.25621679425239563
1788656958398834200,9.779834228515625,0.01902294158935547,-0.8163094520568848,0.00007158517837524414
1788656958414933200,9.795933349609374,-0.7649364471435547,-0.6359622478485107,-0.2090761363506317
1788656958431028000,9.812028076171876,-1.5187873840332031,-0.44597506523132324,-0.3303093910217285
1788656958447159300,9.8281591796875,-1.7292537689208984,-0.2887730598449707,-0.3497050404548645
1788656958463245800,9.844245849609376,-1.6657428741455078,-0.09239506721496582,-0.3896251618862152
1788656958479310300,9.860310302734375,-1.354311466217041,-0.03984999656677246,-0.31110385060310364
1788656958495403800,9.87640380859375,-0.9534149169921875,-0.04788804054260254,-0.23234638571739197
1788656958511498800,9.892498779296876,-0.4924955368041992,0.0011448860168457031,0.06029103696346283
1788656958527606300,9.908606201171875,-0.015448570251464844,0.09783601760864258,0.22727496922016144
1788656958543721700,9.9247216796875,0.23859214782714844,0.16522669792175293,0.3903418779373169
1788656958559781600,9.94078173828125,0.2004556655883789,0.16690349578857422,0.4380706548690796
1788656958575875800,9.956875732421874,-0.06743717193603516,0.29617881774902344,0.3813953995704651
1788656958591974400,9.972974365234375,-0.2386608123779297,0.3731043338775635,0.3495393395423889
1788656958608083000,9.9890830078125,-0.36431407928466797,0.43135929107666016,0.40460148453712463
1788656958624203000,10.005203125,-0.3585014343261719,0.5650415420532227,0.3506009578704834
1788656958640266200,10.021266357421876,-0.1855792999267578,0.5668983459472656,0.3121373653411865
1788656958656378400,10.03737841796875,0.28107357025146484,0.5313239097595215,0.19176864624023438
1788656958672472800,10.053472900390625,0.6265335083007812,0.4341092109680176,0.14235466718673706
1788656958688589300,10.06958935546875,0.8126125335693359,0.26440978050231934,0.21433287858963013
1788656958704712700,10.085712646484374,0.9309883117675781,0.11097335815429688,0.20486468076705933
1788656958720775700,10.101775634765625,1.0455541610717773,-0.12638211250305176,0.26529598236083984
1788656958736872000,10.117871826171875,1.1506328582763672,-0.3157174587249756,0.24156072735786438
1788656958752957200,10.133957275390625,0.869481086730957,-0.07429718971252441,0.09895572066307068
1788656958769076700,10.15007666015625,0.4033985137939453,0.5548157691955566,0.39569664001464844
1788656958785215700,10.1662158203125,0.38356494903564453,0.43527841567993164,0.5720511078834534
1788656958801278000,10.18227783203125,0.6439180374145508,0.23991870880126953,0.11517441272735596
1788656958817374700,10.198374755859374,1.271829605102539,0.0932002067565918,-0.1466311812400818
1788656958833473500,10.2144736328125,1.909764289855957,-0.21676421165466309,-0.2222459763288498
1788656958849611800,10.23061181640625,2.294393539428711,-0.5474388599395752,-0.11021155118942261
1788656958865697500,10.246697509765625,1.9606170654296875,-0.6419768333435059,-0.07896339893341064
1788656958881758200,10.26275830078125,1.235886573791504,-0.6831748485565186,-0.1255299150943756
1788656958897855200,10.278855224609375,0.6529645919799805,-0.7859101295471191,-0.2458643764257431
1788656958913942300,10.2949423828125,0.10341930389404297,-0.7100298404693604,-0.2583920359611511
1788656958930073300,10.3110732421875,-0.4103975296020508,-0.6990857124328613,-0.2588436007499695
1788656958946180400,10.327180419921875,-0.7915410995483398,-0.730952262878418,-0.441429078578949
1788656958962241500,10.343241455078125,-0.8036012649536133,-0.7914724349975586,-0.45484817028045654
1788656958978351900,10.359351806640625,-0.44744873046875,-0.903052806854248,-0.6234578490257263
1788656958994453200,10.375453369140626,0.00917816162109375,-1.0147123336791992,-0.8417636752128601
1788656959010549000,10.391549072265626,0.20575714111328125,-1.086503028869629,-0.9882854223251343
1788656959026649900,10.40764990234375,0.2780027389526367,-1.0540733337402344,-0.6704792976379395
1788656959042714600,10.423714599609376,0.6917104721069336,-0.9915754795074463,-0.6932331323623657
1788656959058838500,10.439838623046874,0.4443788528442383,-0.8225455284118652,-0.832173228263855
1788656959074932700,10.4559326171875,0.005313873291015625,-0.5149469375610352,-0.5597626566886902
1788656959091037700,10.47203759765625,-0.12297821044921875,-0.5875012874603271,-0.08815768361091614
1788656959107151600,10.488151611328124,-0.1329050064086914,-0.39246439933776855,-0.08398222923278809
1788656959131274200,10.512274169921875,-0.30757999420166016,-0.31056785583496094,0.10681498050689697
1788656959147368700,10.52836865234375,-0.26950740814208984,-0.11675691604614258,-0.0005871057510375977
1788656959163494700,10.54449462890625,-0.2556438446044922,0.11890769004821777,-0.06769955158233643
1788656959179626500,10.56062646484375,-0.4347848892211914,0.2781236171722412,-0.07888858020305634
1788656959195734800,10.57673486328125,-0.7887287139892578,0.39743661880493164,-0.10130074620246887
1788656959211833000,10.5928330078125,-0.9634771347045898,0.4776928424835205,-0.2157025784254074
1788656959227923000,10.6089228515625,-0.9706087112426758,0.5557034015655518,-0.3083648085594177
1788656959244057000,10.62505712890625,-0.9791641235351562,0.5687065124511719,-0.2780492305755615
1788656959260193800,10.64119384765625,-0.931797981262207,0.6127846240997314,-0.14384271204471588
1788656959276286000,10.657285888671876,-0.688751220703125,0.603919506072998,-0.008394762873649597
1788656959292341800,10.673341796875,-0.3752927780151367,0.47736239433288574,0.09972727298736572
1788656959308433700,10.68943359375,-0.07127761840820312,0.381699800491333,0.014104723930358887
1788656959324578000,10.705578125,0.1428823471069336,0.3716447353363037,-0.03531119227409363
1788656959340703500,10.721703369140625,0.184600830078125,0.4750642776489258,-0.029417291283607483
1788656959356796200,10.737796142578125,0.08489704132080078,0.496060848236084,-0.0363851934671402
1788656959372847000,10.75384716796875,0.055871009826660156,0.5186500549316406,-0.03548860549926758
1788656959388935000,10.769934814453125,0.13925838470458984,0.5468049049377441,-0.12119840830564499
1788656959405032700,10.78603271484375,0.2631397247314453,0.41406822204589844,-0.12726756930351257
1788656959421139000,10.802138916015625,0.2883129119873047,0.2571849822998047,-0.02887152135372162
1788656959437231900,10.81823193359375,0.3593587875366211,0.17220163345336914,-0.08030581474304199
1788656959453286700,10.83428662109375,0.6482372283935547,0.061536312103271484,-0.19576291739940643
1788656959469383000,10.8503828125,1.0211963653564453,0.2149193286895752,-0.3053765594959259
1788656959485491700,10.86649169921875,0.8771848678588867,0.7567698955535889,-0.17120203375816345
1788656959501612500,10.882612548828124,0.2564229965209961,0.9428260326385498,0.04961436986923218
1788656959517708500,10.89870849609375,-0.14304161071777344,0.7120709419250488,0.412341445684433
1788656959533768200,10.914768310546876,0.3242311477661133,0.5304062366485596,0.6260011792182922
1788656959549860600,10.930860595703125,1.4545230865478516,0.22826814651489258,0.45170632004737854
1788656959565956000,10.9469560546875,2.89870548248291,-0.38324856758117676,0.10290390253067017
1788656959582076200,10.963076171875,3.7135257720947266,-0.6115627288818359,0.020135745406150818
1788656959598143200,10.979143310546876,3.422029495239258,-0.6582150459289551,-0.09265606105327606
1788656959614194700,10.995194580078126,2.45806884765625,-0.7403168678283691,-0.032834239304065704
1788656959630261200,11.01126123046875,1.2444324493408203,-0.8130123615264893,0.09743001312017441
1788656959646368000,11.027367919921875,-0.02700519561767578,-0.7316248416900635,0.20666542649269104
1788656959662503200,11.043503173828125,-1.1899852752685547,-0.5830109119415283,0.36438101530075073
1788656959678573600,11.059573486328125,-2.123927593231201,-0.4449474811553955,0.4911038279533386
1788656959694629000,11.075629150390625,-2.362659454345703,-0.4100220203399658,0.6342920064926147
1788656959710694700,11.091694580078125,-1.8851923942565918,-0.4957275390625,1.0476443767547607
1788656959726814500,11.107814453125,-1.073502540588379,-0.7165577411651611,1.2930116653442383
1788656959742954200,11.123954345703124,-0.1118621826171875,-1.0350546836853027,1.339734673500061
1788656959759039200,11.140039306640626,0.5117712020874023,-1.2588822841644287,1.0713690519332886
1788656959775097000,11.15609716796875,0.8145971298217773,-1.333780288696289,0.7700350880622864
1788656959791179500,11.172179443359376,0.8059148788452148,-1.353085994720459,0.623629093170166
1788656959807308300,11.188308349609375,0.5037059783935547,-1.1441795825958252,0.3801193833351135
1788656959823401000,11.20440087890625,0.018990516662597656,-0.8193473815917969,0.1928115040063858
1788656959839486000,11.22048583984375,-0.4545764923095703,-0.507896900177002,0.0027120262384414673
1788656959855546000,11.236546142578124,-0.8578672409057617,-0.18294739723205566,-0.26972630620002747
1788656959871624000,11.2526240234375,-1.1567955017089844,0.03133201599121094,-0.41873714327812195
1788656959887728400,11.268728271484376,-1.214986801147461,0.04327702522277832,-0.34301328659057617
1788656959903827000,11.284826904296875,-1.0144062042236328,0.022838354110717773,-0.21726562082767487
1788656959919920400,11.30092041015625,-0.6083259582519531,0.05083966255187988,-0.08084684610366821
1788656959935985000,11.31698486328125,-0.2057361602783203,0.019826889038085938,0.1882966011762619
1788656959952077600,11.33307763671875,0.18677139282226562,0.06257128715515137,0.32297220826148987
1788656959968183000,11.34918310546875,0.3014402389526367,0.1372971534729004,0.44064244627952576
1788656959984298200,11.36529833984375,0.2147541046142578,0.2085123062133789,0.4247261583805084
1788656960000404700,11.38140478515625,0.006961822509765625,0.2435135841369629,0.4217105507850647
1788656960016486700,11.397486572265626,-0.17483901977539062,0.3709447383880615,0.4228278398513794
1788656960032575700,11.41357568359375,-0.39113807678222656,0.4681687355041504,0.3945193290710449
1788656960048688000,11.429688232421874,-0.5072717666625977,0.5716121196746826,0.5510923862457275
1788656960064808400,11.445808349609376,-0.5080747604370117,0.7412192821502686,0.6051056385040283
1788656960080898000,11.46189794921875,-0.29234981536865234,0.7334592342376709,0.494194358587265
1788656960096983600,11.477983642578126,-0.054210662841796875,0.7312088012695312,0.3988359272480011
1788656960113074700,11.49407470703125,0.3017711639404297,0.6827824115753174,0.3059679865837097
1788656960129193700,11.51019384765625,0.5096540451049805,0.6358046531677246,0.23828840255737305
1788656960145321700,11.52632177734375,0.6134033203125,0.5248768329620361,0.1631772220134735
1788656960161415700,11.542415771484375,0.7772054672241211,0.47492241859436035,0.03501397371292114
1788656960177514200,11.55851416015625,0.9331655502319336,0.3519747257232666,0.07929882407188416
1788656960193606100,11.574606201171875,1.0789909362792969,0.25406646728515625,0.09098297357559204
1788656960209744100,11.590744140625,1.0365161895751953,0.45734214782714844,0.15716961026191711
1788656960225886700,11.60688671875,0.8219327926635742,0.8365869522094727,0.27266666293144226
1788656960241980000,11.62297998046875,0.9385433197021484,0.4304993152618408,0.0795464813709259
1788656960258030800,11.63903076171875,1.1051654815673828,0.2471904754638672,-0.24245938658714294
1788656960274122800,11.655122802734375,1.659048080444336,0.08053970336914062,-0.37606340646743774
1788656960290250200,11.671250244140625,2.3460693359375,-0.3024253845214844,-0.48393940925598145
1788656960306344400,11.687344482421874,2.803481101989746,-0.6805422306060791,-0.4697039723396301
1788656960322411800,11.703411865234376,2.6723804473876953,-0.8468358516693115,-0.33578816056251526
1788656960338462700,11.719462646484375,1.9894905090332031,-1.018758773803711,-0.12986613810062408
1788656960354544000,11.735544189453124,1.1194686889648438,-1.127589225769043,-0.16639398038387299
1788656960370637800,11.751637939453126,0.25906848907470703,-1.1357979774475098,-0.2524392306804657
1788656960386740000,11.767739990234375,-0.6016607284545898,-1.0672237873077393,-0.2338871955871582
1788656960402818800,11.78381884765625,-1.0739002227783203,-0.982421875,-0.3241308331489563
1788656960418871800,11.799871826171875,-1.1571407318115234,-1.015533208847046,-0.46559402346611023
1788656960434957600,11.81595751953125,-0.9796962738037109,-1.0410850048065186,-0.5310984253883362
1788656960451064600,11.832064697265626,-0.6839418411254883,-1.0320298671722412,-0.5329657196998596
1788656960467178200,11.84817822265625,-0.4960813522338867,-1.0299601554870605,-0.34193098545074463
1788656960483265300,11.864265380859376,-0.1989889144897461,-1.092970848083496,-0.3255547285079956
1788656960499319000,11.880319091796874,0.23939132690429688,-1.1672585010528564,-0.2812510132789612
1788656960515404800,11.89640478515625,0.500432014465332,-1.1552295684814453,-0.2016623318195343
1788656960531512300,11.91251220703125,0.6034450531005859,-1.052983283996582,-0.20450156927108765
1788656960547633700,11.928633544921874,0.39318084716796875,-0.8510730266571045,-0.15619122982025146
1788656960563721000,11.944720947265624,-0.07074832916259766,-0.6638045310974121,-0.17419177293777466
1788656960579777500,11.960777587890625,-0.49630165100097656,-0.5292532444000244,-0.15391004085540771
1788656960595860700,11.97686083984375,-0.7645711898803711,-0.4485349655151367,-0.16870614886283875
1788656960611979300,11.992979248046876,-0.9324207305908203,-0.32845497131347656,-0.16900791227817535
1788656960628106800,12.009106689453125,-0.969813346862793,-0.20883655548095703,-0.149956613779068
1788656960644213200,12.025213134765625,-1.0059232711791992,-0.07306838035583496,-0.18824724853038788
1788656960660272600,12.041272705078125,-1.136688232421875,0.10073089599609375,-0.11335048079490662
1788656960676369000,12.057368896484375,-1.1717519760131836,0.3110671043395996,-0.09380444884300232
1788656960692477700,12.073477783203124,-1.1119604110717773,0.4668595790863037,-0.05309474468231201
1788656960708615400,12.089615478515626,-0.8276863098144531,0.5190508365631104,-0.05402454733848572
1788656960724710400,12.10571044921875,-0.5398635864257812,0.5316674709320068,-0.06647089123725891
1788656960740768300,12.121768310546875,-0.21147918701171875,0.4004690647125244,-0.11694484949111938
1788656960756860200,12.137860107421876,0.1888141632080078,0.3710613250732422,-0.27722904086112976
1788656960781033000,12.162032958984375,0.6084671020507812,0.34844255447387695,-0.458429753780365
1788656960797123800,12.178123779296875,0.5909852981567383,0.3119950294494629,-0.4649357497692108
1788656960813184000,12.19418408203125,0.3607597351074219,0.409229040145874,-0.4962916374206543
1788656960829285000,12.21028515625,0.10756111145019531,0.5270299911499023,-0.5246132612228394
1788656960845385700,12.2263857421875,-0.10674667358398438,0.572256326675415,-0.4341546893119812
1788656960861478700,12.242478759765625,0.056221961975097656,0.5704827308654785,-0.2780914008617401
1788656960877586000,12.2585859375,0.4487161636352539,0.49797987937927246,-0.24995292723178864
1788656960893648600,12.274648681640626,0.7641849517822266,0.33381128311157227,-0.18088218569755554
1788656960909782000,12.290781982421874,0.9439182281494141,0.2011265754699707,-0.19837738573551178
1788656960925883600,12.306883544921876,1.0393037796020508,0.14198708534240723,-0.25674983859062195
1788656960941981200,12.322981201171874,0.8364706039428711,0.5011136531829834,-0.3294336199760437
1788656960958101500,12.3391015625,0.4444150924682617,1.0016453266143799,-0.07480345666408539
1788656960974163700,12.355163818359374,0.13311195373535156,0.5088331699371338,0.40297114849090576
1788656960990280200,12.3712802734375,0.19037723541259766,0.3436288833618164,0.5691360235214233
1788656961006375000,12.387375,1.201690673828125,0.13260293006896973,0.5426526069641113
1788656961022493400,12.403493408203126,2.788271903991699,-0.49413061141967773,0.2987966239452362
1788656961038587100,12.419587158203125,4.108338356018066,-0.919135570526123,-0.007576495409011841
1788656961054649300,12.4356494140625,4.155950546264648,-0.839691162109375,-0.09703922271728516
1788656961070779000,12.45177880859375,2.7691478729248047,-0.8509902954101562,-0.02157515287399292
1788656961086852400,12.467852294921874,0.5842475891113281,-0.7508707046508789,0.12583866715431213
1788656961102957300,12.483957275390624,-1.2783465385437012,-0.5702815055847168,0.17940212786197662
1788656961119061800,12.500061767578124,-2.2963953018188477,-0.48006415367126465,0.3624459505081177
1788656961135127300,12.516127197265625,-2.5927577018737793,-0.4447519779205322,0.36482301354408264
1788656961151283000,12.532282958984375,-2.071781635284424,-0.3756120204925537,0.39920204877853394
1788656961167352000,12.54835205078125,-1.0371618270874023,-0.6226222515106201,0.5046082735061646
1788656961183474400,12.564474365234375,-0.0004787445068359375,-1.0601096153259277,0.7868479490280151
1788656961199554800,12.580554931640625,0.6951656341552734,-1.2313652038574219,0.8314592838287354
1788656961215613400,12.596613525390625,1.1312799453735352,-1.310269832611084,0.799591064453125
1788656961231699700,12.61269970703125,1.195169448852539,-1.2915186882019043,0.759975254535675
1788656961247787300,12.628787353515625,0.9276218414306641,-1.1744487285614014,0.5537562370300293
1788656961263928300,12.64492822265625,0.5094995498657227,-0.918001651763916,0.33723053336143494
1788656961280020700,12.661020751953124,-0.023270606994628906,-0.6654384136199951,0.1483132541179657
1788656961296079400,12.677079345703126,-0.5488414764404297,-0.41553473472595215,-0.08145643770694733
1788656961312168200,12.693168212890624,-0.8390817642211914,-0.23413562774658203,-0.2087218314409256
1788656961328273400,12.7092734375,-0.9262933731079102,-0.15087008476257324,-0.3040861189365387
1788656961344374800,12.725374755859375,-0.991206169128418,-0.08363485336303711,-0.36191102862358093
1788656961360486700,12.741486572265625,-1.0914316177368164,-0.04377484321594238,-0.3740840554237366
1788656961376547800,12.7575478515625,-0.9860105514526367,-0.0103759765625,-0.12909932434558868
1788656961392638700,12.773638671875,-0.8207387924194336,0.04921150207519531,0.1565295308828354
1788656961408732000,12.78973193359375,-0.49422645568847656,0.08471989631652832,0.2550191879272461
1788656961424836400,12.80583642578125,-0.2845430374145508,0.035483598709106445,0.20264796912670135
1788656961440956200,12.8219560546875,-0.2337179183959961,0.027749061584472656,0.4397645890712738
1788656961457015000,12.83801513671875,-0.35536861419677734,0.08059906959533691,0.48724550008773804
1788656961473105200,12.854105224609375,-0.5278892517089844,0.12572050094604492,0.5403982400894165
1788656961489199000,12.87019921875,-0.6566896438598633,0.2237379550933838,0.48663222789764404
1788656961505309700,12.886309814453124,-0.4530506134033203,0.35100269317626953,0.3365921974182129
1788656961521430300,12.90243017578125,-0.023653030395507812,0.44739651679992676,0.30029407143592834
1788656961537492200,12.9184921875,0.3562192916870117,0.45833420753479004,0.22463205456733704
1788656961553582600,12.93458251953125,0.6558933258056641,0.4186103343963623,0.1570342481136322
1788656961569680400,12.950680419921875,0.9599771499633789,0.34128642082214355,0.05220144987106323
1788656961585809400,12.966809326171875,1.1892080307006836,0.2675156593322754,-0.0661284327507019
1788656961601939000,12.98293896484375,1.297867774963379,0.18678832054138184,-0.09475202858448029
1788656961618001000,12.9990009765625,1.2819738388061523,0.07829070091247559,-0.036427587270736694
1788656961634101500,13.0151015625,0.9637660980224609,0.1499640941619873,0.05877608060836792
1788656961650190600,13.031190673828124,0.38517284393310547,0.6366796493530273,0.2843896150588989
1788656961666286300,13.047286376953124,0.45427989959716797,0.4345071315765381,0.4212286174297333
1788656961682379000,13.06337890625,0.7032594680786133,0.11059236526489258,0.17782485485076904
1788656961698443500,13.079443603515625,1.3312149047851562,0.09988760948181152,-0.05892731249332428
1788656961714542000,13.0955419921875,1.8544530868530273,0.06390142440795898,-0.3877212703227997
1788656961730629000,13.111629150390625,2.2952451705932617,-0.15778112411499023,-0.47055089473724365
1788656961746746600,13.12774658203125,2.306100845336914,-0.4166712760925293,-0.476715624332428
1788656961762836700,13.143836669921875,1.9851131439208984,-0.5427591800689697,-0.5366368293762207
1788656961778898700,13.159898681640625,1.4955158233642578,-0.8152310848236084,-0.4071156680583954
1788656961795003000,13.1760029296875,0.8339672088623047,-0.9799473285675049,-0.3194563388824463
1788656961811136800,13.19213671875,0.007328033447265625,-0.9689397811889648,-0.09854425489902496
1788656961827227600,13.2082275390625,-0.8695964813232422,-0.8747525215148926,0.01620897650718689
1788656961843316200,13.224316162109375,-1.698084831237793,-0.7560935020446777,-0.1827012598514557
1788656961859375400,13.240375244140624,-1.9513278007507324,-0.7793991565704346,-0.23583951592445374
1788656961875486500,13.256486572265626,-1.4481520652770996,-0.8602824211120605,-0.33906254172325134
1788656961891574300,13.27257421875,-0.7216558456420898,-0.9662206172943115,-0.46835100650787354
1788656961907672000,13.288672119140625,-0.20807743072509766,-0.9495432376861572,-0.45362618565559387
1788656961923779800,13.30477978515625,0.1839609146118164,-0.9275445938110352,-0.40086066722869873
1788656961939839200,13.320839111328125,0.4996452331542969,-1.0236268043518066,-0.4069342315196991
1788656961955958800,13.336958740234374,0.6344203948974609,-0.9860336780548096,-0.510775089263916
1788656961972048400,13.35304833984375,0.5812797546386719,-0.8623826503753662,-0.5001920461654663
1788656961988162000,13.369162109375,0.6235628128051758,-0.765477180480957,-0.30245620012283325
1788656962004285200,13.38528515625,0.5188322067260742,-0.6045000553131104,-0.17323929071426392
1788656962020353800,13.401353759765625,0.0007839202880859375,-0.4931142330169678,-0.16907048225402832
1788656962036456000,13.4174560546875,-0.7856473922729492,-0.3404116630554199,-0.22331470251083374
1788656962052548900,13.433548828125,-1.6832914352416992,-0.14061880111694336,-0.16085150837898254
1788656962068678400,13.449678466796875,-2.170151710510254,0.06311798095703125,0.16658800840377808
1788656962084810200,13.465810302734376,-1.8578333854675293,0.21384954452514648,-0.023214519023895264
1788656962100872400,13.48187255859375,-1.3097457885742188,0.41868019104003906,-0.2193755805492401
1788656962117002000,13.498001953125,-0.7024974822998047,0.44071412086486816,-0.3640047311782837
1788656962133099300,13.514099365234374,-0.24179553985595703,0.5242555141448975,-0.4708007276058197
1788656962149236200,13.530236328125,-0.014875411987304688,0.6434977054595947,-0.11056169867515564
1788656962165329400,13.546329345703125,0.28119564056396484,0.6888155937194824,-0.20433849096298218
1788656962181397500,13.5623974609375,0.5005598068237305,0.6210291385650635,-0.23971059918403625
1788656962197493200,13.5784931640625,0.48674869537353516,0.5274200439453125,-0.23042193055152893
1788656962213599700,13.594599853515625,0.3566417694091797,0.5439975261688232,-0.1413259208202362
1788656962229698800,13.61069873046875,0.29765987396240234,0.6292808055877686,-0.025760352611541748
1788656962245818000,13.626818115234375,0.18335819244384766,0.6494729518890381,-0.08158800005912781
1788656962261878800,13.642878662109375,-0.008883476257324219,0.7393357753753662,-0.1428384780883789
1788656962277970200,13.65897021484375,-0.20763015747070312,0.8628220558166504,-0.3644621968269348
1788656962294061000,13.67506103515625,-0.2635612487792969,0.8142812252044678,-0.23391279578208923
1788656962310163000,13.691162841796874,-0.018131256103515625,0.6717572212219238,-0.09872445464134216
1788656962326269400,13.70726953125,0.5073814392089844,0.38332295417785645,-0.1702379286289215
1788656962342330400,13.723330322265625,1.009171485900879,0.15557098388671875,-0.17745250463485718
1788656962358416100,13.739416015625,1.3942232131958008,0.3619723320007324,-0.333950400352478
1788656962374503000,13.7555029296875,1.374349594116211,0.8575832843780518,-0.33800452947616577
1788656962390617900,13.771617919921875,1.0030088424682617,0.5699381828308105,0.10555991530418396
1788656962406743300,13.787743408203125,0.9600067138671875,-0.05667591094970703,0.5581375360488892
1788656962422805500,13.803805419921876,1.752366065979004,-0.3111755847930908,0.5116432905197144
1788656962438897200,13.819897216796875,3.024594306945801,-0.7457520961761475,0.23261302709579468
1788656962454963500,13.83596337890625,4.038359642028809,-0.9797577857971191,-0.005277365446090698
1788656962471055000,13.85205517578125,3.9620132446289062,-0.872523307800293,-0.04614055156707764
1788656962487153000,13.86815283203125,2.8594284057617188,-0.8621151447296143,0.011872410774230957
1788656962503208700,13.884208740234374,1.3037519454956055,-0.8044929504394531,0.1362341046333313
1788656962519296300,13.900296142578124,-0.4631519317626953,-0.7845797538757324,0.27290862798690796
1788656962535361500,13.916361572265625,-1.8946404457092285,-0.648026704788208,0.5085000395774841
1788656962551463000,13.932462890625,-2.5603342056274414,-0.5014328956604004,0.5906371474266052
1788656962567570700,13.94857080078125,-2.55557918548584,-0.45958399772644043,0.687029242515564
1788656962583620900,13.964620849609375,-1.9478731155395508,-0.5147006511688232,0.9480853080749512
1788656962599703300,13.980703369140626,-1.2503528594970703,-0.672102689743042,1.0715471506118774
1788656962615780600,13.996780517578125,-0.4671192169189453,-0.8381309509277344,1.0777838230133057
1788656962631897900,14.01289794921875,0.13860225677490234,-0.9745957851409912,0.9809509515762329
1788656962647968800,14.02896875,0.4257335662841797,-1.196674108505249,0.8673734664916992
1788656962664021200,14.045021240234375,0.56561279296875,-1.2141178846359253,0.5093169212341309
1788656962680110300,14.0611103515625,0.6552877426147461,-1.0590531826019287,0.2226383090019226
1788656962696191000,14.07719091796875,0.53076171875,-0.8717310428619385,-0.013300597667694092
1788656962712319500,14.093319580078125,0.1191110610961914,-0.6188030242919922,-0.17986199259757996
1788656962728406800,14.10940673828125,-0.45678043365478516,-0.36505770683288574,-0.18597601354122162
1788656962744452600,14.12545263671875,-1.0507354736328125,-0.16554713249206543,-0.20025798678398132
1788656962760540000,14.141539794921876,-1.2974672317504883,-0.03522753715515137,-0.14293761551380157
1788656962776618000,14.157617919921876,-1.358835220336914,0.04083514213562012,0.047827959060668945
1788656962792706800,14.173706787109374,-1.1252737045288086,0.08412790298461914,0.17026838660240173
1788656962808798200,14.189798095703125,-0.8185358047485352,0.07239174842834473,0.3162156939506531
1788656962824856300,14.205856201171875,-0.46529674530029297,0.16812777519226074,0.29994717240333557
1788656962840964000,14.221964111328125,-0.23520851135253906,0.3143587112426758,0.3636320233345032
1788656962857046800,14.238046875,-0.23188114166259766,0.40887904167175293,0.462334007024765
1788656962873145000,14.25414501953125,-0.060120582580566406,0.3942277431488037,0.3560980260372162
1788656962889246000,14.270245849609376,0.08001232147216797,0.3690662384033203,0.30081912875175476
1788656962905300200,14.28630029296875,0.14539718627929688,0.42920446395874023,0.30208662152290344
1788656962921420800,14.3024208984375,0.1821603775024414,0.5052890777587891,0.3108900785446167
1788656962937508000,14.318508056640624,0.10968971252441406,0.5849368572235107,0.36465027928352356
1788656962953614000,14.334614013671874,0.17161941528320312,0.6003689765930176,0.33783984184265137
1788656962969728300,14.350728271484375,0.23536396026611328,0.5901474952697754,0.27514103055000305
1788656962985784000,14.3667841796875,0.3274269104003906,0.5728890895843506,0.26103484630584717
1788656963001910800,14.382910888671875,0.30268287658691406,0.565136194229126,0.2491135597229004
1788656963017998300,14.398998291015625,0.2840080261230469,0.500037431716919,0.16029173135757446
1788656963034118400,14.415118408203124,0.4399576187133789,0.4097578525543213,0.1142570972442627
1788656963050241000,14.431240966796874,0.7438621520996094,0.2549889087677002,0.0958213210105896
1788656963066297300,14.44729736328125,0.8918352127075195,0.1447446346282959,0.1059371829032898
1788656963082386700,14.46338671875,0.7051553726196289,0.39867162704467773,0.15097767114639282
1788656963098477800,14.479477783203125,0.574589729309082,0.6363239288330078,0.24349093437194824
1788656963114575000,14.4955751953125,0.7265739440917969,0.3190345764160156,0.03778713941574097
1788656963130675500,14.511675537109374,1.0512218475341797,0.18357062339782715,-0.13862621784210205
1788656963146740000,14.527739990234375,1.6130008697509766,0.06408524513244629,-0.2465621680021286
1788656963162835700,14.543835693359375,2.272787094116211,-0.1390061378479004,-0.5453848242759705
1788656963178909400,14.559909423828126,2.4625558853149414,-0.33916211128234863,-0.5943325161933899
1788656963195034600,14.57603466796875,1.866929054260254,-0.3153998851776123,-0.47230833768844604
1788656963211127800,14.5921279296875,1.0516490936279297,-0.41899657249450684,-0.27068090438842773
1788656963227187200,14.608187255859375,0.505915641784668,-0.6137826442718506,-0.20607583224773407
1788656963243275500,14.624275634765626,0.3007831573486328,-0.7671124935150146,-0.23148317635059357
1788656963259365400,14.640365478515625,0.18989181518554688,-0.7900216579437256,-0.23887042701244354
1788656963275457500,14.65645751953125,-0.03157806396484375,-0.8206377029418945,-0.08742132782936096
1788656963291550500,14.672550537109375,-0.4927520751953125,-0.8035924434661865,-0.2843455374240875
1788656963307611600,14.688611572265625,-0.7659749984741211,-0.7858307361602783,-0.4805681109428406
1788656963323702300,14.704702392578126,-0.6772527694702148,-0.737891435623169,-0.5928051471710205
1788656963339796000,14.7207958984375,-0.46538734436035156,-0.7546701431274414,-0.6674655675888062
1788656963355901400,14.7369013671875,-0.17969703674316406,-0.8173565864562988,-0.5771783590316772
1788656963372036600,14.75303662109375,0.17673969268798828,-0.8567423820495605,-0.4360598921775818
1788656963388098300,14.769098388671875,0.39160728454589844,-0.8154442310333252,-0.32556572556495667
1788656963404188700,14.785188720703125,0.42528629302978516,-0.7783024311065674,-0.15992818772792816
1788656963420279600,14.801279541015624,0.18809223175048828,-0.6889762878417969,0.029879599809646606
1788656963436393700,14.817393798828125,-0.15144634246826172,-0.5311601161956787,0.08144721388816833
1788656963452511500,14.833511474609375,-0.4348182678222656,-0.33037400245666504,0.08907604217529297
1788656963468569000,14.849569091796875,-0.6255998611450195,-0.2181682586669922,0.10636654496192932
1788656963484656000,14.86565625,-0.7536020278930664,-0.0730295181274414,0.06901949644088745
1788656963500745500,14.881745361328125,-0.916895866394043,0.0968782901763916,0.03772139549255371
1788656963516866000,14.897865966796875,-1.1460638046264648,0.2452409267425537,-0.11653147637844086
1788656963533008400,14.91400830078125,-1.257920265197754,0.4315941333770752,-0.2433784306049347
1788656963549066000,14.93006591796875,-1.1436548233032227,0.5509591102600098,-0.2800222635269165
1788656963565154300,14.946154296875,-0.8487968444824219,0.5444822311401367,-0.31563377380371094
1788656963581247700,14.962247802734375,-0.7069463729858398,0.6318018436431885,-0.2539783716201782
1788656963597384200,14.97838427734375,-0.547276496887207,0.6540737152099609,-0.14509427547454834
1788656963613479200,14.994479248046876,-0.3595085144042969,0.6364660263061523,-0.1523740589618683
1788656963629540000,15.0105400390625,-0.18393802642822266,0.5958845615386963,-0.23377090692520142
1788656963645636400,15.02663623046875,-0.0007610321044921875,0.6210029125213623,-0.19338557124137878
1788656963661727000,15.04272705078125,0.015656471252441406,0.6297883987426758,-0.2113555669784546
1788656963677819000,15.05881884765625,0.020671844482421875,0.5665383338928223,-0.21537119150161743
1788656963693913300,15.074913330078125,0.020008087158203125,0.5515139102935791,-0.2263900339603424
1788656963709979600,15.090979736328125,0.08097553253173828,0.6099753379821777,-0.1837221384048462
1788656963726080300,15.107080322265626,0.055457115173339844,0.6044774055480957,-0.18137207627296448
1788656963742173000,15.1231728515625,0.08037090301513672,0.5657186508178711,-0.2942124605178833
1788656963766316300,15.14731640625,0.33685874938964844,0.4448683261871338,-0.4187479317188263
1788656963782414300,15.163414306640625,0.6323957443237305,0.33190488815307617,-0.45594215393066406
1788656963798494000,15.179493896484376,0.9461030960083008,0.20583796501159668,-0.5295579433441162
1788656963814572500,15.195572509765626,1.1989097595214844,0.10036516189575195,-0.5436800122261047
1788656963830676700,15.2116767578125,1.0296859741210938,0.11016583442687988,-0.4333811402320862
1788656963846796500,15.227796630859375,0.38469409942626953,0.6593117713928223,-0.3101109266281128
1788656963862898000,15.24389794921875,-0.04230308532714844,0.8155627250671387,0.19473770260810852
1788656963878984700,15.259984619140624,0.11034393310546875,0.31638646125793457,0.33136898279190063
1788656963895067600,15.276067626953125,0.9598016738891602,0.22882556915283203,0.3495984673500061
1788656963911186000,15.29218603515625,2.114225387573242,-0.19721078872680664,0.4424996078014374
1788656963927312600,15.308312744140625,3.3211679458618164,-0.780620813369751,0.31581807136535645
1788656963943381800,15.3243818359375,3.6967554092407227,-0.853252649307251,0.08370169997215271
1788656963959476200,15.340476318359375,2.8577680587768555,-0.8210792541503906,-0.06422470510005951
1788656963975540700,15.356540771484376,1.6162452697753906,-0.9800748825073242,0.1138148307800293
1788656963991660800,15.372660888671875,0.21257591247558594,-0.9020521640777588,0.07906396687030792
1788656964007802000,15.388802001953126,-0.9108638763427734,-0.798743486404419,0.23130729794502258
1788656964023873800,15.404873779296874,-1.8530807495117188,-0.6979527473449707,0.42730712890625
1788656964039926300,15.42092626953125,-2.373344898223877,-0.620664119720459,0.4781988859176636
1788656964055987500,15.436987548828125,-2.3671164512634277,-0.6110970973968506,0.6665422320365906
1788656964072111400,15.453111328125,-1.5462026596069336,-0.7910387516021729,0.8232170343399048
1788656964088217600,15.469217529296875,-0.4824953079223633,-1.0402038097381592,0.9642348289489746
1788656964104307500,15.485307373046876,0.5494670867919922,-1.3577669858932495,1.1284751892089844
1788656964120361000,15.50136083984375,1.1333703994750977,-1.4585168361663818,0.9399138689041138
1788656964136428000,15.517427978515625,1.4280157089233398,-1.5167025327682495,0.7562359571456909
1788656964152572200,15.533572265625,1.4507312774658203,-1.4579776525497437,0.4914282560348511
1788656964168688600,15.549688720703125,1.0182971954345703,-1.1606107950210571,0.3004953861236572
1788656964184776000,15.56577587890625,0.2287740707397461,-0.7929203510284424,0.21187947690486908
1788656964200828400,15.581828369140625,-0.5845451354980469,-0.5191357135772705,0.1104554533958435
1788656964216900400,15.597900390625,-1.2335119247436523,-0.33349156379699707,-0.028041161596775055
1788656964232996000,15.61399609375,-1.364675521850586,-0.199385404586792,-0.05017751455307007
1788656964249112300,15.6301123046875,-1.1993207931518555,-0.1225900650024414,0.03639839589595795
1788656964265201000,15.646200927734375,-0.9805889129638672,-0.06874299049377441,0.09095446020364761
1788656964281260000,15.662260009765625,-0.7677068710327148,0.04402804374694824,0.23922935128211975
1788656964297342000,15.678342041015625,-0.5751190185546875,0.13224506378173828,0.4309770166873932
1788656964313457200,15.69445703125,-0.3325490951538086,0.08767294883728027,0.4639577865600586
1788656964329582300,15.710582275390625,0.004506111145019531,0.14745020866394043,0.45027774572372437
1788656964345666600,15.72666650390625,0.1828784942626953,0.13472795486450195,0.44979751110076904
1788656964361719600,15.742719482421874,0.2126922607421875,0.18170690536499023,0.3700333833694458
1788656964377797400,15.75879736328125,0.18976116180419922,0.2427372932434082,0.3130660653114319
1788656964393912600,15.77491259765625,0.06121540069580078,0.30169081687927246,0.27956730127334595
1788656964410045000,15.791044921875,-0.008028984069824219,0.3883204460144043,0.30318117141723633
1788656964426132700,15.8071328125,-0.09889411926269531,0.4942362308502197,0.3187178671360016
1788656964442192600,15.823192626953125,-0.27571964263916016,0.5588967800140381,0.3018944263458252
1788656964458274300,15.8392744140625,-0.36241817474365234,0.5450780391693115,0.28339913487434387
1788656964474411800,15.855411865234375,-0.26917171478271484,0.501849889755249,0.35968825221061707
1788656964490550300,15.87155029296875,0.01582050323486328,0.4799776077270508,0.22696149349212646
1788656964506648000,15.88764794921875,0.13195419311523438,0.43084216117858887,0.15657928586006165
1788656964522705000,15.903704833984374,0.1705780029296875,0.4179809093475342,0.15793940424919128
1788656964538786600,15.91978662109375,0.12546825408935547,0.3499131202697754,0.1681397557258606
1788656964554923500,15.935923583984374,0.22697067260742188,0.32799339294433594,0.11859232187271118
1788656964571018000,15.95201806640625,0.3957691192626953,0.3004584312438965,0.11088281869888306
1788656964587115300,15.968115234375,0.5703535079956055,0.20679068565368652,0.20098352432250977
1788656964603179800,15.9841796875,0.641819953918457,0.16453170776367188,0.07192158699035645
1788656964627329000,16.0083291015625,0.3923349380493164,0.7309114933013916,-0.055288344621658325
1788656964643429600,16.0244296875,0.3319053649902344,0.48053765296936035,-0.18263348937034607
1788656964659532500,16.040532470703123,0.6498928070068359,0.12764954566955566,-0.5100390911102295
1788656964675596000,16.056595947265624,1.4754056930541992,0.011317014694213867,-0.6371853351593018
1788656964691702800,16.072702880859374,2.2459182739257812,-0.16336417198181152,-0.8614954948425293
1788656964707750400,16.08875048828125,2.517937660217285,-0.41217613220214844,-0.9770134091377258
1788656964723881000,16.104880859375,2.2779674530029297,-0.4930143356323242,-0.8928707838058472
1788656964740008700,16.1210087890625,1.594578742980957,-0.5946576595306396,-0.5191187262535095
1788656964756073700,16.13707373046875,0.6751976013183594,-0.6309421062469482,-0.6686810255050659
1788656964772187100,16.153187255859375,0.2787179946899414,-0.9255383014678955,-0.33494558930397034
1788656964788280800,16.16928076171875,0.19067001342773438,-1.0944128036499023,-0.1764661967754364
1788656964804385500,16.185385498046877,-0.023029327392578125,-1.1408486366271973,-0.04458703100681305
1788656964820509700,16.201509765625,-0.38538265228271484,-0.9978506565093994,0.012592673301696777
1788656964836574500,16.217574462890624,-0.7953224182128906,-0.7611336708068848,0.12150505185127258
1788656964852696800,16.23369677734375,-1.0831079483032227,-0.8343651294708252,0.22510859370231628
1788656964868787200,16.249787109375,-0.9804363250732422,-0.9170620441436768,0.007300525903701782
1788656964884895700,16.265895751953124,-0.4342498779296875,-1.1237316131591797,-0.10713186860084534
1788656964901009400,16.282009521484376,0.47980308532714844,-1.4362186193466187,-0.05694839358329773
1788656964917071600,16.298071533203125,1.2174615859985352,-1.60971999168396,-0.02346053719520569
1788656964933199400,16.314199462890624,1.8026237487792969,-1.5959839820861816,-0.06556043028831482
1788656964949276400,16.3302763671875,1.6488046646118164,-1.5226826667785645,0.013195812702178955
1788656964965394400,16.34639453125,0.8175230026245117,-1.28927481174469,0.04765850305557251
1788656964981523700,16.362523681640624,-0.21243858337402344,-0.9967714548110962,0.06922465562820435
1788656964997581300,16.378581298828124,-0.8907127380371094,-0.7636129856109619,0.04506579041481018
1788656965013672000,16.394671875,-1.1841974258422852,-0.5847194194793701,-0.02047690749168396
1788656965029753900,16.41075390625,-1.022841453552246,-0.4779372215270996,-0.09946325421333313
1788656965045884200,16.42688427734375,-0.7140750885009766,-0.3748812675476074,-0.10829982161521912
1788656965061975000,16.44297509765625,-0.45666980743408203,-0.349562406539917,-0.04156893491744995
1788656965078039300,16.459039306640626,-0.2724313735961914,-0.23137116432189941,-0.1090041995048523
1788656965094132200,16.47513232421875,-0.15503978729248047,-0.21404314041137695,-0.20915751159191132
1788656965110222300,16.491222412109376,-0.01218414306640625,-0.2114248275756836,-0.22828909754753113
1788656965126313700,16.507313720703124,0.30095767974853516,-0.24537444114685059,-0.2529897689819336
1788656965142412000,16.523412109375,0.7051630020141602,-0.29099512100219727,-0.17669764161109924
1788656965158468400,16.53946826171875,0.9566812515258789,-0.26600098609924316,-0.1808658242225647
1788656965174556200,16.55555615234375,1.1131477355957031,-0.3377652168273926,-0.03832292556762695
1788656965190645800,16.571645751953124,1.1489858627319336,-0.3703773021697998,-0.0013697445392608643
1788656965206747400,16.587747314453125,0.9578237533569336,-0.3778517246246338,0.06906014680862427
1788656965222855000,16.60385498046875,0.6428842544555664,-0.35339784622192383,0.12737935781478882
1788656965238917600,16.619917724609376,0.17667675018310547,-0.3336482048034668,0.06040504574775696
1788656965255008500,16.636008544921875,-0.19863033294677734,-0.23984169960021973,0.17631855607032776
1788656965271097000,16.65209716796875,-0.3513832092285156,-0.04263567924499512,0.1751214563846588
1788656965287215000,16.668215087890626,-0.2780752182006836,0.039946794509887695,0.04619944095611572
1788656965303335000,16.6843349609375,-0.057663917541503906,0.160444974899292,-0.141190767288208
1788656965319396400,16.700396240234376,-0.005488395690917969,0.29979825019836426,-0.3454677164554596
1788656965335486000,16.71648583984375,-0.027199745178222656,0.38744568824768066,-0.3915432095527649
1788656965351573800,16.73257373046875,-0.10783004760742188,0.5099194049835205,-0.34626996517181396
1788656965367692300,16.7486923828125,-0.17090797424316406,0.5461311340332031,-0.31962889432907104
1788656965383837400,16.76483740234375,-0.14796066284179688,0.5447962284088135,-0.3063816726207733
1788656965399902200,16.780902099609374,-0.011821746826171875,0.46868896484375,-0.18602284789085388
1788656965415993900,16.796993896484373,0.25832462310791016,0.34656572341918945,-0.057811468839645386
1788656965432095200,16.81309521484375,0.5820627212524414,0.17229676246643066,-0.1022653877735138
1788656965448222200,16.82922216796875,0.8634586334228516,0.03052377700805664,-0.20323294401168823
1788656965464351500,16.8453515625,1.1029682159423828,-0.05217719078063965,-0.41918647289276123
1788656965480412400,16.861412353515625,1.2242259979248047,-0.08440995216369629,-0.4059506058692932
1788656965496506400,16.87750634765625,1.342824935913086,-0.03299665451049805,-0.5598246455192566
1788656965512595700,16.893595703125,1.0683050155639648,-0.019664287567138672,-0.5386821627616882
1788656965528728800,16.909728759765624,0.36812686920166016,-0.03987383842468262,-0.4773114323616028
1788656965544814600,16.925814697265626,-0.40712642669677734,-0.03821849822998047,-0.3928130567073822
1788656965560874200,16.941874267578125,-0.8581466674804688,-0.02448725700378418,-0.20157480239868164
1788656965576966000,16.9579658203125,-1.2238731384277344,-0.07139015197753906,-0.11137670278549194
1788656965593052400,16.974052490234374,-1.218719482421875,-0.11020517349243164,-0.0804586410522461
1788656965609187600,16.9901875,-1.0173978805541992,-0.1394643783569336,-0.012182414531707764
1788656965625338600,17.006338623046876,-0.7512445449829102,-0.14364194869995117,0.163364440202713
1788656965641401000,17.022401123046876,-0.46530818939208984,-0.1453685760498047,0.2912631332874298
1788656965657504500,17.03850439453125,-0.22120094299316406,-0.2402784824371338,0.4389686584472656
1788656965673594600,17.0545947265625,0.09613895416259766,-0.3144876956939697,0.525094747543335
1788656965689689000,17.070689208984376,0.3622283935546875,-0.2649405002593994,0.5854137539863586
1788656965705789000,17.086788818359373,0.5441875457763672,-0.251528263092041,0.6241360306739807
1788656965721852000,17.102851806640626,0.4634685516357422,-0.19671130180358887,0.6749105453491211
1788656965737973200,17.11897314453125,0.324127197265625,-0.02377915382385254,0.6005226969718933
1788656965754061800,17.135061767578126,0.14223766326904297,0.05862998962402344,0.39683783054351807
1788656965770161700,17.15116162109375,0.13907241821289062,0.15764975547790527,0.21669578552246094
1788656965786273800,17.167273681640626,0.25023460388183594,0.23587441444396973,0.10527163743972778
1788656965802336000,17.1833359375,0.38287925720214844,0.23865914344787598,-0.026106655597686768
1788656965818482200,17.199482177734374,0.3344087600708008,0.25913023948669434,-0.09614062309265137
1788656965834570500,17.215570556640625,0.11532878875732422,0.285153865814209,-0.062391698360443115
1788656965850686700,17.231686767578125,-0.04027366638183594,0.3567526340484619,0.020626068115234375
1788656965866805200,17.24780517578125,-0.03448295593261719,0.3954310417175293,0.005651712417602539
1788656965882871000,17.26387109375,-0.015412330627441406,0.414623498916626,0.0522921085357666
1788656965899003000,17.2800029296875,-0.061458587646484375,0.3891105651855469,0.1097370982170105
1788656965915095300,17.29609521484375,-0.15102767944335938,0.35981321334838867,0.0644879937171936
1788656965931222500,17.312222412109374,-0.2683238983154297,0.3111908435821533,0.0861501693725586
1788656965947352000,17.32835205078125,-0.2908334732055664,0.22324562072753906,0.0617145299911499
1788656965963411500,17.344411376953126,-0.1766796112060547,0.1659848690032959,0.016541361808776855
1788656965979500500,17.36050048828125,0.009593963623046875,0.1483299732208252,-0.05586320161819458
1788656965995592200,17.37659228515625,0.16817474365234375,0.10327720642089844,-0.05333346128463745
1788656966011733000,17.39273291015625,0.2739849090576172,0.08952951431274414,-0.07182276248931885
1788656966027826400,17.408826416015625,0.35088348388671875,0.033159494400024414,-0.13530558347702026
1788656966043890700,17.424890625,0.3772897720336914,0.05408740043640137,-0.16749346256256104
1788656966059954700,17.44095458984375,0.40119266510009766,0.0963895320892334,-0.12358707189559937
1788656966076049200,17.457049072265626,0.3437471389770508,0.16937613487243652,-0.10988473892211914
1788656966092152800,17.47315283203125,0.2148761749267578,0.22904348373413086,-0.0770525336265564
1788656966108258600,17.489258544921874,0.10999298095703125,0.2213120460510254,-0.021904468536376953
1788656966124325600,17.50532568359375,0.0931406021118164,0.24663710594177246,0.0019493699073791504
1788656966140413700,17.52141357421875,0.2597475051879883,0.2033219337463379,0.010926306247711182
1788656966156498700,17.537498779296875,0.4020376205444336,0.1831815242767334,0.00189131498336792
1788656966172603600,17.553603759765625,0.40627002716064453,0.14104747772216797,-0.061809659004211426
1788656966188711400,17.56971142578125,0.2824735641479492,0.1136176586151123,-0.04823046922683716
1788656966204777200,17.585777099609373,0.05195903778076172,0.16644001007080078,-0.05105745792388916
1788656966220873000,17.601873046875,-0.14934158325195312,0.15340566635131836,-0.15348440408706665
1788656966236965000,17.617965087890624,-0.21680641174316406,0.13927602767944336,-0.13076049089431763
1788656966253078800,17.634078857421876,-0.13129329681396484,0.12685346603393555,-0.03214669227600098
1788656966269204700,17.650204833984375,0.0072021484375,0.10065174102783203,-0.0017087459564208984
1788656966285266200,17.66626611328125,0.026529312133789062,0.09041619300842285,-0.008379876613616943
1788656966301359000,17.682359130859375,-0.07848167419433594,0.08874630928039551,-0.008340835571289062
1788656966317453000,17.698453125,-0.29930782318115234,-0.004034996032714844,0.09017342329025269
1788656966333573600,17.71457373046875,-0.0816488265991211,0.01711130142211914,-0.005363404750823975
1788656966349707300,17.730707275390625,0.18634986877441406,-0.022168874740600586,-0.18290960788726807
1788656966365767200,17.74676708984375,0.25524139404296875,-0.04904985427856445,-0.12744420766830444
1788656966381849900,17.762849853515625,0.5495471954345703,-0.04029226303100586,-0.20076656341552734
1788656966397935000,17.77893505859375,0.7257509231567383,0.019522428512573242,-0.2823634147644043
1788656966414055400,17.795055419921876,0.530817985534668,0.07704305648803711,-0.2710813283920288
1788656966430139600,17.8111396484375,0.37851905822753906,0.12408733367919922,-0.20501339435577393
1788656966446200000,17.827199951171874,-0.14141559600830078,0.13701605796813965,-0.40653082728385925
1788656966462288600,17.84328857421875,-0.26821422576904297,0.0689089298248291,-0.36391162872314453
1788656966478373000,17.859373046875,-0.1074209213256836,0.10113668441772461,-0.1128244400024414
1788656966494508000,17.875508056640626,0.016592979431152344,0.14388394355773926,-0.1196286678314209
1788656966510590700,17.8915908203125,0.14052200317382812,0.06670570373535156,-0.12680983543395996
1788656966526650400,17.907650390625,0.06620311737060547,0.054869890213012695,-0.15242743492126465
1788656966542752000,17.923751953125,-0.10595226287841797,0.044741153717041016,-0.169885516166687
1788656966558841900,17.939841796875,-0.16145610809326172,0.04229140281677246,-0.11111807823181152
1788656966574940400,17.9559404296875,-0.11504554748535156,0.08631372451782227,-0.02818131446838379
1788656966591043300,17.972043212890625,0.007596015930175781,0.14296913146972656,0.0046849846839904785
1788656966607107600,17.988107666015626,0.02991008758544922,0.1504344940185547,-0.02462160587310791
1788656966623220200,18.00422021484375,0.0027341842651367188,0.15993213653564453,-0.16799354553222656
1788656966639309600,18.0203095703125,-0.03592109680175781,0.16087007522583008,-0.1374516487121582
1788656966655402800,18.03640283203125,0.028038978576660156,0.12244772911071777,-0.14365124702453613
1788656966671508700,18.0525087890625,0.21807479858398438,0.09190702438354492,-0.14906218647956848
1788656966687574000,18.068573974609375,0.40088939666748047,0.07428956031799316,-0.1461489498615265
1788656966703700500,18.084700439453126,0.37153053283691406,0.07576918601989746,-0.08592391014099121
1788656966719806500,18.100806396484376,0.23787498474121094,0.08800935745239258,-0.039441704750061035
1788656966735919900,18.116919921875,0.11416435241699219,0.1248173713684082,-0.09811288118362427
1788656966752039400,18.133039306640626,0.04750633239746094,0.1170799732208252,-0.12604781985282898
1788656966768103700,18.149103759765627,0.06441974639892578,0.13610315322875977,-0.16189295053482056
1788656966784237300,18.1652373046875,0.02156829833984375,0.1478743553161621,-0.13882946968078613
1788656966800332500,18.18133251953125,0.0480499267578125,0.17977166175842285,-0.1643279492855072
1788656966816456200,18.197456298828126,0.14621543884277344,0.16707587242126465,-0.14401692152023315
1788656966832587300,18.213587158203126,0.15134620666503906,0.14375543594360352,-0.09051793813705444
1788656966848645000,18.22964501953125,0.12590503692626953,0.12311172485351562,-0.06422865390777588
1788656966864784100,18.2457841796875,0.1173257827758789,0.09717130661010742,-0.03701746463775635
1788656966880873000,18.261873046875,0.015619277954101562,0.12580084800720215,-0.11185961961746216
1788656966897001500,18.27800146484375,0.014325141906738281,0.09732580184936523,-0.09983751177787781
1788656966913091000,18.294091064453124,0.034526824951171875,0.11903762817382812,-0.0791613757610321
1788656966929154800,18.31015478515625,0.03313446044921875,0.07842588424682617,-0.13378813862800598
1788656966945247200,18.326247314453123,0.08835315704345703,0.07956194877624512,-0.08417454361915588
1788656966961335000,18.3423349609375,0.0879678726196289,0.09066915512084961,-0.023415863513946533
1788656966977427000,18.358427001953125,0.1758251190185547,0.08659696578979492,0.09952467679977417
1788656966993523000,18.37452294921875,0.22075939178466797,0.08630061149597168,0.15546178817749023
1788656967009582600,18.39058251953125,0.19912052154541016,0.11510324478149414,0.13033849000930786
1788656967025672000,18.406671875,0.13716602325439453,0.11621427536010742,0.24698418378829956
1788656967041760800,18.4227607421875,0.09240436553955078,0.1663501262664795,0.3555760979652405
1788656967057855700,18.438855712890625,0.16054344177246094,0.21790051460266113,0.35037535429000854
1788656967073955600,18.45495556640625,0.2291116714477539,0.24217510223388672,0.39303749799728394
1788656967090013700,18.471013671875,0.19096660614013672,0.25219035148620605,0.4493589997291565
1788656967106101800,18.487101806640624,0.18244075775146484,0.2580587863922119,0.5263793468475342
1788656967122191600,18.503191650390626,0.07891654968261719,0.1887214183807373,0.6921446919441223
1788656967138297900,18.5192978515625,0.10202598571777344,0.12856173515319824,0.7550305724143982
1788656967154413300,18.535413330078125,0.13671398162841797,0.11837434768676758,0.8224056959152222
1788656967170473000,18.551472900390625,0.061656951904296875,0.038352251052856445,0.8945618271827698
1788656967186564000,18.567564208984376,0.014850616455078125,0.07546544075012207,1.0675787925720215
1788656967202654200,18.583654296875,-0.010593414306640625,0.02235865592956543,1.0746710300445557
1788656967218771000,18.59977099609375,0.0479888916015625,-0.05803799629211426,0.982215404510498
1788656967234897400,18.6158974609375,-0.058625221252441406,-0.05905032157897949,0.9958057403564453
1788656967250964000,18.6319638671875,0.008286476135253906,-0.1559128761291504,0.9846716523170471
1788656967267061500,18.6480615234375,-0.12428951263427734,-0.2636570930480957,0.9690544009208679
1788656967283156200,18.66415625,-0.2718696594238281,-0.3013463020324707,0.9111132621765137
1788656967299278800,18.68027880859375,-0.3076362609863281,-0.35288453102111816,1.0472240447998047
1788656967315410200,18.69641015625,-0.44676685333251953,-0.4631319046020508,1.0457133054733276
1788656967331476200,18.712476318359375,-0.5221633911132812,-0.6015703678131104,0.9345417022705078
1788656967347576600,18.72857666015625,-0.4767446517944336,-0.7042474746704102,0.9180176854133606
1788656967363670800,18.7446708984375,-0.34879302978515625,-0.8762032985687256,0.904161274433136
1788656967379801900,18.7608017578125,-0.2312784194946289,-0.9767779111862183,0.7975094318389893
1788656967395914500,18.77691455078125,0.1642284393310547,-1.0341157913208008,0.7895783185958862
1788656967411979300,18.792979248046876,0.42615795135498047,-1.041719913482666,0.9046799540519714
1788656967428075800,18.80907568359375,0.6521873474121094,-0.9823575019836426,0.9556013345718384
1788656967444171300,18.825171142578125,0.6500988006591797,-0.8446428775787354,1.0389150381088257
1788656967460307200,18.84130712890625,0.5754127502441406,-0.7953140735626221,1.014388918876648
1788656967476398000,18.857398193359376,0.6246070861816406,-0.8597785234451294,1.0081491470336914
1788656967492462000,18.873462158203125,0.7643880844116211,-0.7858068943023682,0.85970139503479
1788656967508559600,18.8895595703125,1.2174177169799805,-0.8979963064193726,0.6690635681152344
1788656967524649500,18.9056494140625,1.7034282684326172,-0.9962515830993652,0.6198632717132568
1788656967540791000,18.921791015625,1.8484525680541992,-1.0228668451309204,0.2762535810470581
1788656967556886300,18.93788623046875,1.7155580520629883,-1.0255483388900757,0.12153995037078857
1788656967572951300,18.953951416015624,1.437713623046875,-0.9431140422821045,0.003964543342590332
1788656967589059000,18.97005908203125,1.0867061614990234,-0.8479706048965454,-0.19304800033569336
1788656967605149700,18.986149658203125,0.7543697357177734,-0.8189611434936523,-0.3820388913154602
1788656967621247000,19.0022470703125,0.4637031555175781,-0.8166887760162354,-0.4663333296775818
1788656967637346300,19.01834619140625,0.23529338836669922,-0.7571219205856323,-0.523456335067749
1788656967653410000,19.03441015625,0.08544063568115234,-0.7636466026306152,-0.6407838463783264
1788656967669530400,19.0505302734375,-0.013129234313964844,-0.7917755842208862,-0.6900500059127808
1788656967685624600,19.06662451171875,0.0566864013671875,-0.7763170003890991,-0.7160277366638184
1788656967701735400,19.0827353515625,0.2107410430908203,-0.6944887638092041,-0.6176758408546448
1788656967717851100,19.09885107421875,0.3291778564453125,-0.674360990524292,-0.4694567024707794
1788656967733915400,19.114915283203125,0.2503681182861328,-0.6146399974822998,-0.41360485553741455
1788656967750043000,19.13104296875,0.053287506103515625,-0.5454857349395752,-0.37449654936790466
1788656967766132700,19.1471328125,-0.13687896728515625,-0.5018844604492188,-0.25177592039108276
1788656967782248700,19.163248779296875,-0.23174571990966797,-0.4400138854980469,-0.0687292218208313
1788656967798373000,19.179373046875,-0.31318187713623047,-0.4283871650695801,0.12346023321151733
1788656967814438700,19.195438720703127,-0.21658611297607422,-0.3419990539550781,0.1674758791923523
1788656967830580000,19.211580078125,-0.07132911682128906,-0.31777048110961914,0.1807025671005249
1788656967846678500,19.227678466796874,-0.03733348846435547,-0.28924560546875,0.1644715666770935
1788656967862810000,19.24381005859375,-0.0379791259765625,-0.24333548545837402,0.006055951118469238
1788656967878945800,19.25994580078125,-0.11899089813232422,-0.19587326049804688,-0.18636056780815125
1788656967895012900,19.276012939453125,-0.2666788101196289,-0.15808892250061035,-0.3326406180858612
1788656967911115800,19.29211572265625,-0.22158336639404297,-0.1638197898864746,-0.47252053022384644
1788656967927210200,19.308210205078126,0.1056680679321289,-0.30292510986328125,-0.6131135821342468
1788656967943349800,19.324349853515624,0.5576648712158203,-0.33661460876464844,-0.786730170249939
1788656967959448000,19.340447998046876,0.915863037109375,-0.3242802619934082,-0.839767575263977
1788656967975510800,19.3565107421875,1.0377569198608398,-0.3000617027282715,-0.934964656829834
1788656967991606300,19.372606201171877,1.132746696472168,-0.2013707160949707,-1.1157838106155396
1788656968007694800,19.38869482421875,0.8363351821899414,-0.03551363945007324,-1.1678134202957153
1788656968023787300,19.404787353515626,0.19402503967285156,0.1047511100769043,-1.3265024423599243
1788656968039887400,19.420887451171875,-0.3434944152832031,0.19743752479553223,-1.3365509510040283
1788656968055952400,19.436952392578124,-0.5622873306274414,0.1512000560760498,-1.196113109588623
1788656968072051700,19.4530517578125,-0.3581581115722656,0.0744471549987793,-1.117185354232788
1788656968088145400,19.4691455078125,-0.009844779968261719,0.09047317504882812,-1.0468413829803467
1788656968104249600,19.48524951171875,0.12919902801513672,0.15838885307312012,-0.9993011951446533
1788656968120360200,19.501360107421874,0.17006778717041016,0.1812140941619873,-0.9688470363616943
1788656968136424700,19.5174248046875,0.2124013900756836,0.17449522018432617,-1.0120048522949219
1788656968152527000,19.533527099609376,0.35474395751953125,0.15005922317504883,-1.0777254104614258
1788656968168620000,19.5496201171875,0.6287069320678711,0.07603669166564941,-1.1378254890441895
1788656968184742400,19.565742431640626,1.0033388137817383,-0.07521414756774902,-1.1076711416244507
1788656968200873200,19.581873291015626,1.1589632034301758,-0.17689895629882812,-1.0488522052764893
1788656968216941800,19.59794189453125,1.064011573791504,-0.29832887649536133,-0.9804026484489441
1788656968233045800,19.614045654296874,0.6590757369995117,-0.3375818729400635,-1.0128121376037598
1788656968249141200,19.630141357421873,0.2143878936767578,-0.30918455123901367,-0.8661624789237976
1788656968265269000,19.64626904296875,-0.14571857452392578,-0.2903921604156494,-1.0663316249847412
1788656968281404700,19.66240478515625,-0.46208953857421875,-0.16695070266723633,-1.0423669815063477
1788656968297471200,19.67847119140625,-0.6478052139282227,-0.0653696060180664,-1.0328500270843506
1788656968313573600,19.69457373046875,-0.7126741409301758,-0.04766488075256348,-1.1300795078277588
1788656968329670100,19.710670166015625,-0.6553077697753906,-0.04164719581604004,-1.1089143753051758
1788656968345806800,19.726806884765626,-0.5797710418701172,0.001848459243774414,-1.103851079940796
1788656968361919200,19.742919189453126,-0.4426870346069336,0.0746159553527832,-1.0460803508758545
1788656968377985800,19.75898583984375,-0.2998085021972656,0.032358407974243164,-0.7426398396492004
1788656968394097000,19.775096923828126,-0.045868873596191406,0.08086395263671875,-0.607818603515625
1788656968410199800,19.79119970703125,-0.037116050720214844,0.0712134838104248,-0.3591262698173523
1788656968426337500,19.807337646484374,-0.06595802307128906,0.05685782432556152,-0.09122532606124878
1788656968442433300,19.823433349609374,-0.03439140319824219,0.08864879608154297,-0.0016666054725646973
1788656968458500000,19.8395,0.004784584045410156,0.11234879493713379,0.05718672275543213
1788656968474613200,19.85561328125,0.08818435668945312,0.13104557991027832,0.13075155019760132
1788656968490704600,19.87170458984375,0.1361227035522461,0.18534445762634277,0.1483607292175293
1788656968506803500,19.887803466796875,0.04931449890136719,0.20087003707885742,0.17648041248321533
1788656968522908700,19.90390869140625,-0.04322528839111328,0.24357199668884277,0.11322802305221558
1788656968538970000,19.91997021484375,-0.037093162536621094,0.23054885864257812,0.1282239556312561
1788656968555101000,19.936100830078125,0.050304412841796875,0.24996209144592285,0.12462222576141357
1788656968571197700,19.95219775390625,0.1881275177001953,0.2628591060638428,0.12010937929153442
1788656968587312400,19.9683125,0.24749279022216797,0.27060651779174805,0.03911566734313965
1788656968603431400,19.984431396484375,0.20495891571044922,0.2913966178894043,0.008427679538726807
1788656968619500500,20.00050048828125,0.15400409698486328,0.32489562034606934,-0.11558085680007935
1788656968635634200,20.01663427734375,0.24807071685791016,0.38190460205078125,-0.23866963386535645
1788656968651726600,20.0327265625,0.1548013687133789,0.4629669189453125,-0.2778417468070984
