time,seconds_elapsed,z,y,x
1788656948785659100,0.1666591796875,-0.0006108652451075613,-0.0012217304902151227,0.0006108652451075613
1788656948801803300,0.18280322265625,-0.0006108652451075613,-0.0012217304902151227,0.0006108652451075613
1788656948817901300,0.1989013671875,-0.0006108652451075613,-0.0012217304902151227,0.0006108652451075613
1788656948834011000,0.215010986328125,-0.0006108652451075613,-0.0012217304902151227,0.0006108652451075613
1788656948850000400,0.23100048828125,-0.0006108652451075613,-0.0012217304902151227,0.0006108652451075613
1788656948866109000,0.24710888671875,-0.0006108652451075613,-0.0012217304902151227,0.0006108652451075613
1788656948882179800,0.263179931640625,-0.0006108652451075613,-0.0012217304902151227,0.0006108652451075613
1788656948898330600,0.27933056640625,-0.0006108652451075613,-0.0012217304902151227,0.0006108652451075613
1788656948914397700,0.295397705078125,-0.01771509274840355,-0.006108652334660292,-0.031154127791523933
1788656948930394000,0.31139404296875,-0.019547687843441963,-0.00366519158706069,-0.03176499158143997
1788656948946520300,0.327520263671875,-0.012828170321881771,-0.00366519158706069,-0.03298672288656235
1788656948962604800,0.343604736328125,-0.006108652334660292,-0.006108652334660292,-0.022602014243602753
1788656948978755000,0.359755126953125,-0.006108652334660292,-0.018325956538319588,-0.014049900695681572
1788656948994821000,0.375821044921875,-0.003054326167330146,-0.02015855349600315,-0.01038470957428217
1788656949010815200,0.391815185546875,-0.00427605677396059,-0.016493361443281174,-0.012828170321881771
1788656949026898700,0.407898681640625,-0.003054326167330146,-0.010995574295520782,-0.025045474991202354
1788656949042992000,0.4239921875,0.0012217304902151227,-0.004886921960860491,-0.02932153269648552
1788656949059147300,0.440147216796875,0.00366519158706069,-0.0006108652451075613,-0.02076941914856434
1788656949075214300,0.45621435546875,0.01038470957428217,-0.01038470957428217,0.005497787147760391
1788656949091215400,0.47221533203125,0.009162978269159794,-0.03298672288656235,0.042760565876960754
1788656949107310000,0.48831005859375,0.010995574295520782,-0.04337143152952194,0.06536258012056351
1788656949123412000,0.504411865234375,0.015882495790719986,-0.04459316283464432,0.06475171446800232
1788656949139571000,0.520571044921875,0.02015855349600315,-0.04398229718208313,0.045204028487205505
1788656949155641900,0.536641845703125,0.036041051149368286,-0.036041051149368286,0.02015855349600315
1788656949171646200,0.552646240234375,0.039706241339445114,-0.024434609338641167,-0.013439035043120384
1788656949187757300,0.56875732421875,0.04337143152952194,0.0012217304902151227,-0.024434609338641167
1788656949203877400,0.58487744140625,0.05375614017248154,0.009773843921720982,-0.01160643994808197
1788656949220037400,0.601037353515625,0.04398229718208313,0.00366519158706069,0.015882495790719986
1788656949236112000,0.61711181640625,0.036651913076639175,0.02015855349600315,0.02932153269648552
1788656949252114400,0.633114501953125,0.03787364438176155,0.04703662544488907,0.015882495790719986
1788656949268234000,0.64923388671875,0.039095375686883926,0.059864792972803116,0.005497787147760391
1788656949284361700,0.66536181640625,0.0354301854968071,0.036041051149368286,0.009162978269159794
1788656949300522500,0.6815224609375,0.03848451003432274,0.02626720629632473,0.025656340643763542
1788656949316594200,0.69759423828125,0.03848451003432274,0.01160643994808197,0.04092797264456749
1788656949332597200,0.71359716796875,0.02932153269648552,-0.0012217304902151227,0.04092797264456749
1788656949348725500,0.7297255859375,0.02321287989616394,-0.004886921960860491,0.022602014243602753
1788656949364812800,0.745812744140625,0.00733038317412138,0.006719517521560192,0.01038470957428217
1788656949380971500,0.761971435546875,0.00366519158706069,0.012217304669320583,0.00855211354792118
1788656949397047000,0.778047119140625,0.0006108652451075613,0.014049900695681572,0.02687807008624077
1788656949413046800,0.794046875,0.0024434609804302454,0.00366519158706069,0.04398229718208313
1788656949429178400,0.810178466796875,0.0012217304902151227,-0.012828170321881771,0.04886921867728233
1788656949445263400,0.826263427734375,-0.0024434609804302454,-0.016493361443281174,0.03420845419168472
1788656949461420000,0.842419921875,-0.0024434609804302454,-0.014049900695681572,0.007941247895359993
1788656949477505300,0.85850537109375,-0.00733038317412138,-0.019547687843441963,0.001832595793530345
1788656949493505500,0.874505615234375,-0.004886921960860491,-0.028099801391363144,0.01160643994808197
1788656949509590500,0.890590576171875,0.00427605677396059,-0.02687807008624077,0.016493361443281174
1788656949525688300,0.906688232421875,0.005497787147760391,-0.014049900695681572,0.015271631069481373
1788656949541848600,0.9228486328125,0.012217304669320583,-0.009773843921720982,0.01160643994808197
1788656949557941800,0.938941650390625,0.009773843921720982,-0.01160643994808197,0.01710422709584236
1788656949573940000,0.95493994140625,0.007941247895359993,-0.015882495790719986,0.018936822190880775
1788656949590036500,0.971036376953125,0.012217304669320583,-0.015271631069481373,0.012217304669320583
1788656949606142200,0.98714208984375,0.004886921960860491,-0.014049900695681572,0.01466076634824276
1788656949622302000,1.003302001953125,0.001832595793530345,-0.02687807008624077,0.02932153269648552
1788656949638404900,1.01940478515625,-0.0006108652451075613,-0.033597588539123535,0.02626720629632473
1788656949654411500,1.03541162109375,-0.00427605677396059,-0.009773843921720982,0.006108652334660292
1788656949670519800,1.051519775390625,-0.004886921960860491,0.01160643994808197,-0.015271631069481373
1788656949686637300,1.06763720703125,-0.005497787147760391,0.001832595793530345,-0.021991148591041565
1788656949702796800,1.083796875,-0.012217304669320583,-0.021380282938480377,-0.001832595793530345
1788656949718912300,1.099912353515625,-0.01038470957428217,-0.033597588539123535,0.006108652334660292
1788656949734914800,1.115914794921875,-0.009162978269159794,-0.02015855349600315,0.007941247895359993
1788656949751033900,1.132033935546875,-0.01038470957428217,-0.00427605677396059,0.0012217304902151227
1788656949767163400,1.148163330078125,-0.004886921960860491,0.001832595793530345,-0.012217304669320583
1788656949783319800,1.16431982421875,-0.006108652334660292,-0.001832595793530345,-0.01710422709584236
1788656949799393800,1.180393798828125,-0.01466076634824276,-0.01771509274840355,-0.007941247895359993
1788656949815395300,1.196395263671875,-0.022602014243602753,-0.033597588539123535,0.00427605677396059
1788656949831523300,1.2125234375,-0.02626720629632473,-0.02382374368607998,0.016493361443281174
1788656949847608800,1.22860888671875,-0.031154127791523933,-0.003054326167330146,0.02382374368607998
1788656949863766500,1.2447666015625,-0.027488935738801956,0.007941247895359993,0.025656340643763542
1788656949879839700,1.26083984375,-0.022602014243602753,0.00855211354792118,0.015882495790719986
1788656949895843000,1.276843017578125,-0.02076941914856434,0.004886921960860491,0.016493361443281174
1788656949911933200,1.29293310546875,-0.018936822190880775,-0.003054326167330146,0.025045474991202354
1788656949928037000,1.309037109375,-0.012217304669320583,-0.00366519158706069,0.021991148591041565
1788656949944199200,1.32519921875,-0.006719517521560192,-0.01038470957428217,0.01466076634824276
1788656949960246300,1.341246337890625,-0.005497787147760391,-0.007941247895359993,0.01038470957428217
1788656949976253400,1.35725341796875,-0.006719517521560192,-0.0006108652451075613,0.009162978269159794
1788656949992358400,1.3733583984375,-0.001832595793530345,-0.012217304669320583,0.009773843921720982
1788656950008466400,1.389466552734375,-0.0012217304902151227,-0.012217304669320583,0.010995574295520782
1788656950024629000,1.40562890625,-0.003054326167330146,-0.015271631069481373,0.009162978269159794
1788656950040703200,1.421703125,-0.004886921960860491,-0.004886921960860491,0.006719517521560192
1788656950056710100,1.437710205078125,-0.006108652334660292,0.0006108652451075613,-0.001832595793530345
1788656950072815600,1.453815673828125,-0.004886921960860491,0.010995574295520782,-0.006108652334660292
1788656950088931300,1.469931396484375,-0.0024434609804302454,0.021380282938480377,-0.007941247895359993
1788656950105088500,1.486088623046875,-0.0012217304902151227,0.01160643994808197,0.0024434609804302454
1788656950121158700,1.50215869140625,0.001832595793530345,0.006719517521560192,0.01160643994808197
1788656950137160200,1.51816015625,0.003054326167330146,0.005497787147760391,0.01160643994808197
1788656950153270500,1.5342705078125,0.006108652334660292,0.006719517521560192,0.004886921960860491
1788656950169396000,1.55039599609375,0.00427605677396059,0.01160643994808197,-0.005497787147760391
1788656950185556500,1.566556396484375,0.00733038317412138,0.00733038317412138,-0.013439035043120384
1788656950201630200,1.582630126953125,0.0006108652451075613,0.00855211354792118,-0.014049900695681572
1788656950217633300,1.59863330078125,0.0006108652451075613,0.007941247895359993,-0.01160643994808197
1788656950233750300,1.614750244140625,0.0012217304902151227,0.001832595793530345,-0.01160643994808197
1788656950249827300,1.630827392578125,-0.0012217304902151227,0.004886921960860491,-0.01160643994808197
1788656950265980200,1.646980224609375,-0.004886921960860491,0.010995574295520782,-0.00855211354792118
1788656950282054400,1.663054443359375,-0.003054326167330146,0.025045474991202354,-0.00733038317412138
1788656950298053600,1.6790537109375,0.0006108652451075613,0.02871066704392433,-0.0006108652451075613
1788656950314178000,1.695177978515625,-0.0012217304902151227,0.001832595793530345,0.009773843921720982
1788656950330263800,1.711263916015625,0.0006108652451075613,-0.02626720629632473,0.01466076634824276
1788656950346421800,1.727421875,0.0006108652451075613,-0.02932153269648552,0.01160643994808197
1788656950362497500,1.74349755859375,0.0012217304902151227,-0.01038470957428217,0.009773843921720982
1788656950378493700,1.75949365234375,-0.0024434609804302454,0.016493361443281174,0.00733038317412138
1788656950394625300,1.775625244140625,0,0.02626720629632473,0.01038470957428217
1788656950410717000,1.791717041015625,0.003054326167330146,0.014049900695681572,0.02015855349600315
1788656950426881000,1.807881103515625,0.010995574295520782,-0.006719517521560192,0.029932396486401558
1788656950442973400,1.823973388671875,0.012828170321881771,-0.013439035043120384,0.025656340643763542
1788656950458982000,1.83998193359375,0.014049900695681572,-0.014049900695681572,0.00855211354792118
1788656950475084300,1.856084228515625,0.016493361443281174,-0.00855211354792118,-0.00733038317412138
1788656950491189000,1.87218896484375,0.012217304669320583,-0.006719517521560192,-0.0012217304902151227
1788656950507351000,1.88835107421875,0.01160643994808197,-0.01038470957428217,0.02076941914856434
1788656950523450000,1.9044501953125,0.01160643994808197,-0.02015855349600315,0.036041051149368286
1788656950539458300,1.920458251953125,0.01466076634824276,-0.02626720629632473,0.03481931984424591
1788656950555566000,1.936566162109375,0.01160643994808197,-0.01710422709584236,0.015271631069481373
1788656950571692800,1.95269287109375,0.00427605677396059,-0.007941247895359993,-0.006108652334660292
1788656950587856000,1.96885595703125,0.00427605677396059,-0.005497787147760391,-0.01771509274840355
1788656950603969500,1.984969482421875,0.0012217304902151227,-0.003054326167330146,-0.00733038317412138
1788656950619973400,2.000973388671875,-0.0012217304902151227,-0.0024434609804302454,0.00733038317412138
1788656950636088800,2.0170888671875,-0.00366519158706069,-0.006108652334660292,0.01710422709584236
1788656950652215300,2.03321533203125,-0.0024434609804302454,-0.00366519158706069,0.010995574295520782
1788656950668377900,2.0493779296875,0.0006108652451075613,-0.004886921960860491,-0.01160643994808197
1788656950684503000,2.0655029296875,0.0006108652451075613,-0.01038470957428217,-0.0403171069920063
1788656950700519400,2.08151953125,0.0024434609804302454,-0.019547687843441963,-0.06719517707824707
1788656950716643600,2.0976435546875,0.009162978269159794,-0.009773843921720982,-0.06658431142568588
1788656950732726300,2.113726318359375,0.005497787147760391,-0.01160643994808197,-0.04092797264456749
1788656950748887600,2.129887451171875,0.010995574295520782,-0.018936822190880775,-0.009162978269159794
1788656950764961000,2.1459609375,0.009162978269159794,-0.015882495790719986,0.009162978269159794
1788656950780963000,2.161963134765625,0.006719517521560192,-0.012217304669320583,0.006719517521560192
1788656950797094000,2.178093994140625,0.009162978269159794,-0.006108652334660292,-0.00427605677396059
1788656950813182500,2.194182373046875,0.006108652334660292,-0.01038470957428217,-0.01771509274840355
1788656950829342500,2.210342529296875,0.0006108652451075613,-0.01710422709584236,-0.025045474991202354
1788656950845421000,2.226421142578125,0.005497787147760391,-0.006719517521560192,-0.016493361443281174
1788656950861426700,2.2424267578125,0.006719517521560192,-0.00855211354792118,-0.006719517521560192
1788656950877527300,2.25852734375,0.003054326167330146,-0.015882495790719986,-0.00366519158706069
1788656950893631000,2.274630859375,0.00855211354792118,-0.022602014243602753,-0.006108652334660292
1788656950909797400,2.29079736328125,0.004886921960860491,-0.021991148591041565,-0.006108652334660292
1788656950925874000,2.3068740234375,0.00427605677396059,-0.016493361443281174,0.00366519158706069
1788656950941878800,2.322878662109375,-0.0024434609804302454,-0.009773843921720982,0.009773843921720982
1788656950957979600,2.338979736328125,0.0024434609804302454,0.0006108652451075613,0.005497787147760391
1788656950974086100,2.355086181640625,0.004886921960860491,-0.006719517521560192,-0.0024434609804302454
1788656950990247200,2.3712470703125,0.009162978269159794,-0.01710422709584236,0.005497787147760391
1788656951006324200,2.38732421875,0.00733038317412138,-0.018936822190880775,0.015271631069481373
1788656951022326300,2.403326171875,0.006719517521560192,-0.012828170321881771,0.014049900695681572
1788656951038435300,2.419435302734375,0.00855211354792118,0.001832595793530345,0.00366519158706069
1788656951054551300,2.43555126953125,0.00427605677396059,0.00855211354792118,-0.009773843921720982
1788656951070713600,2.451713623046875,0.006108652334660292,-0.00366519158706069,-0.012217304669320583
1788656951086787000,2.467787109375,0.006108652334660292,-0.012217304669320583,-0.01038470957428217
1788656951102806500,2.483806640625,0.009773843921720982,-0.012828170321881771,-0.009162978269159794
1788656951118913300,2.499913330078125,0.009773843921720982,-0.0012217304902151227,-0.0024434609804302454
1788656951135041800,2.516041748046875,0.01160643994808197,0.005497787147760391,-0.003054326167330146
1788656951151207700,2.532207763671875,0.015271631069481373,0.01160643994808197,-0.004886921960860491
1788656951167282700,2.54828271484375,0.014049900695681572,0.01038470957428217,-0.01160643994808197
1788656951183288300,2.564288330078125,0.01710422709584236,0.0006108652451075613,-0.01771509274840355
1788656951199410400,2.580410400390625,0.016493361443281174,-0.006108652334660292,-0.02382374368607998
1788656951215540200,2.596540283203125,0.016493361443281174,-0.012217304669320583,-0.02871066704392433
1788656951231700700,2.61270068359375,0.013439035043120384,-0.01466076634824276,-0.025656340643763542
1788656951247778000,2.628778076171875,0.01160643994808197,-0.009773843921720982,-0.018325956538319588
1788656951263785700,2.64478564453125,0.012828170321881771,-0.0024434609804302454,-0.01038470957428217
1788656951279922200,2.660922119140625,0.014049900695681572,-0.006108652334660292,-0.005497787147760391
1788656951296032000,2.677031982421875,0.01710422709584236,-0.01160643994808197,-0.00366519158706069
1788656951312194800,2.69319482421875,0.01771509274840355,-0.005497787147760391,-0.006108652334660292
1788656951328283000,2.709282958984375,0.015271631069481373,-0.00855211354792118,-0.012217304669320583
1788656951344293400,2.72529345703125,0.015882495790719986,0.0024434609804302454,-0.02076941914856434
1788656951360387800,2.741387939453125,0.012217304669320583,-0.00366519158706069,-0.025045474991202354
1788656951376477200,2.757477294921875,0.00855211354792118,-0.018325956538319588,-0.015882495790719986
1788656951392637400,2.773637451171875,0.00855211354792118,-0.018325956538319588,-0.003054326167330146
1788656951408731000,2.78973095703125,0.013439035043120384,0.004886921960860491,-0.01160643994808197
1788656951424729900,2.805729736328125,0.01466076634824276,0.01466076634824276,-0.04153883829712868
1788656951440827000,2.821826904296875,0.022602014243602753,0.01038470957428217,-0.0708603709936142
1788656951456933000,2.83793310546875,0.01771509274840355,-0.009773843921720982,-0.06414084881544113
1788656951473097000,2.854096923828125,0.004886921960860491,-0.024434609338641167,-0.04214970022439957
1788656951489201200,2.870201171875,0.003054326167330146,-0.013439035043120384,-0.028099801391363144
1788656951505207000,2.88620703125,-0.004886921960860491,0.003054326167330146,-0.014049900695681572
1788656951521316400,2.90231640625,-0.0012217304902151227,0.012828170321881771,0.0012217304902151227
1788656951537434600,2.9184345703125,0.00366519158706069,0.012217304669320583,0.005497787147760391
1788656951553603000,2.93460302734375,0.004886921960860491,0.019547687843441963,0.00366519158706069
1788656951569718500,2.950718505859375,0.009162978269159794,0.016493361443281174,0
1788656951585724400,2.966724365234375,0.006108652334660292,0.01038470957428217,-0.00733038317412138
1788656951601846000,2.982845947265625,0.006108652334660292,0.015271631069481373,-0.009162978269159794
1788656951617978000,2.99897802734375,-0.0024434609804302454,0.014049900695681572,-0.01466076634824276
1788656951634141700,3.0151416015625,-0.0024434609804302454,0.00855211354792118,-0.01710422709584236
1788656951650259200,3.03125927734375,-0.007941247895359993,-0.00855211354792118,-0.01710422709584236
1788656951666266000,3.04726611328125,-0.009162978269159794,-0.012828170321881771,-0.028099801391363144
1788656951682390300,3.063390380859375,-0.01160643994808197,-0.01160643994808197,-0.03726277872920036
1788656951698480400,3.07948046875,-0.013439035043120384,0,-0.04398229718208313
1788656951714644500,3.09564453125,-0.015271631069481373,0.003054326167330146,-0.0403171069920063
1788656951730722800,3.111722900390625,-0.012217304669320583,0.01771509274840355,-0.02932153269648552
1788656951746730200,3.127730224609375,-0.012217304669320583,0.03237585723400116,-0.02321287989616394
1788656951762872600,3.14387255859375,-0.015271631069481373,0.02871066704392433,-0.02382374368607998
1788656951778974000,3.159973876953125,-0.013439035043120384,0.018325956538319588,-0.027488935738801956
1788656951795138800,3.176138916015625,-0.007941247895359993,-0.001832595793530345,-0.021991148591041565
1788656951811219000,3.192218994140625,-0.00733038317412138,-0.01038470957428217,-0.012217304669320583
1788656951827227100,3.20822705078125,-0.0024434609804302454,-0.018936822190880775,-0.012828170321881771
1788656951843322000,3.224322021484375,0.00733038317412138,-0.012828170321881771,-0.022602014243602753
1788656951859426300,3.24042626953125,0,-0.01771509274840355,-0.02382374368607998
1788656951875589400,3.25658935546875,-0.016493361443281174,-0.015882495790719986,-0.025045474991202354
1788656951891663600,3.27266357421875,-0.0024434609804302454,0.0024434609804302454,-0.021380282938480377
1788656951907668700,3.288668701171875,-0.006108652334660292,0.001832595793530345,-0.006108652334660292
1788656951923772700,3.304772705078125,-0.006108652334660292,-0.05009094998240471,0.009773843921720982
1788656951939885800,3.3208857421875,0.01466076634824276,-0.06841690838336945,0.018936822190880775
1788656951956051200,3.33705126953125,0.025656340643763542,-0.11850785464048386,0.028099801391363144
1788656951972130000,3.353130126953125,0.039706241339445114,-0.11056660860776901,0.02687807008624077
1788656951988137700,3.3691376953125,0.03481931984424591,-0.10018189996480942,0.02321287989616394
1788656952004253000,3.3852529296875,0.03481931984424591,-0.11423180252313614,0.039706241339445114
1788656952020377900,3.4013779296875,0.03787364438176155,-0.0959058403968811,0.06291911751031876
1788656952036547000,3.417547119140625,0.04886921867728233,-0.06780604273080826,0.09896016865968704
1788656952052626700,3.433626708984375,0.05497787147760391,-0.059864792972803116,0.12522737681865692
1788656952068633000,3.449633056640625,0.06291911751031876,-0.09407325088977814,0.12217304855585098
1788656952084753400,3.46575341796875,0.06841690838336945,-0.11545353382825851,0.11972958594560623
1788656952100885000,3.481885009765625,0.08002334833145142,-0.13744467496871948,0.11178833991289139
1788656952117051400,3.498051513671875,0.08796459436416626,-0.1014036312699318,0.1062905490398407
1788656952133134300,3.51413427734375,0.09346238523721695,-0.11545353382825851,0.09773843735456467
1788656952149145300,3.530145263671875,0.09529497474431992,-0.1417207419872284,0.06475171446800232
1788656952165276000,3.54627587890625,0.10323622822761536,-0.15760323405265808,0.04214970022439957
1788656952181357800,3.56235791015625,0.09957103431224823,-0.1771509200334549,0.08124507963657379
1788656952197523000,3.57852294921875,0.10262536257505417,-0.18387043476104736,0.20097467303276062
1788656952213607700,3.594607666015625,0.14233160018920898,-0.2773328125476837,0.3488040566444397
1788656952229615900,3.610615966796875,0.17409659922122955,-0.3194825351238251,0.39217549562454224
1788656952245757700,3.6267578125,0.20402899384498596,-0.35674530267715454,0.34513887763023376
1788656952261864200,3.6428642578125,0.18936823308467865,-0.3634648323059082,0.31459560990333557
1788656952278037000,3.659037109375,0.1319468915462494,-0.3194825351238251,0.26939156651496887
1788656952294124800,3.675124755859375,0.06963863968849182,-0.22602014243602753,0.16982053220272064
1788656952310144500,3.69114453125,0.027488935738801956,-0.13255776464939117,0.11056660860776901
1788656952326243600,3.70724365234375,-0.015271631069481373,-0.1270599663257599,0.1258382350206375
1788656952342350300,3.723350341796875,-0.03298672288656235,-0.16493362188339233,0.15882496535778046
1788656952358521600,3.739521484375,-0.010995574295520782,-0.22052235901355743,0.19058994948863983
1788656952374613500,3.755613525390625,0.016493361443281174,-0.28955012559890747,0.22907446324825287
1788656952390633200,3.77163330078125,0.03298672288656235,-0.3549126982688904,0.2565633952617645
1788656952406740200,3.787740234375,0.018325956538319588,-0.3274237811565399,0.27977627515792847
1788656952422854100,3.803854248046875,0.00733038317412138,-0.23457226157188416,0.2718350291252136
1788656952439023600,3.820023681640625,0.00427605677396059,-0.14538592100143433,0.24862214922904968
1788656952455122000,3.836121826171875,0.02076941914856434,-0.11056660860776901,0.20952677726745605
1788656952471139800,3.852139892578125,0.025656340643763542,-0.08307767659425735,0.17959438264369965
1788656952487250200,3.868250244140625,0.02321287989616394,-0.06963863968849182,0.15760323405265808
1788656952503369700,3.88436962890625,0.02076941914856434,-0.08552113175392151,0.1270599663257599
1788656952519534800,3.900534912109375,0.012217304669320583,-0.11484266817569733,0.11239920556545258
1788656952535642000,3.91664208984375,0.012217304669320583,-0.16737708449363708,0.13561208546161652
1788656952551657000,3.932656982421875,0.01160643994808197,-0.2376265823841095,0.16371189057826996
1788656952567775200,3.948775146484375,0.0012217304902151227,-0.28038713335990906,0.19486601650714874
1788656952583905500,3.964905517578125,-0.0024434609804302454,-0.30115658044815063,0.20097467303276062
1788656952600073700,3.98107373046875,-0.0024434609804302454,-0.2767219543457031,0.16982053220272064
1788656952616192500,3.997192626953125,-0.01038470957428217,-0.24984388053417206,0.10934487730264664
1788656952632180000,4.013179931640625,-0.018325956538319588,-0.2272418737411499,0.09529497474431992
1788656952648318000,4.02931787109375,-0.02626720629632473,-0.2278527319431305,0.13011430203914642
1788656952664461000,4.0454609375,-0.04153883829712868,-0.2669481039047241,0.1814269721508026
1788656952680629000,4.06162890625,-0.0507018156349659,-0.2871066629886627,0.2021963894367218
1788656952696712200,4.077712158203125,-0.05314527451992035,-0.23273965716362,0.192422553896904
1788656952712728800,4.093728759765625,-0.05192354694008827,-0.1722639948129654,0.13744467496871948
1788656952728875300,4.109875244140625,-0.039095375686883926,-0.09834930300712585,0.08735372871160507
1788656952744978400,4.125978515625,-0.036651913076639175,-0.0806342139840126,0.06963863968849182
1788656952761144000,4.14214404296875,-0.027488935738801956,-0.1014036312699318,0.08002334833145142
1788656952777222700,4.15822265625,-0.018936822190880775,-0.1563815027475357,0.12095131725072861
1788656952793235000,4.17423486328125,-0.013439035043120384,-0.20586158335208893,0.13927727937698364
1788656952809344500,4.190344482421875,-0.009773843921720982,-0.20463985204696655,0.13255776464939117
1788656952825462000,4.2064619140625,-0.00366519158706069,-0.16432274878025055,0.11789698898792267
1788656952841629000,4.22262890625,0,-0.1313360333442688,0.12095131725072861
1788656952857709000,4.238708984375,0.007941247895359993,-0.13255776464939117,0.13377949595451355
1788656952873722600,4.25472265625,0.01466076634824276,-0.15027284622192383,0.15577064454555511
1788656952889828600,4.27082861328125,0.012828170321881771,-0.15821409225463867,0.16432274878025055
1788656952905950000,4.286949951171875,0.004886921960860491,-0.1411098688840866,0.14233160018920898
1788656952922114000,4.303114013671875,0.0006108652451075613,-0.0757472887635231,0.08552113175392151
1788656952938191000,4.319191162109375,-0.014049900695681572,-0.019547687843441963,0.036041051149368286
1788656952954210800,4.3352109375,-0.02076941914856434,0.01038470957428217,-0.01160643994808197
1788656952970334000,4.351333984375,-0.02687807008624077,0.027488935738801956,-0.03787364438176155
1788656952986469400,4.367469482421875,-0.025656340643763542,0.04214970022439957,-0.05009094998240471
1788656953002635300,4.38363525390625,-0.016493361443281174,0.11789698898792267,-0.13866640627384186
1788656953018713300,4.39971337890625,-0.01771509274840355,0.1814269721508026,-0.18936823308467865
1788656953034729700,4.415729736328125,-0.03298672288656235,0.18325957655906677,-0.18936823308467865
1788656953050865200,4.431865234375,-0.04398229718208313,0.19303341209888458,-0.19120082259178162
1788656953067000600,4.44800048828125,-0.04398229718208313,0.18387043476104736,-0.16798794269561768
1788656953083163600,4.46416357421875,-0.04153883829712868,0.17409659922122955,-0.1270599663257599
1788656953099245300,4.480245361328125,-0.05192354694008827,0.17470745742321014,-0.06291911751031876
1788656953115261400,4.496261474609375,-0.05497787147760391,0.1411098688840866,-0.05803219974040985
1788656953139560200,4.520560302734375,-0.04764748737215996,0.11484266817569733,-0.1319468915462494
1788656953155581000,4.536580810546875,-0.04886921867728233,0.14844025671482086,-0.18814650177955627
1788656953171640000,4.55264013671875,-0.05925392732024193,0.19058994948863983,-0.23579397797584534
1788656953187744000,4.568743896484375,-0.07452555745840073,0.242513507604599,-0.2535090744495392
1788656953203917000,4.5849169921875,-0.10262536257505417,0.27977627515792847,-0.1973094791173935
1788656953220035000,4.60103515625,-0.11423180252313614,0.2736676335334778,-0.15760323405265808
1788656953236064800,4.617064697265625,-0.09346238523721695,0.24373523890972137,-0.1771509200334549
1788656953252127200,4.633127197265625,-0.0507018156349659,0.1918116807937622,-0.24373523890972137
1788656953268244500,4.649244384765625,-0.04581489413976669,0.17959438264369965,-0.24007004499435425
1788656953284415700,4.665415771484375,-0.07208210229873657,0.17898350954055786,-0.1875356286764145
1788656953300537300,4.681537353515625,-0.13255776464939117,0.2217440903186798,-0.09957103431224823
1788656953316561000,4.697560791015625,-0.17409659922122955,0.2480112910270691,-0.05864306539297104
1788656953332617200,4.7136171875,-0.16737708449363708,0.2168571650981903,-0.07757988572120667
1788656953348734500,4.729734375,-0.14355333149433136,0.15760323405265808,-0.152105450630188
1788656953364905500,4.745905517578125,-0.13439035415649414,0.18814650177955627,-0.2174680233001709
1788656953381032400,4.762032470703125,-0.16493362188339233,0.24495697021484375,-0.23029619455337524
1788656953397073200,4.7780732421875,-0.19425514340400696,0.2480112910270691,-0.22113321721553802
1788656953429246700,4.810246826171875,-0.19547687470912933,0.3090978264808655,-0.13011430203914642
1788656953445409300,4.8264091796875,-0.13927727937698364,0.1973094791173935,-0.09285151958465576
1788656953461538600,4.84253857421875,-0.07757988572120667,0.17776179313659668,-0.06841690838336945
1788656953477577700,4.85857763671875,0.001832595793530345,0.1563815027475357,-0.04337143152952194
1788656953493626400,4.87462646484375,0.07452555745840073,0.13439035415649414,-0.02076941914856434
1788656953509742300,4.890742431640625,0.1111774742603302,0.12400564551353455,-0.013439035043120384
1788656953525902600,4.906902587890625,0.11362093687057495,0.13988813757896423,-0.003054326167330146
1788656953542036000,4.923035888671875,0.12522737681865692,0.1508837193250656,0.009162978269159794
1788656953558082000,4.93908203125,0.13316862285137177,0.12828169763088226,0.006108652334660292
1788656953574127900,4.9551279296875,0.12828169763088226,0.11423180252313614,-0.00427605677396059
1788656953590211800,4.9712119140625,0.12278391420841217,0.08857546001672745,-0.024434609338641167
1788656953606376200,4.987376220703125,0.11789698898792267,0.08491026610136032,-0.045204028487205505
1788656953630470000,5.011469970703125,0.11239920556545258,0.12095131725072861,-0.03726277872920036
1788656953646631400,5.02763134765625,0.10323622822761536,0.1466076523065567,-0.01160643994808197
1788656953662700300,5.0437001953125,0.09407325088977814,0.17776179313659668,0.007941247895359993
1788656953678703000,5.059703125,0.07391469180583954,0.2064724564552307,0.005497787147760391
1788656953694789000,5.0757890625,0.04092797264456749,0.22479841113090515,-0.01771509274840355
1788656953710875100,5.091875244140625,0.00733038317412138,0.22602014243602753,-0.039706241339445114
1788656953727027000,5.10802685546875,-0.021380282938480377,0.19853121042251587,-0.05192354694008827
1788656953743091500,5.124091552734375,-0.03787364438176155,0.19120082259178162,-0.06108652427792549
1788656953759090400,5.14009033203125,-0.0403171069920063,0.2064724564552307,-0.059864792972803116
1788656953775177200,5.15617724609375,-0.039095375686883926,0.22479841113090515,-0.042760565876960754
1788656953791274500,5.1722744140625,-0.021991148591041565,0.2541199326515198,-0.007941247895359993
1788656953807427600,5.188427490234375,0,0.2583959996700287,0.018325956538319588
1788656953823494700,5.20449462890625,0.0006108652451075613,0.23090706765651703,0.01160643994808197
1788656953839497000,5.2204970703125,-0.0024434609804302454,0.1618792861700058,-0.00427605677396059
1788656953855599900,5.236599853515625,-0.009773843921720982,0.11789698898792267,0.0024434609804302454
1788656953871714000,5.252714111328125,-0.003054326167330146,0.12461651116609573,0.022602014243602753
1788656953887865300,5.268865234375,0.00427605677396059,0.1160643994808197,0.03176499158143997
1788656953903932000,5.284931884765625,0.012217304669320583,0.07696902006864548,0.006719517521560192
1788656953919934200,5.300934326171875,0.01160643994808197,0.021991148591041565,-0.027488935738801956
1788656953936039200,5.3170390625,0.012217304669320583,-0.00366519158706069,-0.04153883829712868
1788656953952156000,5.333156005859375,0.009773843921720982,0.013439035043120384,-0.02321287989616394
1788656953968310500,5.349310546875,0.007941247895359993,0.03237585723400116,0.015271631069481373
1788656953984349000,5.365348876953125,0.01160643994808197,0.025656340643763542,0.036651913076639175
1788656954000352300,5.381352294921875,0.02015855349600315,0.006108652334660292,0.018325956538319588
1788656954016474400,5.397474365234375,0.042760565876960754,-0.001832595793530345,-0.01771509274840355
1788656954032608300,5.413608154296875,0.05009094998240471,-0.0354301854968071,-0.02932153269648552
1788656954048765700,5.429765625,0.039095375686883926,-0.05497787147760391,-0.01160643994808197
1788656954064838100,5.445838134765625,0.016493361443281174,-0.02321287989616394,0.02076941914856434
1788656954080843300,5.46184326171875,0.006108652334660292,0.02871066704392433,0.05009094998240471
1788656954096978200,5.477978271484375,-0.003054326167330146,0.02321287989616394,0.054367005825042725
1788656954113072400,5.494072265625,0.00855211354792118,0.02321287989616394,0.0354301854968071
1788656954129232100,5.510232177734375,0.013439035043120384,0.018936822190880775,-0.0012217304902151227
1788656954145314300,5.526314208984375,0.02015855349600315,0.022602014243602753,-0.021380282938480377
1788656954161322200,5.542322265625,0.027488935738801956,0.06414084881544113,-0.005497787147760391
1788656954177412400,5.558412353515625,0.012828170321881771,0.06291911751031876,0.021991148591041565
1788656954193515000,5.574514892578125,-0.018936822190880775,0.028099801391363144,0.039095375686883926
1788656954209676300,5.59067626953125,-0.03481931984424591,0.006719517521560192,0.04642575979232788
1788656954225763600,5.606763671875,-0.02687807008624077,-0.01710422709584236,0.04703662544488907
1788656954241770800,5.622770751953125,-0.013439035043120384,-0.0354301854968071,0.031154127791523933
1788656954257871000,5.63887109375,0.003054326167330146,-0.03726277872920036,-0.01710422709584236
1788656954273982700,5.654982666015625,0.019547687843441963,-0.021380282938480377,-0.06108652427792549
1788656954290146600,5.671146484375,0.029932396486401558,-0.025656340643763542,-0.09957103431224823
1788656954306243000,5.6872431640625,0.018936822190880775,-0.02015855349600315,-0.1062905490398407
1788656954322255000,5.703255126953125,-0.00366519158706069,-0.014049900695681572,-0.09346238523721695
1788656954338366500,5.719366455078125,-0.018325956538319588,-0.015271631069481373,-0.05742133408784866
1788656954354477300,5.735477294921875,-0.04337143152952194,-0.018325956538319588,-0.022602014243602753
1788656954370633000,5.751633056640625,-0.060475658625364304,-0.00733038317412138,0.006719517521560192
1788656954386736600,5.767736572265625,-0.07147123664617538,-0.012828170321881771,0.019547687843441963
1788656954402745900,5.783745849609375,-0.0757472887635231,-0.01710422709584236,0.02076941914856434
1788656954418862300,5.7998623046875,-0.07330382615327835,-0.02626720629632473,0.015271631069481373
1788656954434987800,5.81598779296875,-0.06902777403593063,-0.042760565876960754,-0.010995574295520782
1788656954451148800,5.832148681640625,-0.06414084881544113,-0.06108652427792549,-0.04092797264456749
1788656954467265000,5.84826513671875,-0.060475658625364304,-0.056810468435287476,-0.04764748737215996
1788656954483276000,5.864276123046875,-0.05497787147760391,-0.02321287989616394,-0.022602014243602753
1788656954499398400,5.8803984375,-0.04703662544488907,-0.009773843921720982,0.014049900695681572
1788656954515540200,5.896540283203125,-0.021991148591041565,-0.007941247895359993,0.04153883829712868
1788656954531710200,5.912710205078125,-0.005497787147760391,-0.022602014243602753,0.03298672288656235
1788656954547790300,5.928790283203125,0.005497787147760391,-0.018325956538319588,-0.005497787147760391
1788656954563802400,5.94480224609375,0.01038470957428217,-0.009773843921720982,-0.0507018156349659
1788656954579940900,5.96094091796875,0.013439035043120384,-0.025656340643763542,-0.0757472887635231
1788656954596036400,5.977036376953125,0.00366519158706069,-0.01466076634824276,-0.06841690838336945
1788656954612240400,5.993240478515625,0.0024434609804302454,-0.015271631069481373,-0.056810468435287476
1788656954628317400,6.0093173828125,0.00366519158706069,-0.03237585723400116,-0.04337143152952194
1788656954644329200,6.0253291015625,-0.0006108652451075613,-0.04153883829712868,-0.03787364438176155
1788656954660422700,6.041422607421875,-0.0006108652451075613,-0.031154127791523933,-0.045204028487205505
1788656954676529700,6.05752978515625,-0.00427605677396059,-0.005497787147760391,-0.05497787147760391
1788656954700661500,6.08166162109375,0.0006108652451075613,-0.025656340643763542,-0.06475171446800232
1788656954716750000,6.09775,0.004886921960860491,-0.05375614017248154,-0.06414084881544113
1788656954732919300,6.113919189453125,-0.00366519158706069,-0.04764748737215996,-0.05619960278272629
1788656954749039900,6.130039794921875,0.009773843921720982,-0.012217304669320583,-0.04764748737215996
1788656954765073400,6.146073486328125,0.015882495790719986,0.014049900695681572,-0.03237585723400116
1788656954781130000,6.1621298828125,0.02871066704392433,0.0006108652451075613,-0.003054326167330146
1788656954797219800,6.1782197265625,0.03726277872920036,0.003054326167330146,0.036651913076639175
1788656954813384200,6.19438427734375,0.0555887371301651,-0.005497787147760391,0.054367005825042725
1788656954829516800,6.210516845703125,0.027488935738801956,-0.01038470957428217,0.05314527451992035
1788656954845564400,6.226564453125,0.015882495790719986,-0.018325956538319588,0.027488935738801956
1788656954861619500,6.242619384765625,0.004886921960860491,-0.018325956538319588,-0.016493361443281174
1788656954877712000,6.2587119140625,-0.012828170321881771,-0.018325956538319588,-0.04337143152952194
1788656954893877200,6.274877197265625,-0.02871066704392433,-0.01710422709584236,-0.06475171446800232
1788656954910016300,6.291016357421875,-0.039706241339445114,-0.00733038317412138,-0.08246681094169617
1788656954926066700,6.307066650390625,-0.04703662544488907,-0.01160643994808197,-0.09224065393209457
1788656954942121700,6.323121826171875,-0.05009094998240471,-0.025656340643763542,-0.08979719132184982
1788656954958213400,6.33921337890625,-0.045204028487205505,-0.036041051149368286,-0.07208210229873657
1788656954974383400,6.35538330078125,-0.04398229718208313,-0.051312681287527084,-0.0403171069920063
1788656954990534700,6.37153466796875,-0.0403171069920063,-0.059864792972803116,-0.021380282938480377
1788656955006593500,6.387593505859375,-0.0354301854968071,-0.06780604273080826,-0.022602014243602753
1788656955022654700,6.40365478515625,-0.039095375686883926,-0.056810468435287476,-0.033597588539123535
1788656955038748000,6.419747802734375,-0.04337143152952194,-0.06475171446800232,-0.039706241339445114
1788656955054913500,6.43591357421875,-0.05375614017248154,-0.07941248267889023,-0.04153883829712868
1788656955071063600,6.4520634765625,-0.06230825558304787,-0.0861319974064827,-0.04153883829712868
1788656955087074600,6.468074462890625,-0.07024950534105301,-0.08735372871160507,-0.039095375686883926
1788656955103128800,6.48412890625,-0.07513642311096191,-0.08674286305904388,-0.03176499158143997
1788656955119230700,6.500230712890625,-0.08246681094169617,-0.0861319974064827,-0.02321287989616394
1788656955135394000,6.51639404296875,-0.08796459436416626,-0.07757988572120667,-0.018325956538319588
1788656955151505000,6.5325048828125,-0.0910189226269722,-0.07757988572120667,-0.021991148591041565
1788656955167526100,6.548526123046875,-0.08796459436416626,-0.06536258012056351,-0.02321287989616394
1788656955183582000,6.56458203125,-0.07819075137376785,-0.05314527451992035,-0.01160643994808197
1788656955199690800,6.580690673828125,-0.0806342139840126,-0.06658431142568588,0.01466076634824276
1788656955215856600,6.596856689453125,-0.08368854224681854,-0.08735372871160507,0.02382374368607998
1788656955231974700,6.612974609375,-0.09224065393209457,-0.10873401165008545,0.006108652334660292
1788656955247998500,6.62899853515625,-0.10506882518529892,-0.11789698898792267,-0.03787364438176155
1788656955264049000,6.645048828125,-0.1160643994808197,-0.1007927656173706,-0.07452555745840073
1788656955280156000,6.661156005859375,-0.12034045159816742,-0.06780604273080826,-0.08674286305904388
1788656955296317700,6.677317626953125,-0.13439035415649414,-0.05375614017248154,-0.08674286305904388
1788656955312461800,6.6934619140625,-0.13988813757896423,-0.0555887371301651,-0.09651670604944229
1788656955328494300,6.709494384765625,-0.14416420459747314,-0.05742133408784866,-0.11545353382825851
1788656955344543500,6.72554345703125,-0.1264491081237793,-0.03726277872920036,-0.10690141469240189
1788656955360661000,6.741660888671875,-0.09224065393209457,-0.048258353024721146,-0.07635815441608429
1788656955376824300,6.75782421875,-0.07819075137376785,-0.042760565876960754,-0.02382374368607998
1788656955392949000,6.773948974609375,-0.07452555745840073,-0.02626720629632473,0.00366519158706069
1788656955408991500,6.789991455078125,-0.07024950534105301,-0.021380282938480377,-0.00427605677396059
1788656955425045000,6.806044921875,-0.08185594528913498,-0.042760565876960754,-0.04459316283464432
1788656955441163300,6.822163330078125,-0.09468411654233932,-0.06841690838336945,-0.07941248267889023
1788656955457330200,6.838330078125,-0.1062905490398407,-0.07513642311096191,-0.08674286305904388
1788656955473463800,6.8544638671875,-0.11362093687057495,-0.07330382615327835,-0.059864792972803116
1788656955489511200,6.87051123046875,-0.11545353382825851,-0.0555887371301651,-0.04398229718208313
1788656955505566500,6.88656640625,-0.11301007121801376,-0.006719517521560192,-0.04398229718208313
1788656955521654000,6.902654052734375,-0.09957103431224823,0.0555887371301651,-0.05925392732024193
1788656955537820000,6.91881982421875,-0.08185594528913498,0.0910189226269722,-0.08918632566928864
1788656955553973000,6.934972900390625,-0.06169738993048668,0.09285151958465576,-0.1111774742603302
1788656955569981200,6.950981201171875,-0.036041051149368286,0.06230825558304787,-0.10384709388017654
1788656955586037000,6.967037109375,-0.006108652334660292,0.027488935738801956,-0.06352998316287994
1788656955602126000,6.9831259765625,0.012828170321881771,-0.003054326167330146,-0.04092797264456749
1788656955618295000,6.999294921875,0.030543262138962746,-0.018936822190880775,-0.045204028487205505
1788656955634406100,7.01540625,0.04153883829712868,-0.02626720629632473,-0.0659734457731247
1788656955650425300,7.03142529296875,0.04886921867728233,-0.03237585723400116,-0.08307767659425735
1788656955666483200,7.047483154296875,0.059864792972803116,-0.03298672288656235,-0.07513642311096191
1788656955682576600,7.06357666015625,0.07208210229873657,-0.031154127791523933,-0.04764748737215996
1788656955698738700,7.07973876953125,0.07880161702632904,-0.03420845419168472,-0.009162978269159794
1788656955714858000,7.09585791015625,0.08491026610136032,-0.02687807008624077,0.010995574295520782
1788656955730891300,7.111891357421875,0.08246681094169617,0.0012217304902151227,0.0006108652451075613
1788656955746947800,7.12794775390625,0.07208210229873657,0.04581489413976669,-0.03726277872920036
1788656955763037700,7.14403759765625,0.06108652427792549,0.09346238523721695,-0.07024950534105301
1788656955779202600,7.16020263671875,0.05619960278272629,0.10751228034496307,-0.08002334833145142
1788656955795330600,7.17633056640625,0.059864792972803116,0.10995574295520782,-0.05925392732024193
1788656955811374600,7.19237451171875,0.06841690838336945,0.08552113175392151,-0.028099801391363144
1788656955827423200,7.20842333984375,0.0757472887635231,0.04337143152952194,-0.02626720629632473
1788656955843509800,7.224509765625,0.08429940044879913,-0.0006108652451075613,-0.05009094998240471
1788656955859676000,7.240676025390625,0.08979719132184982,-0.0403171069920063,-0.07024950534105301
1788656955875818000,7.25681787109375,0.08674286305904388,-0.0659734457731247,-0.05253441259264946
1788656955891868400,7.272868408203125,0.06963863968849182,-0.06536258012056351,-0.00427605677396059
1788656955907927300,7.28892724609375,0.03420845419168472,-0.02382374368607998,0.06108652427792549
1788656955924017400,7.305017333984375,0.0006108652451075613,-0.03726277872920036,0.07147123664617538
1788656955940181800,7.321181640625,0.015882495790719986,0.014049900695681572,0.012828170321881771
1788656955956330200,7.337330322265625,0.04214970022439957,0.11056660860776901,-0.059864792972803116
1788656955972350000,7.353349853515625,0.09712757170200348,0.21135938167572021,-0.08918632566928864
1788656955988401400,7.3694013671875,0.16432274878025055,0.22296582162380219,-0.0507018156349659
1788656956004492300,7.3854921875,0.20830504596233368,0.14538592100143433,0.00427605677396059
1788656956020658400,7.401658447265625,0.2541199326515198,0.0403171069920063,0.08918632566928864
1788656956036813000,7.41781298828125,0.27977627515792847,-0.006108652334660292,0.19975294172763824
1788656956052831200,7.433831298828125,0.2919935882091522,0.04092797264456749,0.3078760802745819
1788656956068889900,7.449889892578125,0.2785545587539673,0.08674286305904388,0.3634648323059082
1788656956084977400,7.465977294921875,0.251676470041275,0.10873401165008545,0.3579670190811157
1788656956101144300,7.482144287109375,0.2174680233001709,0.0861319974064827,0.2883284091949463
1788656956117298000,7.4982978515625,0.19058994948863983,0.027488935738801956,0.19608774781227112
1788656956133336600,7.514336669921875,0.17104226350784302,-0.012217304669320583,0.13255776464939117
1788656956149394000,7.530393798828125,0.14538592100143433,-0.033597588539123535,0.08185594528913498
1788656956165499400,7.54649951171875,0.13561208546161652,-0.04764748737215996,0.04886921867728233
1788656956181665500,7.56266552734375,0.11728613078594208,-0.045204028487205505,0.03420845419168472
1788656956197781200,7.57878125,0.09040805697441101,-0.012217304669320583,0.025045474991202354
1788656956213811000,7.59481103515625,0.06658431142568588,0.0555887371301651,0.007941247895359993
1788656956229866200,7.6108662109375,0.04459316283464432,0.13988813757896423,-0.01466076634824276
1788656956245976300,7.626976318359375,0.02626720629632473,0.19608774781227112,-0.036651913076639175
1788656956262143500,7.6431435546875,0.01771509274840355,0.24373523890972137,-0.05742133408784866
1788656956278268200,7.65926806640625,0.015882495790719986,0.24068090319633484,-0.05009094998240471
1788656956294304800,7.6753046875,0.009773843921720982,0.18875735998153687,-0.015271631069481373
1788656956310369800,7.691369873046875,0.016493361443281174,0.1258382350206375,0.019547687843441963
1788656956326503400,7.70750341796875,0.018936822190880775,0.07391469180583954,0.029932396486401558
1788656956342674200,7.723674072265625,0.024434609338641167,0.05253441259264946,-0.009773843921720982
1788656956358818600,7.739818603515625,0.01771509274840355,0.012217304669320583,-0.07147123664617538
1788656956374870000,7.7558701171875,0.021991148591041565,-0.006719517521560192,-0.14416420459747314
1788656956390928000,7.771927978515625,0.024434609338641167,-0.036041051149368286,-0.17043140530586243
1788656956407068000,7.78806787109375,0.021991148591041565,-0.08185594528913498,-0.15027284622192383
1788656956423236000,7.804236083984375,0.02382374368607998,-0.1264491081237793,-0.0910189226269722
1788656956439385900,7.8203857421875,0.012828170321881771,-0.17287486791610718,-0.03726277872920036
1788656956455401200,7.836401123046875,-0.006108652334660292,-0.1612684279680252,-0.015271631069481373
1788656956471454500,7.852454345703125,-0.02687807008624077,-0.13072516024112701,-0.027488935738801956
1788656956487547400,7.86854736328125,-0.05497787147760391,-0.08796459436416626,-0.04703662544488907
1788656956503716600,7.884716552734375,-0.08002334833145142,-0.08918632566928864,-0.04398229718208313
1788656956519830300,7.900830322265625,-0.07941248267889023,-0.1472185254096985,0.006108652334660292
1788656956535855600,7.916855712890625,-0.06536258012056351,-0.22479841113090515,0.0757472887635231
1788656956551913000,7.932912841796875,-0.039095375686883926,-0.28649580478668213,0.14538592100143433
1788656956568005600,7.949005615234375,-0.021380282938480377,-0.3029891550540924,0.1563815027475357
1788656956584178000,7.965177978515625,-0.009773843921720982,-0.28466320037841797,0.11362093687057495
1788656956600300500,7.981300537109375,-0.013439035043120384,-0.22296582162380219,0.039095375686883926
1788656956616329000,7.997328857421875,-0.029932396486401558,-0.11850785464048386,-0.021380282938480377
1788656956632385300,8.01338525390625,-0.05742133408784866,0.021991148591041565,-0.030543262138962746
1788656956648473300,8.029473388671875,-0.11484266817569733,0.07513642311096191,-0.036651913076639175
1788656956664611300,8.045611328125,-0.14416420459747314,-0.022602014243602753,-0.15271630883216858
1788656956680740400,8.061740234375,-0.1569923609495163,0.003054326167330146,-0.3017674386501312
1788656956696781600,8.077781494140625,-0.18875735998153687,0.11178833991289139,-0.3640756905078888
1788656956712833800,8.093833740234375,-0.24984388053417206,0.2816088795661926,-0.30115658044815063
1788656956728898000,8.10989794921875,-0.24617868661880493,0.3744603991508484,-0.13927727937698364
1788656956745061400,8.126061279296875,-0.2021963894367218,0.3878994286060333,0.06475171446800232
1788656956761174000,8.142174072265625,-0.1411098688840866,0.33719760179519653,0.23640485107898712
1788656956777216500,8.158216552734375,-0.06230825558304787,0.2675589919090271,0.4086688458919525
1788656956793275600,8.174275634765625,-0.012828170321881771,0.18814650177955627,0.5369505286216736
1788656956809348000,8.19034814453125,0,0.08429940044879913,0.5528330206871033
1788656956825518000,8.20651806640625,0.018325956538319588,-0.05742133408784866,0.4092797040939331
1788656956841645300,8.222645263671875,0.02871066704392433,-0.1765400618314743,0.16004669666290283
1788656956857688800,8.238688720703125,-0.01466076634824276,-0.25595253705978394,-0.07147123664617538
1788656956873742800,8.254742919921876,-0.09162978827953339,-0.32131510972976685,-0.19975294172763824
1788656956889820000,8.27081982421875,-0.1765400618314743,-0.342695415019989,-0.24007004499435425
1788656956905985800,8.28698583984375,-0.26572638750076294,-0.25534167885780334,-0.15577064454555511
1788656956922121700,8.303121826171875,-0.33292156457901,-0.09407325088977814,-0.02321287989616394
1788656956938123800,8.319123779296875,-0.37690386176109314,0.07208210229873657,0.11239920556545258
1788656956954177000,8.335177001953125,-0.37079519033432007,0.1612684279680252,0.17531833052635193
1788656956970267000,8.351266845703124,-0.34147366881370544,0.18631389737129211,0.18936823308467865
1788656956986433000,8.36743310546875,-0.26511552929878235,0.18081611394882202,0.1667662113904953
1788656957002586400,8.38358642578125,-0.19364428520202637,0.12339477986097336,0.1014036312699318
1788656957018617300,8.399617431640625,-0.12522737681865692,0.04886921867728233,0.025045474991202354
1788656957034674000,8.415673828125,-0.08735372871160507,-0.02015855349600315,-0.04703662544488907
1788656957050781000,8.431781005859374,-0.05742133408784866,-0.07635815441608429,-0.11850785464048386
1788656957066949600,8.44794970703125,-0.05497787147760391,-0.10567969083786011,-0.18020524084568024
1788656957083069700,8.464069580078124,-0.07208210229873657,-0.11484266817569733,-0.2064724564552307
1788656957099102500,8.4801025390625,-0.09529497474431992,-0.1111774742603302,-0.2028072625398636
1788656957115162400,8.496162353515626,-0.11667526513338089,-0.13072516024112701,-0.18814650177955627
1788656957131284700,8.51228466796875,-0.13866640627384186,-0.1313360333442688,-0.1667662113904953
1788656957147452400,8.528452392578124,-0.15332718193531036,-0.12034045159816742,-0.16004669666290283
1788656957163576800,8.544576904296875,-0.15943582355976105,-0.09712757170200348,-0.15332718193531036
1788656957179609900,8.56060986328125,-0.14782938361167908,-0.07819075137376785,-0.11972958594560623
1788656957195666200,8.576666259765625,-0.11850785464048386,-0.031154127791523933,-0.07147123664617538
1788656957211787800,8.592787841796875,-0.08124507963657379,0.009773843921720982,-0.02626720629632473
1788656957227956500,8.60895654296875,-0.030543262138962746,0.0507018156349659,0.04642575979232788
1788656957244092000,8.625091796875,0.031154127791523933,0.07269296050071716,0.1264491081237793
1788656957260140000,8.64114013671875,0.08002334833145142,0.07941248267889023,0.17043140530586243
1788656957276194000,8.657194091796875,0.1160643994808197,0.09529497474431992,0.19853121042251587
1788656957292324000,8.673323974609374,0.13439035415649414,0.07269296050071716,0.20036379992961884
1788656957308490800,8.68949072265625,0.17531833052635193,0.01160643994808197,0.2028072625398636
1788656957324627700,8.705627685546874,0.2070833146572113,-0.04703662544488907,0.2021963894367218
1788656957340675300,8.72167529296875,0.22296582162380219,-0.06169738993048668,0.192422553896904
1788656957356729000,8.73772900390625,0.21074850857257843,-0.03726277872920036,0.1814269721508026
1788656957372864300,8.7538642578125,0.18875735998153687,-0.06475171446800232,0.1514945775270462
1788656957389028900,8.77002880859375,0.182648703455925,-0.02015855349600315,0.06108652427792549
1788656957405172000,8.786171875,0.15882496535778046,0.05253441259264946,-0.05192354694008827
1788656957421180000,8.802179931640625,0.14782938361167908,0.08246681094169617,-0.10812314599752426
1788656957437231600,8.818231689453125,0.1661553531885147,0.07696902006864548,-0.07880161702632904
1788656957453299500,8.834299560546874,0.20341812074184418,0.05619960278272629,0.03787364438176155
1788656957469468000,8.850468017578125,0.22357667982578278,0.08368854224681854,0.16798794269561768
1788656957485584600,8.866584716796876,0.24556782841682434,0.13988813757896423,0.21502456068992615
1788656957501601000,8.88260107421875,0.24556782841682434,0.18448130786418915,0.2064724564552307
1788656957517659000,8.898658935546875,0.23579397797584534,0.19608774781227112,0.1814269721508026
1788656957533759500,8.914759521484376,0.22357667982578278,0.1569923609495163,0.14538592100143433
1788656957549924000,8.930924072265626,0.20463985204696655,0.12095131725072861,0.09529497474431992
1788656957566044000,8.9470439453125,0.1661553531885147,0.07819075137376785,0.00855211354792118
1788656957582081300,8.963081298828126,0.1215621829032898,0.0555887371301651,-0.07208210229873657
1788656957598136800,8.97913671875,0.08674286305904388,0.03298672288656235,-0.10751228034496307
1788656957614225200,8.99522509765625,0.06902777403593063,0.01160643994808197,-0.11423180252313614
1788656957630394400,9.011394287109376,0.060475658625364304,0.00733038317412138,-0.09651670604944229
1788656957646512600,9.0275126953125,0.06230825558304787,0.01038470957428217,-0.08002334833145142
1788656957662541300,9.043541259765625,0.07757988572120667,0.019547687843441963,-0.06291911751031876
1788656957678600000,9.059599853515625,0.11789698898792267,0.03237585723400116,-0.029932396486401558
1788656957694684700,9.0756845703125,0.16249015927314758,0.033597588539123535,-0.0012217304902151227
1788656957710855000,9.09185498046875,0.20036379992961884,0.00366519158706069,-0.00366519158706069
1788656957726988800,9.10798876953125,0.21502456068992615,-0.04214970022439957,-0.009773843921720982
1788656957743046400,9.12404638671875,0.2028072625398636,-0.08735372871160507,-0.015271631069481373
1788656957759103500,9.140103515625,0.16859880089759827,-0.11362093687057495,-0.021380282938480377
1788656957775193600,9.156193603515625,0.12889257073402405,-0.1270599663257599,-0.030543262138962746
1788656957791355600,9.172355712890624,0.08002334833145142,-0.13316862285137177,-0.056810468435287476
1788656957807499000,9.1884990234375,0.0354301854968071,-0.12095131725072861,-0.07941248267889023
1788656957823547000,9.204546875,0.0006108652451075613,-0.09896016865968704,-0.08124507963657379
1788656957839601700,9.2206015625,-0.02076941914856434,-0.08735372871160507,-0.07452555745840073
1788656957855694000,9.236694091796876,-0.048258353024721146,-0.06902777403593063,-0.06536258012056351
1788656957871858200,9.252858154296876,-0.06841690838336945,-0.039706241339445114,-0.07819075137376785
1788656957888002300,9.269002197265625,-0.0659734457731247,-0.024434609338641167,-0.10751228034496307
1788656957904018700,9.285018798828125,-0.04764748737215996,-0.02871066704392433,-0.11362093687057495
1788656957920080600,9.30108056640625,-0.03420845419168472,-0.05314527451992035,-0.07696902006864548
1788656957936175400,9.31717529296875,-0.04886921867728233,-0.09468411654233932,-0.015882495790719986
1788656957952344600,9.333344482421875,-0.06963863968849182,-0.13500121235847473,0.03481931984424591
1788656957968454700,9.34945458984375,-0.10751228034496307,-0.1612684279680252,0.045204028487205505
1788656957984477400,9.3654775390625,-0.14355333149433136,-0.16004669666290283,0.01160643994808197
1788656958000502500,9.38150244140625,-0.16982053220272064,-0.15027284622192383,-0.024434609338641167
1788656958016623600,9.39762353515625,-0.1820378452539444,-0.14049901068210602,-0.04886921867728233
1788656958032791300,9.413791259765626,-0.17592918872833252,-0.13011430203914642,-0.03298672288656235
1788656958048899300,9.4298994140625,-0.16249015927314758,-0.12095131725072861,0.022602014243602753
1788656958064926200,9.44592626953125,-0.14782938361167908,-0.1007927656173706,0.07635815441608429
1788656958080982500,9.461982421875,-0.14294247329235077,-0.11545353382825851,0.08979719132184982
1788656958097091800,9.478091796875,-0.1258382350206375,-0.20463985204696655,-0.021380282938480377
1788656958113258000,9.494258056640625,-0.09162978827953339,-0.13988813757896423,-0.1869247704744339
1788656958129375200,9.510375244140626,-0.09834930300712585,-0.007941247895359993,-0.3488040566444397
1788656958145418000,9.52641796875,-0.10201449692249298,0.08491026610136032,-0.37201693654060364
1788656958161476400,9.542476318359375,-0.11301007121801376,0.15577064454555511,-0.26022860407829285
1788656958177573600,9.55857373046875,-0.11362093687057495,0.15943582355976105,-0.0861319974064827
1788656958193740500,9.574740478515626,-0.10018189996480942,0.13255776464939117,0.1313360333442688
1788656958209849600,9.590849609375,-0.0757472887635231,0.09468411654233932,0.3194825351238251
1788656958225885700,9.6068857421875,-0.07269296050071716,0.03848451003432274,0.41661009192466736
1788656958241942300,9.6229423828125,-0.07024950534105301,-0.05803219974040985,0.41111230850219727
1788656958258057700,9.6390576171875,-0.05375614017248154,-0.1820378452539444,0.24190263450145721
1788656958274227000,9.65522705078125,-0.024434609338641167,-0.28649580478668213,-0.030543262138962746
1788656958290361300,9.671361328125,-0.031154127791523933,-0.33475416898727417,-0.2376265823841095
1788656958306417400,9.68741748046875,-0.06780604273080826,-0.3952298164367676,-0.4129449129104614
1788656958322470700,9.703470703125,-0.11972958594560623,-0.4239404797554016,-0.4960225820541382
1788656958338589400,9.71958935546875,-0.17837265133857727,-0.3744603991508484,-0.4489859640598297
1788656958354756600,9.735756591796875,-0.252287358045578,-0.16798794269561768,-0.2571742534637451
1788656958370903300,9.7519033203125,-0.3017674386501312,0.10323622822761536,-0.01160643994808197
1788656958386910500,9.767910400390624,-0.31093040108680725,0.27122417092323303,0.18325957655906677
1788656958402968300,9.78396826171875,-0.28527405858039856,0.294437050819397,0.2736676335334778
1788656958419061000,9.80006103515625,-0.20341812074184418,0.2779437005519867,0.2791654169559479
1788656958435229200,9.816229248046875,-0.10873401165008545,0.252287358045578,0.1973094791173935
1788656958451377000,9.832376953125,-0.03481931984424591,0.19486601650714874,0.06169738993048668
1788656958467383800,9.8483837890625,0.024434609338641167,0.11728613078594208,-0.051312681287527084
1788656958483443500,9.864443359375,0.06719517707824707,0.030543262138962746,-0.14233160018920898
1788656958499532500,9.880532470703125,0.0861319974064827,-0.0507018156349659,-0.19425514340400696
1788656958515701000,9.896700927734376,0.08307767659425735,-0.07269296050071716,-0.2174680233001709
1788656958531827000,9.912826904296875,0.07024950534105301,-0.07269296050071716,-0.1973094791173935
1788656958547860200,9.928860107421874,0.04703662544488907,-0.04886921867728233,-0.12950342893600464
1788656958563915800,9.944915771484375,0.016493361443281174,-0.028099801391363144,-0.04948008432984352
1788656958580004900,9.9610048828125,0.009773843921720982,0.009162978269159794,-0.012217304669320583
1788656958596177700,9.977177734375,0.03176499158143997,0.0354301854968071,0.003054326167330146
1788656958612303600,9.9933037109375,0.04886921867728233,0.06291911751031876,0.018325956538319588
1788656958628342500,10.009342529296875,0.07269296050071716,0.07330382615327835,0.025656340643763542
1788656958644401200,10.025401123046874,0.10690141469240189,0.07208210229873657,0.03176499158143997
1788656958660507000,10.0415068359375,0.1508837193250656,0.05742133408784866,0.051312681287527084
1788656958676674600,10.057674560546875,0.19975294172763824,0.02687807008624077,0.09896016865968704
1788656958692806700,10.073806640625,0.23457226157188416,0.013439035043120384,0.1466076523065567
1788656958708851200,10.089851318359376,0.2724458873271942,0.030543262138962746,0.20097467303276062
1788656958724910300,10.105910400390625,0.30115658044815063,0.04703662544488907,0.23335053026676178
1788656958740993500,10.12199365234375,0.3078760802745819,0.04886921867728233,0.24495697021484375
1788656958757159400,10.138159423828125,0.304210901260376,0.08307767659425735,0.26511552929878235
1788656958773294800,10.154294921875,0.2669481039047241,0.08368854224681854,0.26939156651496887
1788656958789355500,10.17035546875,0.2321287989616394,0.018936822190880775,0.19547687470912933
1788656958805412400,10.186412353515625,0.24434609711170197,0.04703662544488907,0.07269296050071716
1788656958821505500,10.202505615234376,0.2669481039047241,0.08429940044879913,-0.07147123664617538
1788656958837675800,10.21867578125,0.27488934993743896,0.056810468435287476,-0.13744467496871948
1788656958853830400,10.234830322265625,0.28099802136421204,-0.010995574295520782,-0.08307767659425735
1788656958869837300,10.25083740234375,0.2638937830924988,-0.03787364438176155,0.015271631069481373
1788656958885890800,10.266890869140624,0.22540926933288574,-0.03176499158143997,0.12400564551353455
1788656958901977300,10.282977294921874,0.20341812074184418,-0.031154127791523933,0.18814650177955627
1788656958918143500,10.2991435546875,0.18814650177955627,-0.005497787147760391,0.21930062770843506
1788656958934291500,10.31529150390625,0.15454891324043274,0.0354301854968071,0.23090706765651703
1788656958950319900,10.33131982421875,0.13316862285137177,0.019547687843441963,0.192422553896904
1788656958966375700,10.347375732421876,0.13561208546161652,0.015882495790719986,0.11667526513338089
1788656958982485200,10.3634853515625,0.1472185254096985,0.025045474991202354,0.018325956538319588
1788656958998656000,10.379656005859376,0.182648703455925,0.060475658625364304,-0.05253441259264946
1788656959014766300,10.395766357421875,0.23273965716362,0.06230825558304787,-0.08857546001672745
1788656959030788900,10.411788818359375,0.24129177629947662,0.11178833991289139,-0.10201449692249298
1788656959046851000,10.42785107421875,0.24923302233219147,0.1667662113904953,-0.05375614017248154
1788656959062962400,10.44396240234375,0.27611109614372253,0.11545353382825851,-0.054367005825042725
1788656959079135500,10.460135498046874,0.28466320037841797,0.04703662544488907,-0.1062905490398407
1788656959095257000,10.476257080078126,0.2565633952617645,0.03420845419168472,-0.1612684279680252
1788656959111290400,10.492290283203126,0.19792033731937408,-0.0012217304902151227,-0.1820378452539444
1788656959127352000,10.50835205078125,0.12400564551353455,0.02871066704392433,-0.15882496535778046
1788656959143476000,10.52447607421875,0.06536258012056351,0.09407325088977814,-0.1258382350206375
1788656959159649000,10.54064892578125,0.03176499158143997,0.14416420459747314,-0.09162978827953339
1788656959175784700,10.55678466796875,0.01160643994808197,0.14233160018920898,-0.05803219974040985
1788656959191844600,10.5728447265625,0.0024434609804302454,0.10995574295520782,-0.03787364438176155
1788656959207900000,10.58889990234375,0.018325956538319588,0.0861319974064827,-0.051312681287527084
1788656959224032800,10.60503271484375,0.04764748737215996,0.07330382615327835,-0.09040805697441101
1788656959240202500,10.621202392578125,0.07880161702632904,0.04703662544488907,-0.13561208546161652
1788656959256345000,10.637344970703126,0.09040805697441101,0.03237585723400116,-0.16798794269561768
1788656959272395500,10.6533955078125,0.08796459436416626,0.013439035043120384,-0.19486601650714874
1788656959288451300,10.669451416015624,0.06108652427792549,0.00733038317412138,-0.19547687470912933
1788656959304543200,10.685543212890625,0.009773843921720982,-0.005497787147760391,-0.16371189057826996
1788656959320709400,10.70170947265625,-0.018325956538319588,-0.036041051149368286,-0.1111774742603302
1788656959336888600,10.717888671875,-0.05742133408784866,-0.08307767659425735,-0.027488935738801956
1788656959352907500,10.733907470703125,-0.1007927656173706,-0.1111774742603302,0.05742133408784866
1788656959368957400,10.74995751953125,-0.11667526513338089,-0.13927727937698364,0.10201449692249298
1788656959385045500,10.76604541015625,-0.12400564551353455,-0.18570303916931152,0.12461651116609573
1788656959401209000,10.782208984375,-0.11484266817569733,-0.19547687470912933,0.1466076523065567
1788656959417320000,10.79831982421875,-0.11728613078594208,-0.15943582355976105,0.15271630883216858
1788656959433341700,10.814341796875,-0.13744467496871948,-0.10995574295520782,0.1264491081237793
1788656959449397200,10.830397216796875,-0.1618792861700058,-0.05864306539297104,0.07696902006864548
1788656959465492700,10.84649267578125,-0.18325957655906677,-0.05803219974040985,0.0708603709936142
1788656959481660200,10.86266015625,-0.20891591906547546,-0.0959058403968811,0.12767083942890167
1788656959497783000,10.878782958984376,-0.242513507604599,-0.17776179313659668,0.1722639948129654
1788656959513817600,10.894817626953126,-0.24984388053417206,-0.22479841113090515,0.0659734457731247
1788656959529876700,10.910876708984375,-0.2577851414680481,-0.17104226350784302,-0.18325957655906677
1788656959545971200,10.92697119140625,-0.2919935882091522,-0.06902777403593063,-0.41661009192466736
1788656959562135000,10.943135009765625,-0.30115658044815063,0.0910189226269722,-0.5748242139816284
1788656959578240800,10.95924072265625,-0.304210901260376,0.21013765037059784,-0.5247332453727722
1788656959594253800,10.97525390625,-0.304210901260376,0.2076941877603531,-0.3341432809829712
1788656959610306300,10.991306396484376,-0.2565633952617645,0.15393804013729095,-0.04948008432984352
1788656959626371600,11.00737158203125,-0.20525072515010834,0.11728613078594208,0.1973094791173935
1788656959642536000,11.023535888671875,-0.16310101747512817,0.10934487730264664,0.3604104816913605
1788656959658658600,11.039658447265625,-0.13805554807186127,0.10384709388017654,0.4434881806373596
1788656959674683400,11.055683349609374,-0.11728613078594208,0.024434609338641167,0.4398229718208313
1788656959690739200,11.0717392578125,-0.09224065393209457,-0.12828169763088226,0.29565876722335815
1788656959706805000,11.087804931640624,-0.08307767659425735,-0.2376265823841095,0.0910189226269722
1788656959722971600,11.1039716796875,-0.10934487730264664,-0.31581732630729675,-0.13744467496871948
1788656959739104000,11.12010400390625,-0.15577064454555511,-0.3237585723400116,-0.26450464129447937
1788656959755149000,11.136149169921875,-0.22357667982578278,-0.3090978264808655,-0.2981022298336029
1788656959771205600,11.15220556640625,-0.2681698501110077,-0.2382374405860901,-0.26450464129447937
1788656959787289000,11.1682890625,-0.3017674386501312,-0.0708603709936142,-0.1820378452539444
1788656959803453200,11.184453125,-0.323147714138031,0.14538592100143433,-0.07880161702632904
1788656959819595500,11.200595458984376,-0.2968805134296417,0.3066543638706207,0.00733038317412138
1788656959835596000,11.216595947265626,-0.26145032048225403,0.3530801236629486,0.05497787147760391
1788656959851651300,11.2326513671875,-0.2028072625398636,0.31031954288482666,0.08124507963657379
1788656959867735000,11.248735107421876,-0.11850785464048386,0.1973094791173935,0.06902777403593063
1788656959883897300,11.2648974609375,-0.04092797264456749,0.07391469180583954,0.02321287989616394
1788656959900014600,11.2810146484375,0.027488935738801956,-0.05803219974040985,-0.07880161702632904
1788656959916030000,11.297030029296875,0.07147123664617538,-0.12217304855585098,-0.18448130786418915
1788656959932082400,11.31308251953125,0.09162978827953339,-0.12095131725072861,-0.23579397797584534
1788656959948187000,11.329186767578125,0.07757988572120667,-0.08918632566928864,-0.23518311977386475
1788656959964356600,11.345356689453125,0.04642575979232788,-0.06658431142568588,-0.18448130786418915
1788656959980475000,11.361474853515626,0.00427605677396059,-0.048258353024721146,-0.11972958594560623
1788656959996513300,11.37751318359375,-0.015271631069481373,-0.03726277872920036,-0.08491026610136032
1788656960012572200,11.393572265625,-0.03237585723400116,-0.05009094998240471,-0.08674286305904388
1788656960028686300,11.409686279296874,-0.02932153269648552,-0.05314527451992035,-0.0959058403968811
1788656960044850400,11.425850341796876,-0.006719517521560192,-0.02932153269648552,-0.08185594528913498
1788656960060973000,11.44197314453125,0.005497787147760391,-0.006719517521560192,-0.06230825558304787
1788656960077008400,11.45800830078125,0.02871066704392433,0.016493361443281174,-0.027488935738801956
1788656960093060900,11.474060791015624,0.06230825558304787,0.030543262138962746,0.00733038317412138
1788656960109185000,11.49018505859375,0.1062905490398407,0.07269296050071716,0.039095375686883926
1788656960125350400,11.506350341796875,0.15027284622192383,0.11484266817569733,0.09285151958465576
1788656960141480000,11.52247998046875,0.18509216606616974,0.1459967941045761,0.13500121235847473
1788656960157525000,11.53852490234375,0.2125810980796814,0.1612684279680252,0.14355333149433136
1788656960173582800,11.554582763671876,0.23518311977386475,0.14538592100143433,0.13561208546161652
1788656960189716500,11.570716552734375,0.24678955972194672,0.11850785464048386,0.11362093687057495
1788656960205885200,11.58688525390625,0.24678955972194672,0.1160643994808197,0.09957103431224823
1788656960222035700,11.60303564453125,0.2174680233001709,0.1569923609495163,0.11423180252313614
1788656960238089700,11.61908984375,0.1820378452539444,0.1612684279680252,0.1215621829032898
1788656960254141700,11.6351416015625,0.18997909128665924,0.1459967941045761,0.060475658625364304
1788656960270233900,11.65123388671875,0.20891591906547546,0.13988813757896423,-0.051312681287527084
1788656960286392600,11.667392578125,0.22663100063800812,0.06230825558304787,-0.14294247329235077
1788656960302535400,11.683535400390625,0.2718350291252136,-0.036041051149368286,-0.17104226350784302
1788656960318523100,11.699523193359376,0.3176499307155609,-0.11789698898792267,-0.10445795953273773
1788656960334574000,11.715573974609375,0.3439171314239502,-0.13561208546161652,0.005497787147760391
1788656960350655000,11.731655029296874,0.35124751925468445,-0.08246681094169617,0.1264491081237793
1788656960366818600,11.747818603515626,0.3628539443016052,0.042760565876960754,0.2272418737411499
1788656960382923300,11.76392333984375,0.3543018400669098,0.1258382350206375,0.29016098380088806
1788656960398929200,11.77992919921875,0.33719760179519653,0.1258382350206375,0.2987131178379059
1788656960414981600,11.795981689453125,0.3292563557624817,0.06658431142568588,0.2620611786842346
1788656960431067600,11.812067626953125,0.33597588539123535,0.009773843921720982,0.19058994948863983
1788656960447235000,11.828235107421875,0.3445279896259308,-0.02626720629632473,0.11056660860776901
1788656960463354600,11.844354736328125,0.34025195240974426,-0.04459316283464432,0.02382374368607998
1788656960479375600,11.860375732421875,0.3170390725135803,-0.05253441259264946,-0.03848451003432274
1788656960495429600,11.8764296875,0.2883284091949463,-0.005497787147760391,-0.05314527451992035
1788656960511513300,11.892513427734375,0.2577851414680481,0.06658431142568588,-0.04214970022439957
1788656960527680300,11.90868017578125,0.21502456068992615,0.12767083942890167,-0.028099801391363144
1788656960543799600,11.924799560546875,0.17776179313659668,0.12217304855585098,-0.024434609338641167
1788656960559830300,11.940830322265626,0.15393804013729095,0.09651670604944229,-0.021991148591041565
1788656960575887400,11.956887451171875,0.1368338167667389,0.07941248267889023,-0.02871066704392433
1788656960591971000,11.97297119140625,0.11972958594560623,0.09224065393209457,-0.05314527451992035
1788656960608137200,11.98913720703125,0.10262536257505417,0.10201449692249298,-0.09224065393209457
1788656960624268800,12.005268798828125,0.09224065393209457,0.08918632566928864,-0.1215621829032898
1788656960640321300,12.0213212890625,0.07696902006864548,0.060475658625364304,-0.12461651116609573
1788656960656381400,12.03738134765625,0.0659734457731247,0.033597588539123535,-0.11667526513338089
1788656960672477200,12.053477294921874,0.04948008432984352,0.012828170321881771,-0.12767083942890167
1788656960688618500,12.069618408203125,0.0403171069920063,0.015882495790719986,-0.152105450630188
1788656960704765400,12.085765380859375,0.022602014243602753,0.02015855349600315,-0.17348572611808777
1788656960720819500,12.1018193359375,0.01466076634824276,0.033597588539123535,-0.17592918872833252
1788656960736876800,12.117876708984374,0.009162978269159794,0.06291911751031876,-0.16737708449363708
1788656960752968700,12.13396875,-0.00366519158706069,0.09407325088977814,-0.15332718193531036
1788656960777096700,12.1580966796875,-0.003054326167330146,0.08552113175392151,-0.07757988572120667
1788656960793187000,12.17418701171875,-0.003054326167330146,0.04398229718208313,0.015882495790719986
1788656960809349400,12.190349365234376,-0.004886921960860491,0.015271631069481373,0.10201449692249298
1788656960825432300,12.206432373046875,-0.009773843921720982,-0.02687807008624077,0.1411098688840866
1788656960841450500,12.222450439453125,-0.012217304669320583,-0.10751228034496307,0.12828169763088226
1788656960857542700,12.238542724609376,-0.013439035043120384,-0.17348572611808777,0.07147123664617538
1788656960873648400,12.2546484375,-0.02076941914856434,-0.20830504596233368,0.02321287989616394
1788656960889814300,12.270814208984374,-0.03420845419168472,-0.22113321721553802,0.013439035043120384
1788656960905911800,12.286911865234375,-0.06108652427792549,-0.2168571650981903,0.03237585723400116
1788656960921945900,12.30294580078125,-0.08185594528913498,-0.19547687470912933,0.060475658625364304
1788656960938045000,12.319044921875,-0.09834930300712585,-0.1667662113904953,0.09346238523721695
1788656960954165000,12.3351650390625,-0.12034045159816742,-0.13561208546161652,0.11728613078594208
1788656960970329600,12.35132958984375,-0.13866640627384186,-0.1918116807937622,0.04886921867728233
1788656960986433800,12.367433837890625,-0.15271630883216858,-0.17531833052635193,-0.1215621829032898
1788656961002438400,12.3834384765625,-0.20402899384498596,-0.0757472887635231,-0.3744603991508484
1788656961018557400,12.399557373046875,-0.2431243658065796,0.00366519158706069,-0.5583308339118958
1788656961034651600,12.415651611328125,-0.22968533635139465,0.11484266817569733,-0.5155702829360962
1788656961050815000,12.43181494140625,-0.19547687470912933,0.17776179313659668,-0.24984388053417206
1788656961066931500,12.447931396484375,-0.14294247329235077,0.192422553896904,0.19975294172763824
1788656961082915600,12.46391552734375,-0.09896016865968704,0.13500121235847473,0.5564982295036316
1788656961099019300,12.480019287109375,-0.06902777403593063,0.11972958594560623,0.6866125464439392
1788656961115125000,12.496125,-0.03726277872920036,0.1111774742603302,0.6536257863044739
1788656961131292400,12.51229248046875,-0.021380282938480377,0.06352998316287994,0.4508185386657715
1788656961147412700,12.528412841796875,0.009773843921720982,-0.009162978269159794,0.1716531366109848
1788656961163416300,12.544416259765624,0.028099801391363144,-0.0708603709936142,-0.04581489413976669
1788656961179536400,12.560536376953126,0.029932396486401558,-0.15271630883216858,-0.21135938167572021
1788656961195618300,12.576618408203124,-0.01710422709584236,-0.24434609711170197,-0.3078760802745819
1788656961211780600,12.592780517578126,-0.06841690838336945,-0.26572638750076294,-0.3292563557624817
1788656961227852800,12.608852783203124,-0.15515977144241333,-0.1918116807937622,-0.2541199326515198
1788656961243851500,12.6248515625,-0.2474004179239273,-0.036651913076639175,-0.09468411654233932
1788656961259992000,12.640991943359374,-0.2932153046131134,0.09162978827953339,0.06169738993048668
1788656961276084200,12.657084228515625,-0.2919935882091522,0.18020524084568024,0.14355333149433136
1788656961292246000,12.67324609375,-0.2474004179239273,0.25106561183929443,0.16493362188339233
1788656961308320300,12.6893203125,-0.17470745742321014,0.25534167885780334,0.13805554807186127
1788656961324337000,12.7053369140625,-0.10506882518529892,0.19425514340400696,0.09896016865968704
1788656961340438800,12.721438720703125,-0.02687807008624077,0.07330382615327835,0.0507018156349659
1788656961356549600,12.737549560546874,0.029932396486401558,-0.02871066704392433,-0.003054326167330146
1788656961372714800,12.75371484375,0.06536258012056351,-0.06414084881544113,-0.06169738993048668
1788656961388792300,12.769792236328126,0.07147123664617538,-0.0659734457731247,-0.10384709388017654
1788656961404795400,12.78579541015625,0.059864792972803116,-0.07941248267889023,-0.13255776464939117
1788656961420899800,12.80189990234375,0.03481931984424591,-0.11911872029304504,-0.12767083942890167
1788656961437019100,12.81801904296875,0.015882495790719986,-0.14477506279945374,-0.10384709388017654
1788656961453181700,12.834181640625,-0.00733038317412138,-0.12461651116609573,-0.06963863968849182
1788656961469258000,12.850258056640625,-0.025656340643763542,-0.07513642311096191,-0.05497787147760391
1788656961485261300,12.86626123046875,-0.03176499158143997,-0.021380282938480377,-0.05742133408784866
1788656961501373200,12.882373291015625,-0.018936822190880775,0.030543262138962746,-0.08002334833145142
1788656961517493200,12.8984931640625,0.007941247895359993,0.05375614017248154,-0.08124507963657379
1788656961533657900,12.914657958984375,0.051312681287527084,0.05619960278272629,-0.039706241339445114
1788656961549736000,12.93073583984375,0.10690141469240189,0.060475658625364304,0.014049900695681572
1788656961565742600,12.94674267578125,0.15943582355976105,0.0757472887635231,0.06291911751031876
1788656961581872000,12.9628720703125,0.2174680233001709,0.09346238523721695,0.12095131725072861
1788656961598002000,12.979001953125,0.27611109614372253,0.11911872029304504,0.17959438264369965
1788656961614167300,12.995167236328125,0.3194825351238251,0.11362093687057495,0.21991148591041565
1788656961630244400,13.011244384765625,0.3500257730484009,0.10506882518529892,0.252287358045578
1788656961646253600,13.027253662109375,0.32559117674827576,0.14233160018920898,0.2541199326515198
1788656961662350000,13.04335009765625,0.2669481039047241,0.1411098688840866,0.21441370248794556
1788656961678442000,13.05944189453125,0.22052235901355743,0.14355333149433136,0.12095131725072861
1788656961694608000,13.07560791015625,0.18631389737129211,0.23273965716362,0.01466076634824276
1788656961710695200,13.091695068359375,0.15943582355976105,0.25106561183929443,-0.0555887371301651
1788656961726693600,13.107693603515624,0.1722639948129654,0.19608774781227112,-0.06658431142568588
1788656961742809000,13.12380908203125,0.2028072625398636,0.06414084881544113,-0.054367005825042725
1788656961758900700,13.139900634765626,0.23457226157188416,-0.042760565876960754,-0.04642575979232788
1788656961775064000,13.15606396484375,0.25534167885780334,-0.09529497474431992,-0.018325956538319588
1788656961791156000,13.172156005859375,0.2632829248905182,-0.10323622822761536,0.03787364438176155
1788656961807200000,13.188199951171875,0.2583959996700287,-0.07208210229873657,0.14477506279945374
1788656961823291600,13.204291748046876,0.2321287989616394,-0.059864792972803116,0.2480112910270691
1788656961839380200,13.220380126953126,0.20891591906547546,-0.07819075137376785,0.2828305959701538
1788656961855541000,13.236541015625,0.19914206862449646,-0.10995574295520782,0.22663100063800812
1788656961871639300,13.252639404296875,0.19120082259178162,-0.15821409225463867,0.08857546001672745
1788656961887638500,13.268638427734375,0.1973094791173935,-0.17348572611808777,-0.036041051149368286
1788656961903735000,13.284735107421875,0.20525072515010834,-0.16249015927314758,-0.09712757170200348
1788656961919843300,13.30084326171875,0.23090706765651703,-0.16554448008537292,-0.10812314599752426
1788656961936006000,13.317005859375,0.25595253705978394,-0.12950342893600464,-0.07391469180583954
1788656961952111900,13.33311181640625,0.27061331272125244,-0.08368854224681854,-0.05009094998240471
1788656961968111600,13.349111572265626,0.2877175211906433,-0.036041051149368286,-0.07819075137376785
1788656961984225000,13.36522509765625,0.2987131178379059,0.01771509274840355,-0.12950342893600464
1788656962000346400,13.381346435546876,0.27550023794174194,0.02626720629632473,-0.12339477986097336
1788656962016518700,13.3975185546875,0.2376265823841095,0.0012217304902151227,-0.07147123664617538
1788656962032606700,13.413606689453125,0.1973094791173935,0.0012217304902151227,-0.00427605677396059
1788656962048611600,13.429611572265625,0.1661553531885147,0.029932396486401558,0.02626720629632473
1788656962064741400,13.445741455078124,0.11362093687057495,0.039095375686883926,-0.024434609338641167
1788656962080872700,13.461872802734375,0.05925392732024193,0.11178833991289139,-0.13255776464939117
1788656962097038600,13.47803857421875,0.05192354694008827,0.10445795953273773,-0.2528982162475586
1788656962113154000,13.494154052734375,0.06719517707824707,0.06414084881544113,-0.31642818450927734
1788656962129163000,13.5101630859375,0.08491026610136032,-0.0012217304902151227,-0.3384193480014801
1788656962145298700,13.526298583984374,0.11362093687057495,-0.056810468435287476,-0.3439171314239502
1788656962161391000,13.54239111328125,0.1215621829032898,-0.06963863968849182,-0.3378084897994995
1788656962185532400,13.566532470703125,0.13805554807186127,-0.05375614017248154,-0.2669481039047241
1788656962201628200,13.582628173828125,0.13255776464939117,0.0012217304902151227,-0.20402899384498596
1788656962217803500,13.598803466796875,0.10384709388017654,0.027488935738801956,-0.14477506279945374
1788656962233919200,13.614919189453126,0.04642575979232788,0.02321287989616394,-0.06291911751031876
1788656962249957600,13.63095751953125,0.001832595793530345,-0.015271631069481373,0.028099801391363144
1788656962266011600,13.64701171875,-0.03176499158143997,-0.04092797264456749,0.08735372871160507
1788656962282098400,13.663098388671875,-0.05009094998240471,-0.07269296050071716,0.12034045159816742
1788656962298262800,13.6792626953125,-0.05314527451992035,-0.06902777403593063,0.10873401165008545
1788656962314382000,13.695382080078126,-0.06841690838336945,-0.07024950534105301,0.04764748737215996
1788656962330408700,13.71140869140625,-0.07452555745840073,-0.07819075137376785,-0.009773843921720982
1788656962346464000,13.727464111328125,-0.08246681094169617,-0.06658431142568588,-0.02871066704392433
1788656962362539300,13.743539306640624,-0.11545353382825851,0.00366519158706069,0.042760565876960754
1788656962378704000,13.759703857421876,-0.152105450630188,-0.003054326167330146,0.12278391420841217
1788656962394836200,13.775836181640624,-0.18448130786418915,-0.10018189996480942,0.10201449692249298
1788656962410882300,13.79188232421875,-0.21807889640331268,-0.14233160018920898,-0.06230825558304787
1788656962426939600,13.807939697265626,-0.26145032048225403,-0.04398229718208313,-0.32681289315223694
1788656962443002400,13.82400244140625,-0.27550023794174194,0.14966198801994324,-0.4605923891067505
1788656962459163000,13.840162841796875,-0.2681698501110077,0.31031954288482666,-0.36590829491615295
1788656962475272200,13.856272216796874,-0.22052235901355743,0.29077184200286865,-0.06780604273080826
1788656962491291600,13.872291748046875,-0.1563815027475357,0.20402899384498596,0.20830504596233368
1788656962507340800,13.8883408203125,-0.07391469180583954,0.08857546001672745,0.4294382631778717
1788656962523402500,13.904402587890624,-0.014049900695681572,0.04459316283464432,0.513737678527832
1788656962539561500,13.9205615234375,0.013439035043120384,0.05375614017248154,0.4715879559516907
1788656962555679200,13.93667919921875,0.009162978269159794,0.039095375686883926,0.35613444447517395
1788656962571707100,13.95270703125,0.01466076634824276,-0.012828170321881771,0.16859880089759827
1788656962587752700,13.968752685546875,-0.010995574295520782,-0.0708603709936142,-0.006108652334660292
1788656962603819300,13.9848193359375,-0.06169738993048668,-0.09468411654233932,-0.11667526513338089
1788656962619981600,14.000981689453125,-0.13072516024112701,-0.1007927656173706,-0.18997909128665924
1788656962636115000,14.017114990234376,-0.1918116807937622,-0.09285151958465576,-0.19303341209888458
1788656962652104400,14.0331044921875,-0.2431243658065796,-0.059864792972803116,-0.15271630883216858
1788656962668153600,14.049153564453125,-0.2638937830924988,-0.01710422709584236,-0.10995574295520782
1788656962684232000,14.06523193359375,-0.25045475363731384,0.06414084881544113,-0.06230825558304787
1788656962700390000,14.081389892578125,-0.20525072515010834,0.13866640627384186,-0.00366519158706069
1788656962716535000,14.09753515625,-0.14416420459747314,0.1612684279680252,0.04459316283464432
1788656962732542000,14.1135419921875,-0.07635815441608429,0.11301007121801376,0.06291911751031876
1788656962748583000,14.1295830078125,-0.021380282938480377,0.029932396486401558,0.02076941914856434
1788656962764659700,14.14565966796875,0.021991148591041565,-0.04153883829712868,-0.0555887371301651
1788656962780816600,14.161816650390625,0.05009094998240471,-0.08552113175392151,-0.16065755486488342
1788656962796922600,14.177922607421875,0.05925392732024193,-0.1014036312699318,-0.25595253705978394
1788656962812936200,14.193936279296874,0.03848451003432274,-0.056810468435287476,-0.3017674386501312
1788656962828988700,14.20998876953125,0.02015855349600315,-0.02382374368607998,-0.28955012559890747
1788656962845085700,14.226085693359375,0.007941247895359993,0.00855211354792118,-0.23640485107898712
1788656962861247500,14.24224755859375,-0.012828170321881771,0.030543262138962746,-0.18325957655906677
1788656962877362000,14.25836181640625,-0.00733038317412138,0.007941247895359993,-0.17104226350784302
1788656962893382400,14.27438232421875,0.016493361443281174,-0.006108652334660292,-0.16004669666290283
1788656962909434600,14.2904345703125,0.054367005825042725,-0.02076941914856434,-0.13072516024112701
1788656962925544200,14.306544189453126,0.10201449692249298,-0.018325956538319588,-0.08368854224681854
1788656962941709800,14.322709716796876,0.13805554807186127,-0.007941247895359993,-0.031154127791523933
1788656962957833000,14.3388330078125,0.1820378452539444,0.022602014243602753,0.033597588539123535
1788656962973865700,14.35486572265625,0.23151792585849762,0.0555887371301651,0.10690141469240189
1788656962989916700,14.370916748046875,0.26633724570274353,0.08857546001672745,0.16554448008537292
1788656963006036000,14.387035888671875,0.28649580478668213,0.12828169763088226,0.21074850857257843
1788656963022200300,14.403200439453125,0.3090978264808655,0.14844025671482086,0.22357667982578278
1788656963038336000,14.4193359375,0.32498031854629517,0.1362229436635971,0.21135938167572021
1788656963054379000,14.43537890625,0.3390302062034607,0.12828169763088226,0.19792033731937408
1788656963070431000,14.451430908203125,0.34574973583221436,0.15332718193531036,0.1765400618314743
1788656963086510800,14.4675107421875,0.3182607889175415,0.21380282938480377,0.152105450630188
1788656963102680800,14.483680908203125,0.26450464129447937,0.21013765037059784,0.10506882518529892
1788656963118792200,14.499792236328124,0.23884831368923187,0.16798794269561768,0.02626720629632473
1788656963134815500,14.5158154296875,0.2174680233001709,0.18509216606616974,-0.0708603709936142
1788656963150876200,14.531876220703126,0.21074850857257843,0.23151792585849762,-0.13316862285137177
1788656963166942000,14.54794189453125,0.2278527319431305,0.22663100063800812,-0.12889257073402405
1788656963183112000,14.56411181640625,0.2669481039047241,0.16920967400074005,-0.04459316283464432
1788656963199253500,14.58025341796875,0.28955012559890747,0.07147123664617538,0.06658431142568588
1788656963215265500,14.596265625,0.2932153046131134,-0.025045474991202354,0.10201449692249298
1788656963231321600,14.612321533203126,0.2974913716316223,-0.036651913076639175,0.0757472887635231
1788656963247399200,14.628399169921876,0.2968805134296417,0,0.059864792972803116
1788656963263567000,14.644567138671874,0.2889392673969269,0.060475658625364304,0.11850785464048386
1788656963279675100,14.660675048828125,0.27122417092323303,0.09162978827953339,0.21013765037059784
1788656963295689500,14.676689453125,0.25595253705978394,0.09285151958465576,0.2834414839744568
1788656963311746300,14.692746337890625,0.2773328125476837,0.08246681094169617,0.2687807083129883
1788656963327825400,14.708825439453125,0.303600013256073,0.0659734457731247,0.192422553896904
1788656963343998500,14.72499853515625,0.32986724376678467,0.054367005825042725,0.1215621829032898
1788656963360144000,14.741143798828125,0.3536909818649292,0.031154127791523933,0.05803219974040985
1788656963376176000,14.757176025390624,0.3530801236629486,0.01038470957428217,0.03848451003432274
1788656963392231000,14.77323095703125,0.3445279896259308,0.013439035043120384,0.045204028487205505
1788656963408311600,14.7893115234375,0.3182607889175415,0.02015855349600315,0.05619960278272629
1788656963424482000,14.80548193359375,0.26450464129447937,0.016493361443281174,0.03787364438176155
1788656963440613400,14.82161328125,0.1966986060142517,-0.004886921960860491,-0.009773843921720982
1788656963456650800,14.837650634765625,0.14355333149433136,-0.016493361443281174,-0.0555887371301651
1788656963472701000,14.853700927734375,0.09224065393209457,0.0012217304902151227,-0.07208210229873657
1788656963488780000,14.869780029296875,0.05864306539297104,0.03481931984424591,-0.05375614017248154
1788656963504947700,14.88594775390625,0.027488935738801956,0.0708603709936142,-0.03420845419168472
1788656963521085200,14.902085205078125,0.01710422709584236,0.0959058403968811,-0.03237585723400116
1788656963537147100,14.918147216796875,0.02015855349600315,0.0959058403968811,-0.06780604273080826
1788656963553200000,14.9342001953125,0.03237585723400116,0.05375614017248154,-0.11789698898792267
1788656963569283300,14.950283447265624,0.04153883829712868,-0.013439035043120384,-0.1466076523065567
1788656963585450000,14.966449951171874,0.045204028487205505,-0.0910189226269722,-0.1661553531885147
1788656963609541400,14.990541259765624,0.039095375686883926,-0.09773843735456467,-0.16493362188339233
1788656963625705000,15.006705078125,0.028099801391363144,-0.060475658625364304,-0.14416420459747314
1788656963641789700,15.022789794921875,0.010995574295520782,-0.04337143152952194,-0.10751228034496307
1788656963657790200,15.038790283203125,-0.01160643994808197,-0.06108652427792549,-0.06108652427792549
1788656963673882400,15.05488232421875,-0.036651913076639175,-0.10201449692249298,-0.015271631069481373
1788656963689977900,15.070977783203125,-0.04948008432984352,-0.12889257073402405,0.015882495790719986
1788656963706138400,15.087138427734375,-0.06780604273080826,-0.1270599663257599,0.05192354694008827
1788656963722232000,15.103232177734375,-0.09407325088977814,-0.11667526513338089,0.09773843735456467
1788656963738236200,15.119236083984376,-0.10873401165008545,-0.11301007121801376,0.10690141469240189
1788656963754333700,15.135333740234374,-0.10384709388017654,-0.11301007121801376,0.09162978827953339
1788656963770450700,15.15145068359375,-0.09651670604944229,-0.10567969083786011,0.05314527451992035
1788656963786612700,15.16761279296875,-0.0806342139840126,-0.09529497474431992,0.02687807008624077
1788656963802712800,15.183712890625,-0.060475658625364304,-0.0959058403968811,0.039095375686883926
1788656963818711300,15.199711181640625,-0.045204028487205505,-0.12950342893600464,0.08674286305904388
1788656963834810000,15.21581005859375,-0.03481931984424591,-0.16493362188339233,0.15454891324043274
1788656963850933200,15.231933349609376,-0.04581489413976669,-0.15760323405265808,0.19364428520202637
1788656963867095300,15.24809521484375,-0.08246681094169617,-0.21013765037059784,0.10262536257505417
1788656963883202000,15.2642021484375,-0.10873401165008545,-0.20036379992961884,-0.0806342139840126
1788656963899205600,15.28020556640625,-0.13927727937698364,-0.09712757170200348,-0.303600013256073
1788656963915320600,15.296320556640625,-0.18325957655906677,-0.033597588539123535,-0.4386012554168701
1788656963931417900,15.31241796875,-0.19547687470912933,0.05742133408784866,-0.41111230850219727
1788656963947579400,15.328579345703124,-0.192422553896904,0.14294247329235077,-0.17531833052635193
1788656963963695000,15.344695068359375,-0.16249015927314758,0.18081611394882202,0.1368338167667389
1788656963979679200,15.36067919921875,-0.12278391420841217,0.16798794269561768,0.36713001132011414
1788656963995795000,15.376794921875,-0.08735372871160507,0.15027284622192383,0.4758640229701996
1788656964011908900,15.392908935546876,-0.06108652427792549,0.1264491081237793,0.523511528968811
1788656964028069600,15.409069580078125,-0.05619960278272629,0.07513642311096191,0.48869219422340393
1788656964044145200,15.425145263671874,-0.05314527451992035,0.003054326167330146,0.3787364661693573
1788656964060126500,15.44112646484375,-0.05619960278272629,-0.07024950534105301,0.13744467496871948
1788656964076246000,15.45724609375,-0.05742133408784866,-0.07696902006864548,-0.0959058403968811
1788656964092342000,15.473342041015625,-0.08002334833145142,-0.03726277872920036,-0.21930062770843506
1788656964108503800,15.48950390625,-0.1270599663257599,-0.025656340643763542,-0.2541199326515198
1788656964124577500,15.50557763671875,-0.17776179313659668,-0.03237585723400116,-0.2620611786842346
1788656964140566500,15.52156640625,-0.21441370248794556,0.02015855349600315,-0.22052235901355743
1788656964156706300,15.537706298828125,-0.23640485107898712,0.10018189996480942,-0.13377949595451355
1788656964172812000,15.55381201171875,-0.2278527319431305,0.18509216606616974,0.001832595793530345
1788656964188972500,15.56997265625,-0.19853121042251587,0.19486601650714874,0.10751228034496307
1788656964205045800,15.586045654296875,-0.1514945775270462,0.16249015927314758,0.13011430203914642
1788656964221039400,15.602039306640625,-0.09651670604944229,0.1258382350206375,0.07147123664617538
1788656964237130500,15.618130615234374,-0.02626720629632473,0.07819075137376785,-0.025045474991202354
1788656964253235500,15.6342353515625,0.025656340643763542,0.02076941914856434,-0.10751228034496307
1788656964269400000,15.650400146484374,0.05253441259264946,-0.02871066704392433,-0.1466076523065567
1788656964285479000,15.66647900390625,0.06902777403593063,-0.06963863968849182,-0.18081611394882202
1788656964301481500,15.6824814453125,0.06230825558304787,-0.0507018156349659,-0.2028072625398636
1788656964317592600,15.698592529296874,0.045204028487205505,-0.0024434609804302454,-0.20463985204696655
1788656964333705000,15.714705078125,0.024434609338641167,0.025045474991202354,-0.19486601650714874
1788656964349862400,15.7308623046875,0.0012217304902151227,0.029932396486401558,-0.15577064454555511
1788656964365938700,15.746938720703126,-0.007941247895359993,0.025656340643763542,-0.11484266817569733
1788656964381935900,15.762935791015625,-0.004886921960860491,0.012217304669320583,-0.08307767659425735
1788656964398046500,15.77904638671875,0.021380282938480377,0,-0.06230825558304787
1788656964414168600,15.79516845703125,0.06230825558304787,-0.03176499158143997,-0.039095375686883926
1788656964430330600,15.81133056640625,0.1007927656173706,-0.07208210229873657,-0.01160643994808197
1788656964446410500,15.827410400390624,0.13744467496871948,-0.09224065393209457,0.0012217304902151227
1788656964462413000,15.8434130859375,0.17470745742321014,-0.08124507963657379,-0.001832595793530345
1788656964478544600,15.859544677734375,0.20525072515010834,-0.06108652427792549,-0.006108652334660292
1788656964494680600,15.8756806640625,0.22479841113090515,-0.05253441259264946,0.00855211354792118
1788656964510846500,15.891846435546874,0.24678955972194672,-0.04581489413976669,0.05192354694008827
1788656964526923500,15.907923583984376,0.2590068578720093,-0.03298672288656235,0.09162978827953339
1788656964542926300,15.92392626953125,0.25473082065582275,-0.010995574295520782,0.10018189996480942
1788656964559057700,15.9400576171875,0.25045475363731384,-0.010995574295520782,0.09224065393209457
1788656964575151600,15.956151611328124,0.24373523890972137,0.01710422709584236,0.09896016865968704
1788656964591312600,15.972312744140625,0.23151792585849762,0.07696902006864548,0.12889257073402405
1788656964607397600,15.988397705078125,0.2278527319431305,0.14538592100143433,0.16065755486488342
1788656964623393000,16.00439306640625,0.21441370248794556,0.26572638750076294,0.18814650177955627
1788656964639493400,16.020493408203127,0.1966986060142517,0.303600013256073,0.1618792861700058
1788656964655596800,16.0365966796875,0.22113321721553802,0.2779437005519867,0.03176499158143997
1788656964671759400,16.05275927734375,0.2681698501110077,0.33169981837272644,-0.08918632566928864
1788656964687854800,16.068854736328124,0.2987131178379059,0.40133845806121826,-0.15332718193531036
1788656964703813000,16.084813232421876,0.3433062732219696,0.3891211748123169,-0.09651670604944229
1788656964719943400,16.100943359375,0.3995058834552765,0.342695415019989,0.003054326167330146
1788656964736070400,16.1170703125,0.43799036741256714,0.26633724570274353,0.12278391420841217
1788656964752239400,16.1332392578125,0.423329621553421,0.16432274878025055,0.15943582355976105
1788656964768335400,16.14933544921875,0.4355469346046448,0.1264491081237793,0.11423180252313614
1788656964784343800,16.16534375,0.4086688458919525,0.11178833991289139,0.08979719132184982
1788656964800448500,16.181448486328126,0.3683517575263977,0.06841690838336945,0.1258382350206375
1788656964816573000,16.197572998046876,0.32559117674827576,0,0.19914206862449646
1788656964832740900,16.213740966796873,0.2883284091949463,-0.05803219974040985,0.26511552929878235
1788656964848848100,16.22984814453125,0.24923302233219147,-0.10445795953273773,0.27977627515792847
1788656964864849200,16.24584912109375,0.21441370248794556,-0.11850785464048386,0.20036379992961884
1788656964880958200,16.261958251953125,0.22602014243602753,-0.07941248267889023,0.05497787147760391
1788656964897073200,16.2780732421875,0.242513507604599,-0.03237585723400116,-0.05497787147760391
1788656964913237200,16.2942373046875,0.27061331272125244,-0.01038470957428217,-0.13988813757896423
1788656964929351400,16.310351318359373,0.2926044464111328,0.018936822190880775,-0.15454891324043274
1788656964945340200,16.326340087890625,0.29565876722335815,0.04703662544488907,-0.0861319974064827
1788656964961457200,16.34245703125,0.2687807083129883,0.06719517707824707,0.025656340643763542
1788656964977587500,16.35858740234375,0.22968533635139465,0.08185594528913498,0.07757988572120667
1788656964993748000,16.374748046875,0.18509216606616974,0.09224065393209457,0.0403171069920063
1788656965009824800,16.39082470703125,0.13988813757896423,0.11423180252313614,-0.04886921867728233
1788656965025817600,16.406817626953124,0.09285151958465576,0.10873401165008545,-0.1618792861700058
1788656965041948400,16.422948486328124,0.04153883829712868,0.0708603709936142,-0.2278527319431305
1788656965058037000,16.439037109375,-0.00427605677396059,0.03726277872920036,-0.23090706765651703
1788656965074206000,16.4552060546875,-0.04948008432984352,0.013439035043120384,-0.20891591906547546
1788656965090285300,16.471285400390624,-0.08491026610136032,0.0024434609804302454,-0.17531833052635193
1788656965106285000,16.48728515625,-0.10262536257505417,-0.015271631069481373,-0.152105450630188
1788656965122378000,16.5033779296875,-0.10201449692249298,-0.03298672288656235,-0.14294247329235077
1788656965138476000,16.51947607421875,-0.09651670604944229,-0.06841690838336945,-0.10873401165008545
1788656965154635300,16.53563525390625,-0.09773843735456467,-0.1264491081237793,-0.04764748737215996
1788656965170706400,16.55170654296875,-0.10690141469240189,-0.17592918872833252,0.03298672288656235
1788656965186708700,16.567708740234377,-0.13011430203914642,-0.22418753802776337,0.10812314599752426
1788656965202810400,16.583810302734374,-0.16982053220272064,-0.2675589919090271,0.19120082259178162
1788656965226994400,16.607994384765625,-0.26145032048225403,-0.27122417092323303,0.28527405858039856
1788656965243052300,16.62405224609375,-0.32681289315223694,-0.2376265823841095,0.3023782968521118
1788656965259130600,16.640130615234376,-0.3885102868080139,-0.2119702398777008,0.27488934993743896
1788656965275300600,16.656300537109374,-0.4550946056842804,-0.1814269721508026,0.21930062770843506
1788656965291433700,16.672433837890626,-0.5094616413116455,-0.16554448008537292,0.16249015927314758
1788656965307474400,16.688474365234374,-0.5381723046302795,-0.1661553531885147,0.13927727937698364
1788656965323530000,16.704530029296876,-0.5461135506629944,-0.1716531366109848,0.14049901068210602
1788656965339609900,16.72060986328125,-0.5497786998748779,-0.182648703455925,0.14355333149433136
1788656965355775500,16.736775390625,-0.5607742667198181,-0.2168571650981903,0.12095131725072861
1788656965371911000,16.752910888671874,-0.5809328556060791,-0.24617868661880493,0.0757472887635231
1788656965387978200,16.768978271484375,-0.6010913848876953,-0.2779437005519867,0.00366519158706069
1788656965404037400,16.785037353515627,-0.6346889734268188,-0.3072652220726013,-0.06963863968849182
1788656965420127000,16.801126953125,-0.675616979598999,-0.3182607889175415,-0.14416420459747314
1788656965436297500,16.81729736328125,-0.7000515460968018,-0.29626965522766113,-0.18448130786418915
1788656965452441000,16.833441162109374,-0.6976081132888794,-0.21563543379306793,-0.19486601650714874
1788656965468490800,16.84949072265625,-0.6585127115249634,-0.09346238523721695,-0.18814650177955627
1788656965484547800,16.8655478515625,-0.6010913848876953,-0.004886921960860491,-0.1472185254096985
1788656965500629800,16.881629638671875,-0.5326744914054871,0.021380282938480377,-0.06475171446800232
1788656965516797700,16.897797607421875,-0.44654250144958496,-0.005497787147760391,0.06352998316287994
1788656965532946700,16.91394677734375,-0.3732386529445648,-0.05925392732024193,0.16065755486488342
1788656965548952800,16.929952880859375,-0.3188716471195221,-0.09896016865968704,0.19364428520202637
1788656965565008600,16.946008544921874,-0.28649580478668213,-0.1319468915462494,0.17043140530586243
1788656965581088000,16.962087890625,-0.2724458873271942,-0.12095131725072861,0.11362093687057495
1788656965597252900,16.9782529296875,-0.26145032048225403,-0.13988813757896423,0.04581489413976669
1788656965613460000,16.9944599609375,-0.25595253705978394,-0.16065755486488342,-0.004886921960860491
1788656965629477600,17.0104775390625,-0.2681698501110077,-0.22357667982578278,-0.05864306539297104
1788656965645534700,17.02653466796875,-0.29077184200286865,-0.2773328125476837,-0.09285151958465576
1788656965661628400,17.04262841796875,-0.32131510972976685,-0.29565876722335815,-0.11972958594560623
1788656965677796400,17.05879638671875,-0.3488040566444397,-0.27977627515792847,-0.13744467496871948
1788656965693908200,17.074908203125,-0.3640756905078888,-0.2382374405860901,-0.12278391420841217
1788656965709928700,17.0909287109375,-0.36163222789764404,-0.1814269721508026,-0.07819075137376785
1788656965725985500,17.106985595703126,-0.3530801236629486,-0.13866640627384186,-0.048258353024721146
1788656965742096400,17.123096435546874,-0.3237585723400116,-0.11362093687057495,-0.0507018156349659
1788656965758263600,17.139263671875,-0.2773328125476837,-0.09712757170200348,-0.09224065393209457
1788656965774381000,17.155381103515627,-0.22418753802776337,-0.09773843735456467,-0.12767083942890167
1788656965790412800,17.171412841796876,-0.17104226350784302,-0.09040805697441101,-0.1411098688840866
1788656965806469600,17.1874697265625,-0.13011430203914642,-0.08429940044879913,-0.11789698898792267
1788656965822604500,17.2036044921875,-0.09651670604944229,-0.08307767659425735,-0.07819075137376785
1788656965838773800,17.219773681640625,-0.08002334833145142,-0.07513642311096191,-0.05619960278272629
1788656965854906400,17.23590625,-0.07330382615327835,-0.05803219974040985,-0.05375614017248154
1788656965870945500,17.251945556640624,-0.07757988572120667,-0.045204028487205505,-0.054367005825042725
1788656965887007000,17.268007080078124,-0.0806342139840126,-0.04398229718208313,-0.039095375686883926
1788656965903127000,17.284126953125,-0.08979719132184982,-0.05375614017248154,-0.013439035043120384
1788656965919298000,17.300298095703123,-0.09346238523721695,-0.07024950534105301,0.0024434609804302454
1788656965935442200,17.316442138671874,-0.09346238523721695,-0.07757988572120667,-0.0024434609804302454
1788656965951490000,17.332489990234375,-0.0910189226269722,-0.06291911751031876,-0.025656340643763542
1788656965967544800,17.348544921875,-0.08491026610136032,-0.04214970022439957,-0.048258353024721146
1788656965983625200,17.364625244140626,-0.06719517707824707,-0.021380282938480377,-0.05497787147760391
1788656965999795200,17.380795166015623,-0.05375614017248154,-0.013439035043120384,-0.03481931984424591
1788656966015951600,17.39695166015625,-0.042760565876960754,-0.012828170321881771,-0.018936822190880775
1788656966031966200,17.41296630859375,-0.02015855349600315,-0.00855211354792118,-0.009162978269159794
1788656966047996700,17.42899658203125,0.010995574295520782,0.006108652334660292,-0.0006108652451075613
1788656966064078800,17.445078857421876,0.03481931984424591,0.02321287989616394,0.00427605677396059
1788656966080253200,17.461253173828126,0.06414084881544113,0.02932153269648552,0.014049900695681572
1788656966096372700,17.477372802734376,0.08735372871160507,0.04092797264456749,0.018325956538319588
1788656966112399400,17.4933994140625,0.0959058403968811,0.04886921867728233,0.0024434609804302454
1788656966128458500,17.50945849609375,0.09896016865968704,0.04764748737215996,-0.02076941914856434
1788656966144536600,17.52553662109375,0.09773843735456467,0.04092797264456749,-0.03848451003432274
1788656966160700000,17.541699951171875,0.08979719132184982,0.04153883829712868,-0.018325956538319588
1788656966176821800,17.55782177734375,0.08246681094169617,0.042760565876960754,0.010995574295520782
1788656966192851200,17.573851318359374,0.07941248267889023,0.04764748737215996,0.04153883829712868
1788656966208913000,17.589912841796874,0.0757472887635231,0.039706241339445114,0.0507018156349659
1788656966224997400,17.605997314453123,0.08552113175392151,0.019547687843441963,0.03726277872920036
1788656966241167600,17.622167724609376,0.10262536257505417,0.01038470957428217,0.018325956538319588
1788656966257299200,17.63829931640625,0.10690141469240189,-0.028099801391363144,0.013439035043120384
1788656966273344000,17.654343994140625,0.10201449692249298,-0.0555887371301651,0.02076941914856434
1788656966289399800,17.67039990234375,0.10445795953273773,-0.05192354694008827,0.03481931984424591
1788656966305484800,17.68648486328125,0.10812314599752426,-0.02382374368607998,0.031154127791523933
1788656966321656000,17.702656005859374,0.10323622822761536,-0.004886921960860491,-0.00427605677396059
1788656966337793300,17.718793212890624,0.10445795953273773,0.019547687843441963,-0.05192354694008827
1788656966353846500,17.734846435546874,0.11301007121801376,0.03726277872920036,-0.05864306539297104
1788656966369899000,17.75089892578125,0.11545353382825851,0.06719517707824707,-0.03848451003432274
1788656966385973000,17.766972900390623,0.11850785464048386,0.08796459436416626,0.006108652334660292
1788656966402135300,17.78313525390625,0.12339477986097336,0.06536258012056351,0.05925392732024193
1788656966418274600,17.799274658203124,0.13866640627384186,0.04214970022439957,0.1062905490398407
1788656966434278400,17.8152783203125,0.14538592100143433,0.018325956538319588,0.13011430203914642
1788656966450334000,17.831333984375,0.17104226350784302,0.018936822190880775,0.09957103431224823
1788656966466410000,17.847409912109374,0.19058994948863983,0.02626720629632473,0.04092797264456749
1788656966482573600,17.863573486328125,0.1765400618314743,0.03420845419168472,0.0006108652451075613
1788656966498726700,17.8797265625,0.15027284622192383,0.05314527451992035,-0.006108652334660292
1788656966514728700,17.895728759765625,0.1319468915462494,0.06475171446800232,0.00733038317412138
1788656966530784500,17.911784423828124,0.1062905490398407,0.054367005825042725,0.016493361443281174
1788656966546876400,17.92787646484375,0.09773843735456467,0.039706241339445114,0
1788656966563045000,17.944045166015623,0.08979719132184982,0.04153883829712868,-0.02626720629632473
1788656966579159600,17.96015966796875,0.07880161702632904,0.06230825558304787,-0.036041051149368286
1788656966595183400,17.976183349609375,0.07452555745840073,0.08552113175392151,-0.030543262138962746
1788656966611242800,17.99224267578125,0.06902777403593063,0.09346238523721695,-0.016493361443281174
1788656966627344100,18.00834423828125,0.08246681094169617,0.08979719132184982,-0.009162978269159794
1788656966643510800,18.0245107421875,0.09529497474431992,0.08368854224681854,-0.015271631069481373
1788656966659622100,18.0406220703125,0.10262536257505417,0.07391469180583954,-0.03481931984424591
1788656966675648300,18.056648193359376,0.1014036312699318,0.048258353024721146,-0.04092797264456749
1788656966691709000,18.072708984375,0.09712757170200348,0.027488935738801956,-0.021991148591041565
1788656966707837700,18.088837646484375,0.08307767659425735,0.028099801391363144,0.00855211354792118
1788656966724009000,18.105009033203125,0.0659734457731247,0.04337143152952194,0.025656340643763542
1788656966740138000,18.121137939453124,0.05314527451992035,0.05375614017248154,0.02015855349600315
1788656966756179000,18.137178955078124,0.0507018156349659,0.06291911751031876,0.012217304669320583
1788656966772238300,18.15323828125,0.04886921867728233,0.05742133408784866,0.006719517521560192
1788656966788363000,18.169363037109374,0.04948008432984352,0.03176499158143997,-0.0012217304902151227
1788656966804536000,18.1855361328125,0.0555887371301651,0.012828170321881771,-0.015882495790719986
1788656966820676000,18.201676025390626,0.05497787147760391,0.01038470957428217,-0.013439035043120384
1788656966836726300,18.217726318359375,0.04886921867728233,0.018325956538319588,0.004886921960860491
1788656966852779300,18.233779296875,0.042760565876960754,0.03420845419168472,0.01466076634824276
1788656966868907500,18.249907470703125,0.029932396486401558,0.022602014243602753,0.022602014243602753
1788656966885073400,18.266073486328125,0.028099801391363144,0.025045474991202354,0.01710422709584236
1788656966901219000,18.282218994140624,0.02626720629632473,0.036041051149368286,0.019547687843441963
1788656966917230800,18.29823095703125,0.02321287989616394,0.031154127791523933,0.010995574295520782
1788656966933288400,18.314288330078124,0.015882495790719986,0.006108652334660292,-0.010995574295520782
1788656966949371000,18.330370849609373,0.006719517521560192,-0.022602014243602753,-0.024434609338641167
1788656966965538000,18.3465380859375,-0.0024434609804302454,-0.03726277872920036,-0.02932153269648552
1788656966981646600,18.362646484375,-0.015271631069481373,-0.02382374368607998,-0.02382374368607998
1788656966997660700,18.37866064453125,-0.03726277872920036,-0.00366519158706069,-0.009162978269159794
1788656967013716700,18.394716796875,-0.0507018156349659,-0.0006108652451075613,-0.0006108652451075613
1788656967029796000,18.410796142578125,-0.06291911751031876,0.004886921960860491,0.0024434609804302454
1788656967045962500,18.42696240234375,-0.09407325088977814,0.01160643994808197,-0.0012217304902151227
1788656967062072800,18.44307275390625,-0.11178833991289139,0.016493361443281174,-0.004886921960860491
1788656967078093000,18.459093017578127,-0.1313360333442688,0.0024434609804302454,-0.001832595793530345
1788656967094146800,18.475146728515625,-0.1661553531885147,-0.012828170321881771,-0.00366519158706069
1788656967110225200,18.49122509765625,-0.2064724564552307,-0.039706241339445114,0
1788656967126393900,18.507393798828126,-0.2675589919090271,-0.05497787147760391,-0.012828170321881771
1788656967142516200,18.52351611328125,-0.3219259977340698,-0.06230825558304787,-0.02871066704392433
1788656967158551000,18.539551025390626,-0.39156460762023926,-0.07147123664617538,-0.021991148591041565
1788656967174607000,18.555607177734377,-0.46731191873550415,-0.08246681094169617,-0.014049900695681572
1788656967190688000,18.57168798828125,-0.5375614166259766,-0.1014036312699318,-0.025045474991202354
1788656967206856000,18.58785595703125,-0.6230825781822205,-0.11056660860776901,-0.02321287989616394
1788656967222990600,18.603990478515627,-0.7012733221054077,-0.13927727937698364,-0.022602014243602753
1788656967239036400,18.620036376953124,-0.7672467231750488,-0.17104226350784302,-0.05314527451992035
1788656967255099400,18.636099365234376,-0.8222246170043945,-0.21380282938480377,-0.08002334833145142
1788656967271187700,18.652187744140626,-0.9004153609275818,-0.2626720666885376,-0.1014036312699318
1788656967287359000,18.66835888671875,-0.9706648588180542,-0.3176499307155609,-0.12767083942890167
1788656967303499000,18.6844990234375,-1.0500773191452026,-0.33292156457901,-0.1411098688840866
1788656967319551000,18.700551025390624,-1.1203268766403198,-0.3579670190811157,-0.15943582355976105
1788656967335612200,18.716612060546876,-1.188132882118225,-0.3891211748123169,-0.19792033731937408
1788656967351701500,18.732701416015626,-1.2455542087554932,-0.42638394236564636,-0.23640485107898712
1788656967367874300,18.748874267578124,-1.2944234609603882,-0.4599815309047699,-0.2632829248905182
1788656967384045300,18.76504541015625,-1.3335188627243042,-0.5076290369033813,-0.28649580478668213
1788656967400054300,18.78105419921875,-1.3652838468551636,-0.5442809462547302,-0.2828305959701538
1788656967416114200,18.7971142578125,-1.4202617406845093,-0.5406157374382019,-0.24984388053417206
1788656967432200000,18.813199951171875,-1.4672982692718506,-0.5076290369033813,-0.19975294172763824
1788656967448374800,18.829374755859376,-1.5247195959091187,-0.47219884395599365,-0.1319468915462494
1788656967464526800,18.84552685546875,-1.5906931161880493,-0.45265114307403564,-0.10323622822761536
1788656967480537900,18.861537841796874,-1.6536122560501099,-0.47219884395599365,-0.13805554807186127
1788656967496596500,18.877596435546874,-1.7165313959121704,-0.5400048494338989,-0.251676470041275
1788656967512683500,18.89368359375,-1.7427985668182373,-0.5619960427284241,-0.33475416898727417
1788656967528853000,18.90985302734375,-1.7739527225494385,-0.5387831330299377,-0.31642818450927734
1788656967545008400,18.92600830078125,-1.7757853269577026,-0.4703662395477295,-0.23335053026676178
1788656967561026000,18.942026123046876,-1.7550158500671387,-0.3781255781650543,-0.09529497474431992
1788656967577085000,18.9580849609375,-1.7354681491851807,-0.29504790902137756,0.0403171069920063
1788656967593182700,18.9741826171875,-1.700037956237793,-0.24984388053417206,0.12461651116609573
1788656967609351000,18.990350830078125,-1.6548339128494263,-0.23151792585849762,0.18020524084568024
1788656967625465000,19.006465087890625,-1.6071864366531372,-0.23884831368923187,0.20525072515010834
1788656967641485800,19.02248583984375,-1.578475832939148,-0.26511552929878235,0.19608774781227112
1788656967657544700,19.038544677734375,-1.557706356048584,-0.2828305959701538,0.17104226350784302
1788656967673655000,19.054655029296875,-1.531439185142517,-0.28038713335990906,0.13072516024112701
1788656967689828600,19.07082861328125,-1.5192219018936157,-0.27550023794174194,0.0959058403968811
1788656967705954800,19.086954833984375,-1.5149458646774292,-0.2773328125476837,0.07208210229873657
1788656967721991400,19.102991455078126,-1.5247195959091187,-0.2675589919090271,0.0708603709936142
1788656967738051000,19.119051025390625,-1.5448782444000244,-0.2822197377681732,0.07147123664617538
1788656967754166500,19.13516650390625,-1.540602207183838,-0.3084869384765625,0.0555887371301651
1788656967770335000,19.1513349609375,-1.5351043939590454,-0.3378084897994995,0.028099801391363144
1788656967786468000,19.167468017578123,-1.5265522003173828,-0.36590829491615295,-0.0012217304902151227
1788656967802512600,19.1835126953125,-1.518610954284668,-0.3549126982688904,-0.022602014243602753
1788656967818573800,19.19957373046875,-1.5008958578109741,-0.33536502718925476,-0.02687807008624077
1788656967834705700,19.21570556640625,-1.470963478088379,-0.3023782968521118,-0.004886921960860491
1788656967850881500,19.231881591796874,-1.4355332851409912,-0.24190263450145721,0.04153883829712868
1788656967867030000,19.248030029296874,-1.3866641521453857,-0.19058994948863983,0.0708603709936142
1788656967883086000,19.264086181640625,-1.3365731239318848,-0.1618792861700058,0.06902777403593063
1788656967899150000,19.280150146484374,-1.274264931678772,-0.1411098688840866,0.036041051149368286
1788656967915241000,19.296240966796876,-1.2095131874084473,-0.19914206862449646,-0.029932396486401558
1788656967931413500,19.31241357421875,-1.1539244651794434,-0.31154128909111023,-0.11789698898792267
1788656967947569400,19.3285693359375,-1.1068878173828125,-0.35063666105270386,-0.16737708449363708
1788656967963587000,19.344587158203126,-1.0671815872192383,-0.294437050819397,-0.152105450630188
1788656967979646000,19.36064599609375,-1.0384708642959595,-0.16249015927314758,-0.0555887371301651
1788656967995729700,19.376729736328127,-1.006095051765442,-0.08429940044879913,0.07147123664617538
1788656968011895600,19.3928955078125,-0.96883225440979,-0.1014036312699318,0.21624629199504852
1788656968028006700,19.409006591796874,-0.9224064946174622,-0.18997909128665924,0.2718350291252136
1788656968044025600,19.425025634765625,-0.8796459436416626,-0.2565633952617645,0.2223549485206604
1788656968060088600,19.441088623046873,-0.8668177723884583,-0.2736676335334778,0.13866640627384186
1788656968076176400,19.45717626953125,-0.8747590184211731,-0.2779437005519867,0.06841690838336945
1788656968092348200,19.47334814453125,-0.9028588533401489,-0.28466320037841797,0.07208210229873657
1788656968108468700,19.48946875,-0.9266825914382935,-0.2871066629886627,0.1111774742603302
1788656968124499200,19.505499267578124,-0.950506329536438,-0.2889392673969269,0.15027284622192383
1788656968140560100,19.52156005859375,-0.9584475755691528,-0.2871066629886627,0.1411098688840866
1788656968156652800,19.53765283203125,-0.9529497623443604,-0.2816088795661926,0.09224065393209457
1788656968172823800,19.55382373046875,-0.9382890462875366,-0.2785545587539673,0.05375614017248154
1788656968188963000,19.569963134765626,-0.9254608750343323,-0.2877175211906433,0.036651913076639175
1788656968205014300,19.58601416015625,-0.9248499870300293,-0.28038713335990906,0.05864306539297104
1788656968221077500,19.602077392578124,-0.9193521738052368,-0.2528982162475586,0.09651670604944229
1788656968237170400,19.61817041015625,-0.9028588533401489,-0.192422553896904,0.13316862285137177
1788656968253345000,19.634344970703125,-0.93095862865448,-0.11545353382825851,0.17043140530586243
1788656968269489400,19.650489501953125,-0.9193521738052368,-0.08002334833145142,0.18936823308467865
1788656968285544400,19.66654443359375,-0.8906415104866028,-0.06414084881544113,0.1918116807937622
1788656968301608000,19.68260791015625,-0.8491026759147644,-0.0659734457731247,0.17898350954055786
