time,seconds_elapsed,z,y,x
1788656948793960200,0.174960205078125,-80.51200103759766,-40.28300094604492,-44.74700164794922
1788656948818090500,0.199090576171875,-2.5450000762939453,-10.2160005569458,-15.141000747680664
1788656948834199800,0.21519970703125,-3.7140002250671387,-11.295000076293945,-15.862000465393066
1788656948858316000,0.23931591796875,-1.4760000705718994,-11.726000785827637,-15.766000747680664
1788656948874446600,0.255446533203125,-3.997000217437744,-12.894001007080078,-15.26400089263916
1788656948890435800,0.271435791015625,-4.022000312805176,-12.261000633239746,-15.972001075744629
1788656948906483000,0.28748291015625,-4.031000137329102,-11.618000984191895,-15.9660005569458
1788656948922559200,0.303559326171875,-4.002000331878662,-12.033000946044922,-14.951001167297363
1788656948938715600,0.319715576171875,-3.2890002727508545,-12.484000205993652,-16.586000442504883
1788656948954859000,0.33585888671875,-3.188000202178955,-10.00200080871582,-15.24000072479248
1788656948970862000,0.351862060546875,-3.830000162124634,-12.058000564575195,-16.78499984741211
1788656948986906600,0.36790673828125,-3.814000129699707,-11.291000366210938,-15.556000709533691
1788656949002980900,0.38398095703125,-3.9060001373291016,-11.498000144958496,-15.04800033569336
1788656949019137000,0.400136962890625,-4.011000156402588,-12.254000663757324,-15.462000846862793
1788656949035237600,0.416237548828125,-4.896000385284424,-10.97700023651123,-16.26500129699707
1788656949051252700,0.432252685546875,-4.111999988555908,-12.575000762939453,-15.465001106262207
1788656949067298600,0.448298583984375,-2.748000144958496,-11.398000717163086,-15.456000328063965
1788656949083380200,0.464380126953125,-3.9000000953674316,-11.063000679016113,-14.535000801086426
1788656949099538700,0.48053857421875,-2.4240000247955322,-10.963000297546387,-14.944000244140625
1788656949115648300,0.496648193359375,-3.0850000381469727,-10.869000434875488,-15.961000442504883
1788656949131674000,0.512674072265625,-4.031000137329102,-11.402000427246094,-15.862000465393066
1788656949147724500,0.528724609375,-4.252000331878662,-10.326000213623047,-15.547000885009766
1788656949163807500,0.544807373046875,-2.9790000915527344,-10.761000633239746,-15.858000755310059
1788656949179971800,0.560971923828125,-3.4820001125335693,-10.959000587463379,-14.738000869750977
1788656949196099800,0.577099853515625,-2.7320001125335693,-11.280000686645508,-14.640000343322754
1788656949212140000,0.59314013671875,-3.6080002784729004,-10.971000671386719,-15.655000686645508
1788656949228193300,0.609193359375,-2.624000072479248,-11.38800048828125,-14.641000747680664
1788656949244274400,0.6252744140625,-5.734000205993652,-10.969000816345215,-15.754000663757324
1788656949260440800,0.64144091796875,-4.770000457763672,-11.722000122070312,-15.86400032043457
1788656949276576800,0.65757666015625,-5.179000377655029,-12.03600025177002,-15.357000350952148
1788656949292625700,0.673625732421875,-4.021000385284424,-10.63900089263916,-14.939001083374023
1788656949308676900,0.6896767578125,-5.269000053405762,-13.755001068115234,-15.678000450134277
1788656949324758500,0.705758544921875,-2.6580002307891846,-10.544000625610352,-15.653000831604004
1788656949340922000,0.721922119140625,-3.4030001163482666,-11.94800090789795,-16.58100128173828
1788656949357068500,0.738068603515625,-4.660000324249268,-10.855000495910645,-15.144001007080078
1788656949373074700,0.75407470703125,-2.308000087738037,-12.362000465393066,-15.36400032043457
1788656949389125400,0.77012548828125,-3.94100022315979,-11.736001014709473,-16.782001495361328
1788656949405209600,0.786209716796875,-3.886000156402588,-12.783000946044922,-14.958001136779785
1788656949421370600,0.80237060546875,-2.0910000801086426,-12.03600025177002,-14.953001022338867
1788656949437521000,0.81852099609375,-2.930000066757202,-13.109000205993652,-15.166000366210938
1788656949453523500,0.8345234375,-4.341000080108643,-11.720000267028809,-15.661001205444336
1788656949469575700,0.85057568359375,-2.8530001640319824,-11.505000114440918,-15.457000732421875
1788656949485668600,0.866668701171875,-2.955000162124634,-11.503000259399414,-15.253000259399414
1788656949501829400,0.882829345703125,-2.830000162124634,-11.708000183105469,-14.542000770568848
1788656949517932300,0.898932373046875,-3.7170002460479736,-11.081000328063965,-15.860000610351562
1788656949533951700,0.91495166015625,-4.3510003089904785,-11.294000625610352,-15.861001014709473
1788656949550000400,0.93100048828125,-4.526000022888184,-12.568000793457031,-14.955000877380371
1788656949566103600,0.947103515625,-4.565000057220459,-11.402000427246094,-15.963000297546387
1788656949582263600,0.963263671875,-4.11899995803833,-11.931000709533691,-15.357000350952148
1788656949598377500,0.97937744140625,-2.9700000286102295,-10.86400032043457,-15.553000450134277
1788656949614404400,0.995404296875,-2.3030002117156982,-13.224000930786133,-15.677000999450684
1788656949630455800,1.011455810546875,-3.7780001163482666,-11.918000221252441,-14.339000701904297
1788656949646571000,1.027571044921875,-3.1510002613067627,-12.790000915527344,-15.36600112915039
1788656949662736000,1.04373583984375,-4.6650004386901855,-12.480000495910645,-16.380001068115234
1788656949678859000,1.05985888671875,-3.7110002040863037,-11.510000228881836,-15.86400032043457
1788656949694900200,1.075900146484375,-2.8430001735687256,-12.904000282287598,-15.87700080871582
1788656949710951000,1.091950927734375,-3.8030002117156982,-11.717000961303711,-15.356000900268555
1788656949727076000,1.108076171875,-4.225000381469727,-12.579000473022461,-15.770000457763672
1788656949743240000,1.124239990234375,-4.240000247955322,-12.372000694274902,-16.277999877929688
1788656949759376100,1.140376220703125,-6.212000370025635,-12.665000915527344,-14.444000244140625
1788656949775424000,1.156424072265625,-3.302000045776367,-11.736001014709473,-16.681001663208008
1788656949791475500,1.172475341796875,-3.9220001697540283,-12.156000137329102,-16.17500114440918
1788656949807556900,1.188556884765625,-4.160000324249268,-10.443000793457031,-16.261001586914062
1788656949823720400,1.204720458984375,-2.5440001487731934,-11.296000480651855,-15.761000633239746
1788656949839864000,1.220864013671875,-4.761000156402588,-12.581000328063965,-15.974000930786133
1788656949855869400,1.236869384765625,-3.5930001735687256,-12.043000221252441,-15.665000915527344
1788656949871922000,1.252921875,-3.696000099182129,-11.284000396728516,-15.047000885009766
1788656949888005000,1.269005126953125,-5.099000453948975,-11.836000442504883,-16.374000549316406
1788656949904169700,1.285169677734375,-3.7810001373291016,-11.703001022338867,-14.337000846862793
1788656949920278000,1.301278076171875,-5.615000247955322,-12.258000373840332,-15.970001220703125
1788656949936300300,1.31730029296875,-3.701000213623047,-10.747000694274902,-14.940000534057617
1788656949952326400,1.333326416015625,-3.5910000801086426,-12.042000770568848,-15.563000679016113
1788656949968413200,1.3494130859375,-2.635000228881836,-11.9350004196167,-15.461000442504883
1788656949984583400,1.36558349609375,-4.75700044631958,-11.390000343322754,-15.046000480651855
1788656950000700700,1.38170068359375,-5.627000331878662,-12.04900074005127,-16.375
1788656950016730600,1.397730712890625,-5.521000385284424,-11.834000587463379,-16.272001266479492
1788656950032784400,1.413784423828125,-4.039000034332275,-11.515000343322754,-16.270999908447266
1788656950048871200,1.42987109375,-4.14300012588501,-11.837000846862793,-16.375
1788656950065037300,1.446037353515625,-4.76200008392334,-12.474000930786133,-15.973000526428223
1788656950081156400,1.46215625,-2.8320000171661377,-12.357000350952148,-15.057001113891602
1788656950097194000,1.478194091796875,-3.7080001831054688,-12.26400089263916,-16.176000595092773
1788656950113243100,1.4942431640625,-4.9770002365112305,-11.50200080871582,-15.454000473022461
1788656950129322500,1.510322509765625,-3.2750000953674316,-11.395000457763672,-15.25200080871582
1788656950145485000,1.526485107421875,-2.439000129699707,-11.729000091552734,-16.071001052856445
1788656950161612000,1.542612060546875,-2.6740000247955322,-11.202000617980957,-16.779001235961914
1788656950177659400,1.558659423828125,-4.825000286102295,-12.772000312805176,-14.243000984191895
1788656950193712600,1.574712646484375,-3.5250000953674316,-10.985000610351562,-16.674001693725586
1788656950209793500,1.59079345703125,-3.4240002632141113,-13.366000175476074,-18.427000045776367
1788656950225960000,1.6069599609375,-4.160000324249268,-11.0910005569458,-16.674001693725586
1788656950242090200,1.62309033203125,-4.136000156402588,-11.509000778198242,-15.863000869750977
1788656950258086100,1.639086181640625,-3.931000232696533,-11.29800033569336,-16.065000534057617
1788656950274134000,1.655134033203125,-3.9280002117156982,-11.188000679016113,-15.860000610351562
1788656950290217200,1.67121728515625,-2.622000217437744,-13.008000373840332,-15.57300090789795
1788656950306375000,1.687375,-3.4780001640319824,-12.68600082397461,-15.671000480651855
1788656950322520300,1.703520263671875,-3.4800002574920654,-11.930000305175781,-15.256000518798828
1788656950338525200,1.719525146484375,-3.062000036239624,-11.611001014709473,-15.356000900268555
1788656950354572000,1.735572021484375,-5.164000034332275,-11.16200065612793,-14.12700080871582
1788656950370658000,1.751657958984375,-4.577000141143799,-11.518000602722168,-16.576000213623047
1788656950386816800,1.767816650390625,-3.004000186920166,-10.236000061035156,-16.668001174926758
1788656950402966300,1.78396630859375,-4.75100040435791,-12.791000366210938,-15.670001029968262
1788656950418981000,1.799981201171875,-3.704000234603882,-10.857000350952148,-15.145000457763672
1788656950435036200,1.8160361328125,-2.946000099182129,-11.930000305175781,-15.155000686645508
1788656950451141400,1.832141357421875,-3.950000286102295,-11.741000175476074,-17.190000534057617
1788656950467310000,1.84831005859375,-4.674000263214111,-10.86400032043457,-15.755001068115234
1788656950483427300,1.86442724609375,-2.8470001220703125,-11.610000610351562,-15.254000663757324
1788656950499452200,1.8804521484375,-4.142000198364258,-10.432000160217285,-15.446001052856445
1788656950515507500,1.896507568359375,-2.0830001831054688,-11.92300033569336,-14.545001029968262
1788656950531618800,1.912618896484375,-2.4660000801086426,-10.44800090789795,-16.46700096130371
1788656950547788000,1.9287880859375,-5.505000114440918,-12.040000915527344,-15.66200065612793
1788656950563911400,1.944911376953125,-2.749000072479248,-11.831000328063965,-15.766000747680664
1788656950579957000,1.96095703125,-3.576000213623047,-12.46500015258789,-15.159000396728516
1788656950596013300,1.977013427734375,-4.308000087738037,-11.808000564575195,-14.236001014709473
1788656950612136700,1.99313671875,-4.026000022888184,-12.155000686645508,-16.072999954223633
1788656950628300000,2.009300048828125,-3.1640000343322754,-11.717000961303711,-15.255001068115234
1788656950644432400,2.025432373046875,-4.133000373840332,-12.26300048828125,-16.17500114440918
1788656950660479200,2.041479248046875,-4.355000019073486,-13.02500057220459,-17.099000930786133
1788656950676542200,2.057542236328125,-4.5360002517700195,-13.11500072479248,-15.77500057220459
1788656950692679400,2.073679443359375,-4.00600004196167,-13.224000930786133,-15.87800121307373
1788656950708846800,2.089846923828125,-5.004000186920166,-11.194000244140625,-16.470001220703125
1788656950724987100,2.105987060546875,-3.1630001068115234,-12.581000328063965,-15.772000312805176
1788656950740988400,2.121988525390625,-3.813000202178955,-11.831000328063965,-15.86600112915039
1788656950757043000,2.13804296875,-3.690000057220459,-11.604000091552734,-14.94800090789795
1788656950773124600,2.15412451171875,-4.584000110626221,-11.846000671386719,-17.088001251220703
1788656950789288400,2.170288330078125,-5.389000415802002,-12.89900016784668,-15.772000312805176
1788656950805436000,2.186435791015625,-3.2250001430511475,-13.3100004196167,-14.250000953674316
1788656950821444400,2.2024443359375,-3.824000120162964,-11.838000297546387,-16.376001358032227
1788656950837500400,2.21850048828125,-2.0480000972747803,-10.45300006866455,-16.773000717163086
1788656950853587000,2.2345869140625,-3.0430002212524414,-12.140000343322754,-14.851000785827637
1788656950869757400,2.25075732421875,-2.430000066757202,-11.075000762939453,-15.250000953674316
1788656950885873200,2.266873046875,-2.2980000972747803,-12.248000144958496,-14.85300064086914
1788656950901897500,2.2828974609375,-3.9090001583099365,-11.284000396728516,-15.046000480651855
1788656950917954800,2.298954833984375,-3.6010000705718994,-11.291000366210938,-15.556000709533691
1788656950934039300,2.315039306640625,-4.484000205993652,-9.905000686645508,-16.154001235961914
1788656950950207000,2.33120703125,-4.8460001945495605,-12.244000434875488,-14.850000381469727
1788656950966320000,2.347320068359375,-3.376000165939331,-11.7160005569458,-15.255001068115234
1788656950982348500,2.3633486328125,-3.689000129699707,-11.820000648498535,-15.051000595092773
1788656950998404000,2.379404052734375,-3.8980002403259277,-12.358000755310059,-15.260001182556152
1788656951014489300,2.3954892578125,-3.9180002212524414,-10.749000549316406,-15.144001007080078
1788656951030651400,2.4116513671875,-4.019999980926514,-12.044000625610352,-15.766000747680664
1788656951046779100,2.427779052734375,-4.552000045776367,-12.1510009765625,-15.868000984191895
1788656951062816500,2.44381640625,-3.4630000591278076,-12.785000801086426,-15.0600004196167
1788656951078866200,2.4598662109375,-3.7100002765655518,-10.968000411987305,-15.451001167297363
1788656951094965000,2.475965087890625,-3.700000286102295,-12.367000579833984,-15.871000289916992
1788656951111128300,2.49212841796875,-5.7900004386901855,-12.452000617980957,-14.443000793457031
1788656951127258600,2.508258544921875,-3.391000270843506,-11.833000183105469,-15.969000816345215
1788656951143308000,2.52430810546875,-4.878000259399414,-11.291000366210938,-15.656001091003418
1788656951159364400,2.5403642578125,-3.9210002422332764,-11.075000762939453,-15.452000617980957
1788656951175448600,2.556448486328125,-3.829000234603882,-10.868000984191895,-15.960000991821289
1788656951191613700,2.57261376953125,-4.4710001945495605,-10.654000282287598,-16.05900001525879
1788656951207752200,2.588752197265625,-2.992000102996826,-11.093000411987305,-16.676000595092773
1788656951223803100,2.60480322265625,-4.321000099182129,-12.681000709533691,-15.36400032043457
1788656951239855400,2.62085546875,-4.044000148773193,-11.842000961303711,-16.681001663208008
1788656951255945700,2.63694580078125,-4.214000225067139,-12.248000144958496,-15.055000305175781
1788656951272112000,2.653112060546875,-6.4760003089904785,-11.39900016784668,-15.961000442504883
1788656951288287500,2.66928759765625,-5.394000053405762,-12.68600082397461,-15.872000694274902
1788656951304296400,2.68529638671875,-4.111000061035156,-12.467000961303711,-15.362000465393066
1788656951320353000,2.70135302734375,-4.332000255584717,-12.363000869750977,-15.667000770568848
1788656951336450800,2.717450927734375,-3.4150002002716064,-11.74000072479248,-16.987001419067383
1788656951352622600,2.73362255859375,-4.203000068664551,-12.890000343322754,-14.958001136779785
1788656951368732200,2.749732177734375,-3.3930001258850098,-12.483000755310059,-16.48400115966797
1788656951384738800,2.76573876953125,-3.0470001697540283,-12.467000961303711,-15.262001037597656
1788656951400792300,2.781792236328125,-3.69700026512146,-11.717000961303711,-15.356000900268555
1788656951416894000,2.79789404296875,-5.508000373840332,-11.826000213623047,-15.660000801086426
1788656951433052700,2.814052734375,-2.947000026702881,-12.363000869750977,-15.465001106262207
1788656951449170000,2.830169921875,-3.2960002422332764,-10.867000579833984,-15.858000755310059
1788656951465198300,2.8461982421875,-4.663000106811523,-11.61400032043457,-15.761000633239746
1788656951481253400,2.86225341796875,-3.059000253677368,-11.610000610351562,-15.254000663757324
1788656951497366500,2.878366455078125,-3.2990002632141113,-10.97700023651123,-16.06300163269043
1788656951513534500,2.894534423828125,-1.5800000429153442,-12.04900074005127,-15.871000289916992
1788656951529661700,2.91066162109375,-3.2840001583099365,-11.725000381469727,-15.86600112915039
1788656951545701600,2.92670166015625,-5.619000434875488,-11.612000465393066,-15.760001182556152
1788656951561760800,2.9427607421875,-3.699000120162964,-11.610000610351562,-15.355000495910645
1788656951577885200,2.95888525390625,-5.105000019073486,-11.731000900268555,-16.577001571655273
1788656951594054700,2.9750546875,-2.447000026702881,-10.97700023651123,-15.962000846862793
1788656951610187000,2.99118701171875,-4.555000305175781,-10.640000343322754,-15.040000915527344
1788656951626242800,3.007242919921875,-4.642000198364258,-12.682000160217285,-15.465001106262207
1788656951642299000,3.023298828125,-2.0380001068115234,-10.987000465393066,-16.676000595092773
1788656951658425300,3.03942529296875,-4.372000217437744,-10.010000228881836,-15.951001167297363
1788656951674593500,3.055593505859375,-3.2890002727508545,-10.539000511169434,-15.346000671386719
1788656951690735400,3.0717353515625,-3.9230000972747803,-12.04900074005127,-16.174001693725586
1788656951706745600,3.08774560546875,-3.7370002269744873,-10.660000801086426,-16.46700096130371
1788656951722802000,3.103802001953125,-2.753000020980835,-11.725000381469727,-15.867000579833984
1788656951738890000,3.119889892578125,-4.559000015258789,-10.643000602722168,-15.244000434875488
1788656951755058200,3.13605810546875,-4.552000045776367,-11.503000259399414,-15.455000877380371
1788656951771217000,3.152216796875,-4.564000129699707,-11.294000625610352,-15.861001014709473
1788656951787239200,3.1682392578125,-5.924000263214111,-11.928000450134277,-15.355000495910645
1788656951803296500,3.184296630859375,-4.156000137329102,-10.873000144958496,-16.367000579833984
1788656951819387400,3.200387451171875,-2.5530002117156982,-11.8410005569458,-16.479000091552734
1788656951835553000,3.216552978515625,-4.323000431060791,-13.006000518798828,-15.672000885009766
1788656951851665400,3.23266552734375,-4.3420000076293945,-11.829000473022461,-15.76400089263916
1788656951867689000,3.24868896484375,-5.02400016784668,-10.558000564575195,-16.974000930786133
1788656951883744300,3.264744140625,-4.645000457763672,-11.819000244140625,-15.05000114440918
1788656951899829000,3.2808291015625,-4.3580002784729,-10.00100040435791,-15.340001106262207
1788656951915994400,3.296994384765625,-3.9180002212524414,-11.938000679016113,-15.867000579833984
1788656951932116200,3.3131162109375,-3.700000286102295,-12.1510009765625,-15.767001152038574
1788656951948151000,3.329151123046875,-4.12000036239624,-10.851000785827637,-14.737000465393066
1788656951964207900,3.345207763671875,-2.632000207901001,-11.933000564575195,-15.359001159667969
1788656951980297700,3.361297607421875,-4.24500036239624,-12.483000755310059,-16.58500099182129
1788656951996464400,3.37746435546875,-3.9210002422332764,-12.04800033569336,-16.07200050354004
1788656952012599600,3.393599609375,-5.610000133514404,-12.904000282287598,-16.179000854492188
1788656952028646100,3.409646240234375,-3.2900002002716064,-11.080000877380371,-15.758000373840332
1788656952044704500,3.42570458984375,-4.11400032043457,-12.144001007080078,-15.257000923156738
1788656952060792000,3.4417919921875,-4.676000118255615,-11.51400089263916,-16.270000457763672
1788656952076961800,3.4579619140625,-1.996000051498413,-11.394001007080078,-15.05000114440918
1788656952093098000,3.474097900390625,-3.5280001163482666,-10.555000305175781,-16.56800079345703
1788656952109152000,3.490152099609375,-4.75700044631958,-12.687000274658203,-15.873001098632812
1788656952125211100,3.506211181640625,-2.995000123977661,-12.176000595092773,-17.5
1788656952141302500,3.522302490234375,-4.86400032043457,-11.822000503540039,-15.356000900268555
1788656952157473500,3.5384736328125,-3.934000253677368,-11.083000183105469,-16.06300163269043
1788656952173621000,3.55462109375,-4.561000347137451,-11.833000183105469,-16.069000244140625
1788656952189621200,3.570621337890625,-3.7080001831054688,-11.724000930786133,-15.86500072479248
1788656952205681000,3.586680908203125,-2.629000186920166,-13.012001037597656,-15.87800121307373
1788656952221774600,3.602774658203125,-4.427999973297119,-13.113000869750977,-15.67300033569336
1788656952237947100,3.618947021484375,-3.7090001106262207,-12.04800033569336,-16.07200050354004
1788656952254105300,3.635105224609375,-5.968000411987305,-12.387001037597656,-17.600000381469727
1788656952270133800,3.6511337890625,-8.336000442504883,-14.283000946044922,-15.475000381469727
1788656952286198300,3.6671982421875,-5.552000045776367,-13.041000366210938,-18.421001434326172
1788656952302300200,3.683300048828125,-4.564000129699707,-14.428000450134277,-17.82400131225586
1788656952318476000,3.69947607421875,-7.628000259399414,-14.846000671386719,-17.416000366210938
1788656952334591500,3.715591552734375,-5.63700008392334,-14.109000205993652,-18.125
1788656952350620200,3.7316201171875,-3.933000087738037,-12.812000274658203,-17.097000122070312
1788656952366682600,3.7476826171875,-7.023000240325928,-13.35400104522705,-17.913000106811523
1788656952382788900,3.763788818359375,-7.341000556945801,-13.569000244140625,-18.016000747680664
1788656952398965800,3.7799658203125,-7.305000305175781,-14.844000816345215,-17.213001251220703
1788656952415087900,3.796087890625,-7.2950005531311035,-15.379000663757324,-17.11600112915039
1788656952431122000,3.812121826171875,-5.066000461578369,-13.545001029968262,-15.982000350952148
1788656952447180500,3.8281806640625,-7.78000020980835,-14.658000946044922,-19.350000381469727
1788656952463297500,3.844297607421875,-7.016000270843506,-13.998001098632812,-18.020999908447266
1788656952479469300,3.86046923828125,-6.89400053024292,-15.50200080871582,-18.238000869750977
1788656952495595800,3.876595703125,-8.176000595092773,-15.93600082397461,-18.851001739501953
1788656952511634200,3.89263427734375,-7.113000392913818,-14.533000946044922,-17.92300033569336
1788656952527691300,3.908691162109375,-6.896000385284424,-15.827000617980957,-18.546001434326172
1788656952543815200,3.924815185546875,-7.954000473022461,-15.931000709533691,-18.444000244140625
1788656952559985200,3.940985107421875,-7.433000564575195,-14.749000549316406,-18.12900161743164
1788656952576119600,3.95711962890625,-6.9770002365112305,-16.352001190185547,-17.736000061035156
1788656952592173600,3.973173583984375,-9.220000267028809,-16.032001495361328,-18.13800048828125
1788656952608231700,3.989231689453125,-8.495000839233398,-16.69300079345703,-19.367000579833984
1788656952624366600,4.00536669921875,-9.375,-14.872000694274902,-19.553001403808594
1788656952640510700,4.0215107421875,-7.750000476837158,-15.829000473022461,-18.749000549316406
1788656952656663300,4.037663330078125,-7.783000469207764,-15.092000961303711,-19.761001586914062
1788656952672727000,4.05372705078125,-7.588000297546387,-15.859001159667969,-20.990001678466797
1788656952688789500,4.06978955078125,-7.571000576019287,-15.417000770568848,-19.968000411987305
1788656952704884500,4.085884521484375,-8.397000312805176,-15.942000389099121,-19.25800132751465
1788656952721059600,4.1020595703125,-8.397000312805176,-15.942000389099121,-19.25800132751465
1788656952737221000,4.11822119140625,-8.28700065612793,-16.37200164794922,-19.36400032043457
1788656952753243600,4.13424365234375,-7.335000514984131,-16.268001556396484,-19.466001510620117
1788656952769303600,4.150303466796875,-6.4860005378723145,-16.593000411987305,-19.674001693725586
1788656952785391600,4.1663916015625,-7.562000274658203,-17.57200050354004,-20.904001235961914
1788656952801564400,4.182564453125,-7.3560004234313965,-15.631000518798828,-19.970001220703125
1788656952817691000,4.19869091796875,-8.208000183105469,-16.713001251220703,-20.793001174926758
1788656952833728300,4.214728271484375,-8.829000473022461,-17.242000579833984,-20.39000129699707
1788656952849787100,4.230787109375,-9.467000007629395,-17.350000381469727,-20.492000579833984
1788656952865882000,4.246882080078125,-8.825000762939453,-17.564001083374023,-20.393001556396484
1788656952882049500,4.263049560546875,-8.42400074005127,-16.498001098632812,-20.791000366210938
1788656952898176800,4.2791767578125,-10.245000839233398,-16.28900146484375,-21.398000717163086
1788656952914215000,4.29521484375,-10.508000373840332,-16.687000274658203,-19.160001754760742
1788656952930271500,4.311271484375,-10.954000473022461,-17.131999969482422,-20.386001586914062
1788656952946368000,4.327367919921875,-10.3100004196167,-17.020000457763672,-19.979000091552734
1788656952962539300,4.343539306640625,-9.672000885009766,-17.020999908447266,-19.979000091552734
1788656952978679800,4.3596796875,-8.534000396728516,-16.825000762939453,-21.201000213623047
1788656952994735600,4.375735595703125,-9.368000030517578,-16.490001678466797,-20.2810001373291
1788656953010792400,4.39179248046875,-10.335000038146973,-15.846000671386719,-20.376001358032227
1788656953026888700,4.407888671875,-8.119000434875488,-15.318000793457031,-20.679000854492188
1788656953043058200,4.42405810546875,-8.541000366210938,-16.18000030517578,-21.09400177001953
1788656953059209000,4.440208984375,-9.253000259399414,-16.80900001525879,-20.080001831054688
1788656953075263500,4.456263427734375,-9.712000846862793,-15.964000701904297,-21.091001510620117
1788656953091320000,4.472320068359375,-8.830000877380371,-16.054000854492188,-19.666000366210938
1788656953107421000,4.4884208984375,-8.00100040435791,-15.851000785827637,-20.48000144958496
1788656953123592200,4.50459228515625,-9.919000625610352,-15.528000831604004,-20.577001571655273
1788656953139749600,4.52074951171875,-6.691000461578369,-16.1560001373291,-19.05900001525879
1788656953155769600,4.53676953125,-9.778000831604004,-16.91200065612793,-19.876001358032227
1788656953171829200,4.552829345703125,-10.750000953674316,-16.380001068115234,-20.27800178527832
1788656953187933200,4.56893310546875,-6.698000431060791,-15.944001197814941,-19.261001586914062
1788656953204106000,4.58510595703125,-7.993000507354736,-14.118000984191895,-19.03900146484375
1788656953220224300,4.601224365234375,-9.18600082397461,-14.455000877380371,-20.365001678466797
1788656953236254000,4.61725390625,-7.594000339508057,-13.269001007080078,-19.643001556396484
1788656953252316400,4.63331640625,-8.729000091552734,-15.301000595092773,-19.45600128173828
1788656953268434000,4.649433837890625,-7.563000202178955,-15.195000648498535,-19.457000732421875
1788656953284605200,4.665605224609375,-7.681000232696533,-15.31100082397461,-20.069000244140625
1788656953300726300,4.681726318359375,-8.179000854492188,-14.42500114440918,-18.023000717163086
1788656953316749800,4.697749755859375,-8.031000137329102,-14.357000350952148,-20.875001907348633
1788656953332806400,4.713806396484375,-7.7910003662109375,-14.880001068115234,-19.963001251220703
1788656953348923400,4.72992333984375,-6.209000110626221,-14.24100112915039,-20.06100082397461
1788656953365094100,4.74609423828125,-6.698000431060791,-13.67400074005127,-17.814001083374023
1788656953381221400,4.762221435546875,-5.969000339508057,-14.441000938415527,-18.94300079345703
1788656953397262300,4.778262451171875,-6.909000396728516,-14.754000663757324,-18.435001373291016
1788656953429435600,4.810435546875,-7.65500020980835,-13.566000938415527,-17.812000274658203
1788656953445598500,4.826598388671875,-4.6610002517700195,-14.422000885009766,-17.416000366210938
1788656953461728000,4.84272802734375,-6.814000129699707,-12.2760009765625,-17.394001007080078
1788656953477766700,4.8587666015625,-7.223000526428223,-13.130001068115234,-17.197999954223633
1788656953493815600,4.874815673828125,-4.147000312805176,-13.029000282287598,-17.303001403808594
1788656953509931500,4.890931640625,-5.130000114440918,-11.531000137329102,-17.59400177001953
1788656953526091500,4.907091552734375,-6.913000106811523,-14.757000923156738,-18.638999938964844
1788656953542225200,4.92322509765625,-7.069000244140625,-11.868000984191895,-19.020000457763672
1788656953558271000,4.93927099609375,-6.715000152587891,-13.253000259399414,-18.32000160217285
1788656953574317000,4.955317138671875,-6.788000106811523,-13.340001106262207,-16.895000457763672
1788656953590401300,4.9714013671875,-7.299000263214111,-13.43600082397461,-16.079999923706055
1788656953606565000,4.987565185546875,-6.657000541687012,-14.51400089263916,-16.498001098632812
1788656953630659000,5.0116591796875,-4.562000274658203,-13.238000869750977,-16.998001098632812
1788656953646820600,5.027820556640625,-4.333000183105469,-14.957000732421875,-17.319000244140625
1788656953662889500,5.043889404296875,-3.701000213623047,-12.584000587463379,-16.077001571655273
1788656953678892000,5.05989208984375,-4.758000373840332,-15.390000343322754,-17.628000259399414
1788656953694978300,5.075978271484375,-5.8460001945495605,-14.539000511169434,-18.231000900268555
1788656953711064000,5.09206396484375,-5.408000469207764,-13.343000411987305,-16.895999908447266
1788656953727215900,5.1082158203125,-4.128000259399414,-14.098000526428223,-17.108001708984375
1788656953743280400,5.1242802734375,-5.396000385284424,-13.551000595092773,-16.49100112915039
1788656953759279000,5.140279052734375,-4.6650004386901855,-13.128000259399414,-16.793001174926758
1788656953775365600,5.15636572265625,-6.756000518798828,-12.67300033569336,-15.055000305175781
1788656953791463400,5.17246337890625,-4.543000221252441,-13.767000198364258,-16.494001388549805
1788656953807616800,5.18861669921875,-4.440999984741211,-12.797000885009766,-16.078001022338867
1788656953823683800,5.204683837890625,-5.37000036239624,-14.941000938415527,-16.19700050354004
1788656953839686400,5.220686279296875,-4.77400016784668,-12.805000305175781,-16.689001083374023
1788656953855788500,5.23678857421875,-5.25600004196167,-15.152000427246094,-15.996000289916992
1788656953871903200,5.2529033203125,-4.75600004196167,-13.875000953674316,-16.59600067138672
1788656953888054300,5.26905419921875,-4.6579999923706055,-13.44800090789795,-16.694000244140625
1788656953904120600,5.28512060546875,-5.467000484466553,-13.098000526428223,-14.653000831604004
1788656953920123100,5.301123046875,-5.288000106811523,-12.362000465393066,-15.665000915527344
1788656953936228000,5.31722802734375,-4.945000171661377,-12.456000328063965,-14.648000717163086
1788656953952344600,5.333344482421875,-5.816000461578369,-13.224000930786133,-16.079999923706055
1788656953968499700,5.349499755859375,-3.7900002002716064,-12.682000160217285,-15.36400032043457
1788656953984537900,5.365537841796875,-3.759000062942505,-13.419000625610352,-14.454000473022461
1788656954000541200,5.381541259765625,-4.180000305175781,-14.38900089263916,-14.870000839233398
1788656954016663300,5.397663330078125,-4.627000331878662,-12.241000175476074,-14.545001029968262
1788656954032797200,5.413797119140625,-4.334000110626221,-13.87700080871582,-16.69900131225586
1788656954048955000,5.429954833984375,-4.326000213623047,-13.656001091003418,-16.187000274658203
1788656954065027300,5.44602734375,-3.877000093460083,-14.075000762939453,-15.37700080871582
1788656954081032700,5.46203271484375,-5.778000354766846,-13.958001136779785,-14.86400032043457
1788656954097166800,5.478166748046875,-4.840000152587891,-13.862000465393066,-15.577000617980957
1788656954113261600,5.494261474609375,-4.330000400543213,-13.335000991821289,-16.185001373291016
1788656954129421600,5.510421630859375,-3.0460002422332764,-12.898000717163086,-15.469000816345215
1788656954145503500,5.52650341796875,-4.298000335693359,-13.531001091003418,-14.862000465393066
1788656954161511400,5.542511474609375,-3.875000238418579,-13.858000755310059,-15.171000480651855
1788656954177601500,5.5586015625,-3.1520001888275146,-13.438000679016113,-15.779000282287598
1788656954193704200,5.5747041015625,-3.689000129699707,-13.117000579833984,-15.87800121307373
1788656954209865200,5.590865234375,-3.6680002212524414,-14.509000778198242,-15.78800106048584
1788656954225952800,5.606952880859375,-3.371000051498413,-13.766000747680664,-16.291000366210938
1788656954241959700,5.622959716796875,-4.548000335693359,-12.906000137329102,-16.18000030517578
1788656954258060300,5.639060302734375,-3.9850001335144043,-14.940000534057617,-15.995000839233398
1788656954274172000,5.655171875,-4.740000247955322,-13.217000961303711,-15.470000267028809
1788656954290335500,5.67133544921875,-3.9640002250671387,-15.468000411987305,-15.38900089263916
1788656954306432300,5.687432373046875,-4.531000137329102,-14.30000114440918,-16.295000076293945
1788656954322444300,5.7034443359375,-3.7950000762939453,-12.469000816345215,-15.464000701904297
1788656954338555100,5.71955517578125,-5.698000431060791,-13.541000366210938,-15.777000427246094
1788656954354666500,5.73566650390625,-3.876000165939331,-12.993000984191895,-14.654000282287598
1788656954370822100,5.751822265625,-4.088000297546387,-13.209000587463379,-14.758000373840332
1788656954386926000,5.767926025390625,-4.50100040435791,-13.850000381469727,-14.66100025177002
1788656954402935000,5.78393505859375,-5.13200044631958,-14.817000389099121,-14.974000930786133
1788656954419051300,5.80005126953125,-6.193000316619873,-13.519001007080078,-14.146000862121582
1788656954435177000,5.816177001953125,-3.873000144958496,-12.883000373840332,-14.449000358581543
1788656954451337700,5.832337646484375,-4.645000457763672,-12.791000366210938,-15.670001029968262
1788656954467454500,5.848454345703125,-3.5860002040863037,-13.552000999450684,-16.28900146484375
1788656954483464700,5.864464599609375,-3.4680001735687256,-13.112000465393066,-15.471000671386719
1788656954499587600,5.880587646484375,-4.130000114440918,-13.450000762939453,-16.797000885009766
1788656954515729700,5.896729736328125,-3.6020002365112305,-13.237000465393066,-16.796001434326172
1788656954531899600,5.912899658203125,-4.208000183105469,-13.325000762939453,-15.472001075744629
1788656954547979800,5.928979736328125,-4.646000385284424,-14.197000503540039,-16.599000930786133
1788656954563991600,5.944991455078125,-3.44700026512146,-13.42400074005127,-14.760000228881836
1788656954580130000,5.961130126953125,-2.9730000495910645,-12.81100082397461,-16.895000457763672
1788656954596225500,5.9772255859375,-4.889000415802002,-13.135000228881836,-17.303001403808594
1788656954612429600,5.9934296875,-4.445000171661377,-13.340001106262207,-16.59200096130371
1788656954628506600,6.009506591796875,-5.168000221252441,-13.00200080871582,-15.467000961303711
1788656954644518400,6.025518310546875,-3.3510000705718994,-14.187000274658203,-15.684000968933105
1788656954660611600,6.041611572265625,-3.4790000915527344,-13.119000434875488,-15.980000495910645
1788656954676718600,6.057718505859375,-4.760000228881836,-13.445000648498535,-16.49100112915039
1788656954700850200,6.08185009765625,-4.50600004196167,-13.204000473022461,-14.451000213623047
1788656954716939500,6.097939453125,-3.5870001316070557,-12.039000511169434,-15.359001159667969
1788656954733108500,6.1141083984375,-3.1630001068115234,-13.121000289916992,-16.082000732421875
1788656954749228800,6.130228759765625,-3.4750001430511475,-13.873001098632812,-16.292001724243164
1788656954765262600,6.1462626953125,-4.556000232696533,-12.694000244140625,-16.381999969482422
1788656954781319200,6.162319091796875,-4.668000221252441,-13.778000831604004,-17.30900001525879
1788656954797408800,6.17840869140625,-6.025000095367432,-12.46500015258789,-15.462000846862793
1788656954813573400,6.194573486328125,-5.37000036239624,-14.076000213623047,-15.680000305175781
1788656954829706000,6.2107060546875,-4.1080002784729,-13.545001029968262,-15.881000518798828
1788656954845753600,6.226753662109375,-4.969000339508057,-13.335000991821289,-16.286001205444336
1788656954861808600,6.24280859375,-5.354000091552734,-14.067000389099121,-14.967000961303711
1788656954877901300,6.2589013671875,-6.014000415802002,-13.755001068115234,-15.779000282287598
1788656954894066400,6.27506640625,-3.2790000438690186,-12.910000801086426,-16.386001586914062
1788656954910205000,6.291204833984375,-5.159000396728516,-13.321001052856445,-15.267001152038574
1788656954926255600,6.307255615234375,-6.12600040435791,-13.326000213623047,-15.77500057220459
1788656954942311000,6.323310791015625,-3.692000150680542,-13.22700023651123,-16.08300018310547
1788656954958402000,6.339402099609375,-4.993000030517578,-12.917000770568848,-17.097000122070312
1788656954974572300,6.355572265625,-4.525000095367432,-13.972001075744629,-15.782000541687012
1788656954990723600,6.3717236328125,-3.807000160217285,-12.475000381469727,-15.974000930786133
1788656955006782700,6.38778271484375,-5.641000270843506,-11.842000961303711,-16.88300132751465
1788656955022844200,6.40384423828125,-6.151000499725342,-12.693000793457031,-16.48200035095215
1788656955038937000,6.41993701171875,-5.389000415802002,-12.575000762939453,-15.565000534057617
1788656955055102700,6.436102783203125,-3.7170002460479736,-13.566000938415527,-17.410001754760742
1788656955071252200,6.452252197265625,-5.50600004196167,-13.121000289916992,-16.385000228881836
1788656955087263000,6.468262939453125,-4.459000110626221,-12.160000801086426,-16.48000144958496
1788656955103317200,6.484317138671875,-5.938000202178955,-12.909000396728516,-16.586000442504883
1788656955119419600,6.500419677734375,-5.380000114440918,-13.218000411987305,-15.571001052856445
1788656955135583200,6.516583251953125,-5.0960001945495605,-12.159000396728516,-16.479000091552734
1788656955151694300,6.5326943359375,-5.313000202178955,-11.188000679016113,-16.062000274658203
1788656955167716600,6.548716552734375,-4.764000415802002,-12.691000938415527,-16.178001403808594
1788656955183771400,6.564771484375,-6.048000335693359,-12.154000282287598,-16.27400016784668
1788656955199880000,6.5808798828125,-1.812000036239624,-13.141000747680664,-17.408000946044922
1788656955216045600,6.597045654296875,-4.569000244140625,-13.242000579833984,-17.304000854492188
1788656955232163300,6.613163330078125,-6.243000507354736,-12.6850004196167,-15.871000289916992
1788656955248187400,6.6291875,-5.527000427246094,-12.918000221252441,-17.197999954223633
1788656955264238300,6.64523828125,-6.837000370025635,-11.641000747680664,-18
1788656955280344800,6.6613447265625,-5.87000036239624,-11.095000267028809,-17.181001663208008
1788656955296507000,6.6775068359375,-5.2260003089904785,-11.957000732421875,-17.394001007080078
1788656955312651300,6.6936513671875,-4.89300012588501,-13.029000282287598,-17.402999877929688
1788656955328683800,6.709683837890625,-4.920000076293945,-12.397000312805176,-18.213001251220703
1788656955344732700,6.725732666015625,-4.374000072479248,-11.956000328063965,-17.293001174926758
1788656955360849700,6.741849609375,-4.826000213623047,-11.972000122070312,-18.51500129699707
1788656955377013200,6.75801318359375,-6.904000282287598,-11.293000221252441,-16.06100082397461
1788656955393138200,6.77413818359375,-6.2860002517700195,-12.278000831604004,-17.49700164794922
1788656955409180700,6.7901806640625,-5.747000217437744,-11.517000198364258,-16.676000595092773
1788656955425234200,6.806234130859375,-5.877000331878662,-11.42400074005127,-17.694000244140625
1788656955441352200,6.822352294921875,-5.543000221252441,-11.415000915527344,-16.981000900268555
1788656955457519400,6.838519287109375,-5.88800048828125,-11.646000862121582,-18.3070011138916
1788656955473653000,6.854653076171875,-4.2900004386901855,-10.88900089263916,-17.589000701904297
1788656955489699800,6.870699951171875,-4.634000301361084,-10.688000679016113,-18.606000900268555
1788656955505755600,6.886755615234375,-7.249000549316406,-11.52500057220459,-17.387001037597656
1788656955521843000,6.902843017578125,-8.110000610351562,-9.585000038146973,-16.6560001373291
1788656955538009300,6.91900927734375,-5.88200044631958,-10.886000633239746,-17.586999893188477
1788656955554162200,6.935162109375,-6.281000137329102,-10.76200008392334,-16.363000869750977
1788656955570170400,6.95117041015625,-5.88800048828125,-11.971000671386719,-18.51300048828125
1788656955586225400,6.967225341796875,-7.375000476837158,-10.780000686645508,-17.788000106811523
1788656955602315000,6.98331494140625,-6.403000354766846,-10.447000503540039,-16.869001388549805
1788656955618484500,6.999484375,-7.414000511169434,-8.9660005569458,-18.38300132751465
1788656955634594800,7.0155947265625,-4.8460001945495605,-9.390000343322754,-17.779001235961914
1788656955650614300,7.0316142578125,-4.073000431060791,-9.914000511169434,-16.766000747680664
1788656955666672400,7.04767236328125,-5.00100040435791,-10.544000625610352,-15.955000877380371
1788656955682765800,7.063765869140625,-4.939000129699707,-9.815000534057617,-17.477001190185547
1788656955698927600,7.079927734375,-7.560000419616699,-11.62700080871582,-17.082000732421875
1788656955715047200,7.096047119140625,-4.855000019073486,-10.369000434875488,-18.806001663208008
1788656955731080400,7.11208056640625,-6.179000377655029,-11.954000473022461,-17.291000366210938
1788656955747137300,7.12813720703125,-6.919000148773193,-11.410000801086426,-16.775001525878906
1788656955763226400,7.144226318359375,-5.248000144958496,-10.997000694274902,-17.793001174926758
1788656955779391500,7.1603916015625,-6.6050004959106445,-11.737000465393066,-17.18600082397461
1788656955795519700,7.176519775390625,-6.568000316619873,-10.958000183105469,-15.040000915527344
1788656955811563800,7.192563720703125,-4.807000160217285,-11.528000831604004,-17.39000129699707
1788656955827612000,7.20861181640625,-6.927000522613525,-10.982000350952148,-16.874000549316406
1788656955843699000,7.224698974609375,-4.583000183105469,-11.413000106811523,-16.777999877929688
1788656955859864800,7.24086474609375,-6.705000400543213,-11.193000793457031,-16.57000160217285
1788656955876006400,7.25700634765625,-8.010000228881836,-10.562000274658203,-17.58100128173828
1788656955892057600,7.2730576171875,-5.650000095367432,-11.523000717163086,-17.084001541137695
1788656955908116500,7.289116455078125,-6.927000522613525,-10.982000350952148,-16.874000549316406
1788656955924206600,7.30520654296875,-8.609000205993652,-11.726000785827637,-16.57200050354004
1788656955940371200,7.32137109375,-6.297000408172607,-10.772000312805176,-17.076000213623047
1788656955956519700,7.337519775390625,-4.90500020980835,-11.631000518798828,-17.086000442504883
1788656955972539400,7.353539306640625,-6.316000461578369,-10.891000747680664,-17.994001388549805
1788656955988590600,7.369590576171875,-5.651000499725342,-11.74000072479248,-17.28900146484375
1788656956004681200,7.38568115234375,-6.264000415802002,-11.508000373840332,-16.064001083374023
1788656956020848000,7.40184814453125,-3.8430001735687256,-11.633000373840332,-17.086999893188477
1788656956037002500,7.41800244140625,-5.4110002517700195,-12.480000495910645,-16.481000900268555
1788656956053020400,7.4340205078125,-6.498000144958496,-12.60200023651123,-17.703001022338867
1788656956069078800,7.450078857421875,-7.532000541687012,-12.79900074005127,-16.58300018310547
1788656956085166600,7.46616650390625,-6.939000129699707,-12.395000457763672,-18.312000274658203
1788656956101333800,7.482333740234375,-6.474000453948975,-11.722000122070312,-16.06599998474121
1788656956117486600,7.498486572265625,-6.24500036239624,-14.090001106262207,-16.80000114440918
1788656956133525000,7.51452490234375,-4.825000286102295,-14.933000564575195,-15.587000846862793
1788656956149582800,7.530582763671875,-7.952000141143799,-13.769001007080078,-16.999000549316406
1788656956165688600,7.5466884765625,-8.597000122070312,-15.717000961303711,-18.543001174926758
1788656956181854500,7.5628544921875,-6.3610005378723145,-13.988000869750977,-17.20600128173828
1788656956197970000,7.578969970703125,-5.962000370025635,-14.437000274658203,-18.637001037597656
1788656956214000000,7.595000244140625,-6.590000152587891,-13.133000373840332,-17.402000427246094
1788656956230055700,7.6110556640625,-8.147000312805176,-14.730000495910645,-16.803001403808594
1788656956246165200,7.627165283203125,-6.259000301361084,-13.343000411987305,-16.99700164794922
1788656956262332700,7.643332763671875,-7.712000370025635,-14.508000373840332,-16.19099998474121
1788656956278457000,7.65945703125,-6.458000183105469,-14.847001075744629,-17.31599998474121
1788656956294494000,7.675493896484375,-6.76300048828125,-13.974000930786133,-16.187000274658203
1788656956310559000,7.69155908203125,-6.022000312805176,-14.301000595092773,-16.496000289916992
1788656956326692600,7.707692626953125,-6.241000175476074,-14.844000816345215,-17.112001419067383
1788656956342863400,7.72386328125,-6.9860005378723145,-14.41200065612793,-16.904001235961914
1788656956359007700,7.7400078125,-6.556000232696533,-14.625000953674316,-16.804000854492188
1788656956375058400,7.756058349609375,-6.89900016784668,-13.667000770568848,-17.30500030517578
1788656956391117000,7.772116943359375,-6.76300048828125,-13.86500072479248,-16.084001541137695
1788656956407257300,7.78825732421875,-7.392000198364258,-14.61600112915039,-16.192001342773438
1788656956423425300,7.80442529296875,-6.873000144958496,-14.084000587463379,-16.392000198364258
1788656956439575000,7.820574951171875,-7.413000583648682,-14.197000503540039,-16.9010009765625
1788656956455590000,7.83658984375,-9.175000190734863,-15.356000900268555,-15.687000274658203
1788656956471643600,7.8526435546875,-7.510000228881836,-14.731000900268555,-16.804000854492188
1788656956487736300,7.868736328125,-7.746000289916992,-13.665000915527344,-17.202001571655273
1788656956503905500,7.884905517578125,-6.450000286102295,-14.950000762939453,-17.011001586914062
1788656956520019500,7.90101953125,-9.307000160217285,-13.859000205993652,-15.87700080871582
1788656956536045300,7.91704541015625,-7.484000205993652,-14.932001113891602,-15.78700065612793
1788656956552102100,7.93310205078125,-7.990000247955322,-12.062000274658203,-17.595001220703125
1788656956568194600,7.949194580078125,-10.644000053405762,-13.895000457763672,-18.72800064086914
1788656956584367000,7.9653671875,-9.314000129699707,-13.971000671386719,-16.286001205444336
1788656956600490000,7.981489990234375,-9.632000923156738,-15.159000396728516,-17.009000778198242
1788656956616518400,7.997518310546875,-7.335000514984131,-14.322000503540039,-18.227001190185547
1788656956632574500,8.013574462890626,-8.884000778198242,-15.69800090789795,-17.11600112915039
1788656956648662300,8.029662353515626,-9.11400032043457,-16.033000946044922,-18.13800048828125
1788656956664800300,8.04580029296875,-7.838000297546387,-14.196001052856445,-16.9010009765625
1788656956680929500,8.061929443359375,-8.605999946594238,-15.074000358581543,-18.53700065612793
1788656956696970800,8.077970703125,-8.065999984741211,-14.85400104522705,-18.027000427246094
1788656956713022700,8.094022705078125,-8.92300033569336,-15.505001068115234,-18.7450008392334
1788656956729087500,8.11008740234375,-7.74500036239624,-13.880001068115234,-17.306001663208008
1788656956745250800,8.126250732421875,-7.956000328063965,-13.01400089263916,-16.68600082397461
1788656956761363200,8.14236328125,-9.348999977111816,-13.128000259399414,-17.297000885009766
1788656956777406000,8.158406005859375,-7.5450005531311035,-13.672000885009766,-17.711000442504883
1788656956793464600,8.174464599609376,-9.418000221252441,-13.970000267028809,-16.18400001525879
1788656956809537000,8.190537109375,-8.167000770568848,-12.797000885009766,-16.48000144958496
1788656956825707500,8.20670751953125,-9.2160005569458,-15.705000877380371,-17.727001190185547
1788656956841834800,8.222834716796875,-7.02400016784668,-13.13800048828125,-17.80900001525879
1788656956857878300,8.238878173828125,-8.043000221252441,-13.759000778198242,-16.28499984741211
1788656956873931800,8.254931884765625,-8.16100025177002,-14.523000717163086,-17.31100082397461
1788656956890008800,8.2710087890625,-11.360000610351562,-14.5260009765625,-17.918001174926758
1788656956906174700,8.2871748046875,-8.604000091552734,-12.91200065612793,-17.09200096130371
1788656956922310700,8.303310546875,-9.497000694274902,-13.693000793457031,-19.543001174926758
1788656956938313000,8.31931298828125,-10.283000946044922,-14.62600040435791,-17.30900001525879
1788656956954366500,8.335366455078125,-7.988000392913818,-13.033000946044922,-18.113000869750977
1788656956970455800,8.351455810546875,-5.641000270843506,-13.78700065612793,-18.12200164794922
1788656956986622000,8.3676220703125,-9.309000015258789,-12.41200065612793,-19.83700180053711
1788656957002775300,8.383775390625,-7.23900032043457,-14.220000267028809,-18.63300132751465
1788656957018806300,8.39980615234375,-7.89400053024292,-12.609000205993652,-18.415000915527344
1788656957034862600,8.415862548828125,-6.819000244140625,-13.25100040435791,-18.218000411987305
1788656957050969900,8.431969970703125,-8.204999923706055,-13.03600025177002,-18.31599998474121
1788656957067138800,8.448138916015624,-7.659000396728516,-12.271000862121582,-17.190000534057617
1788656957083259000,8.4642587890625,-9.160000801086426,-13.359000205993652,-18.522001266479492
1788656957099291100,8.480291015625,-7.570000171661377,-12.17400074005127,-17.902000427246094
1788656957115351600,8.4963515625,-9.032999992370605,-13.238000869750977,-17.50200080871582
1788656957131473700,8.5124736328125,-8.86400032043457,-13.04900074005127,-19.334001541137695
1788656957147641600,8.5286416015625,-9.147000312805176,-13.350000381469727,-17.910001754760742
1788656957163765800,8.544765869140624,-8.90000057220459,-11.773000717163086,-20.13800048828125
1788656957179799000,8.560799072265626,-7.77400016784668,-12.817000389099121,-17.907001495361328
1788656957195855400,8.57685546875,-8.657000541687012,-12.512001037597656,-19.22800064086914
1788656957211976700,8.592976806640625,-9.302000045776367,-11.975000381469727,-19.222000122070312
1788656957228145700,8.609145751953125,-8.563000679016113,-12.62700080871582,-19.84000015258789
1788656957244281000,8.625281005859375,-8.741000175476074,-13.471000671386719,-18.82900047302246
1788656957260329200,8.6413291015625,-7.48900032043457,-12.189000129699707,-19.023000717163086
1788656957276383200,8.65738330078125,-7.369000434875488,-12.830000877380371,-18.825000762939453
1788656957292513000,8.673512939453126,-5.179000377655029,-11.452000617980957,-19.73200035095215
1788656957308680000,8.689679931640624,-8.5600004196167,-11.653000831604004,-19.118000030517578
1788656957324817400,8.7058173828125,-6.636000156402588,-13.593000411987305,-19.749000549316406
1788656957340864500,8.721864501953124,-6.019000053405762,-14.147000312805176,-20.977001190185547
1788656957356918300,8.737918212890625,-5.9070000648498535,-12.414000511169434,-19.63800048828125
1788656957373053200,8.75405322265625,-6.969000339508057,-12.737000465393066,-19.843000411987305
1788656957389217800,8.7702177734375,-6.724000453948975,-14.555000305175781,-19.554000854492188
1788656957405360400,8.7863603515625,-6.3460001945495605,-12.206000328063965,-20.145000457763672
1788656957421368800,8.802368896484374,-5.890000343322754,-13.160000801086426,-19.339000701904297
1788656957437420800,8.8184208984375,-6.961000442504883,-13.273000717163086,-19.84800148010254
1788656957453488600,8.834488525390626,-6.246000289916992,-12.535000801086426,-20.657001495361328
1788656957469657600,8.85065771484375,-7.272000312805176,-13.700000762939453,-19.749000549316406
1788656957485773600,8.866773681640625,-6.004000186920166,-14.246000289916992,-20.367000579833984
1788656957501790200,8.882790283203125,-5.272000312805176,-13.38900089263916,-20.360000610351562
1788656957517847600,8.89884765625,-6.109000205993652,-14.137001037597656,-20.264001846313477
1788656957533948700,8.91494873046875,-5.799000263214111,-14.683000564575195,-20.98200035095215
1788656957550113000,8.931113037109375,-6.837000370025635,-14.235000610351562,-19.65300178527832
1788656957566233000,8.947233154296875,-7.134000301361084,-14.97800064086914,-19.150001525878906
1788656957582270000,8.96327001953125,-6.009000301361084,-14.357000350952148,-20.674001693725586
1788656957598326300,8.979326171875,-4.410000324249268,-13.167000770568848,-19.6460018157959
1788656957614413800,8.995413818359374,-7.093000411987305,-13.720000267028809,-21.27800178527832
1788656957630583600,9.01158349609375,-5.277000427246094,-13.50100040435791,-20.667001724243164
1788656957646701600,9.02770166015625,-4.857000350952148,-14.044000625610352,-21.1820011138916
1788656957662730500,9.04373046875,-5.276000022888184,-15.553000450134277,-21.907001495361328
1788656957678788600,9.05978857421875,-5.898000240325928,-14.679000854492188,-20.677000045776367
1788656957694874000,9.0758740234375,-4.860000133514404,-13.506000518798828,-20.97300148010254
1788656957711043800,9.0920439453125,-3.582000255584717,-14.262001037597656,-21.28700065612793
1788656957727177700,9.108177734375,-4.746000289916992,-14.690000534057617,-21.391000747680664
1788656957743235600,9.124235595703125,-4.87000036239624,-14.052000999450684,-21.793001174926758
1788656957759292200,9.140292236328126,-4.841000080108643,-14.359000205993652,-20.67500114440918
1788656957775382800,9.1563828125,-4.340000152587891,-13.837000846862793,-21.690000534057617
1788656957791544800,9.172544921875,-6.570000171661377,-14.158000946044922,-21.893001556396484
1788656957807688000,9.18868798828125,-4.644000053405762,-14.584000587463379,-21.492000579833984
1788656957823735300,9.2047353515625,-3.5960001945495605,-13.730000495910645,-21.588001251220703
1788656957839790600,9.22079052734375,-4.811000347137451,-13.108000755310059,-23.31300163269043
1788656957855883000,9.236883056640625,-3.817000150680542,-13.62700080871582,-21.892000198364258
1788656957872047000,9.253047119140625,-3.5920002460479736,-14.809000968933105,-22.10700035095215
1788656957888191200,9.269191162109376,-4.775000095367432,-14.384000778198242,-22.509000778198242
1788656957904208000,9.285207763671876,-3.4130001068115234,-14.072000503540039,-23.119001388549805
1788656957920269300,9.301269287109376,-4.715000152587891,-13.871000289916992,-24.23600196838379
1788656957936364300,9.3173642578125,-3.1660001277923584,-14.917000770568848,-22.108001708984375
1788656957952533800,9.33353369140625,-4.695000171661377,-13.859000205993652,-23.319000244140625
1788656957968644000,9.34964404296875,-2.1470000743865967,-13.647000312805176,-23.21900177001953
1788656957984666600,9.36566650390625,-3.866000175476074,-13.657000541687012,-24.134000778198242
1788656958000692000,9.38169189453125,-5.140000343322754,-12.682000160217285,-23.512001037597656
1788656958016812500,9.3978125,-4.7210001945495605,-12.470000267028809,-23.613000869750977
1788656958032980000,9.41397998046875,-4.0970001220703125,-13.019001007080078,-24.535001754760742
1788656958049088500,9.430088623046874,-2.6660001277923584,-12.667000770568848,-22.089000701904297
1788656958065115400,9.446115478515624,-2.451000213623047,-14.503000259399414,-23.124000549316406
1788656958081171700,9.462171630859375,-2.8950002193450928,-13.973000526428223,-23.628000259399414
1788656958097281000,9.478281005859374,-2.4820001125335693,-13.765000343322754,-24.034000396728516
1788656958113447200,9.494447265625,-3.452000141143799,-12.907000541687012,-24.12700080871582
1788656958129564200,9.510564208984375,-5.1670002937316895,-12.374000549316406,-24.52800178527832
1788656958145606700,9.526606689453125,-3.2280001640319824,-13.873001098632812,-24.238000869750977
1788656958161665500,9.54266552734375,-3.68500018119812,-11.731000900268555,-24.321001052856445
1788656958177762800,9.5587626953125,-0.9860000610351562,-13.762001037597656,-23.62900161743164
1788656958193929500,9.574929443359375,-3.449000120162964,-11.933000564575195,-23.406002044677734
1788656958210038500,9.59103857421875,-3.0200002193450928,-13.120000839233398,-23.926000595092773
1788656958226074600,9.60707470703125,-1.0049999952316284,-12.584000587463379,-23.720001220703125
1788656958242131500,9.62313134765625,-2.063000202178955,-13.985000610351562,-24.444000244140625
1788656958258247200,9.6392470703125,-2.055999994277954,-13.54800033569336,-23.82900047302246
1788656958274415900,9.655415771484375,-3.7980000972747803,-12.059000968933105,-24.8330020904541
1788656958290550300,9.67155029296875,-2.3980000019073486,-11.509000778198242,-23.60700035095215
1788656958306606800,9.68760693359375,-3.567000150680542,-11.940000534057617,-23.915000915527344
1788656958322659800,9.703659912109375,-4.305000305175781,-13.124000549316406,-24.434001922607422
1788656958338778600,9.719778564453126,-2.8390002250671387,-11.302000999450684,-24.216001510620117
1788656958354945800,9.73594580078125,-1.783000111579895,-11.73900032043457,-24.73000144958496
1788656958371092500,9.752092529296876,-3.4700002670288086,-12.594000816345215,-24.73600196838379
1788656958387099400,9.768099365234375,-2.1030001640319824,-11.307000160217285,-24.523000717163086
1788656958403157500,9.784157470703125,-2.830000162124634,-12.594000816345215,-24.635000228881836
1788656958419250000,9.80025,-3.369000196456909,-10.868000984191895,-23.906002044677734
1788656958435418400,9.81641845703125,-4.7230000495910645,-11.607000350952148,-23.198001861572266
1788656958451566000,9.832566162109375,-1.6320000886917114,-12.361001014709473,-23.106000900268555
1788656958467572700,9.84857275390625,-2.9130001068115234,-12.471000671386719,-23.51300048828125
1788656958483632400,9.86463232421875,-3.3560001850128174,-11.184000968933105,-23.501001358032227
1788656958499721700,9.8807216796875,-3.4660000801086426,-11.72700023651123,-24.01500129699707
1788656958515889700,9.8968896484375,-2.7150001525878906,-11.291000366210938,-23.4010009765625
1788656958532015900,9.913015869140626,-1.9660000801086426,-11.505000114440918,-23.302001953125
1788656958548049400,9.92904931640625,-2.8950002193450928,-11.812000274658203,-22.285001754760742
1788656958564105000,9.94510498046875,-0.8810000419616699,-12.57300090789795,-22.905000686645508
1788656958580194000,9.961194091796875,-2.180000066757202,-11.722000122070312,-23.507001876831055
1788656958596366600,9.97736669921875,-1.4240000247955322,-11.71500015258789,-22.897001266479492
1788656958612492800,9.993492919921875,-3.207000255584717,-11.483000755310059,-21.772001266479492
1788656958628531700,10.00953173828125,-1.5840001106262207,-9.26200008392334,-23.792001724243164
1788656958644590300,10.02559033203125,-1.4230000972747803,-11.391000747680664,-22.691001892089844
1788656958660695800,10.04169580078125,-3.3450002670288086,-10.962000846862793,-22.88800048828125
1788656958676863700,10.05786376953125,-2.7750000953674316,-12.668000221252441,-22.191001892089844
1788656958692995800,10.073995849609375,-2.1560001373291016,-12.140000343322754,-22.696001052856445
1788656958709040400,10.090040283203125,-2.748000144958496,-12.003000259399414,-20.55500030517578
1788656958725099800,10.106099853515625,-2.7990000247955322,-12.250000953674316,-23.00200080871582
1788656958741182200,10.12218212890625,-3.507000207901001,-12.120000839233398,-21.3700008392334
1788656958757348600,10.1383486328125,-2.763000249862671,-12.337000846862793,-21.475000381469727
1788656958773483800,10.15448388671875,-3.19700026512146,-12.017000198364258,-21.67500114440918
1788656958789544400,10.17054443359375,-1.7000000476837158,-12.446001052856445,-21.477001190185547
1788656958805601500,10.1866015625,-1.6950000524520874,-11.470000267028809,-20.654001235961914
1788656958821695000,10.202695068359375,-3.623000144958496,-12.449000358581543,-21.98400115966797
1788656958837865000,10.218864990234374,-4.985000133514404,-11.464000701904297,-20.547000885009766
1788656958854019600,10.23501953125,-4.022000312805176,-12.974000930786133,-21.17300033569336
1788656958870026200,10.251026123046875,-2.327000141143799,-12.222000122070312,-20.863000869750977
1788656958886080000,10.267080078125,-3.5910000801086426,-13.295001029968262,-21.075000762939453
1788656958902166000,10.283166015625,-5.065000057220459,-12.85300064086914,-20.25400161743164
1788656958918332700,10.299332763671876,-2.932000160217285,-13.175000190734863,-20.056001663208008
1788656958934480400,10.31548046875,-1.4470000267028809,-14.043000221252441,-20.677000045776367
1788656958950509000,10.331509033203124,-3.7860002517700195,-14.36500072479248,-20.98200035095215
1788656958966565400,10.3475654296875,-2.193000078201294,-14.691000938415527,-21.191001892089844
1788656958982674200,10.363674072265624,-3.5530002117156982,-13.380001068115234,-19.446001052856445
1788656958998845200,10.37984521484375,-1.4320000410079956,-13.385000228881836,-19.55000114440918
1788656959014955300,10.395955322265625,-3.6460001468658447,-14.344000816345215,-19.45400047302246
1788656959030977800,10.411977783203126,-3.9580001831054688,-14.664000511169434,-19.35500144958496
1788656959047040300,10.428040283203124,-2.7130000591278076,-14.684000968933105,-20.681001663208008
1788656959063151900,10.44415185546875,-4.3510003089904785,-14.320000648498535,-17.72100067138672
1788656959079324400,10.460324462890625,-2.1520001888275146,-14.342000961303711,-19.150001525878906
1788656959095446300,10.4764462890625,-2.757000207901001,-16.375,-18.964000701904297
1788656959111479300,10.492479248046875,-1.4580000638961792,-13.941000938415527,-21.08300018310547
1788656959127541200,10.508541259765625,-0.9750000238418579,-14.879000663757324,-19.05500030517578
1788656959143664600,10.52466455078125,-4.063000202178955,-14.231000900268555,-19.045000076293945
1788656959159838200,10.540838134765625,-2.263000011444092,-15.209000587463379,-19.871000289916992
1788656959175973600,10.5569736328125,-2.448000192642212,-14.328001022338867,-18.131000518798828
1788656959192033800,10.57303369140625,-3.4080002307891846,-15.518000602722168,-19.0570011138916
1788656959208089000,10.589089111328125,-1.6100001335144043,-14.66100025177002,-18.84800148010254
1788656959224221700,10.6052216796875,-2.243000030517578,-14.657000541687012,-18.644001007080078
1788656959240392000,10.621391845703124,-2.642000198364258,-13.5600004196167,-16.80000114440918
1788656959256533800,10.63753369140625,-2.13100004196167,-13.897000312805176,-17.924001693725586
1788656959272584400,10.65358447265625,-1.6470000743865967,-13.170001029968262,-19.54800033569336
1788656959288640500,10.669640625,-1.2740000486373901,-14.759000778198242,-18.136001586914062
1788656959304732700,10.685732666015625,-0.3100000023841858,-15.079000473022461,-17.937000274658203
1788656959320898800,10.70189892578125,-2.7660000324249268,-14.219000816345215,-18.02800178527832
1788656959337077500,10.718077392578126,-4.151000022888184,-14.544000625610352,-18.43600082397461
1788656959353096400,10.734096435546874,-1.7990001440048218,-14.53800106048584,-17.726001739501953
1788656959369146400,10.750146484375,-1.3950001001358032,-12.390000343322754,-17.30000114440918
1788656959385234200,10.766234130859376,-3.0930001735687256,-12.60300064086914,-17.402000427246094
1788656959401398300,10.782398193359375,-2.8650002479553223,-13.566000938415527,-17.30900001525879
1788656959417508600,10.798508544921875,-1.2620000839233398,-13.995000839233398,-17.111000061035156
1788656959433530600,10.814530517578126,-2.4560000896453857,-13.25200080871582,-17.81599998474121
1788656959449586200,10.830586181640625,-2.7910001277923584,-13.910000801086426,-18.942001342773438
1788656959465682000,10.846681884765625,-3.821000099182129,-12.916000366210938,-16.895000457763672
1788656959481849300,10.862849365234375,-2.6660001277923584,-13.4660005569458,-17.81800079345703
1788656959497972200,10.87897216796875,-4.581000328063965,-12.385000228881836,-17.296001434326172
1788656959514006800,10.8950068359375,-2.8630001544952393,-13.241000175476074,-17
1788656959530066000,10.91106591796875,-3.7240002155303955,-14.543000221252441,-18.33500099182129
1788656959546160400,10.927160400390624,-4.184000015258789,-13.159000396728516,-19.035001754760742
1788656959562324000,10.943323974609376,-1.0770000219345093,-12.499000549316406,-17.404001235961914
1788656959578430000,10.959429931640624,-2.6570000648498535,-12.272000312805176,-16.687000274658203
1788656959594443300,10.975443359375,-4.7860002517700195,-12.056000709533691,-16.784000396728516
1788656959610495500,10.99149560546875,-3.2270002365112305,-10.782000541687012,-17.488000869750977
1788656959626560800,11.007560791015624,-0.8810000419616699,-11.320000648498535,-17.394001007080078
1788656959642725000,11.02372509765625,-3.187000036239624,-11.515000343322754,-16.170000076293945
1788656959658847700,11.03984765625,-3.957000255584717,-11.746000289916992,-17.4950008392334
1788656959674872600,11.05587255859375,-3.2160000801086426,-10.77500057220459,-16.97800064086914
1788656959690928400,11.071928466796875,-2.257000207901001,-12.828001022338867,-18.118000030517578
1788656959706994400,11.087994384765626,-3.0360002517700195,-13.433000564575195,-15.372000694274902
1788656959723160800,11.104160888671874,-5.454000473022461,-10.993000984191895,-17.487001419067383
1788656959739293200,11.120293212890624,-0.6470000147819519,-12.38800048828125,-17.09800148010254
1788656959755338200,11.136338134765625,-3.8440001010894775,-10.553000450134277,-16.466001510620117
1788656959771394800,11.152394775390626,-3.5250000953674316,-10.445000648498535,-16.36400032043457
1788656959787478300,11.168478271484375,-5.138000011444092,-11.10300064086914,-17.692001342773438
1788656959803642000,11.18464208984375,-4.548000335693359,-9.72800064086914,-18.90300178527832
1788656959819784700,11.20078466796875,-4.577000141143799,-10.005000114440918,-15.645000457763672
1788656959835785200,11.21678515625,-3.9700002670288086,-10.132000923156738,-17.072999954223633
1788656959851840300,11.23284033203125,-4.195000171661377,-8.086000442504883,-16.34200096130371
1788656959867924200,11.24892431640625,-4.174000263214111,-9.587000846862793,-16.35500144958496
1788656959884086300,11.265086181640624,-2.827000141143799,-8.85200023651123,-17.369001388549805
1788656959900203800,11.281203857421875,-3.2230000495910645,-8.294000625610352,-15.734001159667969
1788656959916219600,11.2972197265625,-3.5510001182556152,-9.596000671386719,-16.96700096130371
1788656959932271400,11.313271240234375,-1.0320000648498535,-8.753000259399414,-17.77800178527832
1788656959948376300,11.329376220703125,-0.8920000195503235,-10.354000091552734,-17.283000946044922
1788656959964546600,11.345546630859374,-3.6720001697540283,-7.984000205993652,-16.647001266479492
1788656959980664000,11.3616640625,-1.8610000610351562,-8.74000072479248,-16.860000610351562
1788656959996703000,11.377702880859376,-2.820000171661377,-10.145000457763672,-17.89000129699707
1788656960012761600,11.39376171875,-2.248000144958496,-9.14900016784668,-15.437000274658203
1788656960028875500,11.40987548828125,-3.260000228881836,-8.532999992370605,-17.57000160217285
1788656960045039400,11.426039306640625,-1.5550000667572021,-7.991000175476074,-16.95600128173828
1788656960061162200,11.442162353515625,-1.659000039100647,-8.854000091552734,-17.371000289916992
1788656960077197300,11.458197265625,-2.7110002040863037,-8.523000717163086,-16.755001068115234
1788656960093250000,11.47425,-3.0430002212524414,-7.773000240325928,-16.850000381469727
1788656960109374000,11.4903740234375,-3.455000162124634,-7.982000350952148,-16.444000244140625
1788656960125539300,11.506539306640626,-4.538000106811523,-7.776000499725342,-17.256000518798828
1788656960141669000,11.522669189453126,-2.8390002250671387,-7.779000282287598,-17.25800132751465
1788656960157714000,11.5387138671875,-2.6430001258850098,-7.573000431060791,-17.868000030517578
1788656960173772000,11.55477197265625,-2.7210001945495605,-8.85200023651123,-17.369001388549805
1788656960189905400,11.570905517578124,-3.9800002574920654,-8.085000038146973,-16.240001678466797
1788656960206074400,11.587074462890625,-1.0810000896453857,-10.232000350952148,-16.161001205444336
1788656960222224400,11.603224365234375,-3.315000057220459,-8.50100040435791,-15.226000785827637
1788656960238278700,11.619278564453126,-1.8340001106262207,-9.588000297546387,-16.155000686645508
1788656960254330600,11.63533056640625,-2.7770001888275146,-9.795000076293945,-15.748001098632812
1788656960270423600,11.651423583984375,-1.477000117301941,-9.241000175476074,-14.217000961303711
1788656960286581500,11.66758154296875,-3.325000047683716,-9.372000694274902,-16.253000259399414
1788656960302723800,11.683723876953126,-0.8260000348091125,-10.530000686645508,-14.432001113891602
1788656960318712300,11.69971240234375,-2.3340001106262207,-9.460000038146973,-14.72700023651123
1788656960334763500,11.715763427734375,-2.9770002365112305,-10.219000816345215,-15.446001052856445
1788656960350844000,11.731843994140625,-1.4810000658035278,-9.243000030517578,-14.420001029968262
1788656960367007700,11.7480078125,-2.874000072479248,-10.654000282287598,-15.857000350952148
1788656960383112200,11.7641123046875,-0.9500000476837158,-10.108000755310059,-14.938000679016113
1788656960399118300,11.780118408203125,-2.5400002002716064,-9.456000328063965,-14.421000480651855
1788656960415170800,11.7961708984375,-0.64000004529953,-9.4660005569458,-14.933000564575195
1788656960431256800,11.8122568359375,-3.058000087738037,-10.204000473022461,-14.325000762939453
1788656960447424500,11.828424560546875,-2.8450000286102295,-9.772000312805176,-14.016000747680664
1788656960463543800,11.844543701171874,-1.0160000324249268,-12.35300064086914,-14.55000114440918
1788656960479564800,11.860564697265625,-2.513000011444092,-11.925000190734863,-14.748001098632812
1788656960495618800,11.876618896484375,-1.5750000476837158,-9.992000579833984,-14.325000762939453
1788656960511702300,11.892702392578125,-1.1370000839233398,-11.714000701904297,-14.850000381469727
1788656960527869400,11.908869384765625,-2.1050000190734863,-12.47700023651123,-15.874000549316406
1788656960543988700,11.92498876953125,-2.4090001583099365,-11.278000831604004,-14.437000274658203
1788656960560019500,11.94101953125,-1.7620000839233398,-10.625000953674316,-13.617000579833984
1788656960576076500,11.95707666015625,-3.455000162124634,-11.915000915527344,-14.136000633239746
1788656960592160000,11.973159912109375,-1.8700001239776611,-11.166000366210938,-14.029000282287598
1788656960608326400,11.989326416015626,-2.059000015258789,-12.3410005569458,-13.734000205993652
1788656960624457700,12.005457763671876,-0.5540000200271606,-12.224000930786133,-12.818000793457031
1788656960640510200,12.02151025390625,-0.04200000315904617,-11.480000495910645,-13.219000816345215
1788656960656570400,12.0375703125,-1.1150000095367432,-12.02500057220459,-14.03800106048584
1788656960672666600,12.05366650390625,-1.8450000286102295,-11.476000785827637,-13.11500072479248
1788656960688808000,12.069807861328124,-0.9110000729560852,-11.922000885009766,-14.343000411987305
1788656960704954400,12.085954345703126,-1.7410000562667847,-11.801000595092773,-13.42400074005127
1788656960721008600,12.102008544921874,-1.3580000400543213,-10.962000846862793,-14.74100112915039
1788656960737066000,12.11806591796875,-1.471000075340271,-9.994000434875488,-14.427000999450684
1788656960761190000,12.14218994140625,-0.5950000286102295,-11.0600004196167,-13.928000450134277
1788656960777285600,12.15828564453125,0.35600000619888306,-11.495000839233398,-14.3410005569458
1788656960793376300,12.174376220703126,-2.0930001735687256,-10.74000072479248,-14.22900104522705
1788656960809538600,12.19053857421875,-0.6710000038146973,-12.555000305175781,-13.534000396728516
1788656960825621200,12.206621337890626,1.2140001058578491,-10.736000061035156,-13.520000457763672
1788656960841639400,12.222639404296874,-1.4530000686645508,-10.955000877380371,-14.232000350952148
1788656960857731600,12.238731689453125,-0.8750000596046448,-13.522000312805176,-13.746000289916992
1788656960873837600,12.254837646484376,-1,-11.480000495910645,-13.320000648498535
1788656960890003500,12.27100341796875,-1.0329999923706055,-10.959000587463379,-14.43600082397461
1788656960906101000,12.28710107421875,-0.9970000386238098,-11.910000801086426,-13.426000595092773
1788656960922135300,12.30313525390625,-1.5720000267028809,-10.63900089263916,-14.636000633239746
1788656960938234000,12.319234130859375,0.4360000193119049,-11.51200008392334,-15.563000679016113
1788656960954354200,12.335354248046874,-1.4470000267028809,-10.736000061035156,-13.822000503540039
1788656960970518800,12.351518798828126,-0.7270000576972961,-11.507000923156738,-15.358000755310059
1788656960986622500,12.36762255859375,-1.7370001077651978,-12.123000144958496,-13.427000999450684
1788656961002627800,12.3836279296875,-1.7420001029968262,-12.77400016784668,-14.044000625610352
1788656961018746600,12.39974658203125,-2.1040000915527344,-10.747000694274902,-14.738000869750977
1788656961034840800,12.4158408203125,-0.08800000697374344,-11.291000366210938,-15.153000831604004
1788656961051004400,12.43200439453125,-0.2939999997615814,-9.99000072479248,-14.021000862121582
1788656961067120400,12.448120361328124,-1.5830000638961792,-10.53700065612793,-15.043001174926758
1788656961083104800,12.464104736328125,-1.902000069618225,-10.53700065612793,-15.042000770568848
1788656961099208400,12.48020849609375,-1.7740000486373901,-10.632000923156738,-14.12700080871582
1788656961115314400,12.496314453125,-0.5040000081062317,-10.63700008392334,-14.332000732421875
1788656961131481900,12.51248193359375,-0.055000003427267075,-11.704000473022461,-13.934000968933105
1788656961147602000,12.528601806640625,-1.8670001029968262,-12.893000602722168,-14.961000442504883
1788656961163605200,12.544605224609375,-2.129000186920166,-9.46500015258789,-15.033000946044922
1788656961179725800,12.560725830078125,-2.819000244140625,-11.809000968933105,-14.136000633239746
1788656961195807200,12.57680712890625,-0.6050000190734863,-10.3100004196167,-13.921000480651855
1788656961211969000,12.592968994140625,-0.2750000059604645,-12.140000343322754,-14.54900074005127
1788656961228042500,12.60904248046875,-2.0920000076293945,-10.631000518798828,-14.12600040435791
1788656961244040700,12.625040771484375,-0.8550000190734863,-10.11500072479248,-15.447000503540039
1788656961260181200,12.64118115234375,-3.4690001010894775,-10.735000610351562,-14.023000717163086
1788656961276273200,12.657273193359375,-2.6580002307891846,-10.760000228881836,-15.756000518798828
1788656961292435200,12.673435302734376,0.03100000135600567,-11.82300090789795,-14.85200023651123
1788656961308509700,12.689509765625,-0.5180000066757202,-11.293000221252441,-15.356000900268555
1788656961324526300,12.7055263671875,-1.6940001249313354,-11.189000129699707,-15.660000801086426
1788656961340627700,12.721627685546874,-1.2340000867843628,-10.62700080871582,-13.720000267028809
1788656961356738600,12.737738525390625,-2.621000051498413,-11.278000831604004,-14.437000274658203
1788656961372903700,12.753903564453125,-1.0360000133514404,-11.177000999450684,-14.744000434875488
1788656961388981500,12.7699814453125,-0.09000000357627869,-10.860000610351562,-14.946001052856445
1788656961404984600,12.785984619140624,-1.5850000381469727,-9.565999984741211,-14.52500057220459
1788656961421089000,12.802089111328126,-1.9010001420974731,-11.4010009765625,-15.559000968933105
1788656961437208600,12.81820849609375,-2.121000051498413,-10.541000366210938,-15.348000526428223
1788656961453371000,12.834370849609375,-0.6230000257492065,-10.53600025177002,-14.840001106262207
1788656961469447400,12.850447509765624,-0.6410000324249268,-9.89900016784668,-15.242000579833984
1788656961485450500,12.866450439453125,-2.121000051498413,-9.676000595092773,-14.831000328063965
1788656961501562400,12.882562255859375,-0.4230000078678131,-10.760000228881836,-15.556000709533691
1788656961517682400,12.898682373046874,-0.9770000576972961,-10.449000358581543,-16.367000579833984
1788656961533847000,12.914846923828126,-1.718000054359436,-9.907000541687012,-15.954000473022461
1788656961549925000,12.930925048828126,-2.011000156402588,-10.647000312805176,-15.247000694274902
1788656961565931800,12.946931884765625,-2.013000011444092,-11.837000846862793,-16.07200050354004
1788656961582061300,12.963061279296875,-3.0970001220703125,-9.363000869750977,-15.540000915527344
1788656961598191400,12.97919140625,-1.3660000562667847,-11.39900016784668,-15.356000900268555
1788656961614356200,12.995356201171875,-1.562000036239624,-12.038000106811523,-15.056000709533691
1788656961630433300,13.011433349609375,-0.921000063419342,-12.469000816345215,-15.16300106048584
1788656961646443000,13.027443115234375,-1.4520000219345093,-11.495000839233398,-14.542000770568848
1788656961662539300,13.043539306640625,-2.931000232696533,-11.920001029968262,-14.442000389099121
1788656961678630700,13.059630615234376,-1.7660000324249268,-12.141000747680664,-14.75100040435791
1788656961694796800,13.075796875,-2.388000011444092,-12.454000473022461,-14.244000434875488
1788656961710884000,13.091884033203126,-1.3550000190734863,-12.79800033569336,-15.7760009765625
1788656961726882800,13.1078828125,-2.2940001487731934,-12.894001007080078,-15.063000679016113
1788656961742998800,13.123998779296874,-1.1470000743865967,-12.47700023651123,-15.774001121520996
1788656961759090000,13.14008984375,-0.703000009059906,-11.277000427246094,-14.134000778198242
1788656961775253500,13.15625341796875,-2.064000129699707,-14.181000709533691,-15.074000358581543
1788656961791344600,13.1723447265625,-0.9030000567436218,-12.998000144958496,-14.658000946044922
1788656961807389200,13.18838916015625,-0.893000066280365,-13.533000946044922,-14.56100082397461
1788656961823480800,13.204480712890625,-0.7720000147819519,-13.956000328063965,-14.157000541687012
1788656961839569000,13.22056884765625,-2.5880000591278076,-13.527000427246094,-14.355000495910645
1788656961855730200,13.236730224609374,-1.5730000734329224,-14.206000328063965,-16.909000396728516
1788656961871828200,13.252828125,-2.6020002365112305,-14.292000770568848,-15.482000350952148
1788656961887827700,13.26882763671875,-1.3960000276565552,-14.380001068115234,-13.855000495910645
1788656961903924000,13.284924072265625,-2.18500018119812,-13.757000923156738,-15.47800064086914
1788656961920032500,13.301032470703126,-0.8970000147819519,-14.40000057220459,-15.281001091003418
1788656961936195000,13.317195068359375,-1.6180000305175781,-14.709000587463379,-14.468000411987305
1788656961952300500,13.333300537109375,-2.8910000324249268,-14.814001083374023,-14.468000411987305
1788656961968300800,13.34930078125,-2.4750001430511475,-14.496000289916992,-14.669000625610352
1788656961984414000,13.3654140625,-1.6070001125335693,-15.0260009765625,-14.166000366210938
1788656962000535600,13.38153564453125,-1.5540000200271606,-14.302000999450684,-16.095001220703125
1788656962016707800,13.397707763671875,-1.2410000562667847,-14.19800090789795,-16.29800033569336
1788656962032796000,13.4137958984375,-1.319000005722046,-14.937000274658203,-15.48900032043457
1788656962048801000,13.429801025390624,-2.4810001850128174,-15.36400032043457,-15.492000579833984
1788656962064930300,13.445930419921876,-3.4070000648498535,-15.994000434875488,-14.579000473022461
1788656962081061600,13.4620615234375,-0.8580000400543213,-15.88900089263916,-14.480000495910645
1788656962097227500,13.4782275390625,-4.401000022888184,-15.367000579833984,-15.897000312805176
1788656962113343500,13.494343505859375,-2.5840001106262207,-16.44300079345703,-16.010000228881836
1788656962129352000,13.51035205078125,-1.7050000429153442,-15.886000633239746,-14.37700080871582
1788656962145488000,13.52648779296875,-1.8350000381469727,-15.360000610351562,-15.085000991821289
1788656962161580000,13.542580078125,-1.8440001010894775,-15.041000366210938,-15.28600025177002
1788656962185721600,13.5667216796875,-3.1080000400543213,-14.92500114440918,-14.774001121520996
1788656962201817300,13.5828173828125,-2.812000036239624,-15.26300048828125,-16
1788656962217993000,13.598992919921875,-1.415000081062317,-14.82300090789795,-14.97900104522705
1788656962234108400,13.6151083984375,-0.1550000011920929,-14.294000625610352,-15.281001091003418
1788656962250146800,13.631146728515626,-0.7870000600814819,-15.154000282287598,-15.594000816345215
1788656962266200600,13.64720068359375,-1.5070000886917114,-15.895000457763672,-14.988000869750977
1788656962282287600,13.66328759765625,-0.9740000367164612,-15.35400104522705,-14.577000617980957
1788656962298452000,13.679451904296876,-0.862000048160553,-16.756000518798828,-15.200000762939453
1788656962314571500,13.695571533203125,-3.499000072479248,-16.201000213623047,-14.072000503540039
1788656962330598100,13.71159814453125,-2.1690001487731934,-15.045001029968262,-15.5910005569458
1788656962346653200,13.727653076171874,-1.6220000982284546,-15.576001167297363,-15.189001083374023
1788656962362728400,13.743728515625,-3.192000150680542,-17.505001068115234,-15.408000946044922
1788656962378892800,13.759892822265625,-2.5470001697540283,-16.097000122070312,-14.17400074005127
1788656962395025200,13.776025146484375,-1.0870000123977661,-15.683000564575195,-15.089000701904297
1788656962411071500,13.792071533203124,-2.3460001945495605,-16.104000091552734,-14.683000564575195
1788656962427129000,13.808129150390625,-2.1700000762939453,-14.829000473022461,-15.487000465393066
1788656962443191300,13.82419140625,-2.195000171661377,-13.980000495910645,-16.091001510620117
1788656962459351800,13.840351806640625,-1.8200000524520874,-16.4320011138916,-15.095000267028809
1788656962475461600,13.856461669921876,-2.2890000343322754,-15.053000450134277,-16.202001571655273
1788656962491480800,13.872480712890624,-0.7870000600814819,-15.370000839233398,-15.69800090789795
1788656962507530200,13.8885302734375,-1.915000081062317,-16.100000381469727,-14.378000259399414
1788656962523592000,13.904592041015626,-2.374000072479248,-15.580000877380371,-15.596000671386719
1788656962539750400,13.92075048828125,-0.3490000069141388,-15.471000671386719,-15.190000534057617
1788656962555868400,13.936868408203125,-4.941000461578369,-14.399001121520996,-15.684000968933105
1788656962571896300,13.952896240234375,-1.4210001230239868,-15.043001174926758,-15.38800048828125
1788656962587942000,13.96894189453125,-2.8330001831054688,-17.80500030517578,-13.781001091003418
1788656962604008200,13.98500830078125,-3.195000171661377,-15.994000434875488,-14.580000877380371
1788656962620170800,14.001170654296875,-1.7680001258850098,-15.492000579833984,-16.920000076293945
1788656962636304100,14.01730419921875,-2.0470001697540283,-16.332000732421875,-15.705000877380371
1788656962652292900,14.03329296875,-1.6350001096725464,-15.80000114440918,-15.904000282287598
1788656962668342800,14.0493427734375,-1.5100001096725464,-16.32900047302246,-15.40000057220459
1788656962684420900,14.0654208984375,-2.373000144958496,-15.796000480651855,-15.699000358581543
1788656962700579000,14.0815791015625,-1.4310001134872437,-16.130001068115234,-16.518001556396484
1788656962716724200,14.09772412109375,-0.9080000519752502,-15.055000305175781,-16.20400047302246
1788656962732730600,14.113730712890625,0.18700000643730164,-15.90000057220459,-15.194001197814941
1788656962748772000,14.129772216796875,0.37300002574920654,-14.511000633239746,-15.488000869750977
1788656962764848600,14.1458486328125,-0.8910000324249268,-14.504000663757324,-15.079000473022461
1788656962781005600,14.162005615234374,-0.8050000667572021,-15.381000518798828,-16.51300048828125
1788656962797111800,14.17811181640625,-1.7440000772476196,-16.23400115966797,-16.315000534057617
1788656962813125400,14.19412548828125,-2.3470001220703125,-17.077001571655273,-15.303000450134277
1788656962829177600,14.210177490234376,-1.1050000190734863,-15.369000434875488,-15.697000503540039
1788656962845275100,14.226275146484374,-0.17500001192092896,-15.494000434875488,-16.922000885009766
1788656962861436400,14.2424365234375,-1.0250000953674316,-15.926000595092773,-17.23000144958496
1788656962877550800,14.25855078125,-2.7080001831054688,-15.156001091003418,-15.999000549316406
1788656962893571600,14.274571533203124,-2.626000165939331,-15.172000885009766,-17.1200008392334
1788656962909623600,14.29062353515625,-2.195000171661377,-14.304000854492188,-16.29800033569336
1788656962925733400,14.3067333984375,-2.6550002098083496,-13.460000991821289,-17.308000564575195
1788656962941898800,14.322898681640625,-4.117000102996826,-15.172000885009766,-17.32200050354004
1788656962958022100,14.339022216796875,-1.5490000247955322,-14.840001106262207,-16.201000213623047
1788656962974054400,14.355054443359375,-1.9500000476837158,-15.689001083374023,-15.699000358581543
1788656962990106000,14.371106201171875,0.7860000133514404,-15.492000579833984,-16.618000030517578
1788656963006225400,14.387225341796874,-1.9520001411437988,-15.691000938415527,-15.801000595092773
1788656963022389800,14.4033896484375,-1.309000015258789,-16.65999984741211,-16.11600112915039
1788656963038525200,14.419525146484375,-1.0010000467300415,-16.3439998626709,-16.41900062561035
1788656963054568400,14.435568359375,-0.9970000386238098,-16.665000915527344,-16.422000885009766
1788656963070620200,14.4516201171875,-2.1610000133514404,-16.44500160217285,-16.113000869750977
1788656963086700000,14.467699951171875,-1.5090000629425049,-17.19300079345703,-15.917000770568848
1788656963102870300,14.483870361328124,-1.2000000476837158,-16.659000396728516,-16.013999938964844
1788656963118981600,14.499981689453126,-0.5540000200271606,-17.19500160217285,-15.918001174926758
1788656963135004700,14.516004638671875,-1.1700000762939453,-18.694000244140625,-15.930000305175781
1788656963151065600,14.532065673828125,-0.7760000228881836,-17.63300132751465,-16.634000778198242
1788656963167131000,14.548130859375,0.10400000214576721,-17.939001083374023,-15.416000366210938
1788656963183300900,14.56430078125,-0.9750000238418579,-18.273000717163086,-16.43600082397461
1788656963199442700,14.580442626953126,-0.24700000882148743,-17.31100082397461,-16.530000686645508
1788656963215454000,14.596453857421874,-1.9100000858306885,-18.58300018310547,-15.725000381469727
1788656963231511000,14.612510986328125,-0.41600000858306885,-20.09400177001953,-16.35099983215332
1788656963247588600,14.628588623046875,-0.0650000050663948,-19.31800079345703,-14.409000396728516
1788656963263756800,14.6447568359375,-0.8540000319480896,-18.1560001373291,-15.722001075744629
1788656963279864600,14.660864501953125,-1.4760000705718994,-19.227001190185547,-15.731000900268555
1788656963295879000,14.67687890625,-0.1940000057220459,-18.683000564575195,-15.015000343322754
1788656963311935200,14.692935302734375,-0.10000000149011612,-19.123001098632812,-15.834000587463379
1788656963328014300,14.709014404296875,-0.41600000858306885,-20.09400177001953,-16.35099983215332
1788656963344187600,14.725187744140625,0.4490000307559967,-19.869001388549805,-15.433000564575195
1788656963360333000,14.7413330078125,1.2080000638961792,-20.185001373291016,-14.928000450134277
1788656963376365600,14.757365478515625,-0.20600001513957977,-21.284000396728516,-17.177000045776367
1788656963392419800,14.773419921875,1.315000057220459,-19.861000061035156,-14.721000671386719
1788656963408500700,14.789500732421875,1.4250000715255737,-20.615001678466797,-15.034000396728516
1788656963424671200,14.805671142578126,0.7710000276565552,-20.408000946044922,-15.642001152038574
1788656963440802600,14.821802490234376,0.15600000321865082,-20.826000213623047,-14.932001113891602
1788656963456840000,14.83783984375,1.9480000734329224,-21.593000411987305,-15.960000991821289
1788656963472890000,14.85389013671875,1.4270000457763672,-21.262001037597656,-15.345000267028809
1788656963488969000,14.869968994140624,1.6410000324249268,-21.261001586914062,-15.243000984191895
1788656963505136600,14.88613671875,1.8360000848770142,-21.812000274658203,-16.369001388549805
1788656963521274400,14.9022744140625,1.9320000410079956,-20.738000869750977,-16.1560001373291
1788656963537336300,14.91833642578125,-0.6940000057220459,-21.9060001373291,-15.654000282287598
1788656963553389300,14.934389404296875,3.122000217437744,-21.483001708984375,-15.655000686645508
1788656963569472300,14.95047216796875,0.9850000739097595,-20.51500129699707,-15.643000602722168
1788656963585639000,14.966638916015626,0.37400001287460327,-22.22800064086914,-15.556000709533691
1788656963601793000,14.98279296875,0.4690000116825104,-21.47800064086914,-15.54900074005127
1788656963617806300,14.998806396484374,-1.977000117301941,-21.58500099182129,-15.85300064086914
1788656963633864400,15.014864501953125,1.7330000400543213,-21.378000259399414,-15.958001136779785
1788656963649948700,15.03094873046875,0.6670000553131104,-20.082000732421875,-15.334000587463379
1788656963666117400,15.047117431640626,-0.29200002551078796,-21.056001663208008,-16.1560001373291
1788656963682226200,15.06322607421875,1.3170000314712524,-22.0210018157959,-15.963000297546387
1788656963698240500,15.079240478515626,0.05000000074505806,-24.176000595092773,-16.999000549316406
1788656963714302500,15.095302490234374,-0.4130000174045563,-20.84800148010254,-16.663000106811523
1788656963730394600,15.11139453125,1.0670000314712524,-21.395000457763672,-17.2810001373291
1788656963746562300,15.127562255859376,0.47200003266334534,-22.016000747680664,-15.758000373840332
1788656963770639600,15.1516396484375,0.5700000524520874,-21.91400146484375,-16.06300163269043
1788656963786802200,15.16780224609375,0.7680000066757202,-21.815000534057617,-16.67300033569336
1788656963802902000,15.183902099609375,0.7990000247955322,-22.1200008392334,-15.454000473022461
1788656963818900000,15.19989990234375,-0.26600000262260437,-22.661001205444336,-15.9660005569458
1788656963834999300,15.215999267578125,1.100000023841858,-22.023000717163086,-16.166000366210938
1788656963851122200,15.2321220703125,0.5250000357627869,-20.644001007080078,-17.27400016784668
1788656963867284500,15.248284423828125,1.318000078201294,-22.885000228881836,-16.48000144958496
1788656963883391000,15.264390869140625,-1.3590000867843628,-21.166000366210938,-16.461000442504883
1788656963899394300,15.280394287109376,0.13199999928474426,-21.597000122070312,-16.46700096130371
1788656963915509200,15.29650927734375,-2.013000011444092,-21.283000946044922,-17.2760009765625
1788656963931607300,15.312607177734375,0.3400000035762787,-21.600000381469727,-16.671001434326172
1788656963947768800,15.328768798828126,2.813000202178955,-22.882001876831055,-16.07400131225586
1788656963963884300,15.34488427734375,-0.07600000500679016,-21.81100082397461,-16.468000411987305
1788656963979868200,15.3608681640625,0.6420000195503235,-19.44900131225586,-16.041000366210938
1788656963995984000,15.37698388671875,1.2110000848770142,-21.696001052856445,-15.756000518798828
1788656964012098000,15.39309814453125,-0.26200002431869507,-22.44300079345703,-15.659000396728516
1788656964028258600,15.409258544921874,1.3370000123977661,-23.30500030517578,-15.872000694274902
1788656964044334000,15.425333984375,-0.2600000202655792,-21.9010009765625,-15.247000694274902
1788656964060315600,15.441315673828125,0.3580000102519989,-22.237001419067383,-16.269001007080078
1788656964076435200,15.457435302734375,-0.7920000553131104,-22.009000778198242,-15.349000930786133
1788656964092531000,15.473531005859375,-0.18300001323223114,-20.946001052856445,-15.951001167297363
1788656964108692700,15.489692626953126,-0.1810000091791153,-20.94500160217285,-15.850000381469727
1788656964124766700,15.5057666015625,0.999000072479248,-20.72300148010254,-15.136000633239746
1788656964140756000,15.521755859375,-1.3370000123977661,-20.179000854492188,-14.82300090789795
1788656964156895500,15.5378955078125,1.2030000686645508,-19.972000122070312,-15.028000831604004
1788656964173001500,15.55400146484375,-1.436000108718872,-21.68800163269043,-15.447000503540039
1788656964189161700,15.57016162109375,1.0099999904632568,-22.01300048828125,-15.453001022338867
1788656964205235000,15.58623486328125,1.9260001182556152,-19.44500160217285,-15.635001182556152
1788656964221228000,15.60222802734375,1.8540000915527344,-21.262001037597656,-15.244000434875488
1788656964237319700,15.618319580078126,1.8640000820159912,-20.823001861572266,-14.527000427246094
1788656964253424600,15.634424560546876,0.7850000262260437,-21.264001846313477,-15.54800033569336
1788656964269589000,15.650589111328125,0.3920000195503235,-21.244001388549805,-14.121000289916992
1788656964285668000,15.666668212890626,1.125,-21.792001724243164,-14.942000389099121
1788656964301670400,15.68267041015625,1.2160000801086426,-19.748001098632812,-14.313000679016113
1788656964317781200,15.69878125,1.5810000896453857,-22.63800048828125,-14.033000946044922
1788656964333893400,15.714893310546875,0.16600000858306885,-21.25200080871582,-14.732000350952148
1788656964350051300,15.73105126953125,1.565000057220459,-21.783000946044922,-14.22900104522705
1788656964366127900,15.7471279296875,0.28200000524520874,-20.490001678466797,-13.809000968933105
1788656964382124800,15.763124755859375,2.623000144958496,-21.139001846313477,-14.021000862121582
1788656964398235600,15.779235595703126,0.9030000567436218,-20.60900115966797,-14.62600040435791
1788656964414357500,15.795357421875,-0.02800000086426735,-21.349000930786133,-14.020000457763672
1788656964430519800,15.811519775390625,0.9950000643730164,-19.96900177001953,-14.824000358581543
1788656964446599700,15.827599609375,1.1320000886917114,-20.382001876831055,-13.707000732421875
1788656964462602000,15.84360205078125,0.2639999985694885,-21.14900016784668,-15.03700065612793
1788656964478733300,15.8597333984375,0.9270000457763672,-21.67500114440918,-14.22700023651123
1788656964494869800,15.875869873046875,-0.320000022649765,-21.441001892089844,-12.90000057220459
1788656964511035100,15.89203515625,0.9180000424385071,-20.05900001525879,-13.60200023651123
1788656964527112700,15.90811279296875,0.2930000126361847,-20.591001510620117,-13.402000427246094
1788656964543115300,15.924115234375,0.0430000014603138,-19.209001541137695,-14.205000877380371
1788656964559246800,15.940246826171874,-0.5590000152587891,-20.160001754760742,-13.295001029968262
1788656964575340300,15.95634033203125,-0.43300002813339233,-21.121000289916992,-12.998000144958496
1788656964591502300,15.97250244140625,0.8260000348091125,-21.23900032043457,-13.714000701904297
1788656964607586600,15.988586669921874,0.9660000205039978,-22.192001342773438,-12.806000709533691
1788656964623582000,16.00458203125,1.2720000743865967,-21.011001586914062,-12.592000961303711
1788656964639682300,16.020682373046874,1.996000051498413,-22.428001403808594,-14.337000846862793
1788656964655786000,16.036785888671876,0.6450000405311584,-22.408000946044922,-13.011000633239746
1788656964671948300,16.0529482421875,1.7290000915527344,-21.316001892089844,-11.373000144958496
1788656964688044000,16.0690439453125,2.3500001430511475,-22.191001892089844,-12.60400104522705
1788656964704002300,16.085002197265624,3.742000102996826,-23.808000564575195,-13.129000663757324
1788656964720132400,16.10113232421875,2.767000198364258,-22.089000701904297,-12.909000396728516
1788656964736260000,16.117260009765626,2.9730000495910645,-21.660001754760742,-12.906000137329102
1788656964752428800,16.1334287109375,3.940000295639038,-21.979000091552734,-12.60400104522705
1788656964768524500,16.149524658203124,2.388000011444092,-24.222002029418945,-12.214000701904297
1788656964784533000,16.165532958984375,1.815000057220459,-22.19300079345703,-12.807000160217285
1788656964800637200,16.18163720703125,2.81000018119812,-22.387001037597656,-11.180000305175781
1788656964816762400,16.197762451171876,2.366000175476074,-22.830001831054688,-12.304000854492188
1788656964832929800,16.2139296875,4.094000339508057,-24.112001419067383,-11.808000564575195
1788656964849037000,16.230037109375,3.0970001220703125,-24.244001388549805,-13.744000434875488
1788656964865038000,16.2460380859375,2.4800000190734863,-24.23000144958496,-12.826000213623047
1788656964881147600,16.262147705078124,4.499000072479248,-23.692001342773438,-12.416000366210938
1788656964897262300,16.278262451171877,1.5550000667572021,-23.77800178527832,-11.191000938415527
1788656964913426400,16.294426513671876,2.9040000438690186,-23.691001892089844,-12.516000747680664
1788656964929540900,16.310540771484376,1.6670000553131104,-24.856000900268555,-11.608000755310059
1788656964945529300,16.326529296875,2.492000102996826,-23.251001358032227,-11.697000503540039
1788656964961646600,16.342646484375,1.4230000972747803,-24.226001739501953,-12.621000289916992
1788656964977777000,16.35877685546875,0.999000072479248,-24.117000579833984,-12.517000198364258
1788656964993937400,16.3749375,3.321000099182129,-24.12900161743164,-13.132000923156738
1788656965010014000,16.391013916015623,2.632000207901001,-24.41900062561035,-10.892000198364258
1788656965026006800,16.4070068359375,2.2730000019073486,-23.90300178527832,-12.415000915527344
1788656965042137300,16.423137451171876,2.629000186920166,-24.31300163269043,-10.993000984191895
1788656965058226700,16.439226806640626,2.2700002193450928,-23.365001678466797,-12.207000732421875
1788656965074395000,16.455394775390626,2.187000036239624,-24.215002059936523,-11.705000877380371
1788656965090474800,16.471474853515623,3.142000198364258,-22.70400047302246,-10.7760009765625
1788656965106474200,16.48747412109375,2.496000051498413,-23.248001098632812,-11.493000984191895
1788656965122567200,16.503567138671876,2.5930001735687256,-22.714000701904297,-11.59000015258789
1788656965138665200,16.519665283203125,3.0370001792907715,-22.81100082397461,-10.777000427246094
1788656965154824200,16.53582421875,0.5790000557899475,-21.952001571655273,-10.970000267028809
1788656965170895600,16.5518955078125,2.4870002269744873,-22.714000701904297,-11.59000015258789
1788656965186898000,16.56789794921875,4.187000274658203,-21.31100082397461,-10.663000106811523
1788656965202999600,16.58399951171875,3.327000141143799,-22.07200050354004,-11.585000991821289
1788656965227183900,16.608183837890625,2.5210001468658447,-22.909000396728516,-10.166000366210938
1788656965243241500,16.624241455078124,0.4750000238418579,-22.166000366210938,-10.972000122070312
1788656965259319800,16.64031982421875,2.177000045776367,-23.032001495361328,-11.38900089263916
1788656965275489800,16.65648974609375,0.7850000262260437,-23.145000457763672,-11.999000549316406
1788656965291622700,16.67262255859375,-0.2850000262260437,-22.176000595092773,-11.78600025177002
1788656965307663600,16.68866357421875,0.7770000100135803,-21.961000442504883,-11.581000328063965
1788656965323719400,16.704719482421876,2.0410001277923584,-20.88800048828125,-11.370000839233398
1788656965339798800,16.720798828125,0.484000027179718,-21.621000289916992,-10.254000663757324
1788656965355964400,16.73696435546875,-0.4710000157356262,-21.944000244140625,-10.459000587463379
1788656965372099800,16.753099853515625,1.4880000352859497,-20.793001174926758,-12.285000801086426
1788656965388167400,16.76916748046875,0.76500004529953,-19.591001510620117,-10.644000053405762
1788656965404226000,16.78522607421875,1.2980000972747803,-20.56300163269043,-11.16200065612793
1788656965420315600,16.801315673828125,2.755000114440918,-19.07000160217285,-11.558000564575195
1788656965436486700,16.817486572265626,-0.6550000309944153,-19.28900146484375,-12.269001007080078
1788656965452630800,16.833630859375,-1.633000135421753,-18.652000427246094,-12.873000144958496
1788656965468679700,16.8496796875,-1.196000099182129,-18.538000106811523,-12.262001037597656
1788656965484736800,16.86573681640625,1.0070000886917114,-17.043001174926758,-12.455000877380371
1788656965500819000,16.88181884765625,1.0170000791549683,-16.60500144958496,-11.738000869750977
1788656965516986600,16.897986572265626,-0.3500000238418579,-16.488000869750977,-11.124000549316406
1788656965533136000,16.914135986328127,-1.0770000219345093,-17.341001510620117,-10.927000045776367
1788656965549141800,16.930141845703126,-0.9020000696182251,-16.9320011138916,-12.350000381469727
1788656965565197300,16.946197265625,-0.8240000605583191,-16.084001541137695,-13.055000305175781
1788656965581277200,16.962277099609373,-0.597000002861023,-14.995000839233398,-11.722000122070312
1788656965597442000,16.978442138671873,-1.2590000629425049,-14.6850004196167,-12.635000228881836
1788656965613649700,16.994649658203127,0.3680000305175781,-15.098000526428223,-11.316000938415527
1788656965629666800,17.010666748046877,1.194000005722046,-15.330000877380371,-12.542000770568848
1788656965645724000,17.026723876953124,0.13900001347064972,-15.86500072479248,-12.545001029968262
1788656965661817000,17.042817138671875,-1.6500000953674316,-15.421000480651855,-11.622000694274902
1788656965677984800,17.05898486328125,-0.4000000059604645,-15.545001029968262,-12.746000289916992
1788656965694097400,17.075097412109375,-0.6230000257492065,-14.254000663757324,-12.428000450134277
1788656965710118000,17.091117919921874,-0.2110000103712082,-13.506000518798828,-12.52400016784668
1788656965726175000,17.107175048828125,-2.0950000286102295,-13.81100082397461,-11.506000518798828
1788656965742285300,17.123285400390625,-1.9070000648498535,-13.718000411987305,-12.52400016784668
1788656965758453000,17.139452880859373,-1.7330000400543213,-12.553000450134277,-13.532000541687012
1788656965774570000,17.155570068359374,-1.3600000143051147,-14.682001113891602,-12.431000709533691
1788656965790602500,17.1716025390625,-1.0430001020431519,-15.224000930786133,-12.844000816345215
1788656965806658600,17.187658447265626,-1.5000001192092896,-13.72900104522705,-13.339000701904297
1788656965822793700,17.203793701171875,-2.692000150680542,-12.66100025177002,-13.736001014709473
1788656965838963500,17.21996337890625,0.7440000176429749,-12.859000205993652,-12.112000465393066
1788656965855095600,17.236095458984376,-2.7910001277923584,-12.54900074005127,-13.327000617980957
1788656965871134700,17.252134765625,-3.440000057220459,-11.79900074005127,-13.422000885009766
1788656965887196200,17.268196044921876,-0.6600000262260437,-12.872000694274902,-13.231000900268555
1788656965903315700,17.284315673828125,-0.5240000486373901,-13.394001007080078,-12.217000961303711
1788656965919487700,17.30048779296875,-1.0770000219345093,-12.110000610351562,-12.409000396728516
1788656965935631400,17.31663134765625,-2.9750001430511475,-13.072000503540039,-12.415000915527344
1788656965951679200,17.33267919921875,-0.4610000252723694,-11.908000946044922,-13.223000526428223
1788656965967734300,17.348734375,-2.194000005722046,-11.601000785827637,-14.542000770568848
1788656965983814700,17.364814697265626,-2.376000165939331,-12.015000343322754,-13.425000190734863
1788656965999984000,17.380984130859375,-1.933000087738037,-13.62600040435791,-13.643000602722168
1788656966016140800,17.397140869140625,-0.7720000147819519,-12.335000991821289,-13.124000549316406
1788656966032155600,17.41315576171875,-0.8860000371932983,-12.556000709533691,-13.635000228881836
1788656966048185900,17.429185791015627,-2.3540000915527344,-11.785000801086426,-12.302000999450684
1788656966064268000,17.44526806640625,-1.309000015258789,-11.36500072479248,-12.809000968933105
1788656966080442600,17.461442626953126,-1.9530000686645508,-12.017000198364258,-13.527000427246094
1788656966096562200,17.477562255859375,-1.5190000534057617,-12.22800064086914,-13.224000930786133
1788656966112588800,17.4935888671875,-2.6010000705718994,-11.69800090789795,-13.829000473022461
1788656966128647400,17.5096474609375,-2.26200008392334,-11.578001022338867,-12.8100004196167
1788656966144725500,17.5257255859375,0.09600000083446503,-13.72900104522705,-13.13800048828125
1788656966160889000,17.54188916015625,-0.9050000309944153,-11.487000465393066,-13.830000877380371
1788656966177011000,17.558010986328124,-0.5730000138282776,-12.343000411987305,-13.736001014709473
1788656966193040600,17.57404052734375,-1.7440000772476196,-11.91100025177002,-13.629000663757324
1788656966209101800,17.590101806640625,-1.5350000858306885,-12.994000434875488,-14.453001022338867
1788656966225186800,17.606186767578127,-4.0360002517700195,-13.177000999450684,-12.414000511169434
1788656966241356500,17.6223564453125,-2.6580002307891846,-13.61400032043457,-12.827000617980957
1788656966257488100,17.638488037109376,-1.7040001153945923,-13.832000732421875,-13.034000396728516
1788656966273533200,17.654533203125,-1.5230001211166382,-11.906000137329102,-13.221000671386719
1788656966289588500,17.67058837890625,-1.8290001153945923,-11.682000160217285,-12.506000518798828
1788656966305674200,17.68667431640625,-3.19100022315979,-13.290000915527344,-12.722001075744629
1788656966321845200,17.70284521484375,-0.3330000042915344,-12.327000617980957,-12.51300048828125
1788656966337982500,17.718982421875,-2.565000057220459,-13.51300048828125,-13.336000442504883
1788656966354035500,17.735035400390625,-1.4130001068115234,-12.336000442504883,-13.327000617980957
1788656966370088200,17.751088134765624,-2.1550002098083496,-13.415000915527344,-13.947000503540039
1788656966386162000,17.767161865234375,-2.565000057220459,-12.541000366210938,-12.7160005569458
1788656966402324500,17.783324462890626,-1.8280000686645508,-13.734000205993652,-13.746000289916992
1788656966418463500,17.79946337890625,-0.5360000133514404,-14.050000190734863,-13.140000343322754
1788656966434467800,17.8154677734375,-2.826000213623047,-12.13800048828125,-14.648000717163086
1788656966450523100,17.831523193359374,-2.7910001277923584,-12.54900074005127,-13.327000617980957
1788656966466599200,17.84759912109375,-1.1170001029968262,-12.566000938415527,-14.450000762939453
1788656966482762800,17.8637626953125,-0.7860000133514404,-13.42400074005127,-14.458001136779785
1788656966498915800,17.879915771484374,-0.39900001883506775,-14.78800106048584,-12.230000495910645
1788656966514918000,17.89591796875,-0.6330000162124634,-13.720000267028809,-12.52500057220459
1788656966530973700,17.9119736328125,-3.011000156402588,-13.094000816345215,-14.045001029968262
1788656966547065600,17.928065673828126,-0.6420000195503235,-13.725000381469727,-12.933000564575195
1788656966563233800,17.94423388671875,-1.7350001335144043,-13.743000984191895,-14.358000755310059
1788656966579348500,17.960348388671875,-0.8300000429153442,-15.440000534057617,-12.94800090789795
1788656966595372500,17.97637255859375,-0.4180000126361847,-15.98900032043457,-13.870000839233398
1788656966611431700,17.992431640625,-0.43800002336502075,-14.271000862121582,-13.6510009765625
1788656966627533000,18.008532958984375,-1.7030000686645508,-15.236001014709473,-13.862000465393066
1788656966643699700,18.02469970703125,-1.7090001106262207,-13.835000991821289,-13.238000869750977
1788656966659811600,18.0408115234375,-0.6240000128746033,-14.471000671386719,-12.634000778198242
1788656966675837700,18.056837646484375,0.4270000159740448,-13.61400032043457,-12.5260009765625
1788656966691898600,18.072898681640623,-1.8940000534057617,-14.142000198364258,-12.222000122070312
1788656966708027100,18.089027099609375,-1.718000054359436,-13.516000747680664,-13.439001083374023
1788656966724198000,18.105197998046876,-1.4920001029968262,-14.481000900268555,-13.44800090789795
1788656966740327000,18.121326904296875,-0.8260000348091125,-14.897000312805176,-12.434000968933105
1788656966756368000,18.137367919921875,-1.3950001001358032,-14.81100082397461,-14.062000274658203
1788656966772427500,18.153427490234375,-2.1070001125335693,-14.899001121520996,-12.738000869750977
1788656966788552000,18.169552001953125,-1.3840000629425049,-14.156001091003418,-13.13900089263916
1788656966804725200,18.185725341796875,-1.2510000467300415,-14.248001098632812,-12.020000457763672
1788656966820865300,18.201865234375,-2.5500001907348633,-14.585000991821289,-13.346000671386719
1788656966836915700,18.217915771484375,-0.6330000162124634,-15.3410005569458,-13.558000564575195
1788656966852968700,18.23396875,-1.0509999990463257,-14.688000679016113,-12.839000701904297
1788656966869096700,18.2500966796875,-0.20400001108646393,-14.691000938415527,-12.942000389099121
1788656966885262600,18.2662626953125,0.04200000315904617,-15.859001159667969,-12.13800048828125
1788656966901408500,18.282408447265624,-0.10700000822544098,-14.481000900268555,-13.246000289916992
1788656966917420000,18.298419921875,-0.39100003242492676,-14.351000785827637,-11.61400032043457
1788656966933477600,18.3144775390625,-0.843000054359436,-14.367000579833984,-12.836000442504883
1788656966949560000,18.33056005859375,1.3960000276565552,-15.22900104522705,-12.949000358581543
1788656966965727500,18.3467275390625,-2.827000141143799,-15.316000938415527,-11.925000190734863
1788656966981835500,18.36283544921875,-1.2750000953674316,-15.343000411987305,-13.761000633239746
1788656966997849900,18.378849853515625,-0.8320000171661377,-15.008000373840332,-12.74000072479248
1788656967013906000,18.394906005859376,-0.40800002217292786,-13.929000854492188,-12.120000839233398
1788656967029985300,18.4109853515625,-1.4870001077651978,-14.046000480651855,-12.9350004196167
1788656967046151400,18.4271513671875,0.3160000145435333,-14.590001106262207,-13.349000930786133
1788656967062261500,18.443261474609375,0.20400001108646393,-14.485000610351562,-13.552000999450684
1788656967078282500,18.459282470703126,-1.0200001001358032,-15.426000595092773,-11.929000854492188
1788656967094336000,18.4753359375,0.46800002455711365,-15.642001152038574,-11.933000564575195
1788656967110414600,18.49141455078125,0.7380000352859497,-14.37600040435791,-13.348000526428223
1788656967126582800,18.507582763671873,0,-14.91200065612793,-13.454000473022461
1788656967142705200,18.523705078125,-1.3870000839233398,-14.69800090789795,-13.654000282287598
1788656967158740000,18.539739990234374,-1.6880000829696655,-14.687000274658203,-12.838000297546387
1788656967174796500,18.555796630859376,-2.6600000858306885,-13.831000328063965,-13.033000946044922
1788656967190877200,18.571877197265625,-0.8710000514984131,-12.97900104522705,-13.232000350952148
1788656967207044900,18.588044921875,-1.9010001420974731,-13.498001098632812,-12.11400032043457
1788656967223179000,18.604178955078126,-2.555000066757202,-14.04800033569336,-13.23900032043457
1788656967239225900,18.620225830078127,-2.5460000038146973,-13.070000648498535,-12.212000846862793
1788656967255288300,18.636288330078123,-1.1820000410079956,-12.217000961303711,-12.410000801086426
1788656967271377200,18.652377197265626,-1.9440001249313354,-13.957000732421875,-14.359000205993652
1788656967287548200,18.668548095703127,-0.7980000376701355,-12.567000389099121,-14.450000762939453
1788656967303688200,18.684688232421873,-3.0480000972747803,-10.414000511169434,-14.021000862121582
1788656967319740400,18.700740478515623,-2.7350001335144043,-10.202000617980957,-14.122000694274902
1788656967335800800,18.71680078125,-1.9140000343322754,-10.112000465393066,-15.344000816345215
1788656967351890200,18.73289013671875,-4.124000072479248,-9.557000160217285,-14.11400032043457
1788656967368064000,18.74906396484375,-2.389000177383423,-7.332000255584717,-15.828001022338867
1788656967384234500,18.765234375,-1.1130000352859497,-7.765000343322754,-16.038000106811523
1788656967400243700,18.78124365234375,-5.38700008392334,-6.802000522613525,-16.635000228881836
1788656967416303600,18.7973037109375,-3.0420000553131104,-6.692000389099121,-16.12700080871582
1788656967432388900,18.813388916015626,-5.724000453948975,-5.300000190734863,-16.519001007080078
1788656967448563700,18.829563720703124,-3.756000280380249,-4.901000022888184,-18.45400047302246
1788656967464716300,18.84571630859375,-2.182000160217285,-3.7250001430511475,-18.547000885009766
1788656967480726800,18.861726806640625,-4.8560004234313965,-2.328000068664551,-18.5310001373291
1788656967496785400,18.877785400390625,-4.4670000076293945,-1.162000060081482,-19.43800163269043
1788656967512872700,18.893872802734375,-4.690999984741211,-0.8440000414848328,-19.74100112915039
1788656967529042000,18.9100419921875,-5.058000087738037,-0.3330000042915344,-21.57000160217285
1788656967545197600,18.926197509765625,-6.573000431060791,-0.024000000208616257,-22.685001373291016
1788656967561215000,18.942215087890624,-4.89300012588501,1.7990001440048218,-22.36600112915039
1788656967577273900,18.95827392578125,-5.88800048828125,2.6410000324249268,-23.580001831054688
1788656967593371600,18.97437158203125,-6.446000099182129,2.950000047683716,-24.595001220703125
1788656967609540400,18.990540283203124,-7.628000259399414,2.186000108718872,-25.72100067138672
1788656967625654500,19.006654541015624,-7.122000217437744,3.7920002937316895,-25.809001922607422
1788656967641675000,19.022675048828123,-6.384000301361084,3.0310001373291016,-26.530000686645508
1788656967657734100,19.038734130859375,-6.964000225067139,2.677000045776367,-28.977001190185547
1788656967673844500,19.054844482421874,-6.026000499725342,4.071000099182129,-28.864002227783203
1788656967690017500,19.071017578125,-5.278000354766846,2.884000062942505,-29.38500213623047
1788656967706143200,19.087143310546875,-8.16200065612793,2.9860000610351562,-30.093002319335938
1788656967722180600,19.1031806640625,-7.309000492095947,2.7700002193450928,-30.09600067138672
1788656967738240300,19.119240234375,-6.7310004234313965,4.246000289916992,-31.816001892089844
1788656967754355700,19.135355712890625,-6.420000076293945,4.242000102996826,-32.12200164794922
1788656967770524200,19.151524169921874,-5.055000305175781,4.230000019073486,-32.83700180053711
1788656967786657300,19.1676572265625,-5.7260003089904785,4.210000038146973,-34.3640022277832
1788656967802702000,19.1837021484375,-6.703000545501709,4.73900032043457,-34.96900177001953
1788656967818763000,19.199762939453127,-6.713000297546387,4.193000316619873,-35.78900146484375
1788656967834895000,19.21589501953125,-6.914000511169434,4.52400016784668,-35.073001861572266
1788656967851071000,19.232071044921874,-6.580000400543213,2.9120001792907715,-35.393001556396484
1788656967867219200,19.24821923828125,-7.39400053024292,4.383000373840332,-37.62000274658203
1788656967883275000,19.26427490234375,-6.440000534057617,5.353000164031982,-37.10300064086914
1788656967899339300,19.28033935546875,-5.545000076293945,2.6780002117156982,-36.72100067138672
1788656967915429000,19.29642919921875,-7.7270002365112305,5.456000328063965,-37.61000061035156
1788656967931602200,19.312602294921874,-5.402000427246094,5.554000377655029,-38.02000045776367
1788656967947758300,19.32875830078125,-6.362000465393066,4.904000282287598,-38.63500213623047
1788656967963776300,19.3447763671875,-5.432000160217285,5.752000331878662,-39.2400016784668
1788656967979835400,19.36083544921875,-2.2180001735687256,5.9800004959106445,-37.816001892089844
1788656967995918600,19.376918701171874,-6.244000434875488,5.019000053405762,-38.02300262451172
1788656968012085200,19.393085205078126,-4.296000003814697,5.082000255584717,-41.08100128173828
1788656968028195000,19.409195068359374,-6.738000392913818,6.059000492095947,-40.45800018310547
1788656968044214800,19.42521484375,-6.941000461578369,4.767000198364258,-40.87700271606445
1788656968060277200,19.44127734375,-3.6430001258850098,4.766000270843506,-40.57500076293945
1788656968076365800,19.45736572265625,-6.544000148773193,5.39900016784668,-41.6870002746582
1788656968092537000,19.473537109375,-6.2210001945495605,4.320000171661377,-42.20600128173828
1788656968108658000,19.489657958984374,-6.853000164031982,4.216000080108643,-42.00200271606445
1788656968124688100,19.505688232421875,-7.300000190734863,4.8520002365112305,-42.60700225830078
1788656968140749800,19.521749755859375,-6.457000255584717,3.874000072479248,-43.534000396728516
1788656968156842200,19.53784228515625,-6.7300004959106445,5.783000469207764,-45.04500198364258
1788656968173013000,19.554012939453123,-6.591000080108643,2.885000228881836,-45.37600326538086
1788656968189152000,19.570152099609373,-7.6710004806518555,5.361000061035156,-44.6400032043457
1788656968205202700,19.58620263671875,-6.838000297546387,4.9170002937316895,-45.663002014160156
1788656968221267000,19.602266845703124,-5.5460004806518555,2.6560001373291016,-46.29600143432617
1788656968237359600,19.618359619140627,-6.213000297546387,4.152000427246094,-46.69000244140625
1788656968253534500,19.634534423828125,-7.0970001220703125,3.809000253677368,-48.423004150390625
1788656968269678300,19.65067822265625,-6.758000373840332,4.144999980926514,-47.30000305175781
1788656968285733600,19.666733642578127,-7.830000400543213,3.9240002632141113,-47.91200256347656
1788656968301797000,19.682797119140623,-7.4120001792907715,4.892000198364258,-47.59800338745117
1788656968317888300,19.69888818359375,-6.224000453948975,4.254000186920166,-47.09600067138672
1788656968334062600,19.7150625,-6.76800012588501,3.058000087738037,-48.43000411987305
1788656968350217500,19.731217529296874,-8.094000816345215,4.326000213623047,-49.945003509521484
1788656968366249000,19.7472490234375,-6.895000457763672,2.937000036239624,-49.45000076293945
1788656968382311400,19.7633115234375,-6.664000511169434,3.705000162124634,-48.11900329589844
1788656968398421000,19.7794208984375,-8.710000038146973,4.339000225067139,-49.02800369262695
1788656968414592500,19.795592529296876,-5.423000335693359,2.494000196456909,-50.37300109863281
1788656968430747000,19.811746826171873,-6.294000148773193,3.239000082015991,-50.874000549316406
1788656968446761700,19.82776171875,-7.686000347137451,3.558000087738037,-51.17500305175781
1788656968462825500,19.843825439453123,-9.187000274658203,4.308000087738037,-51.37000274658203
1788656968478926800,19.8599267578125,-6.619000434875488,3.3440001010894775,-51.077003479003906
1788656968495097300,19.876097412109374,-7.808000564575195,2.9000000953674316,-52.301002502441406
1788656968511211800,19.892211669921874,-5.694000244140625,3.323000192642212,-52.50400161743164
1788656968527235000,19.908235107421874,-5.998000144958496,1.9280000925064087,-52.720001220703125
1788656968543294700,19.924294677734373,-7.880000591278076,2.9210002422332764,-50.77300262451172
1788656968559415600,19.94041552734375,-5.045000076293945,2.7890000343322754,-52.30600357055664
1788656968575589600,19.956589599609377,-5.724000453948975,4.6020002365112305,-53.00200271606445
1788656968591722800,19.97272265625,-8.78600025177002,3.8610002994537354,-52.69900131225586
1788656968607761700,19.98876171875,-4.868000030517578,2.6600000858306885,-53.93700408935547
1788656968623825000,20.004824951171877,-7.531000137329102,1.4700000286102295,-55.06500244140625
1788656968639948300,20.0209482421875,-7.13200044631958,3.507000207901001,-54.945003509521484
1788656968656118300,20.0371181640625,-7.510000228881836,2.563000202178955,-53.42500305175781
1788656968672251600,20.053251708984376,-6.076000213623047,3.2850000858306885,-55.35600280761719
1788656968688312600,20.0693125,-6.176000118255615,2.6410000324249268,-55.46400451660156
1788656968704369700,20.08536962890625,-5.53000020980835,1.9970000982284546,-55.470001220703125
1788656968720500000,20.1015,-7.559000492095947,1.9930001497268677,-55.97700119018555
1788656968736640500,20.117640625,-6.619000434875488,1.658000111579895,-56.89800262451172
1788656968752787200,20.133787109375,-6.610000133514404,2.203000068664551,-56.18000411987305
1788656968768833800,20.149833740234374,-7.875000476837158,2.319000005722046,-55.66800308227539
1788656968784887600,20.165887451171876,-4.690000057220459,2.2060000896453857,-55.775001525878906
1788656968800992300,20.1819921875,-6.422000408172607,2.621000051498413,-56.99100112915039
1788656968817167000,20.1981669921875,-6.833000183105469,1.7650001049041748,-56.897003173828125
1788656968833329000,20.214328857421876,-6.299000263214111,2.0900001525878906,-56.58900451660156
1788656968849346300,20.23034619140625,-6.087000370025635,1.2260000705718994,-57.10600280761719
1788656968865406000,20.246406005859374,-6.831000328063965,1.3340001106262207,-57.10400390625
1788656968881498600,20.26249853515625,-8.522000312805176,1.2340000867843628,-56.797000885009766
1788656968897665500,20.27866552734375,-7.766000270843506,0.484000027179718,-56.7030029296875
1788656968913775400,20.294775390625,-6.00100040435791,1.7530001401901245,-57.7130012512207
1788656968929797400,20.31079736328125,-6.754000186920166,1.9650001525878906,-58.0160026550293
1788656968945856300,20.326856201171875,-6.109000205993652,2.8330001831054688,-57.092002868652344
1788656968961953500,20.34295361328125,-4.705000400543213,1.0080000162124634,-57.21200180053711
1788656968978123500,20.35912353515625,-5.049000263214111,1.3170000314712524,-58.125003814697266
