time,seconds_elapsed,z,y,x
1788656948797637000,0.17863720703125,9.435548782348633,3.0885202884674072,-0.11971008777618408
1788656948813713000,0.194712890625,9.485827445983887,3.1244332790374756,-0.10295066982507706
1788656948829794800,0.210794921875,9.409213066101074,3.179499864578247,-0.05027823522686958
1788656948853935400,0.234935302734375,9.124302864074707,3.222595453262329,-0.05267243832349777
1788656948870043000,0.25104296875,9.198522567749023,3.2369606494903564,-0.038307227194309235
1788656948886111500,0.267111572265625,9.29189682006836,3.1914708614349365,-0.05267243832349777
1788656948902162400,0.283162353515625,9.284713745117188,3.181894063949585,-0.10295066982507706
1788656948918248400,0.29924853515625,9.349357604980469,3.220201253890991,-0.09816227108240128
1788656948934327600,0.31532763671875,9.363722801208496,3.201047658920288,-0.1364694982767105
1788656948950454300,0.331454345703125,9.3828763961792,3.2082302570343018,-0.1388636976480484
1788656948966538000,0.3475380859375,9.373299598693848,3.1938650608062744,-0.15562310814857483
1788656948982586600,0.363586669921875,9.387664794921875,3.184288263320923,-0.13407529890537262
1788656948998671600,0.379671630859375,9.327810287475586,3.1675288677215576,-0.12689268589019775
1788656949014749400,0.39574951171875,9.287108421325684,3.1723172664642334,-0.1149216815829277
1788656949030832400,0.411832275390625,9.373299598693848,3.157952070236206,-0.12449848651885986
1788656949046926800,0.4279267578125,9.430760383605957,3.093308687210083,-0.12928688526153564
1788656949062978600,0.443978515625,9.50737476348877,3.0789434909820557,-0.1364694982767105
1788656949079070200,0.4600703125,9.59835433959961,3.1100680828094482,-0.06464344263076782
1788656949095149300,0.4761494140625,9.57201862335205,3.069366693496704,-0.12210428714752197
1788656949111244500,0.49224462890625,9.425971984863281,3.0885202884674072,-0.09576806426048279
1788656949127347500,0.508347412109375,9.251194953918457,3.0597896575927734,-0.08619125932455063
1788656949143403300,0.5244033203125,9.186552047729492,3.136404275894165,-0.0933738648891449
1788656949159495000,0.540494873046875,9.14585018157959,3.177105665206909,-0.06464344263076782
1788656949175581200,0.556581298828125,9.313444137573242,3.2417490482330322,-0.011971008032560349
1788656949191692800,0.57269287109375,9.48343276977539,3.1292216777801514,-0.11971008777618408
1788656949207813000,0.588813232421875,9.605537414550781,3.07415509223938,-0.10295066982507706
1788656949223870000,0.604869873046875,9.485827445983887,3.090914487838745,-0.08858546614646912
1788656949239965000,0.62096484375,9.277531623840332,3.1483752727508545,-0.0694318488240242
1788656949256050200,0.63705029296875,9.229647636413574,3.2130186557769775,-0.05027823522686958
1788656949272169000,0.6531689453125,9.464279174804688,3.1962592601776123,-0.07182604819536209
1788656949288297500,0.66929736328125,9.519346237182617,3.2321722507476807,-0.1173158809542656
1788656949304355000,0.68535498046875,9.509769439697266,3.1890766620635986,-0.10773907601833344
1788656949320447500,0.701447509765625,9.490615844726562,3.184288263320923,-0.08858546614646912
1788656949336532200,0.7175322265625,9.402029991149902,3.1914708614349365,-0.05506663769483566
1788656949352661000,0.733660888671875,9.35654067993164,3.1675288677215576,-0.014365210197865963
1788656949368748000,0.749748046875,9.399636268615723,3.177105665206909,-0.026336219161748886
1788656949384803300,0.76580322265625,9.464279174804688,3.141192674636841,0.026336219161748886
1788656949400897500,0.7818974609375,9.502586364746094,3.1531636714935303,0.06464344263076782
1788656949416982300,0.797982177734375,9.418789863586426,3.157952070236206,0.033518824726343155
1788656949433113900,0.81411376953125,9.320627212524414,3.155557870864868,0.05985504388809204
1788656949449198000,0.830197998046875,9.239224433898926,3.1651346683502197,0.014365210197865963
1788656949465253400,0.84625341796875,9.258378028869629,3.160346269607544,0.038307227194309235
1788656949481357600,0.862357666015625,9.423578262329102,3.1651346683502197,-0.014365210197865963
1788656949497440300,0.878440185546875,9.385271072387695,3.1723172664642334,-0.05267243832349777
1788656949513525500,0.894525390625,9.378087997436523,3.1699230670928955,-0.011971008032560349
1788656949529624300,0.910624267578125,9.370905876159668,3.1723172664642334,-0.016759412363171577
1788656949545680000,0.926679931640625,9.423578262329102,3.181894063949585,0
1788656949561793000,0.94279296875,9.435548782348633,3.138798475265503,0.004788403399288654
1788656949577874000,0.9588740234375,9.375694274902344,3.179499864578247,-0.05985504388809204
1788656949593972000,0.974971923828125,9.38048267364502,3.177105665206909,0.05506663769483566
1788656949610077400,0.991077392578125,9.452308654785156,3.1675288677215576,-0.016759412363171577
1788656949626134300,1.00713427734375,9.363722801208496,3.1507694721221924,-0.035913024097681046
1788656949642259200,1.02325927734375,9.253589630126953,3.1699230670928955,-0.004788403399288654
1788656949658346500,1.039346435546875,9.167398452758789,3.160346269607544,-0.0071826050989329815
1788656949674454000,1.0554541015625,9.272743225097656,3.1938650608062744,0.0071826050989329815
1788656949690572000,1.071572021484375,9.476250648498535,3.179499864578247,-0.009576806798577309
1788656949706629600,1.087629638671875,9.440337181091309,3.1890766620635986,-0.043095629662275314
1788656949722764500,1.1037646484375,9.315838813781738,3.265691041946411,-0.031124621629714966
1788656949738850000,1.11985009765625,9.318233489990234,3.2297780513763428,-0.014365210197865963
1788656949754969600,1.135969482421875,9.363722801208496,3.2297780513763428,-0.05506663769483566
1788656949771099100,1.15209912109375,9.406818389892578,3.222595453262329,-0.047884032130241394
1788656949787153000,1.16815283203125,9.50737476348877,3.2154128551483154,0.004788403399288654
1788656949803246300,1.184246337890625,9.509769439697266,3.2369606494903564,-0.0071826050989329815
1788656949819330600,1.20033056640625,9.459490776062012,3.248931646347046,0.004788403399288654
1788656949835458000,1.2164580078125,9.41400146484375,3.2609026432037354,0.0071826050989329815
1788656949851543300,1.232543212890625,9.390059471130371,3.2752678394317627,-0.019153613597154617
1788656949867599000,1.24859912109375,9.370905876159668,3.265691041946411,-0.043095629662275314
1788656949883693300,1.264693359375,9.385271072387695,3.2632968425750732,-0.033518824726343155
1788656949899778800,1.28077880859375,9.421183586120605,3.2417490482330322,-0.05267243832349777
1788656949915869200,1.296869140625,9.351752281188965,3.2154128551483154,-0.0694318488240242
1788656949931972600,1.31297265625,9.334992408752441,3.2585084438323975,-0.06703764945268631
1788656949948033000,1.329032958984375,9.390059471130371,3.24414324760437,-0.035913024097681046
1788656949964100600,1.3451005859375,9.409213066101074,3.1914708614349365,-0.07182604819536209
1788656949980191700,1.361191650390625,9.354146003723145,3.19865345954895,-0.05506663769483566
1788656949996294100,1.377294189453125,9.35654067993164,3.2154128551483154,-0.0071826050989329815
1788656950012402400,1.39340234375,9.349357604980469,3.2082302570343018,-0.023942016065120697
1788656950028461800,1.4094619140625,9.313444137573242,3.1914708614349365,-0.043095629662275314
1788656950044557600,1.4255576171875,9.275136947631836,3.2393548488616943,-0.033518824726343155
1788656950060646100,1.441646240234375,9.294290542602539,3.222595453262329,-0.05746084079146385
1788656950076750300,1.457750244140625,9.330204010009766,3.2154128551483154,-0.06703764945268631
1788656950092866300,1.4738662109375,9.421183586120605,3.24414324760437,-0.06703764945268631
1788656950108920800,1.4899208984375,9.44752025604248,3.2130186557769775,-0.11252748221158981
1788656950125011200,1.50601123046875,9.361329078674316,3.2393548488616943,-0.0933738648891449
1788656950141095200,1.52209521484375,9.29189682006836,3.2561142444610596,-0.07661445438861847
1788656950157205500,1.53820556640625,9.287108421325684,3.2609026432037354,-0.0454898327589035
1788656950173332000,1.55433203125,9.373299598693848,3.2609026432037354,-0.06703764945268631
1788656950189388800,1.570388916015625,9.344569206237793,3.2632968425750732,-0.028730420395731926
1788656950205483300,1.586483154296875,9.32541561126709,3.2848446369171143,-0.0071826050989329815
1788656950221569000,1.602569091796875,9.30386734008789,3.270479440689087,0.031124621629714966
1788656950237684000,1.61868408203125,9.318233489990234,3.246537446975708,0.011971008032560349
1788656950253762300,1.63476220703125,9.38048267364502,3.2585084438323975,0.033518824726343155
1788656950269811700,1.650811767578125,9.3828763961792,3.2537200450897217,-0.009576806798577309
1788656950285906400,1.666906494140625,9.394847869873047,3.2968156337738037,-0.05027823522686958
1788656950301987600,1.682987548828125,9.543288230895996,3.251325845718384,-0.028730420395731926
1788656950318113000,1.699113037109375,9.57201862335205,3.2417490482330322,-0.07661445438861847
1788656950334199600,1.715199462890625,9.435548782348633,3.248931646347046,-0.05985504388809204
1788656950350253000,1.731253173828125,9.387664794921875,3.2609026432037354,-0.021547814831137657
1788656950366348800,1.747348876953125,9.301473617553711,3.28963303565979,0.031124621629714966
1788656950382428000,1.763427978515625,9.363722801208496,3.3039982318878174,0.021547814831137657
1788656950398560300,1.779560302734375,9.430760383605957,3.292027235031128,-0.05506663769483566
1788656950414652700,1.795652587890625,9.437943458557129,3.272873640060425,-0.10055647045373917
1788656950430713300,1.81171337890625,9.41400146484375,3.2848446369171143,-0.08140286058187485
1788656950446828000,1.827828125,9.320627212524414,3.2800562381744385,-0.0454898327589035
1788656950462919000,1.8439189453125,9.334992408752441,3.265691041946411,-0.08619125932455063
1788656950479021600,1.860021484375,9.430760383605957,3.2609026432037354,-0.06703764945268631
1788656950495125000,1.876125,9.500192642211914,3.2585084438323975,-0.07900865375995636
1788656950511185000,1.892184814453125,9.488221168518066,3.2561142444610596,-0.05746084079146385
1788656950527305200,1.90830517578125,9.363722801208496,3.268085241317749,-0.06464344263076782
1788656950543395800,1.924395751953125,9.229647636413574,3.265691041946411,-0.002394201699644327
1788656950559503400,1.94050341796875,9.191340446472168,3.2585084438323975,0.011971008032560349
1788656950575629600,1.956629638671875,9.21288776397705,3.265691041946411,-0.026336219161748886
1788656950591689700,1.972689697265625,9.32302188873291,3.2417490482330322,-0.009576806798577309
1788656950607824100,1.98882421875,9.361329078674316,3.2369606494903564,-0.035913024097681046
1788656950623908900,2.004908935546875,9.313444137573242,3.246537446975708,-0.0071826050989329815
1788656950640024800,2.02102490234375,9.232041358947754,3.2537200450897217,-0.05746084079146385
1788656950656152300,2.03715234375,9.138668060302734,3.2537200450897217,-0.05027823522686958
1788656950672218600,2.053218505859375,9.0859956741333,3.246537446975708,-0.023942016065120697
1788656950688356400,2.0693564453125,9.188945770263672,3.2297780513763428,-0.040701430290937424
1788656950704455200,2.085455078125,9.375694274902344,3.2178070545196533,-0.038307227194309235
1788656950720579800,2.101579833984375,9.459490776062012,3.1914708614349365,0.05267243832349777
1788656950736661800,2.117661865234375,9.59835433959961,3.160346269607544,-0.004788403399288654
1788656950752720400,2.133720458984375,9.560047149658203,3.1938650608062744,0
1788656950768814000,2.14981396484375,9.411606788635254,3.248931646347046,0.040701430290937424
1788656950784898800,2.16589892578125,9.30386734008789,3.251325845718384,0.019153613597154617
1788656950801029000,2.182029052734375,9.368511199951172,3.2369606494903564,0.021547814831137657
1788656950817118000,2.198117919921875,9.3828763961792,3.2537200450897217,0.06464344263076782
1788656950833176600,2.214176513671875,9.428366661071777,3.308786630630493,-0.004788403399288654
1788656950849274400,2.2302744140625,9.428366661071777,3.268085241317749,-0.0071826050989329815
1788656950865364700,2.24636474609375,9.476250648498535,3.246537446975708,0.011971008032560349
1788656950881464600,2.262464599609375,9.41639518737793,3.248931646347046,-0.05506663769483566
1788656950897568500,2.278568603515625,9.385271072387695,3.2417490482330322,-0.031124621629714966
1788656950913631200,2.29463134765625,9.363722801208496,3.268085241317749,-0.014365210197865963
1788656950929727200,2.310727294921875,9.349357604980469,3.24414324760437,0.047884032130241394
1788656950945816000,2.326816162109375,9.354146003723145,3.2609026432037354,0.0071826050989329815
1788656950961914600,2.34291455078125,9.32541561126709,3.24414324760437,-0.047884032130241394
1788656950978021600,2.359021728515625,9.423578262329102,3.1962592601776123,-0.05267243832349777
1788656950994081300,2.375081298828125,9.44991397857666,3.1651346683502197,-0.021547814831137657
1788656951010177800,2.391177734375,9.366117477416992,3.1435868740081787,0.004788403399288654
1788656951026261000,2.407260986328125,9.26795482635498,3.1292216777801514,-0.023942016065120697
1788656951042372600,2.42337255859375,9.282320022583008,3.1459810733795166,0.014365210197865963
1788656951058488000,2.439488037109375,9.363722801208496,3.136404275894165,-0.028730420395731926
1788656951074546400,2.45554638671875,9.3828763961792,3.138798475265503,-0.023942016065120697
1788656951090651400,2.4716513671875,9.368511199951172,3.1723172664642334,-0.009576806798577309
1788656951106743800,2.487743896484375,9.32541561126709,3.1483752727508545,0.021547814831137657
1788656951122850800,2.503850830078125,9.294290542602539,3.141192674636841,0.040701430290937424
1788656951138979300,2.519979248046875,9.30386734008789,3.19865345954895,0.028730420395731926
1788656951155041300,2.536041259765625,9.311050415039062,3.1914708614349365,0.009576806798577309
1788656951171136500,2.552136474609375,9.279925346374512,3.1962592601776123,-0.026336219161748886
1788656951187223000,2.56822314453125,9.344569206237793,3.1914708614349365,0.004788403399288654
1788656951203346000,2.584345947265625,9.346963882446289,3.1938650608062744,0.009576806798577309
1788656951219476000,2.60047607421875,9.390059471130371,3.157952070236206,0.021547814831137657
1788656951235533000,2.616532958984375,9.469067573547363,3.1723172664642334,0.023942016065120697
1788656951251632600,2.632632568359375,9.435548782348633,3.138798475265503,0.028730420395731926
1788656951267721700,2.6487216796875,9.430760383605957,3.1699230670928955,0.023942016065120697
1788656951283858200,2.664858154296875,9.423578262329102,3.141192674636841,0.026336219161748886
1788656951299969000,2.680968994140625,9.399636268615723,3.1196448802948,0.038307227194309235
1788656951316029000,2.69702880859375,9.385271072387695,3.1435868740081787,0.05985504388809204
1788656951332138000,2.713137939453125,9.301473617553711,3.1316158771514893,0.05027823522686958
1788656951348231400,2.7292314453125,9.313444137573242,3.1052796840667725,0.05506663769483566
1788656951364325400,2.745325439453125,9.41639518737793,3.095702886581421,0.0454898327589035
1788656951380412200,2.761412109375,9.368511199951172,3.093308687210083,0.0454898327589035
1788656951396470500,2.777470458984375,9.244012832641602,3.1435868740081787,0.05746084079146385
1788656951412583400,2.79358349609375,9.2033109664917,3.136404275894165,0.08619125932455063
1788656951428664000,2.8096640625,9.318233489990234,3.1507694721221924,0.047884032130241394
1788656951444763100,2.82576318359375,9.44991397857666,3.1052796840667725,0.014365210197865963
1788656951460870700,2.84187060546875,9.555258750915527,3.112462282180786,0.12210428714752197
1788656951476930600,2.8579306640625,9.5408935546875,3.1076738834381104,0.05746084079146385
1788656951493055000,2.874054931640625,9.50737476348877,3.1268274784088135,0.14844051003456116
1788656951509143300,2.890143310546875,9.548076629638672,3.157952070236206,0.0454898327589035
1788656951525253000,2.906253173828125,9.50737476348877,3.162740468978882,0.05267243832349777
1788656951541371600,2.92237158203125,9.404424667358398,3.141192674636841,0.040701430290937424
1788656951557437400,2.9384375,9.440337181091309,3.160346269607544,0.009576806798577309
1788656951573573400,2.954573486328125,9.404424667358398,3.177105665206909,0.023942016065120697
1788656951589661700,2.97066162109375,9.332598686218262,3.155557870864868,0.002394201699644327
1788656951605781200,2.98678125,9.29189682006836,3.1483752727508545,-0.014365210197865963
1788656951621914600,3.00291455078125,9.327810287475586,3.1316158771514893,-0.0454898327589035
1788656951637975300,3.018975341796875,9.402029991149902,3.134010076522827,-0.002394201699644327
1788656951654111700,3.03511181640625,9.366117477416992,3.1076738834381104,-0.004788403399288654
1788656951670203000,3.051202880859375,9.366117477416992,3.090914487838745,0.031124621629714966
1788656951686328000,3.067328125,9.375694274902344,3.1028854846954346,0.05506663769483566
1788656951702417000,3.0834169921875,9.435548782348633,3.0885202884674072,0.038307227194309235
1788656951718479400,3.099479248046875,9.442731857299805,3.07415509223938,0.05506663769483566
1788656951734577200,3.1155771484375,9.459490776062012,3.095702886581421,0.038307227194309235
1788656951750666500,3.13166650390625,9.423578262329102,3.0597896575927734,0.038307227194309235
1788656951766808800,3.147808837890625,9.387664794921875,3.064578056335449,-0.016759412363171577
1788656951782910700,3.16391064453125,9.454702377319336,3.066972494125366,-0.0071826050989329815
1788656951798973400,3.179973388671875,9.469067573547363,3.090914487838745,-0.014365210197865963
1788656951815073000,3.196072998046875,9.361329078674316,3.07415509223938,0.004788403399288654
1788656951831163600,3.21216357421875,9.346963882446289,3.0885202884674072,0.038307227194309235
1788656951847258400,3.22825830078125,9.437943458557129,3.047818660736084,-0.004788403399288654
1788656951863362000,3.244362060546875,9.495404243469238,3.1052796840667725,0.17956513166427612
1788656951879422000,3.260421875,9.526528358459473,3.157952070236206,0.021547814831137657
1788656951895517200,3.27651708984375,9.615114212036133,3.064578056335449,-0.004788403399288654
1788656951911604700,3.292604736328125,9.648633003234863,3.069366693496704,-0.043095629662275314
1788656951927709200,3.308709228515625,9.5624418258667,3.071760892868042,-0.21787235140800476
1788656951943822600,3.324822509765625,9.612719535827637,3.023876667022705,-0.06224924325942993
1788656951959883800,3.3408837890625,9.35654067993164,3.095702886581421,-0.1388636976480484
1788656951975985400,3.3569853515625,9.394847869873047,3.1004912853240967,0.031124621629714966
1788656951992074500,3.373074462890625,9.612719535827637,3.1316158771514893,0.05746084079146385
1788656952008191500,3.38919140625,9.603142738342285,3.0550012588500977,0.08858546614646912
1788656952024316700,3.405316650390625,9.59835433959961,3.0526070594787598,0.05267243832349777
1788656952040381400,3.42138134765625,9.639056205749512,3.0597896575927734,0.15801730751991272
1788656952056481300,3.437481201171875,9.318233489990234,3.066972494125366,-0.002394201699644327
1788656952072569900,3.45356982421875,9.160215377807617,3.093308687210083,0.0694318488240242
1788656952088690400,3.4696904296875,9.253589630126953,3.090914487838745,0.05985504388809204
1788656952104822000,3.485822021484375,9.311050415039062,3.1028854846954346,0.05027823522686958
1788656952120886300,3.50188623046875,9.509769439697266,3.090914487838745,0.13168109953403473
1788656952136988000,3.51798779296875,9.208099365234375,3.0813376903533936,0.1412578970193863
1788656952153083000,3.534082763671875,8.98543930053711,3.112462282180786,0.15562310814857483
1788656952169213400,3.55021337890625,9.315838813781738,3.160346269607544,0.26336219906806946
1788656952185294000,3.566294189453125,9.856928825378418,3.177105665206909,0.3447650372982025
1788656952201356800,3.582356689453125,10.450690269470215,3.114856481552124,0.07422025501728058
1788656952217461200,3.598461181640625,9.895236015319824,3.136404275894165,0.028730420395731926
1788656952233554200,3.61455419921875,9.014169692993164,3.2632968425750732,0.0933738648891449
1788656952249695500,3.630695556640625,9.11233139038086,3.3925838470458984,0.38307225704193115
1788656952265802500,3.646802490234375,9.157821655273438,3.624821424484253,0.8236053586006165
1788656952281873700,3.662873779296875,8.698134422302246,3.7277719974517822,1.1803414821624756
1788656952297979400,3.6789794921875,8.753201484680176,3.8115692138671875,1.2042834758758545
1788656952314083300,3.695083251953125,9.217676162719727,3.8714241981506348,1.213860273361206
1788656952330182000,3.711181884765625,9.442731857299805,3.8331170082092285,1.115697979927063
1788656952346289200,3.7272890625,9.282320022583008,3.713406801223755,0.9074024558067322
1788656952362357200,3.743357177734375,9.275136947631836,3.665522813796997,0.7565677165985107
1788656952378466300,3.75946630859375,9.220070838928223,3.73016619682312,0.7469909191131592
1788656952394572300,3.775572265625,9.246406555175781,3.711012601852417,0.9648633003234863
1788656952410678300,3.79167822265625,9.155426979064941,3.778050184249878,1.0893617868423462
1788656952426792400,3.80779248046875,9.153033256530762,3.794809579849243,1.1109095811843872
1788656952442858000,3.82385791015625,8.947132110595703,3.8115692138671875,0.9409212470054626
1788656952458978000,3.83997802734375,8.920795440673828,3.780444383621216,0.9792284965515137
1788656952475077600,3.85607763671875,9.004592895507812,3.8355112075805664,1.0295066833496094
1788656952491186700,3.872186767578125,8.858546257019043,3.931279182434082,1.0223240852355957
1788656952507307500,3.8883076171875,8.83699893951416,3.955221176147461,1.0438719987869263
1788656952523368200,3.9043681640625,9.038111686706543,3.957615375518799,0.9552865028381348
1788656952539497000,3.9204970703125,9.078812599182129,3.931279182434082,0.9528923034667969
1788656952555593700,3.93659375,9.165003776550293,3.952826976776123,1.0749965906143188
1788656952571712300,3.952712158203125,9.07641887664795,3.9887399673461914,1.1276689767837524
1788656952587843800,3.96884375,8.75080680847168,4.077325344085693,1.1180921792984009
1788656952603907800,3.984907958984375,8.583212852478027,4.060565948486328,1.2976573705673218
1788656952620047400,4.00104736328125,8.762778282165527,4.137180328369141,1.400607943534851
1788656952636117200,4.0171171875,9.059659004211426,4.213795185089111,1.3503297567367554
1788656952652254500,4.03325439453125,9.244012832641602,4.137180328369141,1.4269442558288574
1788656952668398300,4.0493984375,9.121908187866211,4.077325344085693,1.4628572463989258
1788656952684464000,4.065464111328125,8.999804496765137,4.2951979637146,1.3982137441635132
1788656952700566000,4.08156591796875,8.769960403442383,4.199429988861084,1.5418659448623657
1788656952716667100,4.097667236328125,8.621520042419434,4.264073371887207,1.4173674583435059
1788656952732812500,4.1138125,8.743624687194824,4.230554580688477,1.4963760375976562
1788656952748915700,4.129915771484375,8.9064302444458,4.244919776916504,1.434126853942871
1788656952764978400,4.145978515625,9.042900085449219,4.256890773773193,1.4101848602294922
1788656952781074700,4.16207470703125,8.968679428100586,4.268861770629883,1.3766659498214722
1788656952797173200,4.17817333984375,8.736441612243652,4.242525577545166,1.403002142906189
1788656952813282000,4.194281982421875,8.678980827331543,4.228160381317139,1.4700398445129395
1788656952829398800,4.210398681640625,8.834604263305664,4.259284973144531,1.4748282432556152
1788656952845464000,4.226464111328125,8.954314231872559,4.266467571258545,1.4652514457702637
1788656952861563600,4.242563720703125,8.959102630615234,4.259284973144531,1.455674648284912
1788656952877659000,4.258658935546875,8.875306129455566,4.309563159942627,1.5298948287963867
1788656952893767000,4.274766845703125,8.707711219787598,4.367023944854736,1.6400281190872192
1788656952909886500,4.290886474609375,8.434772491455078,4.431667327880859,1.6855180263519287
1788656952925948400,4.306948486328125,8.461109161376953,4.46518611907959,1.7764976024627686
1788656952942045000,4.323044921875,8.465897560119629,4.4723687171936035,1.7860745191574097
1788656952958148000,4.339148193359375,8.480262756347656,4.441244125366211,1.7573440074920654
1788656952974271500,4.355271484375,8.62391471862793,4.410119533538818,1.7836803197860718
1788656952990406400,4.371406494140625,8.178592681884766,4.367023944854736,1.6855180263519287
1788656953006469000,4.38746923828125,8.090007781982422,4.388571739196777,1.7405846118927002
1788656953022568700,4.403568603515625,8.762778282165527,4.412513732910156,1.7621324062347412
1788656953038666500,4.41966650390625,8.801085472106934,4.280832767486572,1.7286136150360107
1788656953054802200,4.43580224609375,8.911218643188477,4.252102375030518,1.623268723487854
1788656953070936000,4.45193603515625,9.102754592895508,4.230554580688477,1.5155296325683594
1788656953086997200,4.467997314453125,9.244012832641602,4.240131378173828,1.5634137392044067
1788656953103103500,4.484103515625,8.971074104309082,4.302380561828613,1.5275006294250488
1788656953119199000,4.500198974609375,8.56884765625,4.285621166229248,1.4053963422775269
1788656953135341300,4.51634130859375,8.53293514251709,4.252102375030518,1.414973258972168
1788656953151441200,4.532441162109375,8.485051155090332,4.235342979431152,1.4460978507995605
1788656953167505000,4.5485048828125,8.530540466308594,4.2544965744018555,1.5155296325683594
1788656953183614700,4.56461474609375,8.844181060791016,4.285621166229248,1.4963760375976562
1788656953199712800,4.580712646484375,9.44752025604248,4.24970817565918,1.5490485429763794
1788656953215814700,4.596814697265625,9.217676162719727,4.189853191375732,1.3311761617660522
1788656953231923700,4.612923828125,8.83699893951416,4.113238334655762,1.039083480834961
1788656953247992300,4.628992431640625,8.633491516113281,3.998316764831543,0.8810662031173706
1788656953264114700,4.64511474609375,9.10993766784668,3.9815573692321777,1.170764684677124
1788656953280212200,4.661212158203125,9.545681953430176,4.041412353515625,1.436521053314209
1788656953296318200,4.677318115234375,9.588777542114258,4.0533833503723145,1.644816517829895
1788656953320451600,4.70145166015625,9.181763648986816,4.065354347229004,1.1827356815338135
1788656953336530700,4.71753076171875,8.810662269592285,4.050989151000977,0.8834604024887085
1788656953352625400,4.73362548828125,8.645462036132812,3.909731388092041,0.8619126081466675
1788656953368740600,4.74974072265625,8.865729331970215,3.8115692138671875,1.194706678390503
1788656953384867300,4.765867431640625,9.107542991638184,4.000710964202881,1.2713210582733154
1788656953400964000,4.781964111328125,9.181763648986816,4.017470359802246,1.0606313943862915
1788656953433134800,4.814134765625,9.727641105651855,3.6822822093963623,0.45489832758903503
1788656953449252400,4.83025244140625,9.368511199951172,3.713406801223755,0.1149216815829277
1788656953465376300,4.846376220703125,9.514557838439941,3.5410242080688477,-0.035913024097681046
1788656953481467000,4.862466796875,9.509769439697266,3.4189200401306152,-0.1388636976480484
1788656953497546200,4.878546142578125,9.390059471130371,3.428496837615967,-0.16759411990642548
1788656953513631200,4.89463134765625,9.3828763961792,3.4380736351013184,0.090979665517807
1788656953529751800,4.910751708984375,9.351752281188965,3.5218706130981445,0.033518824726343155
1788656953545886000,4.926885986328125,9.174580574035645,3.5386300086975098,0.026336219161748886
1788656953561970000,4.942969970703125,9.069235801696777,3.584120035171509,0.1867477297782898
1788656953578015500,4.959015380859375,8.904036521911621,3.6822822093963623,0.26815059781074524
1788656953594101000,4.97510107421875,8.827422142028809,3.7493197917938232,0.37828385829925537
1788656953610245000,4.9912451171875,8.853757858276367,3.794809579849243,0.49799394607543945
1788656953634405400,5.0154052734375,9.232041358947754,3.8283286094665527,0.6177040338516235
1788656953650463200,5.031463134765625,9.368511199951172,3.88818359375,0.667982280254364
1788656953666552300,5.04755224609375,9.239224433898926,3.955221176147461,0.6775590777397156
1788656953682636800,5.06363671875,9.105149269104004,3.955221176147461,0.8164227604866028
1788656953698722600,5.07972265625,9.090784072875977,3.9169139862060547,0.8427590131759644
1788656953714809300,5.095809326171875,9.167398452758789,3.9001545906066895,0.689530074596405
1788656953730857700,5.111857666015625,9.121908187866211,3.8115692138671875,0.569819986820221
1788656953746942000,5.12794189453125,9.136273384094238,3.6846764087677,0.4812345504760742
1788656953763024000,5.14402392578125,9.361329078674316,3.6152446269989014,0.42377370595932007
1788656953779110100,5.160110107421875,9.5408935546875,3.5960910320281982,0.26575639843940735
1788656953795207200,5.176207275390625,9.603142738342285,3.550601005554199,0.17956513166427612
1788656953811259100,5.192259033203125,9.332598686218262,3.5649664402008057,0.22744916379451752
1788656953827346200,5.20834619140625,9.129091262817383,3.5913026332855225,0.2322375625371933
1788656953843432400,5.224432373046875,9.08838939666748,3.5913026332855225,0.26096799969673157
1788656953859534800,5.240534912109375,9.191340446472168,3.56017804145813,0.20111294090747833
1788656953875647000,5.25664697265625,9.282320022583008,3.555389642715454,0.19871874153614044
1788656953891696600,5.272696533203125,9.035717010498047,3.6080620288848877,0.0694318488240242
1788656953907782700,5.28878271484375,8.911218643188477,3.598485231399536,0.035913024097681046
1788656953923868200,5.3048681640625,8.916007041931152,3.552995204925537,-0.016759412363171577
1788656953939973400,5.320973388671875,9.131484985351562,3.4763808250427246,-0.040701430290937424
1788656953956089900,5.33708984375,9.3828763961792,3.4596214294433594,0.021547814831137657
1788656953972142000,5.35314208984375,9.3828763961792,3.509899616241455,-0.0694318488240242
1788656953988200200,5.3692001953125,9.102754592895508,3.5745432376861572,-0.12210428714752197
1788656954004287000,5.385286865234375,8.913613319396973,3.579331636428833,-0.16759411990642548
1788656954020410600,5.40141064453125,8.995016098022461,3.5649664402008057,-0.19871874153614044
1788656954036543200,5.417543212890625,9.186552047729492,3.643975019454956,-0.05506663769483566
1788656954052598000,5.433597900390625,9.284713745117188,3.7038300037384033,0.13168109953403473
1788656954068690200,5.449690185546875,9.41400146484375,3.7014358043670654,0.1364694982767105
1788656954084778500,5.465778564453125,9.457097053527832,3.737348794937134,0.0933738648891449
1788656954100913200,5.4819130859375,9.138668060302734,3.8115692138671875,-0.043095629662275314
1788656954117008400,5.49800830078125,8.987833023071289,3.8331170082092285,0.15801730751991272
1788656954133065200,5.514065185546875,9.138668060302734,3.7445313930511475,-0.14365209639072418
1788656954149167400,5.53016748046875,9.315838813781738,3.7900211811065674,-0.023942016065120697
1788656954165257000,5.546257080078125,9.294290542602539,3.7828385829925537,0.23702596127986908
1788656954181348400,5.562348388671875,9.346963882446289,3.77565598487854,0.040701430290937424
1788656954197451500,5.578451416015625,9.162610054016113,3.794809579849243,0.14365209639072418
1788656954213509600,5.594509521484375,9.14345645904541,3.754108190536499,-0.011971008032560349
1788656954229615900,5.610615966796875,9.026140213012695,3.756502389907837,-0.09816227108240128
1788656954245706000,5.6267060546875,8.813055992126465,3.73016619682312,-0.14365209639072418
1788656954261807000,5.64280712890625,8.858546257019043,3.6774938106536865,-0.07182604819536209
1788656954277919500,5.65891943359375,8.983044624328613,3.598485231399536,-0.11013327538967133
1788656954293979600,5.674979736328125,9.090784072875977,3.665522813796997,0.031124621629714966
1788656954310097000,5.691096923828125,9.191340446472168,3.622427225112915,0.17477671802043915
1788656954326192000,5.707192138671875,9.39245319366455,3.5913026332855225,0.05985504388809204
1788656954342300700,5.72330078125,9.421183586120605,3.552995204925537,0.1149216815829277
1788656954358412000,5.739412109375,9.397241592407227,3.5960910320281982,0.0933738648891449
1788656954374464800,5.75546484375,9.265560150146484,3.5960910320281982,0.08858546614646912
1788656954390589400,5.77158935546875,9.148244857788086,3.6128504276275635,0.019153613597154617
1788656954406681900,5.787681884765625,9.069235801696777,3.5936968326568604,0.019153613597154617
1788656954422799000,5.803799072265625,8.971074104309082,3.6296098232269287,0.038307227194309235
1788656954438924000,5.819924072265625,8.892065048217773,3.6798880100250244,-0.014365210197865963
1788656954454981400,5.8359814453125,8.959102630615234,3.6750996112823486,0.035913024097681046
1788656954471119000,5.852119140625,9.172186851501465,3.641580820083618,0.06224924325942993
1788656954487211500,5.86821142578125,9.442731857299805,3.620033025741577,0.0933738648891449
1788656954503334700,5.884334716796875,9.425971984863281,3.643975019454956,-0.06703764945268631
1788656954519478500,5.900478515625,9.279925346374512,3.646369218826294,-0.10055647045373917
1788656954535544800,5.916544921875,9.066842079162598,3.706224203109741,-0.11013327538967133
1788656954551645700,5.932645751953125,8.944737434387207,3.7253777980804443,-0.05027823522686958
1788656954567739000,5.94873876953125,9.030928611755371,3.713406801223755,-0.090979665517807
1788656954583878100,5.964878173828125,9.220070838928223,3.665522813796997,-0.035913024097681046
1788656954599972900,5.980972900390625,9.32302188873291,3.670311212539673,-0.05027823522686958
1788656954616074500,5.997074462890625,9.32302188873291,3.6750996112823486,-0.05027823522686958
1788656954632171300,6.013171142578125,9.253589630126953,3.706224203109741,-0.0694318488240242
1788656954648265500,6.029265380859375,9.155426979064941,3.6942532062530518,-0.014365210197865963
1788656954664358700,6.045358642578125,9.10993766784668,3.7158010005950928,-0.002394201699644327
1788656954680466400,6.061466552734375,9.167398452758789,3.7469255924224854,0.028730420395731926
1788656954696527400,6.07752734375,9.208099365234375,3.7852327823638916,-0.05027823522686958
1788656954712621300,6.093621337890625,9.272743225097656,3.7253777980804443,0.011971008032560349
1788656954728716300,6.10971630859375,9.296685218811035,3.6990416049957275,0.08140286058187485
1788656954744820700,6.12582080078125,9.378087997436523,3.581725835800171,0.028730420395731926
1788656954760934100,6.14193408203125,9.430760383605957,3.5458126068115234,0.021547814831137657
1788656954776998000,6.157997802734375,9.478644371032715,3.5242648124694824,0.035913024097681046
1788656954793091600,6.174091552734375,9.459490776062012,3.512293815612793,0.12928688526153564
1788656954809183200,6.190183349609375,9.30386734008789,3.6391866207122803,0.11252748221158981
1788656954825298700,6.206298583984375,9.05487060546875,3.670311212539673,0.30885201692581177
1788656954841424600,6.222424560546875,8.927978515625,3.646369218826294,0.272938996553421
1788656954857485800,6.23848583984375,8.920795440673828,3.641580820083618,0.22026655077934265
1788656954873583000,6.2545830078125,8.990227699279785,3.6535518169403076,0.23942017555236816
1788656954889676000,6.270676025390625,9.047688484191895,3.6320040225982666,0.15322890877723694
1788656954905798100,6.286798095703125,9.10993766784668,3.6535518169403076,0.13168109953403473
1788656954921927000,6.302927001953125,9.244012832641602,3.6559460163116455,0.09816227108240128
1788656954937987000,6.318987060546875,9.354146003723145,3.6583402156829834,0.031124621629714966
1788656954954086000,6.3350859375,9.514557838439941,3.6343982219696045,0.016759412363171577
1788656954970180900,6.351180908203125,9.622296333312988,3.6176388263702393,0.090979665517807
1788656954986315800,6.367315673828125,9.48343276977539,3.6511576175689697,0.026336219161748886
1788656955002454500,6.38345458984375,9.277531623840332,3.6343982219696045,0.05746084079146385
1788656955018517500,6.399517578125,9.222464561462402,3.6583402156829834,0.13407529890537262
1788656955034619600,6.41561962890625,9.244012832641602,3.641580820083618,0.1388636976480484
1788656955050712000,6.431712158203125,9.255983352661133,3.6367924213409424,0.12928688526153564
1788656955066845400,6.447845458984375,9.248801231384277,3.6080620288848877,0.1173158809542656
1788656955082936300,6.463936279296875,9.248801231384277,3.5913026332855225,0.15562310814857483
1788656955098995000,6.479994873046875,9.287108421325684,3.5889084339141846,0.15801730751991272
1788656955115102500,6.4961025390625,9.289502143859863,3.5721490383148193,0.2059013396501541
1788656955131193600,6.512193603515625,9.258378028869629,3.5482068061828613,0.2106897532939911
1788656955147286300,6.528286376953125,9.241618156433105,3.5027170181274414,0.2059013396501541
1788656955163388700,6.544388671875,9.272743225097656,3.4835634231567383,0.20111294090747833
1788656955179448300,6.5604482421875,9.346963882446289,3.442862033843994,0.26096799969673157
1788656955195561000,6.57656103515625,9.308655738830566,3.4165258407592773,0.31124621629714966
1788656955211656000,6.592656005859375,9.062053680419922,3.442862033843994,0.3423708379268646
1788656955227757300,6.60875732421875,8.755595207214355,3.5003228187561035,0.44771572947502136
1788656955243861500,6.624861572265625,8.607154846191406,3.581725835800171,0.569819986820221
1788656955259917000,6.6409169921875,8.75080680847168,3.6846764087677,0.6129156351089478
1788656955276027400,6.65702734375,8.949525833129883,3.754108190536499,0.629675030708313
1788656955292117000,6.673116943359375,9.129091262817383,3.8307228088378906,0.629675030708313
1788656955308221200,6.68922119140625,9.217676162719727,3.801992416381836,0.5363011956214905
1788656955324356000,6.705356201171875,9.306262016296387,3.8283286094665527,0.6584054827690125
1788656955340412200,6.721412109375,9.670180320739746,3.734954595565796,0.3423708379268646
1788656955356532200,6.7375322265625,9.856928825378418,3.7924153804779053,0.2777273952960968
1788656955372622000,6.7536220703125,9.821015357971191,3.9217023849487305,0.3711012601852417
1788656955388732200,6.769732177734375,9.423578262329102,4.039018154144287,0.3758896589279175
1788656955404853000,6.78585302734375,9.136273384094238,4.062960147857666,0.38067805767059326
1788656955420911400,6.801911376953125,9.02135181427002,4.108449935913086,0.33279404044151306
1788656955437036500,6.81803662109375,9.009381294250488,4.127603530883789,0.304063618183136
1788656955453129000,6.83412890625,9.05247688293457,4.134786128997803,0.3064578175544739
1788656955469246000,6.850245849609375,8.995016098022461,4.175487995147705,0.33997663855552673
1788656955485374500,6.86637451171875,8.80587387084961,4.292803764343262,0.4357447028160095
1788656955501433600,6.88243359375,8.645462036132812,4.32871675491333,0.43335050344467163
1788656955517525800,6.89852587890625,8.506598472595215,4.350264549255371,0.3016694188117981
1788656955533617700,6.91461767578125,8.487444877624512,4.2951979637146,0.16998831927776337
1788656955549754000,6.930754150390625,8.607154846191406,4.220977783203125,0.05027823522686958
1788656955565843500,6.946843505859375,8.798690795898438,4.125209331512451,-0.05746084079146385
1788656955581902800,6.96290283203125,8.889671325683594,4.072536945343018,-0.0694318488240242
1788656955597998600,6.97899853515625,8.75080680847168,4.01268196105957,0.028730420395731926
1788656955614093300,6.99509326171875,8.59997272491455,3.9863457679748535,0.11013327538967133
1788656955630187500,7.0111875,8.508993148803711,3.9600095748901367,0.2059013396501541
1788656955646286600,7.02728662109375,8.561665534973145,3.9671921730041504,0.2968810200691223
1788656955662349000,7.04334912109375,8.755595207214355,3.9839515686035156,0.3734954595565796
1788656955678447400,7.059447265625,8.87291145324707,4.01268196105957,0.42856210470199585
1788656955694539000,7.0755390625,8.973467826843262,4.05817174911499,0.47405192255973816
1788656955710642000,7.091641845703125,8.908824920654297,4.120420932769775,0.5147533416748047
1788656955726754000,7.107754150390625,8.765172004699707,4.194641590118408,0.586579442024231
1788656955742813700,7.123813720703125,8.762778282165527,4.252102375030518,0.5817909836769104
1788656955758909400,7.139909423828125,8.887276649475098,4.299986362457275,0.5554547905921936
1788656955775001000,7.1560009765625,9.17936897277832,4.355052947998047,0.4644751250743866
1788656955791113000,7.172113037109375,9.469067573547363,4.347870349884033,0.4213795065879822
1788656955807235600,7.188235595703125,9.619902610778809,4.331110954284668,0.4141969084739685
1788656955823291600,7.204291748046875,9.646238327026367,4.314351558685303,0.4620809257030487
1788656955839382000,7.220382080078125,9.672574996948242,4.285621166229248,0.5410895943641663
1788656955855473400,7.236473388671875,9.873687744140625,4.180276393890381,0.6775590777397156
1788656955871599000,7.25259912109375,10.041281700134277,4.084507942199707,0.7757213711738586
1788656955887728600,7.268728759765625,10.036493301391602,4.1156325340271,0.9002198576927185
1788656955903791900,7.2847919921875,9.742006301879883,4.3622355461120605,1.0678139925003052
1788656955919888600,7.300888671875,9.516951560974121,4.256890773773193,1.0414776802062988
1788656955935980500,7.31698046875,9.607931137084961,3.914519786834717,0.6607996821403503
1788656955952111000,7.333111083984375,10.086771965026855,3.737348794937134,0.30885201692581177
1788656955968211000,7.3492109375,10.723628997802734,3.5482068061828613,0.031124621629714966
1788656955984268300,7.365268310546875,11.228805541992188,3.2154128551483154,-0.1149216815829277
1788656956000369700,7.38136962890625,11.353304862976074,2.9664158821105957,-0.15083470940589905
1788656956016457200,7.397457275390625,11.21444034576416,2.75812029838562,-0.2059013396501541
1788656956032594700,7.4135947265625,10.84094524383545,2.4851813316345215,-0.2082955539226532
1788656956048691000,7.42969091796875,10.096348762512207,2.3582887649536133,-0.17717093229293823
1788656956064755200,7.445755126953125,9.074024200439453,2.4612393379211426,-0.08379705995321274
1788656956080863500,7.461863525390625,8.17380428314209,2.7078421115875244,-0.07900865375995636
1788656956096942600,7.477942626953125,7.718906402587891,2.8874073028564453,-0.08140286058187485
1788656956113080000,7.494080078125,7.838616371154785,2.999934673309326,-0.16759411990642548
1788656956129197300,7.510197265625,8.310274124145508,2.9951462745666504,-0.181959331035614
1788656956145260300,7.52626025390625,8.789113998413086,2.8993782997131348,-0.1364694982767105
1788656956161376800,7.542376708984375,8.980650901794434,2.8658595085144043,-0.1867477297782898
1788656956177464800,7.55846484375,9.126696586608887,2.8993782997131348,-0.05746084079146385
1788656956193563100,7.574563232421875,9.210494041442871,2.985569477081299,0.043095629662275314
1788656956209671200,7.590671142578125,9.308655738830566,3.090914487838745,0.1364694982767105
1788656956225732900,7.60673291015625,9.48343276977539,3.071760892868042,0.19153612852096558
1788656956241854000,7.62285400390625,9.593565940856934,3.0597896575927734,0.040701430290937424
1788656956257941500,7.63894140625,9.521739959716797,3.0526070594787598,-0.10534487664699554
1788656956274049500,7.655049560546875,9.390059471130371,3.0837318897247314,-0.11252748221158981
1788656956290166300,7.671166259765625,9.133879661560059,3.177105665206909,-0.2561795711517334
1788656956306235100,7.687235107421875,8.734047889709473,3.287238836288452,-0.19393034279346466
1788656956322372600,7.70337255859375,8.255207061767578,3.44765043258667,-0.17238251864910126
1788656956338471200,7.71947119140625,8.090007781982422,3.5410242080688477,-0.1604115068912506
1788656956354599400,7.735599365234375,7.884106159210205,3.581725835800171,-0.14844051003456116
1788656956370731800,7.751731689453125,7.915230751037598,3.6320040225982666,-0.24181437492370605
1788656956386793500,7.76779345703125,8.33182144165039,3.6607344150543213,-0.2346317619085312
1788656956402939100,7.783939208984375,8.59997272491455,3.627215623855591,-0.15322890877723694
1788656956419034000,7.8000341796875,8.808267593383789,3.711012601852417,-0.1628057211637497
1788656956435166500,7.81616650390625,8.83699893951416,3.751713991165161,0.019153613597154617
1788656956451262200,7.83226220703125,8.635885238647461,3.7469255924224854,0.06464344263076782
1788656956467320600,7.848320556640625,8.554482460021973,3.7445313930511475,0.07900865375995636
1788656956483418400,7.86441845703125,8.65982723236084,3.7876269817352295,0.07422025501728058
1788656956499513600,7.880513671875,8.966285705566406,3.8810009956359863,-0.06703764945268631
1788656956515611100,7.896611083984375,9.282320022583008,3.9815573692321777,-0.22266076505184174
1788656956531719200,7.91271923828125,9.454702377319336,4.201824188232422,-0.26815059781074524
1788656956547777800,7.92877783203125,9.275136947631836,4.398148536682129,-0.05746084079146385
1788656956563876400,7.94487646484375,9.174580574035645,4.481945514678955,0.11252748221158981
1788656956579974400,7.960974365234375,9.253589630126953,4.4508209228515625,0.20350714027881622
1788656956596081700,7.97708154296875,9.610325813293457,4.311957359313965,0.2561795711517334
1788656956612190000,7.99318994140625,10.019734382629395,4.180276393890381,0.17477671802043915
1788656956628252000,8.009251953125,10.153809547424316,4.402936935424805,-0.002394201699644327
1788656956644345600,8.025345703125,10.002974510192871,4.733336925506592,0.1843535304069519
1788656956660409000,8.0414091796875,9.983820915222168,4.211400985717773,0.1843535304069519
1788656956676522000,8.05752197265625,10.625467300415039,3.706224203109741,0.014365210197865963
1788656956692643300,8.073643310546874,11.724405288696289,3.3494882583618164,0.019153613597154617
1788656956708700200,8.0897001953125,12.287043571472168,2.959233283996582,0.10055647045373917
1788656956724794400,8.10579443359375,12.179304122924805,2.655169725418091,-0.05746084079146385
1788656956740861000,8.12186083984375,11.796232223510742,2.5977089405059814,-0.06224924325942993
1788656956756956000,8.137955810546876,11.240777015686035,2.564189910888672,-0.24181437492370605
1788656956773076000,8.154075927734375,10.33098030090332,2.6240451335906982,-0.19153612852096558
1788656956789140200,8.17014013671875,9.346963882446289,2.8586769104003906,0.031124621629714966
1788656956805241000,8.186240966796875,8.020575523376465,3.0526070594787598,0.2777273952960968
1788656956821316000,8.202316162109375,7.38132381439209,3.1028854846954346,0.3711012601852417
1788656956837426400,8.218426513671876,7.522581577301025,3.0789434909820557,0.751779317855835
1788656956853549600,8.234549560546874,8.362946510314941,2.8131868839263916,1.2425906658172607
1788656956869609500,8.250609375,9.409213066101074,2.4588451385498047,1.4724340438842773
1788656956885705500,8.26670556640625,10.158597946166992,2.1284453868865967,1.3886369466781616
1788656956901784800,8.282784912109374,10.453084945678711,1.9560627937316895,1.2401964664459229
1788656956917904100,8.298904052734375,10.146626472473145,1.922544002532959,1.0438719987869263
1788656956933985500,8.314985595703124,9.634267807006836,2.123656988143921,0.7876923680305481
1788656956950043400,8.33104345703125,9.119514465332031,2.4420857429504395,0.47405192255973816
1788656956966143700,8.347143798828125,8.669404029846191,2.63362193107605,0.13407529890537262
1788656956982230800,8.363230712890624,8.24084186553955,2.8419175148010254,-0.09816227108240128
1788656956998367700,8.37936767578125,7.841010570526123,3.0765492916107178,-0.12210428714752197
1788656957014478000,8.39547802734375,7.632715225219727,3.19865345954895,-0.19393034279346466
1788656957030538800,8.411538818359375,7.620744228363037,3.227383852005005,-0.10773907601833344
1788656957046651100,8.427651123046875,7.757213592529297,3.383007049560547,-0.019153613597154617
1788656957062748200,8.443748046875,8.008605003356934,3.426102638244629,0.1364694982767105
1788656957078850000,8.45985009765625,8.327033042907715,3.4332852363586426,0.22505496442317963
1788656957094963700,8.475963623046875,8.573636054992676,3.4955344200134277,0.3447650372982025
1788656957111028200,8.4920283203125,8.78193187713623,3.6104562282562256,0.37828385829925537
1788656957127155700,8.50815576171875,8.899248123168945,3.6152446269989014,0.5219359993934631
1788656957143251000,8.5242509765625,8.9064302444458,3.627215623855591,0.6224924325942993
1788656957159358000,8.54035791015625,8.942343711853027,3.778050184249878,0.6200982332229614
1788656957175470600,8.556470703125,9.062053680419922,3.8163576126098633,0.6607996821403503
1788656957191532800,8.57253271484375,9.100360870361328,3.912125587463379,0.7086837291717529
1788656957207659300,8.5886591796875,9.244012832641602,4.015076160430908,0.6368576288223267
1788656957223754500,8.60475439453125,9.41639518737793,4.10366153717041,0.4812345504760742
1788656957239872000,8.6208720703125,9.536105155944824,4.1611223220825195,0.24899697303771973
1788656957256001000,8.6370009765625,9.552865028381348,4.168305397033691,0.11971008777618408
1788656957272060200,8.65306005859375,9.555258750915527,4.173093795776367,0.038307227194309235
1788656957288195800,8.66919580078125,9.775525093078613,4.043806552886963,-0.10534487664699554
1788656957304289500,8.68528955078125,10.046070098876953,3.9001545906066895,-0.17717093229293823
1788656957320409000,8.7014091796875,10.158597946166992,3.7469255924224854,0.13407529890537262
1788656957336536600,8.71753662109375,10.086771965026855,3.754108190536499,0.3495534360408783
1788656957352595200,8.73359521484375,9.806650161743164,4.323928356170654,0.4213795065879822
1788656957368735700,8.74973583984375,9.821015357971191,4.122815132141113,0.5219359993934631
1788656957384828400,8.765828369140625,10.022128105163574,3.778050184249878,0.38546648621559143
1788656957400955100,8.781955078125,10.3549222946167,3.8067808151245117,0.22266076505184174
1788656957417042400,8.79804248046875,10.94150161743164,3.689464807510376,-0.05985504388809204
1788656957433097700,8.81409765625,11.51850414276123,3.2752678394317627,-0.17238251864910126
1788656957449192700,8.830192626953124,11.678915977478027,3.114856481552124,-0.24660277366638184
1788656957465265700,8.846265625,11.013327598571777,3.098097085952759,-0.16519992053508759
1788656957481366800,8.86236669921875,10.086771965026855,3.0789434909820557,-0.1604115068912506
1788656957497462800,8.878462890625,9.258378028869629,3.155557870864868,-0.047884032130241394
1788656957513525500,8.894525390625,8.700529098510742,3.1866824626922607,-0.028730420395731926
1788656957529620500,8.910620361328125,8.355764389038086,3.1483752727508545,-0.11013327538967133
1788656957545723000,8.926722900390626,8.17141056060791,3.026270866394043,-0.19632454216480255
1788656957561825000,8.942824951171875,8.243236541748047,2.9017724990844727,-0.22026655077934265
1788656957577942300,8.9589423828125,8.456320762634277,2.7940332889556885,-0.23702596127986908
1788656957594002400,8.97500244140625,8.736441612243652,2.762908697128296,-0.26336219906806946
1788656957610101200,8.991101318359375,9.02135181427002,2.7772738933563232,-0.28969839215278625
1788656957626192400,9.0071923828125,9.284713745117188,2.7317841053009033,-0.20350714027881622
1788656957642294000,9.0232939453125,9.44752025604248,2.736572504043579,-0.15562310814857483
1788656957658401500,9.039401611328126,9.500192642211914,2.8371291160583496,-0.15322890877723694
1788656957674465000,9.055465087890624,9.457097053527832,2.9065608978271484,-0.1867477297782898
1788656957690560500,9.071560546875,9.29189682006836,2.959233283996582,-0.17238251864910126
1788656957706652200,9.087652099609375,9.071630477905273,3.0310592651367188,-0.17477671802043915
1788656957722769000,9.103768798828124,8.743624687194824,3.1292216777801514,-0.11013327538967133
1788656957738907400,9.119907470703126,8.56645393371582,3.0861260890960693,-0.040701430290937424
1788656957754969300,9.13596923828125,8.35097599029541,3.1531636714935303,-0.009576806798577309
1788656957771066000,9.152066162109374,8.17380428314209,3.2848446369171143,0.08140286058187485
1788656957787155500,9.168155517578125,8.044517517089844,3.378218650817871,0.08379705995321274
1788656957803280000,9.18427978515625,8.08043098449707,3.4787750244140625,0.05267243832349777
1788656957819408400,9.200408447265625,8.178592681884766,3.620033025741577,0.05985504388809204
1788656957835468000,9.216468017578125,8.341399192810059,3.7277719974517822,0.06703764945268631
1788656957851564800,9.232564697265625,8.425195693969727,3.7708675861358643,0.05746084079146385
1788656957867657500,9.248657470703124,8.468291282653809,3.818751811981201,0.021547814831137657
1788656957883786200,9.2647861328125,8.729259490966797,3.866635799407959,-0.17717093229293823
1788656957899878700,9.280878662109375,9.040505409240723,3.845088005065918,-0.26575639843940735
1788656957915945200,9.2969453125,9.327810287475586,3.804386615753174,-0.2059013396501541
1788656957932046600,9.313046630859375,9.442731857299805,3.8546648025512695,-0.1149216815829277
1788656957948142000,9.32914208984375,9.311050415039062,3.955221176147461,-0.05027823522686958
1788656957964236000,9.345236083984375,9.126696586608887,4.01268196105957,0.06464344263076782
1788656957980338200,9.361338134765624,9.10993766784668,4.065354347229004,0.15083470940589905
1788656957996397600,9.3773974609375,9.354146003723145,4.01268196105957,0.2585737705230713
1788656958012496400,9.393496337890625,9.765948295593262,3.931279182434082,0.19632454216480255
1788656958028589600,9.409589599609374,10.153809547424316,3.799597978591919,0.11971008777618408
1788656958044682200,9.42568212890625,10.340557098388672,3.8139634132385254,0.031124621629714966
1788656958060787700,9.44178759765625,10.012551307678223,4.173093795776367,-0.08858546614646912
1788656958076848000,9.45784814453125,9.488221168518066,4.666299343109131,0.17238251864910126
1788656958092963800,9.4739638671875,9.342175483703613,4.153939723968506,0.31842881441116333
1788656958109055700,9.4900556640625,9.248801231384277,3.9647979736328125,0.22744916379451752
1788656958125157400,9.506157470703124,10.010157585144043,3.8786067962646484,0.35673606395721436
1788656958141278700,9.52227880859375,11.176133155822754,3.2752678394317627,0.28730419278144836
1788656958157341700,9.538341796875,12.0021333694458,2.7317841053009033,0.10534487664699554
1788656958173467000,9.554466796875,12.100295066833496,2.609679937362671,-0.009576806798577309
1788656958189539000,9.5705390625,11.530475616455078,2.6599581241607666,-0.016759412363171577
1788656958205630500,9.58663037109375,10.41956615447998,2.7269957065582275,0.07900865375995636
1788656958221746700,9.60274658203125,9.165003776550293,2.9257144927978516,0.24420857429504395
1788656958237808400,9.618808349609376,7.970297336578369,3.2130186557769775,0.2992752194404602
1788656958253942300,9.6349423828125,7.242460250854492,3.308786630630493,0.5123591423034668
1788656958270024700,9.651024658203125,7.4316020011901855,3.251325845718384,0.7469909191131592
1788656958286142000,9.667141845703124,8.252813339233398,3.0789434909820557,1.2617442607879639
1788656958302279700,9.68327978515625,8.990227699279785,2.719813108444214,1.4844050407409668
1788656958318338600,9.699338623046875,9.840168952941895,2.315192937850952,1.5466543436050415
1788656958334474800,9.715474853515625,10.594342231750488,2.073378562927246,1.400607943534851
1788656958350554600,9.7315546875,10.876858711242676,1.8555063009262085,1.1037269830703735
1788656958366684400,9.747684326171875,10.678139686584473,1.8267759084701538,0.8451532125473022
1788656958382771200,9.763771240234375,10.067618370056152,2.1475989818573,0.6320692300796509
1788656958398834200,9.779834228515625,9.232041358947754,2.5282769203186035,0.3232172429561615
1788656958414933200,9.795933349609374,8.439560890197754,2.736572504043579,0.06224924325942993
1788656958431028000,9.812028076171876,7.675810813903809,2.956839084625244,-0.10534487664699554
1788656958447159300,9.8281591796875,7.457938194274902,3.136404275894165,-0.16519992053508759
1788656958463245800,9.844245849609376,7.5201873779296875,3.337517261505127,-0.2322375625371933
1788656958479310300,9.860310302734375,7.836222171783447,3.378218650817871,-0.16519992053508759
1788656958495403800,9.87640380859375,8.245630264282227,3.3470940589904785,-0.08379705995321274
1788656958511498800,9.892498779296876,8.71728801727295,3.3662476539611816,0.22266076505184174
1788656958527606300,9.908606201171875,9.205705642700195,3.4308910369873047,0.40462008118629456
1788656958543721700,9.9247216796875,9.469067573547363,3.471592426300049,0.5817909836769104
1788656958559781600,9.94078173828125,9.435548782348633,3.4596214294433594,0.6416460275650024
1788656958575875800,9.956875732421874,9.167398452758789,3.5889084339141846,0.5961562395095825
1788656958591974400,9.972974365234375,8.992621421813965,3.6750996112823486,0.5746083855628967
1788656958608083000,9.9890830078125,8.860940933227539,3.7493197917938232,0.6416460275650024
1788656958624203000,10.005203125,8.858546257019043,3.9049429893493652,0.5985504388809204
1788656958640266200,10.021266357421876,9.02135181427002,3.93367338180542,0.5722141861915588
1788656958656378400,10.03737841796875,9.476250648498535,3.928884983062744,0.4668693244457245
1788656958672472800,10.053472900390625,9.80904483795166,3.864241600036621,0.4357447028160095
1788656958688589300,10.06958935546875,9.983820915222168,3.7229835987091064,0.5267243981361389
1788656958704712700,10.085712646484374,10.091560363769531,3.5960910320281982,0.5339069962501526
1788656958720775700,10.101775634765625,10.194510459899902,3.3877954483032227,0.608127236366272
1788656958736872000,10.117871826171875,10.287884712219238,3.227383852005005,0.5985504388809204
1788656958752957200,10.133957275390625,9.995792388916016,3.4955344200134277,0.4692635238170624
1788656958769076700,10.15007666015625,9.516951560974121,4.156333923339844,0.7733271718025208
1788656958785215700,10.1662158203125,9.48343276977539,4.07014274597168,0.9600749015808105
1788656958801278000,10.18227783203125,9.734824180603027,3.8953661918640137,0.5195417404174805
1788656958817374700,10.198374755859374,10.362105369567871,3.7493197917938232,0.26575639843940735
1788656958833473500,10.2144736328125,11.006145477294922,3.423708438873291,0.19393034279346466
1788656958849611800,10.23061181640625,11.398794174194336,3.071760892868042,0.31603461503982544
1788656958865697500,10.246697509765625,11.068394660949707,2.9664158821105957,0.3663128614425659
1788656958881758200,10.26275830078125,10.340557098388672,2.9305028915405273,0.33997663855552673
1788656958897855200,10.278855224609375,9.749189376831055,2.846705913543701,0.23702596127986908
1788656958913942300,10.2949423828125,9.188945770263672,2.9472622871398926,0.23942017555236816
1788656958930073300,10.3110732421875,8.664615631103516,2.983175277709961,0.24660277366638184
1788656958946180400,10.327180419921875,8.274360656738281,2.9735984802246094,0.06464344263076782
1788656958962241500,10.343241455078125,8.269572257995605,2.896984100341797,0.038307227194309235
1788656958978351900,10.359351806640625,8.633491516113281,2.7676970958709717,-0.1412578970193863
1788656958994453200,10.375453369140626,9.102754592895508,2.626439332962036,-0.3734954595565796
1788656959010549000,10.391549072265626,9.306262016296387,2.537853717803955,-0.524330198764801
1788656959026649900,10.40764990234375,9.387664794921875,2.5474305152893066,-0.2082955539226532
1788656959042714600,10.423714599609376,9.81143856048584,2.585737943649292,-0.24181437492370605
1788656959058838500,10.439838623046874,9.591172218322754,2.691082715988159,-0.43095630407333374
1788656959074932700,10.4559326171875,9.17697525024414,2.937685489654541,-0.19871874153614044
1788656959091037700,10.47203759765625,9.071630477905273,2.806004285812378,0.24899697303771973
1788656959107151600,10.488151611328124,9.083600997924805,2.942473888397217,0.23942017555236816
1788656959131274200,10.512274169921875,8.935160636901855,2.9520506858825684,0.4189853072166443
1788656959147368700,10.52836865234375,8.98543930053711,3.112462282180786,0.2968810200691223
1788656959163494700,10.54449462890625,9.006986618041992,3.3279404640197754,0.2082955539226532
1788656959179626500,10.56062646484375,8.832210540771484,3.4763808250427246,0.17477671802043915
1788656959195734800,10.57673486328125,8.480262756347656,3.5913026332855225,0.13407529890537262
1788656959211833000,10.5928330078125,8.305485725402832,3.6727054119110107,0.004788403399288654
1788656959227923000,10.6089228515625,8.29830265045166,3.751713991165161,-0.10055647045373917
1788656959244057000,10.62505712890625,8.291120529174805,3.7612907886505127,-0.07900865375995636
1788656959260193800,10.64119384765625,8.341399192810059,3.797203779220581,0.05027823522686958
1788656959276286000,10.657285888671876,8.588001251220703,3.778050184249878,0.1843535304069519
1788656959292341800,10.673341796875,8.904036521911621,3.643975019454956,0.29209262132644653
1788656959308433700,10.68943359375,9.208099365234375,3.5482068061828613,0.2059013396501541
1788656959324578000,10.705578125,9.418789863586426,3.5482068061828613,0.15801730751991272
1788656959340703500,10.721703369140625,9.452308654785156,3.6750996112823486,0.16998831927776337
1788656959356796200,10.737796142578125,9.339780807495117,3.732560396194458,0.16998831927776337
1788656959372847000,10.75384716796875,9.299078941345215,3.7876269817352295,0.181959331035614
1788656959388935000,10.769934814453125,9.373299598693848,3.840299606323242,0.1149216815829277
1788656959405032700,10.78603271484375,9.48343276977539,3.7445313930511475,0.12689268589019775
1788656959421139000,10.802138916015625,9.493009567260742,3.6296098232269287,0.23702596127986908
1788656959437231900,10.81823193359375,9.552865028381348,3.5745432376861572,0.19153612852096558
1788656959453286700,10.83428662109375,9.835380554199219,3.4811692237854004,0.07422025501728058
1788656959469383000,10.8503828125,10.204087257385254,3.646369218826294,-0.040701430290937424
1788656959485491700,10.86649169921875,10.053253173828125,4.206612586975098,0.090979665517807
1788656959501612500,10.882612548828124,9.421183586120605,4.422090530395508,0.31842881441116333
1788656959517708500,10.89870849609375,9.011775016784668,4.216189384460449,0.6967126727104187
1788656959533768200,10.914768310546876,9.478644371032715,4.034229755401611,0.9265560507774353
1788656959549860600,10.930860595703125,10.627861022949219,3.6822822093963623,0.751779317855835
1788656959565956000,10.9469560546875,12.102689743041992,2.9903578758239746,0.37828385829925537
1788656959582076200,10.963076171875,12.947842597961426,2.6815059185028076,0.2513911724090576
1788656959598143200,10.979143310546876,12.677297592163086,2.5785553455352783,0.090979665517807
1788656959614194700,10.995194580078126,11.719616889953613,2.4803929328918457,0.11252748221158981
1788656959630261200,11.01126123046875,10.498574256896973,2.43011474609375,0.21308395266532898
1788656959646368000,11.027367919921875,9.210494041442871,2.559401512145996,0.2968810200691223
1788656959662503200,11.043503173828125,8.02536392211914,2.7700912952423096,0.43095630407333374
1788656959678573600,11.059573486328125,7.070077419281006,2.9664158821105957,0.5482721924781799
1788656959694629000,11.075629150390625,6.813898086547852,3.047818660736084,0.7015010714530945
1788656959710694700,11.091694580078125,7.283161640167236,2.983175277709961,1.1420341730117798
1788656959726814500,11.107814453125,8.099584579467773,2.7485435009002686,1.4269442558288574
1788656959742954200,11.123954345703124,9.074024200439453,2.3942017555236816,1.5131354331970215
1788656959759039200,11.140039306640626,9.713275909423828,2.126051187515259,1.2832920551300049
1788656959775097000,11.15609716796875,10.031704902648926,2.006340980529785,1.0127472877502441
1788656959791179500,11.172179443359376,10.036493301391602,1.9488801956176758,0.8762778043746948
1788656959807308300,11.188308349609375,9.744400978088379,2.1308395862579346,0.6129156351089478
1788656959823401000,11.20440087890625,9.265560150146484,2.4420857429504395,0.37828385829925537
1788656959839486000,11.22048583984375,8.793902397155762,2.7509377002716064,0.12928688526153564
1788656959855546000,11.236546142578124,8.389283180236816,3.0813376903533936,-0.19871874153614044
1788656959871624000,11.2526240234375,8.087613105773926,3.3039982318878174,-0.3878606855869293
1788656959887728400,11.268728271484376,8.027758598327637,3.3207578659057617,-0.33039984107017517
1788656959903827000,11.284826904296875,8.2312650680542,3.292027235031128,-0.19871874153614044
1788656959919920400,11.30092041015625,8.645462036132812,3.2968156337738037,-0.043095629662275314
1788656959935985000,11.31698486328125,9.059659004211426,3.2321722507476807,0.24899697303771973
1788656959952077600,11.33307763671875,9.464279174804688,3.2393548488616943,0.40222588181495667
1788656959968183000,11.34918310546875,9.588777542114258,3.2848446369171143,0.5339069962501526
1788656959984298200,11.36529833984375,9.50737476348877,3.339911460876465,0.5339069962501526
1788656960000404700,11.38140478515625,9.301473617553711,3.3686418533325195,0.5482721924781799
1788656960016486700,11.397486572265626,9.119514465332031,3.4955344200134277,0.5722141861915588
1788656960032575700,11.41357568359375,8.901641845703125,3.5960910320281982,0.569819986820221
1788656960048688000,11.429688232421874,8.78193187713623,3.708618402481079,0.751779317855835
1788656960064808400,11.445808349609376,8.774748802185059,3.8953661918640137,0.8307880163192749
1788656960080898000,11.46189794921875,8.980650901794434,3.914519786834717,0.7445967197418213
1788656960096983600,11.477983642578126,9.205705642700195,3.9480385780334473,0.6751648783683777
1788656960113074700,11.49407470703125,9.545681953430176,3.9432501792907715,0.6057330369949341
1788656960129193700,11.51019384765625,9.737217903137207,3.9408559799194336,0.5530605912208557
1788656960145321700,11.52632177734375,9.825803756713867,3.8714241981506348,0.4836287498474121
1788656960161415700,11.542415771484375,9.976638793945312,3.8570590019226074,0.35434186458587646
1788656960177514200,11.55851416015625,10.122684478759766,3.7612907886505127,0.395043283700943
1788656960193606100,11.574606201171875,10.261548042297363,3.6822822093963623,0.40462008118629456
1788656960209744100,11.590744140625,10.213664054870605,3.9001545906066895,0.4692635238170624
1788656960225886700,11.60688671875,9.99339771270752,4.2951979637146,0.5770025849342346
1788656960241980000,11.62297998046875,10.103530883789062,3.907337188720703,0.3711012601852417
1788656960258030800,11.63903076171875,10.266336441040039,3.734954595565796,0.038307227194309235
1788656960274122800,11.655122802734375,10.821791648864746,3.5649664402008057,-0.10534487664699554
1788656960290250200,11.671250244140625,11.51611042022705,3.162740468978882,-0.21308395266532898
1788656960306344400,11.687344482421874,11.982979774475098,2.75812029838562,-0.181959331035614
1788656960322411800,11.703411865234376,11.858481407165527,2.5713725090026855,-0.016759412363171577
1788656960338462700,11.719462646484375,11.176133155822754,2.3942017555236816,0.22744916379451752
1788656960354544000,11.735544189453124,10.299856185913086,2.298433542251587,0.22505496442317963
1788656960370637800,11.751637939453126,9.428366661071777,2.31758713722229,0.15801730751991272
1788656960386740000,11.767739990234375,8.554482460021973,2.4205379486083984,0.17956513166427612
1788656960402818800,11.78381884765625,8.070854187011719,2.535459518432617,0.08619125932455063
1788656960418871800,11.799871826171875,7.977479934692383,2.5282769203186035,-0.05267243832349777
1788656960434957600,11.81595751953125,8.157045364379883,2.497152328491211,-0.1173158809542656
1788656960451064600,11.832064697265626,8.453926086425781,2.5019407272338867,-0.10773907601833344
1788656960467178200,11.84817822265625,8.645462036132812,2.492363929748535,0.10055647045373917
1788656960483265300,11.864265380859376,8.944737434387207,2.4205379486083984,0.1412578970193863
1788656960499319000,11.880319091796874,9.387664794921875,2.3319525718688965,0.20350714027881622
1788656960515404800,11.89640478515625,9.660603523254395,2.3127987384796143,0.2825157940387726
1788656960531512300,11.91251220703125,9.785101890563965,2.360682964324951,0.2585737705230713
1788656960547633700,11.928633544921874,9.59835433959961,2.5019407272338867,0.2825157940387726
1788656960563721000,11.944720947265624,9.155426979064941,2.63362193107605,0.24420857429504395
1788656960579777500,11.960777587890625,8.746018409729004,2.7246015071868896,0.24899697303771973
1788656960595860700,11.97686083984375,8.489839553833008,2.7724854946136475,0.22026655077934265
1788656960611979300,11.992979248046876,8.33182144165039,2.8658595085144043,0.2059013396501541
1788656960628106800,12.009106689453125,8.303091049194336,2.96162748336792,0.21308395266532898
1788656960644213200,12.025213134765625,8.274360656738281,3.0765492916107178,0.16759411990642548
1788656960660272600,12.041272705078125,8.149862289428711,3.2321722507476807,0.23942017555236816
1788656960676369000,12.057368896484375,8.121131896972656,3.423708438873291,0.2585737705230713
1788656960692477700,12.073477783203124,8.188169479370117,3.557783842086792,0.2992752194404602
1788656960708615400,12.089615478515626,8.480262756347656,3.5865142345428467,0.2968810200691223
1788656960724710400,12.10571044921875,8.774748802185059,3.579331636428833,0.2801215946674347
1788656960740768300,12.121768310546875,9.107542991638184,3.4356794357299805,0.22026655077934265
1788656960756860200,12.137860107421876,9.509769439697266,3.40216064453125,0.043095629662275314
1788656960781033000,12.162032958984375,9.926360130310059,3.3925838470458984,-0.17477671802043915
1788656960797123800,12.178123779296875,9.90241813659668,3.378218650817871,-0.2082955539226532
1788656960813184000,12.19418408203125,9.66299819946289,3.5051112174987793,-0.26336219906806946
1788656960829285000,12.21028515625,9.402029991149902,3.646369218826294,-0.2944868206977844
1788656960845385700,12.2263857421875,9.17936897277832,3.7158010005950928,-0.19632454216480255
1788656960861478700,12.242478759765625,9.332598686218262,3.7421371936798096,-0.033518824726343155
1788656960877586000,12.2585859375,9.715670585632324,3.6966474056243896,0
1788656960893648600,12.274648681640626,10.02452278137207,3.550601005554199,0.08140286058187485
1788656960909782000,12.290781982421874,10.199298858642578,3.4308910369873047,0.07900865375995636
1788656960925883600,12.306883544921876,10.290278434753418,3.383007049560547,0.035913024097681046
1788656960941981200,12.322981201171874,10.08198356628418,3.756502389907837,-0.023942016065120697
1788656960958101500,12.3391015625,9.682151794433594,4.278438568115234,0.23702596127986908
1788656960974163700,12.355163818359374,9.363722801208496,3.804386615753174,0.727837324142456
1788656960990280200,12.3712802734375,9.421183586120605,3.6367924213409424,0.912190854549408
1788656961006375000,12.387375,10.448296546936035,3.380612850189209,0.8906430602073669
1788656961022493400,12.403493408203126,12.06198787689209,2.676717519760132,0.6368576288223267
1788656961038587100,12.419587158203125,13.409923553466797,2.1715409755706787,0.3064578175544739
1788656961054649300,12.4356494140625,13.474567413330078,2.2026655673980713,0.181959331035614
1788656961070779000,12.45177880859375,12.083536148071289,2.207453966140747,0.22026655077934265
1788656961086852400,12.467852294921874,9.876082420349121,2.3774423599243164,0.33997663855552673
1788656961102957300,12.483957275390624,7.979874134063721,2.6575639247894287,0.3711012601852417
1788656961119061800,12.500061767578124,6.92881965637207,2.8419175148010254,0.5363011956214905
1788656961135127300,12.516127197265625,6.607996463775635,2.9448680877685547,0.5291185975074768
1788656961151283000,12.532282958984375,7.115567684173584,3.050212860107422,0.5626373887062073
1788656961167352000,12.54835205078125,8.149862289428711,2.80361008644104,0.6775590777397156
1788656961183474400,12.564474365234375,9.196128845214844,2.33913516998291,0.9816226959228516
1788656961199554800,12.580554931640625,9.907206535339355,2.123656988143921,1.0606313943862915
1788656961215613400,12.596613525390625,10.362105369567871,1.98958158493042,1.070208191871643
1788656961231699700,12.61269970703125,10.44350814819336,1.9560627937316895,1.0630255937576294
1788656961247787300,12.628787353515625,10.187328338623047,2.0398597717285156,0.8643068075180054
1788656961263928300,12.64492822265625,9.773131370544434,2.2864625453948975,0.6320692300796509
1788656961280020700,12.661020751953124,9.239224433898926,2.5450363159179688,0.4118026793003082
1788656961296079400,12.677079345703126,8.710105895996094,2.808398485183716,0.1388636976480484
1788656961312168200,12.693168212890624,8.415618896484375,3.004723072052002,-0.033518824726343155
1788656961328273400,12.7092734375,8.324639320373535,3.1004912853240967,-0.16519992053508759
1788656961344374800,12.725374755859375,8.259995460510254,3.1675288677215576,-0.23702596127986908
1788656961360486700,12.741486572265625,8.159439086914062,3.2082302570343018,-0.24660277366638184
1788656961376547800,12.7575478515625,8.267178535461426,3.2345664501190186,0.009576806798577309
1788656961392638700,12.773638671875,8.437167167663574,3.2800562381744385,0.30885201692581177
1788656961408732000,12.78973193359375,8.769960403442383,3.2968156337738037,0.4213795065879822
1788656961424836400,12.80583642578125,8.98543930053711,3.2297780513763428,0.3878606855869293
1788656961440956200,12.8219560546875,9.040505409240723,3.2082302570343018,0.6488286852836609
1788656961457015000,12.83801513671875,8.920795440673828,3.2537200450897217,0.7206547260284424
1788656961473105200,12.854105224609375,8.7484130859375,3.2968156337738037,0.7948749661445618
1788656961489199000,12.87019921875,8.619126319885254,3.3949780464172363,0.7565677165985107
1788656961505309700,12.886309814453124,8.822632789611816,3.5218706130981445,0.6153098344802856
1788656961521430300,12.90243017578125,9.251194953918457,3.620033025741577,0.586579442024231
1788656961537492200,12.9184921875,9.627084732055664,3.641580820083618,0.5219359993934631
1788656961553582600,12.93458251953125,9.919178009033203,3.622427225112915,0.4692635238170624
1788656961569680400,12.950680419921875,10.216058731079102,3.5649664402008057,0.3734954595565796
1788656961585809400,12.966809326171875,10.438719749450684,3.509899616241455,0.2561795711517334
1788656961601939000,12.98293896484375,10.539276123046875,3.4524388313293457,0.22505496442317963
1788656961618001000,12.9990009765625,10.512939453125,3.3734302520751953,0.2825157940387726
1788656961634101500,13.0151015625,10.182539939880371,3.4787750244140625,0.38067805767059326
1788656961650190600,13.031190673828124,9.591172218322754,4.000710964202881,0.6057330369949341
1788656961666286300,13.047286376953124,9.648633003234863,3.8307228088378906,0.7374141216278076
1788656961682379000,13.06337890625,9.890447616577148,3.5266590118408203,0.4884171485900879
1788656961698443500,13.079443603515625,10.517727851867676,3.5194764137268066,0.2322375625371933
1788656961714542000,13.0955419921875,11.044452667236328,3.4763808250427246,-0.12449848651885986
1788656961730629000,13.111629150390625,11.489773750305176,3.24414324760437,-0.2298433631658554
1788656961746746600,13.12774658203125,11.504138946533203,2.9759926795959473,-0.23942017555236816
1788656961762836700,13.143836669921875,11.185709953308105,2.8419175148010254,-0.2849099934101105
1788656961778898700,13.159898681640625,10.697293281555176,2.564189910888672,-0.12928688526153564
1788656961795003000,13.1760029296875,10.034099578857422,2.4013843536376953,-0.011971008032560349
1788656961811136800,13.19213671875,9.20091724395752,2.427720546722412,0.2346317619085312
1788656961827227600,13.2082275390625,8.317456245422363,2.537853717803955,0.3663128614425659
1788656961843316200,13.224316162109375,7.4770917892456055,2.6862943172454834,0.1867477297782898
1788656961859375400,13.240375244140624,7.2113356590271,2.693476915359497,0.15801730751991272
1788656961875486500,13.256486572265626,7.706935405731201,2.628833532333374,0.08619125932455063
1788656961891574300,13.27257421875,8.432378768920898,2.52109432220459,-0.0071826050989329815
1788656961907672000,13.288672119140625,8.949525833129883,2.5234885215759277,0.043095629662275314
1788656961923779800,13.30477978515625,9.346963882446289,2.5258827209472656,0.13168109953403473
1788656961939839200,13.320839111328125,9.667786598205566,2.410961151123047,0.15801730751991272
1788656961955958800,13.336958740234374,9.813833236694336,2.4157495498657227,0.0694318488240242
1788656961972048400,13.35304833984375,9.782708168029785,2.4803929328918457,0.07422025501728058
1788656961988162000,13.369162109375,9.852140426635742,2.5043349266052246,0.2561795711517334
1788656962004285200,13.38528515625,9.775525093078613,2.58813214302063,0.3663128614425659
1788656962020353800,13.401353759765625,9.279925346374512,2.6360161304473877,0.35673606395721436
1788656962036456000,13.4174560546875,8.506598472595215,2.7509377002716064,0.2944868206977844
1788656962052548900,13.433548828125,7.613561630249023,2.937685489654541,0.3519476354122162
1788656962068678400,13.449678466796875,7.127538681030273,3.138798475265503,0.6799532771110535
1788656962084810200,13.465810302734376,7.445967197418213,3.272873640060425,0.47884035110473633
1788656962100872400,13.48187255859375,8.006210327148438,3.442862033843994,0.26815059781074524
1788656962117002000,13.498001953125,8.628703117370605,3.4189200401306152,0.1149216815829277
1788656962133099300,13.514099365234374,9.105149269104004,3.4524388313293457,0.009576806798577309
1788656962149236200,13.530236328125,9.346963882446289,3.5218706130981445,0.38067805767059326
1788656962165329400,13.546329345703125,9.653421401977539,3.531447410583496,0.2968810200691223
1788656962181397500,13.5623974609375,9.876082420349121,3.4524388313293457,0.26336219906806946
1788656962197493200,13.5784931640625,9.861717224121094,3.361459255218506,0.26815059781074524
1788656962213599700,13.594599853515625,9.730035781860352,3.3854012489318848,0.3447650372982025
1788656962229698800,13.61069873046875,9.667786598205566,3.4835634231567383,0.44771572947502136
1788656962245818000,13.626818115234375,9.550470352172852,3.514688014984131,0.38546648621559143
1788656962261878800,13.642878662109375,9.354146003723145,3.6176388263702393,0.3256114423274994
1788656962277970200,13.65897021484375,9.148244857788086,3.7636849880218506,0.10773907601833344
1788656962294061000,13.67506103515625,9.083600997924805,3.7421371936798096,0.24420857429504395
1788656962310163000,13.691162841796874,9.315838813781738,3.641580820083618,0.37828385829925537
1788656962326269400,13.70726953125,9.828198432922363,3.3949780464172363,0.3016694188117981
1788656962342330400,13.723330322265625,10.323798179626465,3.1866824626922607,0.29209262132644653
1788656962358416100,13.739416015625,10.706870079040527,3.399766445159912,0.13168109953403473
1788656962374503000,13.7555029296875,10.682928085327148,3.909731388092041,0.1149216815829277
1788656962390617900,13.771617919921875,10.304644584655762,3.643975019454956,0.5530605912208557
1788656962406743300,13.787743408203125,10.256759643554688,3.0310592651367188,1.0127472877502441
1788656962422805500,13.803805419921876,11.05402946472168,2.760514497756958,0.9744400978088379
1788656962438897200,13.819897216796875,12.344504356384277,2.27209734916687,0.6823474764823914
1788656962454963500,13.83596337890625,13.381193161010742,1.9728221893310547,0.3998316824436188
1788656962471055000,13.85205517578125,13.321338653564453,2.03507137298584,0.2992752194404602
1788656962487153000,13.86815283203125,12.22000503540039,2.0470423698425293,0.3064578175544739
1788656962503208700,13.884208740234374,10.651803016662598,2.1475989818573,0.3998316824436188
1788656962519296300,13.900296142578124,8.863334655761719,2.2361843585968018,0.5219359993934631
1788656962535361500,13.916361572265625,7.407660007476807,2.4468741416931152,0.751779317855835
1788656962551463000,13.932462890625,6.722918510437012,2.650381326675415,0.8307880163192749
1788656962567570700,13.94857080078125,6.71334171295166,2.734178304672241,0.9265560507774353
1788656962583620900,13.964620849609375,7.314286231994629,2.698265314102173,1.192312479019165
1788656962599703300,13.980703369140626,8.01339340209961,2.535459518432617,1.3263877630233765
1788656962615780600,13.996780517578125,8.803479194641113,2.3487119674682617,1.3431471586227417
1788656962631897900,14.01289794921875,9.418789863586426,2.183511972427368,1.2545616626739502
1788656962647968800,14.02896875,9.715670585632324,1.9321208000183105,1.1468225717544556
1788656962664021200,14.045021240234375,9.864110946655273,1.889025092124939,0.790086567401886
1788656962680110300,14.0611103515625,9.971850395202637,1.987187385559082,0.5267243981361389
1788656962696191000,14.07719091796875,9.86650562286377,2.1140801906585693,0.3016694188117981
1788656962712319500,14.093319580078125,9.47146224975586,2.315192937850952,0.12928688526153564
1788656962728406800,14.10940673828125,8.9064302444458,2.535459518432617,0.11013327538967133
1788656962744452600,14.12545263671875,8.317456245422363,2.719813108444214,0.08619125932455063
1788656962760540000,14.141539794921876,8.073247909545898,2.8419175148010254,0.14365209639072418
1788656962776618000,14.157617919921876,8.015787124633789,2.9041666984558105,0.3447650372982025
1788656962792706800,14.173706787109374,8.257601737976074,2.918531894683838,0.4836287498474121
1788656962808798200,14.189798095703125,8.576030731201172,2.8658595085144043,0.646434485912323
1788656962824856300,14.205856201171875,8.942343711853027,2.9161376953125,0.6392518281936646
1788656962840964000,14.221964111328125,9.184157371520996,3.021482467651367,0.706289529800415
1788656962857046800,14.238046875,9.193734169006348,3.093308687210083,0.811634361743927
1788656962873145000,14.25414501953125,9.368511199951172,3.066972494125366,0.7134721279144287
1788656962889246000,14.270245849609376,9.509769439697266,3.0358476638793945,0.6727706789970398
1788656962905300200,14.28630029296875,9.57441234588623,3.095702886581421,0.6943184733390808
1788656962921420800,14.3024208984375,9.607931137084961,3.179499864578247,0.727837324142456
1788656962937508000,14.318508056640624,9.528923034667969,3.2776620388031006,0.8092401623725891
1788656962953614000,14.334614013671874,9.581595420837402,3.3207578659057617,0.8092401623725891
1788656962969728300,14.350728271484375,9.634267807006836,3.3446998596191406,0.768538773059845
1788656962985784000,14.3667841796875,9.713275909423828,3.3686418533325195,0.7709329724311829
1788656963001910800,14.382910888671875,9.679757118225098,3.3901896476745605,0.7589619159698486
1788656963017998300,14.398998291015625,9.651026725769043,3.359065055847168,0.6655880808830261
1788656963034118400,14.415118408203124,9.792284965515137,3.315969467163086,0.6224924325942993
1788656963050241000,14.431240966796874,10.08437728881836,3.19865345954895,0.6057330369949341
1788656963066297300,14.44729736328125,10.223240852355957,3.117250680923462,0.6153098344802856
1788656963082386700,14.46338671875,10.029311180114746,3.3949780464172363,0.6536170840263367
1788656963098477800,14.479477783203125,9.892841339111328,3.6535518169403076,0.730231523513794
1788656963114575000,14.4955751953125,10.041281700134277,3.3494882583618164,0.5099649429321289
1788656963130675500,14.511675537109374,10.366893768310547,3.2130186557769775,0.3208230137825012
1788656963146740000,14.527739990234375,10.934319496154785,3.0789434909820557,0.19393034279346466
1788656963162835700,14.543835693359375,11.602301597595215,2.853888511657715,-0.12928688526153564
1788656963178909400,14.559909423828126,11.798625946044922,2.6360161304473877,-0.19871874153614044
1788656963195034600,14.57603466796875,11.204863548278809,2.655169725418091,-0.08619125932455063
1788656963211127800,14.5921279296875,10.38604736328125,2.561795711517334,0.12210428714752197
1788656963227187200,14.608187255859375,9.835380554199219,2.3798365592956543,0.2059013396501541
1788656963243275500,14.624275634765626,9.627084732055664,2.233790159225464,0.19871874153614044
1788656963259365400,14.640365478515625,9.516951560974121,2.207453966140747,0.19871874153614044
1788656963275457500,14.65645751953125,9.299078941345215,2.166752576828003,0.3423708379268646
1788656963291550500,14.672550537109375,8.841787338256836,2.1739351749420166,0.12928688526153564
1788656963307611600,14.688611572265625,8.571242332458496,2.185906171798706,-0.08619125932455063
1788656963323702300,14.704702392578126,8.65982723236084,2.2361843585968018,-0.21308395266532898
1788656963339796000,14.7207958984375,8.87291145324707,2.2170307636260986,-0.2992752194404602
1788656963355901400,14.7369013671875,9.162610054016113,2.142810583114624,-0.21787235140800476
1788656963372036600,14.75303662109375,9.526528358459473,2.0805611610412598,-0.08379705995321274
1788656963388098300,14.769098388671875,9.751583099365234,2.0901381969451904,0.019153613597154617
1788656963404188700,14.785188720703125,9.797073364257812,2.0901381969451904,0.17477671802043915
1788656963420279600,14.801279541015624,9.57201862335205,2.140416383743286,0.35673606395721436
1788656963436393700,14.817393798828125,9.244012832641602,2.2601263523101807,0.40462008118629456
1788656963452511500,14.833511474609375,8.971074104309082,2.425326347351074,0.4141969084739685
1788656963468569000,14.849569091796875,8.789113998413086,2.5067291259765625,0.4357447028160095
1788656963484656000,14.86565625,8.667010307312012,2.631227731704712,0.3998316824436188
1788656963500745500,14.881745361328125,8.506598472595215,2.7916390895843506,0.363918662071228
1788656963516866000,14.897865966796875,8.279149055480957,2.935291290283203,0.19871874153614044
1788656963533008400,14.91400830078125,8.169015884399414,3.117250680923462,0.05746084079146385
1788656963549066000,14.93006591796875,8.286332130432129,3.227383852005005,0.0071826050989329815
1788656963565154300,14.946154296875,8.585607528686523,3.205836057662964,-0.033518824726343155
1788656963581247700,14.962247802734375,8.731653213500977,3.2776620388031006,0.033518824726343155
1788656963597384200,14.97838427734375,8.89445972442627,3.287238836288452,0.15562310814857483
1788656963613479200,14.994479248046876,9.083600997924805,3.2632968425750732,0.1604115068912506
1788656963629540000,15.0105400390625,9.258378028869629,3.224989652633667,0.08379705995321274
1788656963645636400,15.02663623046875,9.437943458557129,3.2632968425750732,0.12210428714752197
1788656963661727000,15.04272705078125,9.44752025604248,3.2968156337738037,0.10055647045373917
1788656963677819000,15.05881884765625,9.442731857299805,3.268085241317749,0.09576806426048279
1788656963693913300,15.074913330078125,9.430760383605957,3.292027235031128,0.08619125932455063
1788656963709979600,15.090979736328125,9.478644371032715,3.3949780464172363,0.12928688526153564
1788656963726080300,15.107080322265626,9.437943458557129,3.4404678344726562,0.12928688526153564
1788656963742173000,15.1231728515625,9.44752025604248,3.4524388313293457,0.011971008032560349
1788656963766316300,15.14731640625,9.684545516967773,3.3949780464172363,-0.12210428714752197
1788656963782414300,15.163414306640625,9.971850395202637,3.308786630630493,-0.16759411990642548
1788656963798494000,15.179493896484376,10.280701637268066,3.19865345954895,-0.24899697303771973
1788656963814572500,15.195572509765626,10.529699325561523,3.1052796840667725,-0.26575639843940735
1788656963830676700,15.2116767578125,10.3549222946167,3.1316158771514893,-0.14844051003456116
1788656963846796500,15.227796630859375,9.701305389404297,3.706224203109741,-0.014365210197865963
1788656963862898000,15.24389794921875,9.263166427612305,3.8953661918640137,0.5003881454467773
1788656963878984700,15.259984619140624,9.409213066101074,3.4141316413879395,0.6560112833976746
1788656963895067600,15.276067626953125,10.26394271850586,3.308786630630493,0.6919242739677429
1788656963911186000,15.29218603515625,11.434707641601562,2.832340717315674,0.790086567401886
1788656963927312600,15.308312744140625,12.662932395935059,2.183511972427368,0.6560112833976746
1788656963943381800,15.3243818359375,13.055582046508789,2.0590133666992188,0.40222588181495667
1788656963959476200,15.340476318359375,12.222399711608887,2.075772762298584,0.22266076505184174
1788656963975540700,15.356540771484376,10.972626686096191,1.946485996246338,0.3663128614425659
1788656963991660800,15.372660888671875,9.550470352172852,2.0853497982025146,0.3016694188117981
1788656964007802000,15.388802001953126,8.403648376464844,2.2625205516815186,0.42856210470199585
1788656964023873800,15.404873779296874,7.438784599304199,2.432508945465088,0.6057330369949341
1788656964039926300,15.42092626953125,6.897695064544678,2.5713725090026855,0.6488286852836609
1788656964055987500,15.436987548828125,6.888118267059326,2.626439332962036,0.8379706144332886
1788656964072111400,15.453111328125,7.704541206359863,2.4588451385498047,1.0031704902648926
1788656964088217600,15.469217529296875,8.774748802185059,2.190694570541382,1.1516109704971313
1788656964104307500,15.485307373046876,9.818621635437012,1.8387469053268433,1.316810965538025
1788656964120361000,15.50136083984375,10.417171478271484,1.6950948238372803,1.1300631761550903
1788656964136428000,15.517427978515625,10.72841739654541,1.5873557329177856,0.950498104095459
1788656964152572200,15.533572265625,10.766724586486816,1.599326729774475,0.6799532771110535
1788656964168688600,15.549688720703125,10.362105369567871,1.8100165128707886,0.49799394607543945
1788656964184776000,15.56577587890625,9.583989143371582,2.142810583114624,0.3902548849582672
1788656964200828400,15.581828369140625,8.769960403442383,2.4205379486083984,0.2585737705230713
1788656964216900400,15.597900390625,8.118738174438477,2.6144683361053467,0.09576806426048279
1788656964232996000,15.61399609375,7.987056732177734,2.7509377002716064,0.05506663769483566
1788656964249112300,15.6301123046875,8.157045364379883,2.8131868839263916,0.1364694982767105
1788656964265201000,15.646200927734375,8.382100105285645,2.846705913543701,0.19393034279346466
1788656964281260000,15.662260009765625,8.60236644744873,2.935291290283203,0.3519476354122162
1788656964297342000,15.678342041015625,8.803479194641113,2.9951462745666504,0.5578489899635315
1788656964313457200,15.69445703125,9.05487060546875,2.920926094055176,0.6033388376235962
1788656964329582300,15.710582275390625,9.399636268615723,2.9544448852539062,0.6009446382522583
1788656964345666600,15.72666650390625,9.583989143371582,2.920926094055176,0.6129156351089478
1788656964361719600,15.742719482421874,9.617507934570312,2.9544448852539062,0.5482721924781799
1788656964377797400,15.75879736328125,9.59596061706543,3.0095114707946777,0.5099649429321289
1788656964393912600,15.77491259765625,9.466673851013184,3.069366693496704,0.49799394607543945
1788656964410045000,15.791044921875,9.394847869873047,3.162740468978882,0.545877993106842
1788656964426132700,15.8071328125,9.299078941345215,3.2824504375457764,0.5913678407669067
1788656964442192600,15.823192626953125,9.114726066589355,3.3686418533325195,0.6105214357376099
1788656964458274300,15.8392744140625,9.01895809173584,3.380612850189209,0.629675030708313
1788656964474411800,15.855411865234375,9.102754592895508,3.3638534545898438,0.7422025203704834
1788656964490550300,15.87155029296875,9.378087997436523,3.3686418533325195,0.6440402865409851
1788656964506648000,15.88764794921875,9.48343276977539,3.3494882583618164,0.6057330369949341
1788656964522705000,15.903704833984374,9.509769439697266,3.3710360527038574,0.6368576288223267
1788656964538786600,15.91978662109375,9.452308654785156,3.337517261505127,0.6727706789970398
1788656964554923500,15.935923583984374,9.543288230895996,3.3446998596191406,0.6440402865409851
1788656964571018000,15.95201806640625,9.703699111938477,3.339911460876465,0.6536170840263367
1788656964587115300,15.968115234375,9.871294021606445,3.265691041946411,0.7541735172271729
1788656964603179800,15.9841796875,9.93593692779541,3.24414324760437,0.6248866319656372
1788656964619254500,16.000254638671876,9.799467086791992,3.6128504276275635,0.47405192255973816
1788656964635359500,16.016359375,9.59596061706543,3.845088005065918,0.42377370595932007
1788656964651466500,16.032466552734373,9.670180320739746,3.44765043258667,0.1173158809542656
1788656964667561200,16.048561279296877,10.359710693359375,3.2106244564056396,-0.16519992053508759
1788656964683635500,16.064635498046876,11.166556358337402,3.071760892868042,-0.3256114423274994
1788656964699701500,16.080701416015625,11.750741958618164,2.8347349166870117,-0.5889736413955688
1788656964715806500,16.096806396484375,11.688492774963379,2.607285737991333,-0.6799532771110535
1788656964731945700,16.11294580078125,11.190498352050781,2.585737943649292,-0.38546648621559143
1788656964748040700,16.129040771484377,10.405200958251953,2.5498247146606445,-0.37828385829925537
1788656964764117000,16.145116943359376,9.730035781860352,2.387019157409668,-0.23702596127986908
1788656964780204300,16.161204345703126,9.533711433410645,2.1068975925445557,0.05267243832349777
1788656964796313000,16.17731298828125,9.385271072387695,2.0231003761291504,0.14844051003456116
1788656964812435000,16.19343505859375,9.097966194152832,2.030282974243164,0.26336219906806946
1788656964828541700,16.209541748046874,8.676587104797363,2.22660756111145,0.33039984107017517
1788656964844628200,16.225628173828124,8.31985092163086,2.300827741622925,0.4812345504760742
1788656964860711700,16.241711669921877,8.209717750549316,2.212242364883423,0.43335050344467163
1788656964876824000,16.257823974609376,8.49941635131836,2.1284453868865967,0.26815059781074524
1788656964892951300,16.273951416015624,9.308655738830566,1.824381709098816,0.272938996553421
1788656964909038800,16.290038818359374,10.127472877502441,1.522712230682373,0.33518823981285095
1788656964925132500,16.306132568359374,10.90798282623291,1.4221558570861816,0.31364041566848755
1788656964941203700,16.32220361328125,11.142614364624023,1.4460978507995605,0.38067805767059326
1788656964957323500,16.338323486328125,10.606313705444336,1.5322890281677246,0.4381389021873474
1788656964973463800,16.3544638671875,9.646238327026367,1.7812861204147339,0.4812345504760742
1788656964989551000,16.370551025390625,8.796297073364258,1.9536685943603516,0.45489832758903503
1788656965005607000,16.38660693359375,8.279149055480957,2.1332337856292725,0.40462008118629456
1788656965021678000,16.402677978515626,8.257601737976074,2.2218191623687744,0.2849099934101105
1788656965037815300,16.418815185546876,8.564059257507324,2.2673089504241943,0.2513911724090576
1788656965053912600,16.43491259765625,8.858546257019043,2.300827741622925,0.24660277366638184
1788656965070007000,16.451007080078124,9.095572471618652,2.3271639347076416,0.2968810200691223
1788656965086066200,16.467066162109376,9.232041358947754,2.3487119674682617,0.20111294090747833
1788656965102146000,16.48314599609375,9.327810287475586,2.3582887649536133,0.12449848651885986
1788656965118244000,16.499244140625,9.588777542114258,2.3080103397369385,0.10773907601833344
1788656965134353700,16.515353759765624,9.983820915222168,2.229001760482788,0.12928688526153564
1788656965150438100,16.531438232421873,10.340557098388672,2.183511972427368,0.15322890877723694
1788656965166490000,16.547489990234375,10.54645824432373,2.1739351749420166,0.23942017555236816
1788656965182568700,16.563568603515623,10.66137981414795,2.0661959648132324,0.3495534360408783
1788656965198676000,16.579676025390626,10.548852920532227,2.070984363555908,0.40940847992897034
1788656965214793200,16.595793212890626,10.307038307189941,2.118868589401245,0.5051765441894531
1788656965230885000,16.611885009765626,9.86889934539795,2.1739351749420166,0.5530605912208557
1788656965246942200,16.627942138671877,9.425971984863281,2.2409727573394775,0.5937620401382446
1788656965263021300,16.644021240234373,9.167398452758789,2.470816135406494,0.6607996821403503
1788656965279141600,16.6601416015625,9.08838939666748,2.6168625354766846,0.6416460275650024
1788656965295274500,16.6762744140625,9.279925346374512,2.7485435009002686,0.4668693244457245
1788656965311364900,16.69236474609375,9.39245319366455,2.8826189041137695,0.26815059781074524
1788656965327420200,16.708420166015625,9.421183586120605,3.021482467651367,0.14844051003456116
1788656965343499000,16.7244990234375,9.351752281188965,3.181894063949585,0.12689268589019775
1788656965359621000,16.74062109375,9.260771751403809,3.2992098331451416,0.1867477297782898
1788656965375757000,16.756757080078124,9.227252960205078,3.3207578659057617,0.14844051003456116
1788656965391870200,16.7728701171875,9.299078941345215,3.3303346633911133,0.22744916379451752
1788656965407928300,16.78892822265625,9.464279174804688,3.24414324760437,0.3902548849582672
1788656965424018200,16.80501806640625,9.804255485534668,3.0765492916107178,0.4692635238170624
1788656965440151800,16.82115185546875,10.1753568649292,2.9089550971984863,0.38546648621559143
1788656965456292000,16.8372919921875,10.29746150970459,2.801215887069702,0.16759411990642548
1788656965472380400,16.85338037109375,10.548852920532227,2.693476915359497,0.10773907601833344
1788656965488438500,16.8694384765625,10.680533409118652,2.691082715988159,-0.05267243832349777
1788656965504520000,16.88552001953125,10.65898609161377,2.7054479122161865,-0.11971008777618408
1788656965520659200,16.9016591796875,10.139444351196289,2.7222073078155518,-0.08619125932455063
1788656965536755200,16.917755126953125,9.41639518737793,2.7317841053009033,-0.05985504388809204
1788656965552842800,16.9338427734375,8.664615631103516,2.765302896499634,0.08140286058187485
1788656965568900600,16.949900634765626,8.259995460510254,2.760514497756958,0.24420857429504395
1788656965584978400,16.965978515625,8.101978302001953,2.784456491470337,0.2825157940387726
1788656965601118200,16.9821181640625,8.257601737976074,2.7533318996429443,0.3208230137825012
1788656965617279000,16.998279052734375,8.480262756347656,2.7102363109588623,0.48602294921875
1788656965633368600,17.01436865234375,8.803479194641113,2.734178304672241,0.6560112833976746
1788656965649439200,17.030439208984376,9.02135181427002,2.674323320388794,0.8427590131759644
1788656965665519900,17.046519775390625,9.315838813781738,2.5450363159179688,0.9648633003234863
1788656965681618400,17.062618408203125,9.617507934570312,2.513911724090576,1.0773907899856567
1788656965697729000,17.07872900390625,9.84256362915039,2.513911724090576,1.1516109704971313
1788656965713819100,17.094819091796875,9.943120002746582,2.52109432220459,1.2186486721038818
1788656965729899500,17.1108994140625,9.81143856048584,2.650381326675415,1.2545616626739502
1788656965745987000,17.126987060546874,9.576807022094727,2.762908697128296,1.1252747774124146
1788656965762091500,17.143091552734376,9.5408935546875,2.8371291160583496,0.9624691009521484
1788656965778215000,17.15921484375,9.600749015808105,2.9089550971984863,0.8643068075180054
1788656965794303200,17.17530322265625,9.720458984375,2.9161376953125,0.7422025203704834
1788656965810386700,17.19138671875,9.792284965515137,2.889801502227783,0.6536170840263367
1788656965826494700,17.20749462890625,9.658209800720215,2.9472622871398926,0.6584054827690125
1788656965842614300,17.2236142578125,9.464279174804688,2.980781078338623,0.6919242739677429
1788656965858744300,17.239744384765626,9.370905876159668,3.021482467651367,0.7709329724311829
1788656965874836700,17.255836669921877,9.390059471130371,3.0813376903533936,0.7469909191131592
1788656965890935000,17.27193505859375,9.366117477416992,3.0573954582214355,0.8451532125473022
1788656965907019800,17.288019775390627,9.306262016296387,3.0885202884674072,0.8523358106613159
1788656965923150600,17.304150634765627,9.174580574035645,3.043030261993408,0.8475474119186401
1788656965939291100,17.320291015625,9.081207275390625,2.9975404739379883,0.8547300100326538
1788656965955380700,17.336380615234376,9.126696586608887,2.9472622871398926,0.8355764150619507
1788656965971434800,17.352434814453126,9.299078941345215,2.9281086921691895,0.7613561153411865
1788656965987515600,17.368515625,9.464279174804688,2.8802247047424316,0.7733271718025208
1788656966003660800,17.384660888671874,9.634267807006836,2.8610711097717285,0.7541735172271729
1788656966019764700,17.4007646484375,9.672574996948242,2.82515811920166,0.7110779285430908
1788656966035857400,17.416857421875,9.75637149810791,2.8107926845550537,0.6392518281936646
1788656966051887600,17.4328876953125,9.780313491821289,2.8203697204589844,0.6536170840263367
1788656966067970600,17.448970458984373,9.77791976928711,2.8826189041137695,0.6584054827690125
1788656966084080400,17.465080322265624,9.667786598205566,2.956839084625244,0.6967126727104187
1788656966100195800,17.48119580078125,9.526528358459473,3.004723072052002,0.7445967197418213
1788656966116290800,17.497290771484376,9.461885452270508,3.0190882682800293,0.790086567401886
1788656966132349700,17.513349609375,9.509769439697266,3.0095114707946777,0.7829039692878723
1788656966148427000,17.529427001953124,9.725247383117676,2.9544448852539062,0.7757213711738586
1788656966164534300,17.5455341796875,9.818621635437012,2.913743495941162,0.7374141216278076
1788656966180652000,17.561652099609375,9.718064308166504,2.894589900970459,0.7182605266571045
1788656966196742400,17.577742431640626,9.557653427124023,2.918531894683838,0.7230489253997803
1788656966212805400,17.593805419921875,9.334992408752441,2.9305028915405273,0.6727706789970398
1788656966228888000,17.60988818359375,9.169792175292969,2.9328970909118652,0.5674257874488831
1788656966245006300,17.62600634765625,9.2033109664917,2.9257144927978516,0.6727706789970398
1788656966261143600,17.6421435546875,9.313444137573242,2.918531894683838,0.730231523513794
1788656966277233700,17.658233642578125,9.402029991149902,2.896984100341797,0.7589619159698486
1788656966293290800,17.674290771484376,9.337387084960938,2.8850131034851074,0.7613561153411865
1788656966309376000,17.6903759765625,9.229647636413574,2.8562827110290527,0.7852981686592102
1788656966325503000,17.7065029296875,8.959102630615234,2.8562827110290527,0.8882488012313843
1788656966341645000,17.72264501953125,9.490615844726562,2.760514497756958,0.6416460275650024
1788656966357737000,17.738737060546875,9.564835548400879,2.784456491470337,0.6416460275650024
1788656966373788200,17.7547880859375,9.744400978088379,2.7222073078155518,0.6344634294509888
1788656966389861600,17.770861572265623,10.108319282531738,2.7461493015289307,0.5386953949928284
1788656966405985500,17.786985595703126,10.019734382629395,2.829946517944336,0.42856210470199585
1788656966422080300,17.803080322265625,9.871294021606445,2.9041666984558105,0.5841852426528931
1788656966438168800,17.8191689453125,9.50737476348877,2.9688100814819336,0.45489832758903503
1788656966454225700,17.8352255859375,9.059659004211426,2.9328970909118652,0.31364041566848755
1788656966470299100,17.851299072265626,9.162610054016113,2.918531894683838,0.507570743560791
1788656966486439200,17.867439208984376,9.32302188873291,2.9688100814819336,0.6320692300796509
1788656966502531300,17.88353125,9.433155059814453,2.956839084625244,0.5770025849342346
1788656966518619000,17.899618896484377,9.473855972290039,2.892195701599121,0.569819986820221
1788656966534685700,17.915685791015626,9.334992408752441,2.894589900970459,0.5363011956214905
1788656966550767000,17.93176708984375,9.20091724395752,2.8778305053710938,0.5626373887062073
1788656966566868500,17.947868408203124,9.188945770263672,2.8993782997131348,0.6536170840263367
1788656966582980600,17.963980712890624,9.30386734008789,2.96162748336792,0.6847416758537292
1788656966599075000,17.980074951171876,9.404424667358398,2.959233283996582,0.6871358752250671
1788656966615152600,17.996152587890624,9.3828763961792,2.9951462745666504,0.5482721924781799
1788656966631234600,18.012234619140624,9.332598686218262,2.999934673309326,0.4908113479614258
1788656966647331000,18.0283310546875,9.349357604980469,2.96162748336792,0.5171475410461426
1788656966663448300,18.0444482421875,9.490615844726562,2.9448680877685547,0.4620809257030487
1788656966679539700,18.060539794921876,9.696516990661621,2.913743495941162,0.43335050344467163
1788656966695632100,18.076632080078124,9.75637149810791,2.8826189041137695,0.5051765441894531
1788656966711729000,18.09272900390625,9.68933391571045,2.9089550971984863,0.5650315880775452
1788656966727849000,18.108848876953125,9.53849983215332,2.9233202934265137,0.5554547905921936
1788656966743978200,18.124978271484373,9.428366661071777,2.940079689025879,0.5003881454467773
1788656966760070100,18.141070068359376,9.437943458557129,2.9735984802246094,0.4381389021873474
1788656966776169200,18.157169189453125,9.428366661071777,2.983175277709961,0.4141969084739685
1788656966792254000,18.17325390625,9.385271072387695,3.004723072052002,0.43095630407333374
1788656966808383700,18.1893837890625,9.466673851013184,3.026270866394043,0.4141969084739685
1788656966824527400,18.20552734375,9.536105155944824,3.0142998695373535,0.44771572947502136
1788656966840615400,18.221615478515623,9.516951560974121,2.9688100814819336,0.4836287498474121
1788656966856717600,18.237717529296877,9.500192642211914,2.964021682739258,0.5123591423034668
1788656966872797400,18.25379736328125,9.445125579833984,2.9544448852539062,0.4812345504760742
1788656966888930800,18.269930908203126,9.3828763961792,2.96162748336792,0.43335050344467163
1788656966905032200,18.2860322265625,9.406818389892578,2.964021682739258,0.4692635238170624
1788656966921121300,18.302121337890625,9.38048267364502,2.9688100814819336,0.4165911078453064
1788656966937178400,18.318178466796876,9.44752025604248,2.9305028915405273,0.40462008118629456
1788656966953260000,18.334260009765625,9.457097053527832,2.9544448852539062,0.47644615173339844
1788656966969357300,18.350357421875,9.495404243469238,2.9520506858825684,0.5530605912208557
1788656966985463600,18.366463623046876,9.600749015808105,2.9520506858825684,0.667982280254364
1788656967001550800,18.38255078125,9.567230224609375,2.980781078338623,0.6703764796257019
1788656967017607400,18.398607421875,9.560047149658203,3.002328872680664,0.6991068720817566
1788656967033686000,18.41468603515625,9.476250648498535,3.0119056701660156,0.8379706144332886
1788656967049788000,18.430787841796874,9.457097053527832,3.064578056335449,0.871489405632019
1788656967065896700,18.446896728515625,9.557653427124023,3.0813376903533936,0.8786720037460327
1788656967081983200,18.462983154296875,9.586383819580078,3.136404275894165,0.9792284965515137
1788656967098037000,18.479037109375,9.548076629638672,3.1435868740081787,1.0103530883789062
1788656967114115000,18.495114990234374,9.469067573547363,3.095702886581421,1.2042834758758545
1788656967130227200,18.511227294921873,9.418789863586426,3.071760892868042,1.3431471586227417
1788656967146353400,18.527353515625,9.469067573547363,3.0406360626220703,1.414973258972168
1788656967162441000,18.54344091796875,9.47146224975586,2.9712042808532715,1.534683346748352
1788656967178496500,18.55949658203125,9.361329078674316,2.9544448852539062,1.599326729774475
1788656967194578000,18.575577880859374,9.378087997436523,3.0550012588500977,1.7477672100067139
1788656967210698200,18.5916982421875,9.41400146484375,2.8586769104003906,1.7334020137786865
1788656967226832600,18.60783251953125,9.35654067993164,2.87064790725708,1.659181833267212
1788656967242928400,18.623928466796876,9.284713745117188,2.8347349166870117,1.647210717201233
1788656967258991000,18.6399912109375,9.315838813781738,2.7246015071868896,1.644816517829895
1788656967275079200,18.6560791015625,9.17697525024414,2.655169725418091,1.6543933153152466
1788656967291204900,18.672204833984374,9.042900085449219,2.585737943649292,1.6615760326385498
1788656967307346000,18.688345947265624,8.96389102935791,2.5043349266052246,1.7405846118927002
1788656967323443200,18.704443115234376,8.820239067077637,2.382230758666992,1.7070658206939697
1788656967339504000,18.720504150390624,8.868123054504395,2.2433669567108154,1.6496049165725708
1788656967355592400,18.736592529296875,8.920795440673828,2.070984363555908,1.6711528301239014
1788656967371727400,18.752727294921876,9.05247688293457,1.9057846069335938,1.6065093278884888
1788656967387851000,18.76885107421875,9.30386734008789,1.7549498081207275,1.5921441316604614
1788656967403946500,18.784946533203126,9.643844604492188,1.6950948238372803,1.6855180263519287
1788656967420005600,18.801005615234374,9.945513725280762,1.656787633895874,1.8363527059555054
1788656967436092000,18.817091796875,10.08198356628418,1.7166426181793213,1.9967641830444336
1788656967452234200,18.833234130859374,10.010157585144043,1.7477672100067139,2.1068975925445557
1788656967468335400,18.84933544921875,9.95748519897461,1.6735470294952393,2.164358377456665
1788656967484429600,18.8654296875,10.072406768798828,1.6735470294952393,2.0925323963165283
1788656967500493300,18.881493408203124,10.347740173339844,1.659181833267212,1.922544002532959
1788656967516574000,18.897573974609376,10.919954299926758,1.4652514457702637,1.8387469053268433
1788656967532719400,18.91371923828125,11.197681427001953,1.436521053314209,1.6208745241165161
1788656967548825900,18.929825927734374,11.221623420715332,1.3742717504501343,1.4197616577148438
1788656967564917500,18.94591748046875,11.022904396057129,1.460463047027588,1.359906554222107
1788656967580990700,18.96199072265625,10.682928085327148,1.5682021379470825,1.1013327836990356
1788656967597073400,18.978073486328125,10.307038307189941,1.7070658206939697,0.8667010068893433
1788656967613175000,18.994175048828126,9.99339771270752,1.745373010635376,0.7158663272857666
1788656967629285600,19.01028564453125,9.746794700622559,1.8579005002975464,0.6488286852836609
1788656967645377300,19.026377197265624,9.50498104095459,1.9177556037902832,0.6153098344802856
1788656967661459500,19.04245947265625,9.387664794921875,1.8962076902389526,0.36152446269989014
1788656967677547300,19.05854736328125,9.430760383605957,1.8794482946395874,0.31842881441116333
1788656967693661700,19.07466162109375,9.512163162231445,1.8818424940109253,0.2849099934101105
1788656967709789700,19.090789794921875,9.696516990661621,1.8914192914962769,0.3758896589279175
1788656967725882400,19.10688232421875,9.732429504394531,1.920149803161621,0.43335050344467163
1788656967741973800,19.122973876953125,9.59596061706543,1.965639591217041,0.37828385829925537
1788656967758057200,19.13905712890625,9.390059471130371,1.9847931861877441,0.4381389021873474
1788656967774175200,19.15517529296875,9.246406555175781,2.03507137298584,0.5554547905921936
1788656967790311000,19.171310791015625,9.186552047729492,2.030282974243164,0.7398083209991455
1788656967806404400,19.187404296875,9.198522567749023,2.073378562927246,0.8547300100326538
1788656967822505700,19.203505615234373,9.351752281188965,2.1332337856292725,0.8834604024887085
1788656967838598700,19.2195986328125,9.44752025604248,2.1475989818573,0.8619126081466675
1788656967854737400,19.2357373046875,9.442731857299805,2.1763293743133545,0.7781155705451965
1788656967870884000,19.251884033203126,9.390059471130371,2.2601263523101807,0.5770025849342346
1788656967886978000,19.26797802734375,9.258378028869629,2.2840683460235596,0.3711012601852417
1788656967903042600,19.28404248046875,9.17697525024414,2.319981336593628,0.18914192914962769
1788656967919132000,19.3001318359375,9.38048267364502,2.2601263523101807,-0.002394201699644327
1788656967935277600,19.316277587890625,9.785101890563965,2.1356279850006104,-0.17477671802043915
1788656967951389200,19.33238916015625,10.247182846069336,2.097320795059204,-0.2849099934101105
1788656967967477500,19.3484775390625,10.481815338134766,2.1116859912872314,-0.3734954595565796
1788656967983536400,19.364536376953126,10.606313705444336,2.1284453868865967,-0.5434837937355042
1788656967999619600,19.38061962890625,10.539276123046875,2.2577321529388428,-0.7230489253997803
1788656968015715800,19.3967158203125,10.022128105163574,2.4396915435791016,-0.8906430602073669
1788656968031828200,19.412828125,9.421183586120605,2.5953147411346436,-1.0007762908935547
1788656968047917000,19.4289169921875,8.968679428100586,2.6815059185028076,-0.9026140570640564
1788656968063978500,19.444978515625,8.944737434387207,2.652775526046753,-0.8164227604866028
1788656968080068400,19.461068359375,9.306262016296387,2.604891538619995,-0.7637503147125244
1788656968096178000,19.477177978515623,9.531316757202148,2.6623523235321045,-0.7972691655158997
1788656968112296700,19.493296630859376,9.627084732055664,2.7509377002716064,-0.8259995579719543
1788656968128391000,19.509390869140624,9.634267807006836,2.7533318996429443,-0.9074024558067322
1788656968144452000,19.5254521484375,9.696516990661621,2.7964274883270264,-1.036689281463623
1788656968160543700,19.541543701171875,9.93593692779541,2.741360902786255,-1.115697979927063
1788656968176668000,19.55766796875,10.244789123535156,2.6408045291900635,-1.1994950771331787
1788656968192810000,19.57381005859375,10.584765434265137,2.5067291259765625,-1.1109095811843872
1788656968208906800,19.58990673828125,10.606313705444336,2.403778553009033,-1.173158884048462
1788656968224970000,19.605969970703125,10.29746150970459,2.31758713722229,-1.1444283723831177
1788656968241062400,19.6220625,9.785101890563965,2.3582887649536133,-1.091755986213684
1788656968257196500,19.638196533203125,9.473855972290039,2.3535003662109375,-1.2473790645599365
1788656968273342000,19.654342041015624,9.100360870361328,2.432508945465088,-1.403002142906189
1788656968289436700,19.670436767578124,8.911218643188477,2.542642116546631,-1.5275006294250488
1788656968305499600,19.686499755859376,8.743624687194824,2.583343744277954,-1.482010841369629
1788656968321591000,19.702591064453124,8.664615631103516,2.655169725418091,-1.7118542194366455
1788656968337734000,19.71873388671875,8.810662269592285,2.6240451335906982,-1.699883222579956
1788656968353838800,19.7348388671875,8.87291145324707,2.7748796939849854,-1.8315643072128296
1788656968369951200,19.750951171875,9.133879661560059,2.765302896499634,-1.7956513166427612
1788656968386022700,19.767022705078126,9.282320022583008,2.736572504043579,-1.4437036514282227
1788656968402123300,19.783123291015624,9.354146003723145,2.7724854946136475,-1.403002142906189
1788656968418266400,19.799266357421875,9.337387084960938,2.715024709701538,-1.091755986213684
1788656968434372000,19.8153720703125,9.354146003723145,2.715024709701538,-0.9720458984375
1788656968450465000,19.831465087890624,9.342175483703613,2.715024709701538,-0.9720458984375
1788656968466543000,19.847543212890624,9.440337181091309,2.719813108444214,-0.871489405632019
1788656968482627600,19.863627685546874,9.557653427124023,2.7509377002716064,-0.8379706144332886
1788656968498731000,19.87973095703125,9.488221168518066,2.786850690841675,-0.8355764150619507
1788656968514848300,19.89584814453125,9.418789863586426,2.7940332889556885,-0.849941611289978
1788656968530936300,19.911936279296874,9.349357604980469,2.82515811920166,-0.8810662031173706
1788656968547023000,19.928023193359376,9.409213066101074,2.8107926845550537,-0.8403648138046265
1788656968563118000,19.9441181640625,9.533711433410645,2.832340717315674,-0.8355764150619507
1788656968579238000,19.96023779296875,9.639056205749512,2.827552318572998,-0.8523358106613159
1788656968595369000,19.976368896484374,9.622296333312988,2.82515811920166,-0.9433154463768005
1788656968611465000,19.99246484375,9.619902610778809,2.918531894683838,-0.9433154463768005
1788656968627558100,20.00855810546875,9.557653427124023,2.913743495941162,-1.0893617868423462
1788656968643650000,20.024650146484376,9.651026725769043,3.0765492916107178,-1.1851298809051514
1788656968659772700,20.040772705078126,9.548076629638672,3.1028854846954346,-1.1827356815338135
1788656968675904000,20.056904052734374,9.469067573547363,3.2369606494903564,-1.3455413579940796
1788656968692014300,20.073014404296874,9.44991397857666,3.3470940589904785,-1.3072341680526733
1788656968708107300,20.089107177734373,9.57441234588623,3.3494882583618164,-1.2066776752471924
1788656968724202000,20.105201904296877,9.86650562286377,3.248931646347046,-0.9864110946655273
1788656968740310300,20.121310302734376,10.213664054870605,3.1699230670928955,-0.8571242094039917
1788656968756446200,20.1374462890625,10.321403503417969,3.0789434909820557,-0.8236053586006165
1788656968772534800,20.15353466796875,10.007762908935547,3.134010076522827,-0.8427590131759644
1788656968788588500,20.169588623046874,9.564835548400879,3.251325845718384,-0.768538773059845
1788656968804695300,20.1856953125,9.138668060302734,3.4165258407592773,-0.6153098344802856
1788656968820845800,20.201845703125,8.968679428100586,3.5410242080688477,-0.6009446382522583
1788656968836949000,20.217948974609374,8.83939266204834,3.627215623855591,-0.6033388376235962
1788656968853047800,20.2340478515625,8.827422142028809,3.6080620288848877,-0.6129156351089478
1788656968869108200,20.250108154296875,8.853757858276367,3.5625722408294678,-0.6416460275650024
1788656968885199000,20.26619921875,8.865729331970215,3.4811692237854004,-0.706289529800415
1788656968901297400,20.28229736328125,8.983044624328613,3.4356794357299805,-0.5817909836769104
1788656968917403100,20.298403076171876,9.217676162719727,3.4308910369873047,-0.5817909836769104
1788656968933499400,20.31449951171875,9.430760383605957,3.35667085647583,-0.7541735172271729
1788656968949559800,20.330559814453125,9.402029991149902,3.361459255218506,-0.6631938815116882
1788656968965654800,20.34665478515625,9.399636268615723,3.40216064453125,-0.6033388376235962
1788656968981761500,20.362761474609375,9.363722801208496,3.4596214294433594,-0.5937620401382446
1788656968997887000,20.378886962890626,9.437943458557129,3.4165258407592773,-0.5889736413955688
1788656969013980200,20.394980224609377,9.490615844726562,3.40216064453125,-0.4836287498474121
1788656969030040000,20.4110400390625,9.375694274902344,3.399766445159912,-0.33039984107017517
1788656969046130200,20.427130126953124,9.220070838928223,3.383007049560547,-0.19632454216480255
1788656969062243300,20.443243408203124,9.004592895507812,3.3662476539611816,-0.11252748221158981
1788656969078370300,20.459370361328126,8.918401718139648,3.3423056602478027,0.016759412363171577
1788656969094459100,20.475459228515625,9.07641887664795,3.378218650817871,0.1173158809542656
1788656969110514200,20.49151416015625,9.239224433898926,3.339911460876465,0.20350714027881622
1788656969126602200,20.507602294921874,9.244012832641602,3.3854012489318848,0.21787235140800476
1788656969142721500,20.523721435546875,9.26795482635498,3.3710360527038574,0.22505496442317963
1788656969158855400,20.53985546875,9.255983352661133,3.3901896476745605,0.17477671802043915
1788656969174945500,20.555945556640626,9.255983352661133,3.4093432426452637,0.17238251864910126
1788656969191002400,20.57200244140625,9.198522567749023,3.4117374420166016,0.10055647045373917
1788656969207095800,20.588095703125,9.198522567749023,3.4093432426452637,0.06703764945268631
1788656969223224800,20.604224853515625,9.114726066589355,3.4356794357299805,0.028730420395731926
1788656969239366400,20.620366455078123,9.11233139038086,3.4332852363586426,-0.016759412363171577
1788656969255460400,20.63646044921875,9.136273384094238,3.397372245788574,-0.014365210197865963
1788656969271519500,20.65251953125,9.210494041442871,3.3949780464172363,-0.023942016065120697
1788656969287610400,20.6686103515625,9.263166427612305,3.40216064453125,-0.021547814831137657
1788656969303755800,20.684755859375,9.255983352661133,3.426102638244629,-0.08379705995321274
1788656969319868400,20.700868408203124,9.279925346374512,3.40216064453125,-0.11252748221158981
1788656969335956500,20.71695654296875,9.354146003723145,3.442862033843994,-0.090979665517807
1788656969352023300,20.733023193359376,9.38048267364502,3.469198226928711,-0.10055647045373917
1788656969368109000,20.749109130859374,9.363722801208496,3.4620156288146973,-0.13407529890537262
1788656969384210700,20.765210693359375,9.311050415039062,3.4524388313293457,-0.1364694982767105
1788656969400317000,20.78131689453125,9.29189682006836,3.471592426300049,-0.05267243832349777
1788656969416405000,20.797405029296876,9.311050415039062,3.490746021270752,-0.05506663769483566
1788656969432482800,20.81348291015625,9.327810287475586,3.464409828186035,-0.11971008777618408
