time,seconds_elapsed,z,y,x
1788648238843358000,0.09535791015625,1.7620000839233398,-15.092000961303711,-10.707000732421875
1788648238859278000,0.111278076171875,-4.690999984741211,-17.814001083374023,-6.648000240325928
1788648238883319300,0.1353193359375,-5.5320000648498535,-18.454999923706055,-6.653000354766846
1788648238899353900,0.151353759765625,-2.9880001544952393,-17.59800148010254,-6.343000411987305
1788648238915438300,0.167438232421875,-3.8330001831054688,-17.918001174926758,-6.345000267028809
1788648238931507200,0.183507080078125,-2.9100000858306885,-17.72300148010254,-7.668000221252441
1788648238947457000,0.19945703125,-3.955000162124634,-18.25200080871582,-7.264000415802002
1788648238963452200,0.2154521484375,-3.2090001106262207,-17.494001388549805,-6.647000312805176
1788648238979473200,0.23147314453125,-4.611999988555908,-17.1820011138916,-7.458000183105469
1788648238995518200,0.247518310546875,-5.117000102996826,-17.70600128173828,-6.647000312805176
1788648239011594200,0.26359423828125,-3.635000228881836,-18.035001754760742,-7.059000492095947
1788648239027560700,0.279560791015625,-4.366000175476074,-18.134000778198242,-6.549000263214111
1788648239043562500,0.2955625,-4.88700008392334,-19.532001495361328,-6.969000339508057
1788648239059574800,0.31157470703125,-6.363000392913818,-18.44300079345703,-5.837000370025635
1788648239075634000,0.327634033203125,-4.492000102996826,-18.68600082397461,-7.777000427246094
1788648239091721500,0.343721435546875,-5.3460001945495605,-18.68800163269043,-7.979000568389893
1788648239107701200,0.359701171875,-4.5970001220703125,-17.60500144958496,-7.054000377655029
1788648239123716000,0.375716064453125,-3.8370001316070557,-17.812000274658203,-6.445000171661377
1788648239139741700,0.39174169921875,-3.5230002403259277,-19.437000274658203,-7.683000564575195
1788648239155826400,0.407826416015625,-4.594000339508057,-18.468000411987305,-7.469000339508057
1788648239171871500,0.42387158203125,-6.443000316619873,-18.275001525878906,-9.29800033569336
1788648239187862500,0.439862548828125,-5.139000415802002,-17.28700065612793,-7.3560004234313965
1788648239203831600,0.45583154296875,-4.7170000076293945,-16.749000549316406,-7.148000240325928
1788648239219872300,0.471872314453125,-6.067000389099121,-19.6460018157959,-7.579000473022461
1788648239235960000,0.4879599609375,-5.031000137329102,-17.718000411987305,-7.564000129699707
1788648239252000800,0.504000732421875,-3.4050002098083496,-18.67300033569336,-6.657000541687012
1788648239267995600,0.51999560546875,-3.4750001430511475,-19.624000549316406,-5.647000312805176
1788648239284012300,0.53601220703125,-1.3970000743865967,-18.790000915527344,-7.1700005531311035
1788648239300060200,0.55206005859375,-4.527000427246094,-17.951000213623047,-8.891000747680664
1788648239316111000,0.568111083984375,-2.6680002212524414,-18.246000289916992,-6.654000282287598
1788648239332153300,0.5841533203125,-5.6660003662109375,-16.743000030517578,-6.841000556945801
1788648239348114700,0.60011474609375,-4.043000221252441,-18.7810001373291,-6.759000301361084
1788648239364128800,0.616128662109375,-3.01200008392334,-17.395999908447266,-7.258000373840332
1788648239380136200,0.63213623046875,-3.3350002765655518,-18.371000289916992,-8.081000328063965
1788648239396142600,0.648142578125,-4.170000076293945,-17.604000091552734,-6.953000545501709
1788648239412184800,0.664184814453125,-6.836000442504883,-18.255001068115234,-7.872000217437744
1788648239428154600,0.680154541015625,-3.616000175476074,-19.428001403808594,-7.071000099182129
1788648239444121900,0.696121826171875,-3.821000099182129,-19.315000534057617,-6.6620001792907715
1788648239460129300,0.71212939453125,-4.446000099182129,-18.875,-5.843000411987305
1788648239476181500,0.728181396484375,-4.570000171661377,-18.56100082397461,-6.451000213623047
1788648239492221700,0.7442216796875,-5.01200008392334,-18.138999938964844,-6.956000328063965
1788648239508202000,0.760201904296875,-5.431000232696533,-18.567001342773438,-6.959000110626221
1788648239524237300,0.7762373046875,-3.6580002307891846,-18.373001098632812,-8.284000396728516
1788648239540260400,0.79226025390625,-3.873000144958496,-16.861000061035156,-7.456000328063965
1788648239556334000,0.808333984375,-5.025000095367432,-19.011001586914062,-8.084000587463379
1788648239572382200,0.82438232421875,-4.484000205993652,-18.25,-7.1620001792907715
1788648239588377300,0.84037744140625,-4.2310004234313965,-19.41400146484375,-6.052000522613525
1788648239604401400,0.8564013671875,-5.354000091552734,-17.612001419067383,-7.664000511169434
1788648239620435700,0.872435791015625,-4.047000408172607,-18.459001541137695,-6.756000518798828
1788648239636521700,0.888521728515625,-5.960000514984131,-18.67300033569336,-6.960000514984131
1788648239652577300,0.904577392578125,-4.924000263214111,-16.529001235961914,-6.738000392913818
1788648239668570000,0.920570068359375,-5.767000198364258,-17.929000854492188,-7.3610005378723145
1788648239684554200,0.93655419921875,-4.277000427246094,-19.334001541137695,-8.088000297546387
1788648239700595500,0.952595458984375,-4.6080002784729,-17.612001419067383,-7.563000202178955
1788648239716685300,0.968685302734375,-2.8010001182556152,-18.262001037597656,-7.877000331878662
1788648239732747500,0.98474755859375,-4.996000289916992,-19.31800079345703,-6.967000484466553
1788648239748702000,1.000701904296875,-3.7770001888275146,-16.976001739501953,-7.966000556945801
1788648239764743000,1.016742919921875,-5.331000328063965,-18.13800048828125,-6.956000328063965
1788648239780792600,1.03279248046875,-4.465000152587891,-19.10300064086914,-6.86400032043457
1788648239796838000,1.048837890625,-6.591000080108643,-19.101001739501953,-6.963000297546387
1788648239812913000,1.064912841796875,-4.37000036239624,-18.137001037597656,-6.753000259399414
1788648239828873700,1.080873779296875,-5.457000255584717,-17.50200080871582,-7.459000587463379
1788648239844873000,1.096873046875,-4.898000240325928,-18.891000747680664,-7.065000534057617
1788648239860884500,1.112884521484375,-4.064000129699707,-18.577001571655273,-7.572000503540039
1788648239876941600,1.128941650390625,-4.163000106811523,-18.14000129699707,-6.957000255584717
1788648239893024300,1.145024169921875,-4.3560004234313965,-19.642000198364258,-7.072000503540039
1788648239908994000,1.160994140625,-4.720000267028809,-16.534000396728516,-7.146000385284424
1788648239925046800,1.177046875,-4.906000137329102,-17.490001678466797,-6.543000221252441
1788648239941059600,1.1930595703125,-3.2080001831054688,-18.35900115966797,-7.164000511169434
1788648239957072000,1.20907177734375,-4.15500020980835,-18.352001190185547,-6.755000114440918
1788648239973164800,1.225164794921875,-4.26800012588501,-18.68000030517578,-7.267000198364258
1788648239989140500,1.241140380859375,-3.866000175476074,-17.72100067138672,-7.6670002937316895
1788648240005208300,1.257208251953125,-4.706000328063965,-17.39000129699707,-7.052000522613525
1788648240021237800,1.27323779296875,-5.2220001220703125,-18.461000442504883,-7.061000347137451
1788648240037309200,1.28930908203125,-5.987000465393066,-17.392000198364258,-7.3560004234313965
1788648240053355300,1.305355224609375,-4.2829999923706055,-17.284000396728516,-7.051000118255615
1788648240069349400,1.321349365234375,-4.51200008392334,-16.753000259399414,-7.454000473022461
1788648240085369000,1.337369140625,-4.7210001945495605,-16.643001556396484,-7.249000549316406
1788648240101400300,1.353400390625,-5.982000350952148,-17.93000030517578,-7.462000370025635
1788648240117484000,1.369484130859375,-4.7170000076293945,-16.749000549316406,-7.148000240325928
1788648240133535500,1.385535400390625,-4.284000396728516,-17.06800079345703,-6.948000431060791
1788648240149537300,1.401537353515625,-6.525000095367432,-17.071001052856445,-7.454000473022461
1788648240165562400,1.417562255859375,-4.903000354766846,-17.380001068115234,-6.338000297546387
1788648240181610800,1.43361083984375,-5.174000263214111,-16.227001190185547,-8.26300048828125
1788648240197710000,1.4497099609375,-5.237000465393066,-18.038000106811523,-7.464000225067139
1788648240213759700,1.465759765625,-4.610000133514404,-17.613000869750977,-7.6650004386901855
1788648240229719600,1.481719482421875,-3.125000238418579,-17.724000930786133,-7.770000457763672
1788648240245686500,1.4976865234375,-5.897000312805176,-17.187000274658203,-7.965000152587891
1788648240261739500,1.513739501953125,-4.968000411987305,-17.09600067138672,-9.086000442504883
1788648240277745000,1.529744873046875,-4.267000198364258,-18.24700164794922,-6.958000183105469
1788648240293789200,1.5457890625,-3.878000259399414,-16.648000717163086,-7.556000232696533
1788648240309753000,1.561753173828125,-5.133000373840332,-17.067001342773438,-6.947000503540039
1788648240325718000,1.577718017578125,-6.201000213623047,-17.93400001525879,-7.768000602722168
1788648240341767400,1.593767333984375,-6.112000465393066,-16.53900146484375,-7.654000282287598
1788648240357772800,1.609772705078125,-6.02400016784668,-17.19900131225586,-8.881999969482422
1788648240373812700,1.625812744140625,-4.752000331878662,-16.229000091552734,-8.366000175476074
1788648240389779700,1.64177978515625,-4.344000339508057,-14.835000991821289,-8.25200080871582
1788648240405743600,1.65774365234375,-3.815000295639038,-16.350000381469727,-9.285000801086426
1788648240421758000,1.673758056640625,-5.775000095367432,-17.393001556396484,-7.3560004234313965
1788648240437822500,1.689822509765625,-4.52400016784668,-16.32900047302246,-7.756000518798828
1788648240453864400,1.705864501953125,-5.277000427246094,-16.981000900268555,-8.575000762939453
1788648240469838000,1.721838134765625,-3.5480000972747803,-16.209001541137695,-6.737000465393066
1788648240485805800,1.737805908203125,-6.341000080108643,-16.33300018310547,-8.26300048828125
1788648240501826000,1.753825927734375,-6.460000514984131,-15.908000946044922,-8.565000534057617
1788648240517846800,1.7698466796875,-5.943000316619873,-14.72800064086914,-8.45300006866455
1788648240533908700,1.78590869140625,-6.135000228881836,-15.36400032043457,-7.949000358581543
1788648240549901800,1.80190185546875,-4.950000286102295,-15.572000503540039,-7.341000556945801
1788648240565919200,1.817919189453125,-6.8580002784729,-15.999000549316406,-7.444000244140625
1788648240581941800,1.833941650390625,-7.430000305175781,-15.807001113891602,-9.17400074005127
1788648240597972200,1.84997216796875,-4.860000133514404,-16.23000144958496,-8.468000411987305
1788648240614033400,1.866033447265625,-3.5940001010894775,-15.481000900268555,-8.361000061035156
1788648240630026800,1.88202685546875,-5.5970001220703125,-15.577000617980957,-7.748000144958496
1788648240646056200,1.89805615234375,-4.5420002937316895,-16.34000015258789,-8.571000099182129
1788648240662093600,1.914093505859375,-7.091000556945801,-15.03800106048584,-7.741000175476074
1788648240678180900,1.930180908203125,-2.945000171661377,-15.691000938415527,-7.956000328063965
1788648240694241800,1.94624169921875,-5.713000297546387,-15.1510009765625,-7.948000431060791
1788648240710242600,1.96224267578125,-7.9210004806518555,-15.458001136779785,-7.133000373840332
1788648240726279200,1.978279052734375,-5.645000457763672,-15.065000534057617,-9.577000617980957
1788648240742323700,1.99432373046875,-5.008000373840332,-14.5260009765625,-9.267000198364258
1788648240758414000,2.0104140625,-4.574000358581543,-14.41300106048584,-8.756999969482422
1788648240774478000,2.02647802734375,-6.9210004806518555,-14.416000366210938,-9.26400089263916
1788648240790450400,2.042450439453125,-6.89400053024292,-14.40000057220459,-8.041000366210938
1788648240806454500,2.05845458984375,-5.955000400543213,-14.844000816345215,-9.065000534057617
1788648240822506500,2.074506591796875,-6.9150004386901855,-14.196001052856445,-8.854000091552734
1788648240838511000,2.090510986328125,-7.514000415802002,-15.793001174926758,-8.155000686645508
1788648240854621200,2.10662109375,-8.704000473022461,-14.833001136779785,-8.552000045776367
1788648240870600200,2.12260009765625,-7.734000205993652,-15.906001091003418,-8.563000679016113
1788648240886616600,2.138616455078125,-5.185000419616699,-16.126001358032227,-8.670000076293945
1788648240902638600,2.154638671875,-6.9770002365112305,-15.899001121520996,-7.953000545501709
1788648240918703000,2.170703125,-7.208000183105469,-15.694001197814941,-8.664000511169434
1788648240934797800,2.1867978515625,-4.795000076293945,-15.715001106262207,-9.991000175476074
1788648240950779600,2.202779541015625,-8.629000663757324,-15.392001152038574,-10.289000511169434
1788648240966838800,2.2188388671875,-7.081000328063965,-17.519001007080078,-8.884000778198242
1788648240982864600,2.23486474609375,-6.691000461578369,-14.838000297546387,-8.759000778198242
1788648240998948400,2.2509482421875,-5.810000419616699,-15.361001014709473,-7.64400053024292
1788648241014992100,2.2669921875,-6.168000221252441,-14.303000450134277,-8.754000663757324
1788648241030984400,2.282984375,-6.278000354766846,-14.197000503540039,-8.855000495910645
1788648241047014400,2.299014404296875,-6.467000484466553,-17.209001541137695,-9.697000503540039
1788648241063047200,2.315047119140625,-9.413000106811523,-15.999000549316406,-7.747000217437744
1788648241079082000,2.33108203125,-6.244000434875488,-16.013999938964844,-8.464000701904297
1788648241095125500,2.34712548828125,-9.449000358581543,-15.697000503540039,-9.170000076293945
1788648241111081200,2.363081298828125,-9.361000061035156,-16.57200050354004,-10.50200080871582
1788648241127100400,2.379100341796875,-9.559000015258789,-16.454999923706055,-9.788000106811523
1788648241143141400,2.395141357421875,-9.952000617980957,-17.73200035095215,-9.187000274658203
1788648241159228400,2.411228515625,-9.874000549316406,-16.885000228881836,-9.893000602722168
1788648241175309800,2.427309814453125,-8.718000411987305,-16.13800048828125,-9.99000072479248
1788648241191266600,2.4432666015625,-9.527000427246094,-17.409000396728516,-8.981000900268555
1788648241207281200,2.45928125,-8.385000228881836,-16.670000076293945,-9.689000129699707
1788648241223326200,2.475326171875,-8.596000671386719,-16.993000030517578,-9.794000625610352
1788648241239325400,2.491325439453125,-10.741000175476074,-17.21900177001953,-10.914000511169434
1788648241255416600,2.50741650390625,-10.503000259399414,-18.284000396728516,-10.414000511169434
1788648241271376400,2.52337646484375,-8.460000038146973,-18.921001434326172,-9.709000587463379
1788648241287398100,2.539398193359375,-11.193000793457031,-20.304000854492188,-9.3100004196167
1788648241303407400,2.555407470703125,-8.237000465393066,-18.59000015258789,-8.993000030517578
1788648241319467000,2.571467041015625,-9.404000282287598,-18.155000686645508,-8.682000160217285
1788648241335515600,2.587515625,-8.041000366210938,-18.060001373291016,-9.396000862121582
1788648241351490000,2.603489990234375,-9.269000053405762,-19.110000610351562,-7.978000164031982
1788648241367458600,2.61945849609375,-7.782000541687012,-19.761001586914062,-8.393000602722168
1788648241383476200,2.635476318359375,-7.934000492095947,-19.573001861572266,-10.327000617980957
1788648241399543800,2.651543701171875,-8.870000839233398,-19.343000411987305,-9.305000305175781
1788648241415588600,2.667588623046875,-7.446000576019287,-20.39900016784668,-7.992000579833984
1788648241431574300,2.68357421875,-6.01200008392334,-19.029001235961914,-9.509000778198242
1788648241447544600,2.699544677734375,-7.368000507354736,-20.30900001525879,-9.213000297546387
1788648241463579600,2.71557958984375,-10.538000106811523,-20.078001022338867,-8.392000198364258
1788648241479706600,2.73170654296875,-7.063000202178955,-20.317001342773438,-9.825000762939453
1788648241495764700,2.7477646484375,-8.355999946594238,-18.48900032043457,-9.50200080871582
1788648241511768000,2.76376806640625,-7.929000377655029,-18.273000717163086,-9.297000885009766
1788648241527798500,2.779798583984375,-8.329999923706055,-19.554000854492188,-9.00200080871582
1788648241543844900,2.795844970703125,-10.368000030517578,-18.375,-9.193000793457031
1788648241559940600,2.811940673828125,-8.656000137329102,-18.802000045776367,-8.893000602722168
1788648241576010200,2.82801025390625,-8.00100040435791,-20.30500030517578,-9.009000778198242
1788648241591975200,2.84397509765625,-8.164000511169434,-18.178001403808594,-10.212000846862793
1788648241608016100,2.86001611328125,-8.41200065612793,-18.999000549316406,-7.571000576019287
1788648241624062700,2.876062744140625,-10.485000610351562,-18.0570011138916,-9.495000839233398
1788648241640152600,2.892152587890625,-9.942000389099121,-18.483001708984375,-9.194000244140625
1788648241656221700,2.9082216796875,-9.110000610351562,-18.171001434326172,-9.804000854492188
1788648241672189000,2.92418896484375,-7.656000137329102,-20.398000717163086,-7.890000343322754
1788648241688191200,2.940191162109375,-8.772000312805176,-16.32200050354004,-7.750000476837158
1788648241704200200,2.9562001953125,-10.038000106811523,-19.341001510620117,-9.303000450134277
1788648241720198400,2.972198486328125,-9.427000045776367,-18.602001190185547,-10.011000633239746
1788648241736275700,2.988275634765625,-7.967000484466553,-17.53900146484375,-10.51200008392334
1788648241752257500,3.004257568359375,-8.360000610351562,-19.032001495361328,-10.016000747680664
1788648241768324000,3.020323974609375,-10.393000602722168,-17.74100112915039,-9.90000057220459
1788648241784334800,3.0363349609375,-10.826000213623047,-18.935001373291016,-11.030000686645508
1788648241800351000,3.05235107421875,-8.159000396728516,-19.68800163269043,-10.939000129699707
1788648241816447700,3.06844775390625,-8.88900089263916,-18.814001083374023,-9.809000015258789
1788648241832422000,3.084421875,-7.962000370025635,-18.076000213623047,-10.619000434875488
1788648241848526000,3.100526123046875,-8.89900016784668,-17.415000915527344,-9.390000343322754
1788648241864544800,3.116544677734375,-9.785000801086426,-16.895999908447266,-10.708000183105469
1788648241880615200,3.132615234375,-8.190000534057617,-16.14000129699707,-10.092000007629395
1788648241896751600,3.148751708984375,-9.571000099182129,-16.35500144958496,-10.296000480651855
1788648241912711200,3.164711181640625,-11.15000057220459,-15.911001205444336,-9.374000549316406
1788648241928822000,3.180822021484375,-9.470000267028809,-16.034000396728516,-10.294000625610352
1788648241944851500,3.1968515625,-8.593000411987305,-17.5310001373291,-10.00200080871582
1788648241960878300,3.21287841796875,-10.309000015258789,-16.567001342773438,-10.195000648498535
1788648241976982000,3.22898193359375,-7.879000186920166,-17.226001739501953,-11.121000289916992
1788648241992977400,3.244977294921875,-9.318000793457031,-17.19500160217285,-8.980000495910645
1788648242008949500,3.260949462890625,-11.314000129699707,-16.487001419067383,-12.333000183105469
1788648242024989400,3.276989501953125,-10.320000648498535,-17.11400032043457,-11.015000343322754
1788648242041076500,3.293076416015625,-9.476000785827637,-17.226001739501953,-11.32300090789795
1788648242057123000,3.309123046875,-10.572000503540039,-16.59600067138672,-12.43600082397461
1788648242073127700,3.325127685546875,-10.334000587463379,-16.797000885009766,-11.420000076293945
1788648242089145600,3.3411455078125,-9.467000007629395,-16.895999908447266,-10.709000587463379
1788648242105195300,3.3571953125,-9.51300048828125,-17.032001495361328,-12.849000930786133
1788648242121194200,3.3731943359375,-7.781000137329102,-17.123001098632812,-11.426000595092773
1788648242137243100,3.3892431640625,-8.131000518798828,-15.520000457763672,-11.819000244140625
1788648242153222100,3.40522216796875,-8.421000480651855,-16.908000946044922,-11.42300033569336
1788648242169251300,3.421251220703125,-11.187000274658203,-15.50200080871582,-10.796000480651855
1788648242185332500,3.43733251953125,-7.734000205993652,-14.782000541687012,-12.628000259399414
1788648242201393700,3.4533935546875,-8.218000411987305,-14.10400104522705,-10.074000358581543
1788648242217449200,3.46944921875,-9.072999954223633,-15.511000633239746,-11.206000328063965
1788648242233432600,3.4854326171875,-8.030000686645508,-14.443000793457031,-11.402000427246094
1788648242249456000,3.5014560546875,-9.845000267028809,-16.067001342773438,-12.84000015258789
1788648242265470200,3.51747021484375,-7.741000175476074,-14.78600025177002,-12.933000564575195
1788648242281483300,3.533483154296875,-8.875,-15.41200065612793,-11.817000389099121
1788648242297530400,3.5495302734375,-6.75100040435791,-14.983000755310059,-11.510000228881836
1788648242313505500,3.565505615234375,-7.609000205993652,-14.987000465393066,-11.917000770568848
1788648242329530600,3.581530517578125,-9.450000762939453,-14.57300090789795,-13.235000610351562
1788648242345551000,3.597551025390625,-6.759000301361084,-14.879000663757324,-11.815000534057617
1788648242361619200,3.613619140625,-6.516000270843506,-16.266000747680664,-11.318000793457031
1788648242377671700,3.629671630859375,-6.640000343322754,-14.656001091003418,-11.100000381469727
1788648242393661200,3.6456611328125,-5.048000335693359,-15.74000072479248,-11.825000762939453
1788648242409642800,3.661642822265625,-6.7360005378723145,-16.054000854492188,-11.520000457763672
1788648242425680100,3.67768017578125,-7.580000400543213,-16.91400146484375,-11.832000732421875
1788648242441756000,3.693755859375,-5.807000160217285,-16.93600082397461,-13.260000228881836
1788648242457846500,3.709846435546875,-7.39300012588501,-16.2810001373291,-12.539000511169434
1788648242473837000,3.725837158203125,-6.354000091552734,-15.108000755310059,-12.836000442504883
1788648242489834800,3.741834716796875,-7.4830002784729,-17.46000099182129,-12.550000190734863
1788648242505871400,3.757871337890625,-7.204000473022461,-16.72800064086914,-13.868000984191895
1788648242521955300,3.773955322265625,-6.668000221252441,-16.618000030517578,-13.562000274658203
1788648242538019300,3.790019287109375,-6.125000476837158,-16.179000854492188,-12.744000434875488
1788648242554000600,3.806000732421875,-6.777000427246094,-16.727001190185547,-13.767000198364258
1788648242570069800,3.82206982421875,-4.5420002937316895,-16.295000076293945,-13.256000518798828
1788648242586106000,3.838106201171875,-5.27400016784668,-18.881999969482422,-14.399001121520996
1788648242602195500,3.854195556640625,-4.618000030517578,-17.790000915527344,-12.862000465393066
1788648242618256000,3.870255859375,-5.2870001792907715,-17.593000411987305,-14.184000968933105
1788648242634243300,3.886243408203125,-5.924000263214111,-17.8070011138916,-14.28700065612793
1788648242650323700,3.90232373046875,-6.158000469207764,-17.38800048828125,-14.996000289916992
1788648242666374100,3.9183740234375,-5.272000312805176,-18.23200035095215,-13.884000778198242
1788648242682372000,3.9343720703125,-4.4079999923706055,-18.440000534057617,-13.37700080871582
1788648242698487300,3.9504873046875,-5.461000442504883,-19.4060001373291,-13.588000297546387
1788648242714451500,3.966451416015625,-3.574000120162964,-17.803001403808594,-13.678000450134277
1788648242730504400,3.98250439453125,-3.769000291824341,-18.763999938964844,-13.483000755310059
1788648242746520300,3.998520263671875,-2.2980000972747803,-17.804000854492188,-13.578001022338867
1788648242762580500,4.01458056640625,-3.6040000915527344,-18.253000259399414,-15.312000274658203
1788648242778664700,4.030664794921875,-2.5320000648498535,-18.033000946044922,-14.700000762939453
1788648242794635800,4.0466357421875,-1.3730000257492065,-17.716001510620117,-14.903000831604004
1788648242810702800,4.062702880859375,-6.13700008392334,-18.240001678466797,-14.596000671386719
1788648242826721300,4.07872119140625,-1.7570000886917114,-18.987001419067383,-13.895000457763672
1788648242842787600,4.09478759765625,-3.751000165939331,-18.753000259399414,-12.668000221252441
1788648242858898200,4.110898193359375,-2.5400002002716064,-18.145000457763672,-15.109001159667969
1788648242874888400,4.126888427734375,-2.9600000381469727,-18.142000198364258,-14.904000282287598
1788648242890863900,4.14286376953125,-2.2070000171661377,-18.678001403808594,-14.808000564575195
1788648242906896100,4.158896240234375,-3.4560000896453857,-19.63300132751465,-14.306000709533691
1788648242922976000,4.17497607421875,-4.138000011444092,-18.90300178527832,-15.826001167297363
1788648242939027500,4.19102734375,-2.8310000896453857,-19.96500015258789,-15.023000717163086
1788648242955025200,4.207025146484375,-2.3400001525878906,-16.532001495361328,-14.687000274658203
1788648242971000600,4.22300048828125,-2.321000099182129,-18.89900016784668,-15.319001197814941
1788648242987046100,4.239046142578125,-1.0250000953674316,-19.535001754760742,-14.715001106262207
1788648243003085800,4.2550859375,-2.3470001220703125,-19.022001266479492,-16.543001174926758
1788648243019135700,4.2711357421875,-3.4020001888275146,-17.395000457763672,-15.203001022338867
1788648243035095600,4.287095458984375,-2.442000150680542,-17.718000411987305,-15.207000732421875
1788648243051068200,4.303068115234375,-3.6040000915527344,-17.821001052856445,-15.003000259399414
1788648243067115000,4.319114990234375,-1.2380000352859497,-19.104000091552734,-14.508000373840332
1788648243083114800,4.33511474609375,-5.833000183105469,-18.35700035095215,-15.3100004196167
1788648243099168300,4.351168212890625,-5.720000267028809,-17.165000915527344,-14.281001091003418
1788648243115166000,4.367166015625,-3.6080002784729004,-18.472000122070312,-15.620000839233398
1788648243131227600,4.3832275390625,-4.698000431060791,-17.082000732421875,-16.01300048828125
1788648243147277800,4.39927783203125,-5.3480000495910645,-16.657001495361328,-16.314001083374023
1788648243163334400,4.41533447265625,-3.2910001277923584,-16.420000076293945,-14.379000663757324
1788648243179391200,4.43139111328125,-4.650000095367432,-16.94500160217285,-13.771000862121582
1788648243195361800,4.44736181640625,-3.4230000972747803,-15.679000854492188,-15.086000442504883
1788648243211381800,4.4633818359375,-4.060000419616699,-15.35400104522705,-14.878000259399414
1788648243227398100,4.479398193359375,-4.490000247955322,-15.680000305175781,-15.28800106048584
1788648243243411700,4.49541162109375,-3.062000036239624,-16.950000762939453,-13.97700023651123
1788648243259498200,4.511498291015625,-4.486999988555908,-15.894001007080078,-15.290000915527344
1788648243275458600,4.52745849609375,-2.556000232696533,-14.481000900268555,-13.54800033569336
1788648243291526100,4.543526123046875,-2.764000177383423,-15.12600040435791,-13.758000373840332
1788648243307552500,4.559552490234375,-4.029000282287598,-17.280000686645508,-14.692000389099121
1788648243323631000,4.575631103515625,-3.7140002250671387,-16.5260009765625,-14.380001068115234
1788648243339724800,4.591724853515625,-2.9780001640319824,-15.99100112915039,-14.37600040435791
1788648243355702500,4.60770263671875,-3.44700026512146,-14.937000274658203,-15.690000534057617
1788648243371727400,4.623727294921875,-3.070000171661377,-14.902000427246094,-13.042000770568848
1788648243387755000,4.639755126953125,-4.761000156402588,-15.111001014709473,-12.838000297546387
1788648243403790600,4.65579052734375,-3.2250001430511475,-14.499000549316406,-14.974000930786133
1788648243419898400,4.6718984375,-2.7790000438690186,-14.703001022338867,-14.16100025177002
1788648243435891500,4.687891357421875,-3.7270002365112305,-16.102001190185547,-14.682001113891602
1788648243451916000,4.703916015625,-3.379000186920166,-15.43600082397461,-12.945000648498535
1788648243467956700,4.719956787109375,-2.4210000038146973,-15.43600082397461,-12.844000816345215
1788648243483992300,4.735992431640625,-2.640000104904175,-14.467000961303711,-12.529000282287598
1788648243500057300,4.752057373046875,-4.420000076293945,-16.286001205444336,-12.543000221252441
1788648243516051500,4.768051513671875,-2.945000171661377,-14.242000579833984,-11.814000129699707
1788648243532133000,4.784133056640625,-2.305999994277954,-15.863000869750977,-12.746000289916992
1788648243548187100,4.800187255859375,-3.4760000705718994,-15.106000900268555,-12.330000877380371
1788648243564238600,4.816238525390625,-1.5670000314712524,-14.78600025177002,-12.22800064086914
1788648243580313000,4.83231298828125,-1.4320000410079956,-14.87700080871582,-11.007000923156738
1788648243596287200,4.848287353515625,-2.2740001678466797,-14.223000526428223,-10.28700065612793
1788648243612343000,4.864343017578125,-2.953000068664551,-14.679000854492188,-12.429000854492188
1788648243628398000,4.880398193359375,-1.6630001068115234,-14.996000289916992,-11.92400074005127
1788648243644402200,4.896402099609375,-2.3980000019073486,-16.611000061035156,-12.54900074005127
1788648243660502500,4.91250244140625,-3.009000062942505,-16.810001373291016,-11.531000137329102
1788648243676478700,4.928478759765625,-3.5510001182556152,-16.384000778198242,-11.730000495910645
1788648243692545800,4.9445458984375,-2.317000150680542,-14.465001106262207,-12.326000213623047
1788648243708558600,4.96055859375,-1.8560000658035278,-14.768000602722168,-10.903000831604004
1788648243724633900,4.9766337890625,-1.9720001220703125,-13.909000396728516,-10.794000625610352
1788648243740721400,4.992721435546875,-2.1750001907348633,-15.416000366210938,-11.316000938415527
1788648243756703000,5.008702880859375,-2.4830000400543213,-16.27400016784668,-11.425000190734863
1788648243772780800,5.02478076171875,-3.741000175476074,-16.154001235961914,-10.607000350952148
1788648243788812000,5.04081201171875,-1.9900001287460327,-16.665000915527344,-8.577000617980957
1788648243804836900,5.0568369140625,-2.2180001735687256,-16.459001541137695,-9.18600082397461
1788648243820976600,5.0729765625,-2.6440000534057617,-17.21500015258789,-9.701000213623047
1788648243836967700,5.0889677734375,-1.9310001134872437,-16.694000244140625,-10.7160005569458
1788648243853030400,5.105030517578125,-2.2090001106262207,-17.966001510620117,-9.709000587463379
1788648243869063200,5.121063232421875,-2.7220001220703125,-17.41400146484375,-8.583000183105469
1788648243885147000,5.13714697265625,-4.317000389099121,-18.601001739501953,-9.406000137329102
1788648243901236700,5.15323681640625,-3.0450000762939453,-18.60500144958496,-9.509000778198242
1788648243917230000,5.16922998046875,-4.9670000076293945,-18.5,-9.914000511169434
1788648243933204000,5.185203857421875,-3.9560000896453857,-19.873001098632812,-8.29699993133545
1788648243949252600,5.201252685546875,-2.7180001735687256,-19.573001861572266,-9.722000122070312
1788648243965348000,5.21734814453125,-4.180000305175781,-20.637001037597656,-9.322000503540039
1788648243981406200,5.23340625,-3.204000234603882,-20.84200096130371,-8.510000228881836
1788648243997417200,5.249417236328125,-2.890000104904175,-20.196001052856445,-8.301000595092773
1788648244013445000,5.265445068359375,-2.448000192642212,-20.07900047302246,-7.4860005378723145
1788648244029499000,5.281498779296875,-3.307000160217285,-21.056001663208008,-8.51200008392334
1788648244045602800,5.297602783203125,-3.1530001163482666,-21.027000427246094,-6.373000144958496
1788648244061659100,5.3136591796875,-2.749000072479248,-22.661001205444336,-8.322999954223633
1788648244077625000,5.329625,-1.6400001049041748,-21.446001052856445,-5.462000370025635
1788648244093649000,5.34564892578125,-2.0290000438690186,-19.975000381469727,-7.689000129699707
1788648244109704400,5.361704345703125,0.6620000600814819,-21.03700065612793,-6.683000087738037
1788648244125771000,5.37777099609375,-1.2700001001358032,-19.96700096130371,-6.9770002365112305
1788648244141821000,5.393821044921875,-0.2850000262260437,-22.112001419067383,-6.997000217437744
1788648244157792300,5.409792236328125,-1.5790001153945923,-19.52800178527832,-6.260000228881836
1788648244173810400,5.425810546875,-1.8660000562667847,-20.157001495361328,-5.246000289916992
1788648244189823000,5.441822998046875,0.5600000023841858,-20.71000099182129,-6.273000240325928
1788648244205933000,5.45793310546875,0.4910000264644623,-20.255001068115234,-4.333000183105469
1788648244221986800,5.47398681640625,-1.475000023841858,-18.881000518798828,-5.949000358581543
1788648244237974500,5.489974609375,0.2600000202655792,-20.05000114440918,-5.044000148773193
1788648244254014200,5.50601416015625,-0.9660000205039978,-19.111000061035156,-7.072000503540039
1788648244270046000,5.5220458984375,-1.0140000581741333,-19.832000732421875,-4.939000129699707
1788648244286128000,5.538128173828125,-3.5910000801086426,-19.62900161743164,-6.054000377655029
1788648244302179000,5.554178955078125,-0.8330000638961792,-20.06800079345703,-6.469000339508057
1788648244318184700,5.570184814453125,-1.2370001077651978,-19.4060001373291,-5.139000415802002
1788648244334215700,5.586215576171875,-2.002000093460083,-20.174001693725586,-6.570000171661377
1788648244350250200,5.602250244140625,-3.2120001316070557,-17.604000091552734,-6.8520002365112305
1788648244366334700,5.618334716796875,-2.244000196456909,-18.35500144958496,-6.758000373840332
1788648244382392800,5.634392822265625,-3.180000066757202,-18.125,-5.736000061035156
1788648244398398000,5.65039794921875,-4.5960001945495605,-18.46900177001953,-7.571000576019287
1788648244414394000,5.66639404296875,-3.7290000915527344,-18.784000396728516,-6.963000297546387
1788648244430437400,5.682437255859375,-4.2870001792907715,-16.961999893188477,-7.049000263214111
1788648244446534100,5.6985341796875,-5.9730000495910645,-17.600000381469727,-6.848000526428223
1788648244462611500,5.714611572265625,-2.0380001068115234,-18.035001754760742,-6.857000350952148
1788648244478603300,5.730603271484375,-2.869000196456909,-17.05000114440918,-5.4210004806518555
1788648244494682000,5.74668212890625,-2.1650002002716064,-15.237000465393066,-6.017000198364258
1788648244510737000,5.76273681640625,-1.7410000562667847,-14.158000946044922,-5.397000312805176
1788648244526734000,5.778734130859375,-2.618000030517578,-13.309000968933105,-6.1020002365112305
1788648244542848500,5.7948486328125,-1.4410001039505005,-14.494000434875488,-6.419000148773193
1788648244558850800,5.810850830078125,-3.757000207901001,-14.802000999450684,-5.706000328063965
1788648244574942200,5.826942138671875,-2.177000045776367,-14.380001068115234,-6.010000228881836
1788648244590951000,5.842950927734375,-2.365000009536743,-15.122000694274902,-5.40500020980835
1788648244607007700,5.8590078125,-2.258000135421753,-15.66200065612793,-5.715000152587891
1788648244623141400,5.875141357421875,-0.8810000419616699,-15.450000762939453,-5.715000152587891
1788648244639107600,5.891107666015625,-2.555000066757202,-16.405000686645508,-5.212000370025635
1788648244655185200,5.90718505859375,-2.1740000247955322,-15.243000984191895,-6.425000190734863
1788648244671211500,5.92321142578125,-2.6710002422332764,-16.843000411987305,-5.929000377655029
1788648244687235300,5.9392353515625,-2.886000156402588,-15.331000328063965,-5.100000381469727
1788648244703336700,5.955336669921875,-3.2140002250671387,-14.147000312805176,-4.784000396728516
1788648244719317500,5.9713173828125,-0.03400000184774399,-15.236001014709473,-5.714000225067139
1788648244735392800,5.987392822265625,-3.0200002193450928,-14.483000755310059,-5.806000232696533
1788648244751419000,6.0034189453125,-3.6710002422332764,-13.842000961303711,-6.003000259399414
1788648244767445500,6.019445556640625,-0.8810000419616699,-14.47700023651123,-5.095000267028809
1788648244783495700,6.03549560546875,-1.1330000162124634,-13.095000267028809,-6.000000476837158
1788648244799481000,6.051481201171875,-0.7830000519752502,-12.861001014709473,-4.470000267028809
1788648244815470000,6.067469970703125,-2.0380001068115234,-14.25200080871582,-4.4810004234313965
1788648244831506200,6.083506103515625,-0.7890000343322754,-14.269001007080078,-5.603000164031982
1788648244847585500,6.09958544921875,-0.9930000305175781,-13.184000968933105,-4.575000286102295
1788648244863663600,6.11566357421875,0.08700000494718552,-14.254000663757324,-4.38200044631958
1788648244879668500,6.13166845703125,1.2080000638961792,-14.176000595092773,-6.420000076293945
1788648244895654700,6.147654541015625,-1.3350000381469727,-13.630001068115234,-5.902000427246094
1788648244911701800,6.16370166015625,-1.00600004196167,-13.732000350952148,-5.496000289916992
1788648244927796700,6.179796630859375,-1.2160000801086426,-13.946001052856445,-5.498000144958496
1788648244943846000,6.195845947265625,-1.7500001192092896,-13.515000343322754,-5.391000270843506
1788648244959814400,6.211814453125,-1.4480000734329224,-12.336000442504883,-5.38100004196167
1788648244975791600,6.22779150390625,-0.9760000705718994,-15.767001152038574,-5.4120001792907715
1788648244991848400,6.243848388671875,-0.6470000147819519,-15.869000434875488,-5.00600004196167
1788648245007900000,6.25989990234375,-0.5090000033378601,-14.01300048828125,-2.443000078201294
1788648245023952400,6.275952392578125,-0.27400001883506775,-14.38800048828125,-6.420000076293945
1788648245039921400,6.29192138671875,1.2170000076293945,-14.171000480651855,-6.01200008392334
1788648245055902500,6.30790234375,-0.4300000071525574,-16.19099998474121,-5.009000301361084
1788648245071919900,6.323919921875,-1.7140001058578491,-15.654000282287598,-5.105000019073486
1788648245087923000,6.3399228515625,-1.471000075340271,-17.041000366210938,-4.6080002784729
1788648245104009700,6.356009765625,-0.8470000624656677,-16.078001022338867,-4.600000381469727
1788648245119989200,6.3719892578125,-0.6680000424385071,-14.801000595092773,-5.302000045776367
1788648245136014600,6.3880146484375,-0.2290000170469284,-15.874000549316406,-5.312000274658203
1788648245152035300,6.404035400390625,-0.6420000195503235,-16.73000144958496,-5.319000244140625
1788648245168103700,6.420103759765625,0.8290000557899475,-16.634000778198242,-5.932000160217285
1788648245184190700,6.436190673828125,-0.6310000419616699,-16.832000732421875,-4.913000106811523
1788648245200158500,6.452158447265625,0.6460000276565552,-17.263999938964844,-5.020000457763672
1788648245216177200,6.46817724609375,-1.2760000228881836,-16.944000244140625,-5.320000171661377
1788648245232202800,6.48420263671875,-0.8280000686645508,-18.119001388549805,-5.026000022888184
1788648245248227600,6.5002275390625,-1.0110000371932983,-18.75,-4.11400032043457
1788648245264323300,6.5163232421875,-0.19500000774860382,-18.339000701904297,-5.334000110626221
1788648245280311300,6.532311279296875,-0.5940000414848328,-19.187000274658203,-4.730000019073486
1788648245296332300,6.548332275390625,0.2900000214576721,-20.464000701904297,-3.9270002841949463
1788648245312360400,6.5643603515625,0.47300001978874207,-20.59000015258789,-5.355000019073486
1788648245328442400,6.5804423828125,1.0140000581741333,-21.017000198364258,-5.156000137329102
1788648245344493000,6.5964931640625,-0.5630000233650208,-21.762001037597656,-4.956000328063965
1788648245360494600,6.61249462890625,-0.18000000715255737,-21.032001495361328,-6.377000331878662
1788648245384599000,6.63659912109375,2.074000120162964,-20.26300048828125,-4.743000030517578
1788648245400593400,6.652593505859375,0.07300000637769699,-21.22300148010254,-4.647000312805176
1788648245416607000,6.66860693359375,2.2960000038146973,-21.7710018157959,-5.266000270843506
1788648245432629000,6.68462890625,0.7160000205039978,-22.19300079345703,-4.962000370025635
1788648245448680000,6.700679931640625,-0.7590000629425049,-21.32000160217285,-3.934000253677368
1788648245464755200,6.716755126953125,0.8260000348091125,-21.975000381469727,-4.65500020980835
1788648245480812300,6.732812255859375,0.6180000305175781,-22.296001434326172,-4.6570000648498535
1788648245496899300,6.7488994140625,-0.007000000216066837,-22.397001266479492,-4.25
1788648245512926700,6.7649267578125,-0.9590000510215759,-22.501001358032227,-4.148000240325928
1788648245528980000,6.78097998046875,-1.4760000705718994,-23.032001495361328,-3.8460001945495605
1788648245545054500,6.797054443359375,-0.893000066280365,-22.093000411987305,-5.672000408172607
1788648245561069300,6.8130693359375,-0.25,-21.334001541137695,-4.953000068664551
1788648245577108200,6.829108154296875,-0.16900001466274261,-22.6460018157959,-6.900000095367432
1788648245593151700,6.84515185546875,-1.3060001134872437,-22.950000762939453,-5.679000377655029
1788648245609227500,6.8612275390625,-1.7300001382827759,-23.165000915527344,-5.7820000648498535
1788648245625318000,6.87731787109375,-1.5480000972747803,-23.400001525878906,-7.313000202178955
1788648245641281500,6.893281494140625,-3.628000259399414,-22.613000869750977,-4.8580002784729
1788648245657305900,6.909305908203125,-2.1660001277923584,-22.955001831054688,-6.187000274658203
1788648245673347300,6.925347412109375,-2.118000030517578,-21.909000396728516,-8.11400032043457
1788648245689421600,6.941421630859375,-1.196000099182129,-23.056001663208008,-5.578000068664551
1788648245705482200,6.957482177734375,-2.7210001945495605,-21.23900032043457,-6.172000408172607
1788648245721458200,6.973458251953125,-2.7970001697540283,-21.113000869750977,-4.744000434875488
1788648245737455000,6.989455078125,-2.0920000076293945,-21.46200180053711,-6.684000492095947
1788648245753456600,7.00545654296875,-2.5260000228881836,-20.494001388549805,-6.4710001945495605
1788648245769492000,7.021491943359375,-2.6110000610351562,-21.994001388549805,-6.484000205993652
1788648245785541000,7.037541015625,-4.769000053405762,-20.498001098632812,-7.079000473022461
1788648245801525500,7.053525390625,-2.513000011444092,-20.59400177001953,-5.962000370025635
1788648245817618000,7.069617919921875,-1.8170000314712524,-19.003000259399414,-7.070000171661377
1788648245833626000,7.085626220703125,-3.193000078201294,-18.45800018310547,-6.554000377655029
1788648245849650200,7.101650146484375,-1.7120001316070557,-18.8960018157959,-7.069000244140625
1788648245865740800,7.11774072265625,-2.2380001544952393,-18.783000946044922,-6.76200008392334
1788648245881734400,7.133734375,-1.2780001163482666,-18.56599998474121,-6.455000400543213
1788648245897844700,7.1498447265625,-4.273000240325928,-17.494001388549805,-6.748000144958496
1788648245913850600,7.1658505859375,-3.629000186920166,-18.0310001373291,-6.753000259399414
1788648245929943600,7.181943603515625,-0.31800001859664917,-17.917001724243164,-5.840000152587891
1788648245946042600,7.198042724609375,-2.7820000648498535,-19.006999969482422,-7.4760003089904785
1788648245962050600,7.214050537109375,-1.471000075340271,-18.338001251220703,-5.434000492095947
1788648245978079700,7.230079833984375,-1.1820000410079956,-18.032001495361328,-6.553000450134277
1788648245994092300,7.24609228515625,-1.9520001411437988,-19.236000061035156,-8.498000144958496
1788648246010152400,7.26215234375,-3.440000057220459,-17.93800163269043,-7.771000385284424
1788648246026206500,7.27820654296875,-3.6480002403259277,-17.611000061035156,-7.3610005378723145
1788648246042174000,7.294174072265625,0.37800002098083496,-17.73000144958496,-7.77400016784668
1788648246058204700,7.31020458984375,-3.4140002727508545,-18.679000854492188,-7.065000534057617
1788648246074211000,7.326211181640625,-2.3590002059936523,-18.68400001525879,-7.372000217437744
1788648246090279200,7.342279052734375,-2.134999990463257,-18.029001235961914,-6.450000286102295
1788648246106327800,7.358327880859375,-3.302000045776367,-18.459001541137695,-6.656000137329102
1788648246122304300,7.37430419921875,-1.724000096321106,-17.714000701904297,-6.8550004959106445
1788648246138355700,7.390355712890625,-2.364000082015991,-17.499000549316406,-6.8520002365112305
1788648246154358500,7.406358642578125,-1.936000108718872,-17.388999938964844,-6.648000240325928
1788648246170433800,7.422433837890625,-2.063000202178955,-17.726001739501953,-7.771000385284424
1788648246186481200,7.438481201171875,-0.76500004529953,-17.93000030517578,-6.8580002784729
1788648246202489900,7.45448974609375,-0.4540000259876251,-17.394001007080078,-6.854000091552734
1788648246226609200,7.478609130859375,0.2970000207424164,-18.363000869750977,-7.067000389099121
1788648246242605600,7.49460546875,-1.3950001001358032,-19.977001190185547,-7.7920002937316895
1788648246258635500,7.510635498046875,-2.578000068664551,-17.71500015258789,-7.057000160217285
1788648246274677800,7.526677734375,-2.132000207901001,-18.784000396728516,-6.76200008392334
1788648246290727000,7.542726806640625,-1.5160000324249268,-17.71700096130371,-7.059000492095947
1788648246306790700,7.558790771484375,-1.5970001220703125,-18.242000579833984,-6.248000144958496
1788648246322793700,7.574793701171875,-1.7000000476837158,-18.45600128173828,-6.250000476837158
1788648246338788600,7.59078857421875,-1.0630000829696655,-20.078001022338867,-7.284000396728516
1788648246354837200,7.606837158203125,-3.194000244140625,-19.106000900268555,-6.967000484466553
1788648246370878500,7.62287841796875,0.968000054359436,-19.856000900268555,-6.470000267028809
1788648246386957800,7.638957763671875,-2.1080000400543213,-19.310001373291016,-6.053000450134277
1788648246402960000,7.6549599609375,-0.13600000739097595,-19.98900032043457,-8.506999969482422
1788648246418990600,7.670990478515625,-1.909000039100647,-20.183000564575195,-7.182000160217285
1788648246435039500,7.68703955078125,0.02500000037252903,-20.928001403808594,-6.580000400543213
1788648246451139300,7.703139404296875,-1.0490000247955322,-21.259000778198242,-7.396000385284424
1788648246467222300,7.71922216796875,-0.7940000295639038,-21.233001708984375,-5.461000442504883
1788648246483182300,7.735182373046875,-0.7290000319480896,-21.9060001373291,-7.708000183105469
1788648246499222300,7.75122216796875,0.5820000171661377,-21.66900062561035,-5.874000072479248
1788648246515280100,7.767280029296875,1.5040000677108765,-22.988000869750977,-8.230000495910645
1788648246531329300,7.783329345703125,-1.0260000228881836,-22.75800132751465,-7.308000564575195
1788648246547407600,7.79940771484375,-1.8860000371932983,-23.19500160217285,-8.023000717163086
1788648246563374800,7.815374755859375,-0.2510000169277191,-25.225000381469727,-7.432000160217285
1788648246579429000,7.83142919921875,0.06800000369548798,-25.3330020904541,-7.434000492095947
1788648246595444500,7.847444580078125,0.11800000816583633,-26.167001724243164,-5.709000110626221
1788648246611460000,7.863460205078125,0.19600000977516174,-26.07600212097168,-6.931000232696533
1788648246627547100,7.879547119140625,-1.1880000829696655,-25.104001998901367,-6.51300048828125
1788648246643524400,7.8955244140625,-0.9970000386238098,-27.4950008392334,-8.979000091552734
1788648246659534600,7.91153466796875,0.41600000858306885,-26.828001022338867,-7.0400004386901855
1788648246675560000,7.927559814453125,-1.1540000438690186,-27.569002151489258,-6.535000324249268
1788648246691586000,7.9435859375,-0.7460000514984131,-28.33700180053711,-7.765000343322754
1788648246707634000,7.959634033203125,0.19600000977516174,-26.725000381469727,-7.344000339508057
1788648246723623200,7.975623046875,0.31200000643730164,-27.1510009765625,-7.14400053024292
1788648246739643100,7.99164306640625,0.9730000495910645,-28.218000411987305,-6.747000217437744
1788648246755679200,8.00767919921875,-0.5600000023841858,-26.73200035095215,-7.954000473022461
1788648246771716000,8.023716064453126,-0.527999997138977,-27.253002166748047,-6.839000225067139
1788648246787762200,8.03976220703125,0.28700000047683716,-26.626001358032227,-7.955000400543213
1788648246803761400,8.055761474609374,1.7090001106262207,-27.35900115966797,-6.5370001792907715
1788648246819781000,8.071781005859375,0.3500000238418579,-28.749000549316406,-6.445000171661377
1788648246835829200,8.087829345703126,-0.33800002932548523,-26.61800193786621,-7.444000244140625
1788648246851923500,8.10392333984375,-0.24500000476837158,-25.97800064086914,-7.64300012588501
1788648246867969300,8.11996923828125,1.6100001335144043,-28.54400062561035,-6.955000400543213
1788648246883935700,8.135935791015624,0.8460000157356262,-27.36600112915039,-7.147000312805176
1788648246899907800,8.151907958984374,-0.4350000321865082,-27.58500099182129,-7.657000541687012
1788648246915916800,8.167916748046874,0.9330000281333923,-27.270000457763672,-7.961000442504883
1788648246931969500,8.183969482421874,-0.9750000238418579,-28.130001068115234,-8.374000549316406
1788648246948022800,8.200022705078124,-0.3400000035762787,-27.808000564575195,-8.270000457763672
1788648246963996700,8.21599658203125,0.3050000071525574,-27.264001846313477,-7.553000450134277
1788648246979972000,8.23197216796875,0.937000036239624,-27.91600227355957,-8.171000480651855
1788648246995986000,8.24798583984375,-0.2070000171661377,-28.549001693725586,-7.564000129699707
1788648247011995400,8.263995361328124,0.7430000305175781,-28.229001998901367,-7.562000274658203
1788648247028045300,8.28004541015625,-1.9940000772476196,-27.887001037597656,-6.333000183105469
1788648247044030500,8.296030517578124,0.33400002121925354,-27.894001007080078,-6.642000198364258
1788648247060008200,8.31200830078125,-0.5080000162124634,-28.862001419067383,-6.955000400543213
1788648247076035800,8.328035888671875,-1.1750000715255737,-27.690000534057617,-7.555000305175781
1788648247092104000,8.34410400390625,-2.6660001277923584,-27.690000534057617,-7.75700044631958
1788648247108190700,8.360190673828125,-0.004000000189989805,-27.582000732421875,-7.3520002365112305
1788648247124190500,8.3761904296875,0.5400000214576721,-27.466001510620117,-6.63800048828125
1788648247140169500,8.39216943359375,-0.940000057220459,-29.514001846313477,-7.673000335693359
1788648247156206000,8.4082060546875,0.5330000519752502,-28.44300079345703,-7.564000129699707
1788648247172235500,8.424235595703125,1.7140001058578491,-28.545001983642578,-7.057000160217285
1788648247188302800,8.440302734375,-0.3270000219345093,-27.26000213623047,-7.348000526428223
1788648247204289500,8.45628955078125,-0.4620000123977661,-27.602001190185547,-8.879000663757324
1788648247220319200,8.4723193359375,-1.434000015258789,-26.097002029418945,-8.66100025177002
1788648247236355000,8.48835498046875,-0.8990000486373901,-27.06800079345703,-9.07800006866455
1788648247252439300,8.504439208984374,0.12200000882148743,-25.36400032043457,-9.777000427246094
1788648247268499700,8.520499755859374,-0.2410000115633011,-26.30000114440918,-7.645000457763672
1788648247284501800,8.536501708984375,-0.8530000448226929,-27.796001434326172,-7.454000473022461
1788648247300492500,8.552492431640625,-0.5480000376701355,-27.805002212524414,-8.065999984741211
1788648247316543000,8.56854296875,1.15500009059906,-26.832000732421875,-7.244000434875488
1788648247332637400,8.584637451171876,-1.415000081062317,-27.166000366210938,-8.467000007629395
1788648247348702500,8.600702392578125,-0.22500000894069672,-27.26300048828125,-7.552000522613525
1788648247364663600,8.61666357421875,0.16600000858306885,-26.74300193786621,-8.669000625610352
1788648247380661800,8.632661865234375,0.2580000162124634,-25.887001037597656,-8.76300048828125
1788648247396716000,8.648716064453126,-1.624000072479248,-26.94700050354004,-8.159000396728516
1788648247412763600,8.664763671875,-1.8480000495910645,-26.738000869750977,-8.564000129699707
1788648247428834800,8.680834716796875,-1.0940001010894775,-25.86800193786621,-7.539000511169434
1788648247444797200,8.696797119140625,-0.5740000009536743,-28.03700065612793,-9.392000198364258
1788648247460843800,8.71284375,-2.0220000743865967,-27.687002182006836,-7.452000141143799
1788648247476846600,8.7288466796875,-2.253000020980835,-26.509000778198242,-7.543000221252441
1788648247492905200,8.7449052734375,-2.869000196456909,-27.900001525878906,-7.453000545501709
1788648247508993000,8.760992919921875,0.6340000033378601,-26.71700096130371,-6.7330002784729
1788648247524081000,8.776080810546874,0.10400000214576721,-26.608001708984375,-6.630000114440918
1788648247540134700,8.792134765625,0.31200000643730164,-27.1510009765625,-7.14400053024292
1788648247556155000,8.80815478515625,0.5490000247955322,-27.785001754760742,-6.437000274658203
1788648247572168400,8.82416845703125,0.22800001502037048,-28.759000778198242,-7.158000469207764
1788648247588270600,8.8402705078125,0.7280000448226929,-27.806001663208008,-7.966000556945801
1788648247604263200,8.85626318359375,1.3790000677108765,-27.150001525878906,-6.942000389099121
1788648247620291800,8.872291748046875,0.7770000100135803,-27.560001373291016,-5.621000289916992
1788648247636326000,8.888325927734375,2.013000011444092,-27.801000595092773,-7.458000183105469
1788648247652405500,8.904405517578125,-0.01100000087171793,-26.722002029418945,-7.140000343322754
1788648247668458500,8.92045849609375,-0.33000001311302185,-26.181001663208008,-6.829000473022461
1788648247684457200,8.936457275390625,1.5000001192092896,-26.601001739501953,-5.919000148773193
1788648247708540000,8.960539794921875,2.1110000610351562,-25.86100196838379,-6.62600040435791
1788648247724535300,8.976535400390626,0.6350000500679016,-26.285001754760742,-6.424000263214111
1788648247740553000,8.992552978515626,0.6310000419616699,-25.85500144958496,-6.318000316619873
1788648247756557600,9.0085576171875,-0.5960000157356262,-27.229001998901367,-5.107000350952148
1788648247772560400,9.024560302734375,-0.19600000977516174,-26.272001266479492,-5.6080002784729
1788648247788609500,9.040609619140625,-0.1810000091791153,-26.48000144958496,-5.100000381469727
1788648247804611600,9.056611572265625,1.4140000343322754,-26.264001846313477,-4.795000076293945
1788648247820684500,9.0726845703125,1.5170000791549683,-27.022001266479492,-5.413000106811523
1788648247836691000,9.08869091796875,2.4790000915527344,-27.453001022338867,-5.418000221252441
1788648247852748500,9.10474853515625,2.077000141143799,-27.654001235961914,-4.503000259399414
1788648247868809700,9.120809814453125,2.886000156402588,-26.816001892089844,-5.820000171661377
1788648247884817000,9.13681689453125,2.0390000343322754,-27.029001235961914,-5.821000099182129
1788648247900925000,9.152925048828125,0.5410000085830688,-26.16900062561035,-5.812000274658203
1788648247916930300,9.168930419921875,2.8990001678466797,-24.97100067138672,-4.072000026702881
1788648247933022200,9.185022216796876,2.8000001907348633,-27.343000411987305,-5.214000225067139
1788648247949070800,9.20107080078125,1.28000009059906,-25.200000762939453,-5.397000312805176
1788648247965088300,9.217088134765625,1.939000129699707,-26.485000610351562,-5.205000400543213
1788648247981166800,9.233166748046875,2.9160001277923584,-27.878002166748047,-5.117000102996826
1788648247997175300,9.24917529296875,1.9490001201629639,-27.559001922607422,-5.418000221252441
1788648248013241900,9.265241943359374,3.138000249862671,-27.224000930786133,-4.296000003814697
1788648248029289700,9.281289794921875,2.059000015258789,-27.016000747680664,-4.904000282287598
1788648248045270000,9.29727001953125,2.4120001792907715,-26.672000885009766,-3.1700000762939453
1788648248061314800,9.313314697265625,1.3670001029968262,-28.389001846313477,-3.489000082015991
1788648248077325300,9.3293251953125,2.0530002117156982,-27.56100082397461,-5.520000457763672
1788648248093410600,9.34541064453125,2.5500001907348633,-29.463001251220703,-3.500000238418579
1788648248109466000,9.361466064453126,2.513000011444092,-28.296001434326172,-4.4070000648498535
1788648248125456000,9.377455810546875,1.4810000658035278,-28.601001739501953,-3.2880001068115234
1788648248141505500,9.393505615234375,2.993000030517578,-28.48000144958496,-2.065999984741211
1788648248157520000,9.409519775390624,1.0170000791549683,-27.76000213623047,-4.502000331878662
1788648248173563600,9.425563720703124,2.5330002307891846,-28.393001556396484,-3.5930001735687256
1788648248189625300,9.441625244140624,2.936000108718872,-27.32600212097168,-3.889000177383423
1788648248205619500,9.457619384765625,3.573000192642212,-27.6510009765625,-4.0970001220703125
1788648248221678800,9.473678955078125,3.815000295639038,-28.82200050354004,-3.496000051498413
1788648248237700900,9.489700927734376,2.31000018119812,-27.966001510620117,-3.7920002937316895
1788648248253801000,9.505801025390625,2.326000213623047,-28.281002044677734,-3.2860002517700195
1788648248269873400,9.521873291015625,2.3380000591278076,-28.16600227355957,-2.6740000247955322
1788648248285881900,9.5378818359375,2.5290000438690186,-26.774002075195312,-2.764000177383423
1788648248301950200,9.5539501953125,2.8490002155303955,-27.422000885009766,-3.075000047683716
1788648248317991400,9.569991455078124,1.4780000448226929,-27.41400146484375,-2.6660001277923584
1788648248333995800,9.585995849609375,2.125,-27.625001907348633,-2.3630001544952393
1788648248350073900,9.602073974609375,1.3550000190734863,-27.856000900268555,-3.688000202178955
1788648248366036000,9.618035888671875,3.56000018119812,-25.714000701904297,-3.4690001010894775
1788648248382053400,9.634053466796875,2.064000129699707,-25.71700096130371,-3.874000072479248
1788648248398093600,9.650093505859376,-0.4570000171661377,-27.64200210571289,-3.888000249862671
1788648248414155300,9.6661552734375,1.4190000295639038,-24.316001892089844,-3.3520002365112305
1788648248430235100,9.682235107421874,1.4490001201629639,-25.48600196838379,-2.751000165939331
1788648248446204400,9.698204345703125,1.1320000886917114,-26.457000732421875,-3.2680001258850098
1788648248462240300,9.714240234375,0.7880000472068787,-25.716001510620117,-3.9740002155303955
1788648248478285000,9.73028515625,0.7580000162124634,-24.8700008392334,-4.7820000648498535
1788648248494356500,9.7463564453125,1.6440000534057617,-25.713001251220703,-3.6700000762939453
1788648248510465500,9.762465576171875,0.4540000259876251,-24.75200080871582,-4.067000389099121
1788648248526443800,9.77844384765625,-0.18700000643730164,-24.106000900268555,-3.8570001125335693
1788648248542484000,9.79448388671875,0.24400001764297485,-24.426000595092773,-3.759000062942505
1788648248558536200,9.8105361328125,2.499000072479248,-25.928001403808594,-3.571000099182129
1788648248574621700,9.82662158203125,-1.156000018119812,-23.788002014160156,-4.261000156402588
1788648248590673200,9.842673095703125,0.8830000162124634,-24.426000595092773,-3.6580002307891846
1788648248606664000,9.858663818359375,-1.377000093460083,-23.145000457763672,-4.255000114440918
1788648248622728700,9.874728759765626,0.17600001394748688,-21.549001693725586,-4.956000328063965
1788648248638739200,9.8907392578125,-1.4820001125335693,-22.927001953125,-4.049000263214111
1788648248654833000,9.9068330078125,-2.1520001888275146,-21.541000366210938,-4.647000312805176
1788648248670885000,9.922885009765626,-0.9550000429153442,-22.498001098632812,-3.944000244140625
1788648248686878500,9.93887841796875,0.2630000114440918,-19.940000534057617,-4.840000152587891
1788648248702935300,9.954935302734375,-1.7600001096725464,-19.50800132751465,-4.833000183105469
1788648248718947300,9.970947265625,-0.3570000231266022,-20.79400062561035,-4.64300012588501
1788648248735046000,9.9870458984375,-1.318000078201294,-19.931001663208008,-4.328000068664551
1788648248751098600,10.0030986328125,1.8700001239776611,-20.475000381469727,-4.5410003662109375
1788648248767106600,10.0191064453125,-0.7830000519752502,-20.038000106811523,-4.228000164031982
1788648248783123700,10.035123779296875,-0.3410000205039978,-21.32400131225586,-4.240000247955322
1788648248799131400,10.05113134765625,-0.5680000185966492,-19.928001403808594,-4.023000240325928
1788648248815137000,10.067136962890626,1.1680001020431519,-21.20400047302246,-3.120000123977661
1788648248831188200,10.083188232421875,-2.263000011444092,-20.35500144958496,-4.127000331878662
1788648248847198200,10.0991982421875,0.3050000071525574,-20.887001037597656,-3.5240001678466797
1788648248863230000,10.11522998046875,-0.16500000655651093,-19.834001541137695,-4.940000057220459
1788648248879261200,10.13126123046875,-1.4030001163482666,-19.486000061035156,-3.1020002365112305
1788648248895327200,10.1473271484375,-0.16200000047683716,-20.04800033569336,-4.942000389099121
1788648248911377400,10.16337744140625,-0.7610000371932983,-20.34800148010254,-3.4160001277923584
1788648248927354000,10.17935400390625,-0.4740000367164612,-20.692001342773438,-5.049000263214111
1788648248943393800,10.195393798828125,-0.16500000655651093,-18.970001220703125,-4.423000335693359
1788648248959400700,10.211400634765624,1.4380000829696655,-20.154001235961914,-4.639000415802002
1788648248975477500,10.2274775390625,-1.4140000343322754,-20.141000747680664,-4.02400016784668
1788648248991542500,10.24354248046875,-0.25200000405311584,-21.011001586914062,-4.8480000495910645
1788648249007524600,10.259524658203125,-1.2080000638961792,-20.361000061035156,-4.434000015258789
1788648249023567600,10.275567626953125,-0.8070000410079956,-19.6200008392334,-5.039000034332275
1788648249039573500,10.291573486328126,0.20500001311302185,-20.343000411987305,-2.9080002307891846
1788648249055606500,10.3076064453125,0.687000036239624,-19.725000381469727,-4.736000061035156
1788648249071663000,10.3236630859375,-0.6040000319480896,-18.437000274658203,-4.7230000495910645
1788648249087652900,10.33965283203125,0.05400000140070915,-19.397001266479492,-4.325000286102295
1788648249103705300,10.355705322265624,-3.1110000610351562,-19.81300163269043,-3.7140002250671387
1788648249119722800,10.37172265625,0.492000013589859,-19.39000129699707,-3.7140002250671387
1788648249135818800,10.38781884765625,-0.5990000367164612,-18.974000930786133,-4.830000400543213
1788648249151884300,10.40388427734375,-1.5180001258850098,-19.815000534057617,-3.7160000801086426
1788648249167890000,10.419889892578125,-0.4480000138282776,-19.59600067138672,-3.2060000896453857
1788648249183891200,10.43589111328125,-0.7750000357627869,-18.952001571655273,-3.200000047683716
1788648249199918800,10.4519189453125,-1.2320001125335693,-18.755001068115234,-4.522000312805176
1788648249216015600,10.468015625,1.2100000381469727,-18.86600112915039,-4.526000022888184
1788648249232092700,10.4840927734375,-1.6630001068115234,-19.29800033569336,-5.13700008392334
1788648249248099000,10.50009912109375,1.5500000715255737,-18.097000122070312,-3.0930001735687256
1788648249264169200,10.516169189453125,0.2580000162124634,-19.29400062561035,-4.630000114440918
1788648249280189000,10.53218896484375,0.706000030040741,-19.606000900268555,-3.819000244140625
1788648249296194300,10.5481943359375,-0.39400002360343933,-19.41200065612793,-5.445000171661377
1788648249312274000,10.56427392578125,-0.17100000381469727,-19.08100128173828,-4.730000019073486
1788648249328237000,10.580237060546875,-0.3680000305175781,-19.179000854492188,-4.11899995803833
1788648249344264400,10.596264404296875,1.6510000228881836,-19.072999954223633,-3.9170002937316895
1788648249360305700,10.6123056640625,-1.1010000705718994,-18.631000518798828,-3.2980000972747803
1788648249376375800,10.628375732421874,-1.196000099182129,-18.409000396728516,-2.68500018119812
1788648249392468700,10.64446875,0.6930000185966492,-17.884000778198242,-3.2940001487731934
1788648249408437200,10.660437255859375,0.052000001072883606,-18.75,-4.014000415802002
1788648249424474000,10.67647412109375,0.46700000762939453,-19.51300048828125,-4.938000202178955
1788648249440528600,10.692528564453125,-1.6970000267028809,-17.69700050354004,-5.63200044631958
1788648249456533800,10.70853369140625,-0.4740000367164612,-19.179000854492188,-4.11899995803833
1788648249472614000,10.72461376953125,-0.9100000262260437,-19.510000228881836,-4.834000110626221
1788648249488594700,10.7405947265625,-0.8280000686645508,-18.768001556396484,-5.439000129699707
1788648249504588500,10.756588623046875,0.8800000548362732,-18.54800033569336,-4.828000068664551
1788648249520597200,10.77259716796875,-1.5350000858306885,-19.069000244140625,-4.015000343322754
1788648249536684800,10.788684814453125,0.893000066280365,-19.297000885009766,-4.7330002784729
1788648249552734000,10.80473388671875,-0.6010000109672546,-18.976001739501953,-4.932000160217285
1788648249568725800,10.820725830078125,-0.7900000214576721,-18.204999923706055,-3.3970000743865967
1788648249584785400,10.836785400390625,-0.9180000424385071,-19.29800033569336,-5.0360002517700195
