time,seconds_elapsed,z,y,x
1788673481798540300,0.101540283203125,-0.3699207305908203,-0.05837595462799072,-0.013318181037902832
1788673481814740700,0.11774072265625,-0.4189891815185547,0.009272456169128418,0.003107994794845581
1788673481830929000,0.133928955078125,-0.4129362106323242,-0.051792144775390625,-0.03332039713859558
1788673481847101200,0.15010107421875,-0.3258934020996094,-0.06229269504547119,0.15145018696784973
1788673481863282000,0.166281982421875,-0.06438922882080078,-0.056685805320739746,0.09475511312484741
1788673481879432700,0.1824326171875,0.08037376403808594,-0.0352250337600708,-0.08137083053588867
1788673481895628800,0.19862890625,0.46175670623779297,-0.04890573024749756,-0.14927241206169128
1788673481911826700,0.21482666015625,0.5858583450317383,-0.07243621349334717,-0.12160734832286835
1788673481927960300,0.230960205078125,-0.0784749984741211,-0.019711852073669434,0.2811271846294403
1788673481944152000,0.247152099609375,-0.05841064453125,0.2997007369995117,0.0736442506313324
1788673481960323000,0.263322998046875,-0.3780250549316406,0.00675654411315918,0.023919761180877686
1788673481976521700,0.279521728515625,-0.8606405258178711,0.17500317096710205,0.03130415081977844
1788673481992726000,0.29572607421875,-0.5411167144775391,0.2132335901260376,-0.198503315448761
1788673482008865800,0.31186572265625,-0.16913509368896484,-0.015525579452514648,-0.220661461353302
1788673482025056800,0.328056884765625,0.39524078369140625,-0.0024663209915161133,-0.09042692184448242
1788673482041240300,0.344240234375,0.6188936233520508,0.0801084041595459,-0.2785645127296448
1788673482057452300,0.360452392578125,0.705327033996582,0.0339282751083374,-0.06271658837795258
1788673482073664800,0.376664794921875,1.1623802185058594,0.08985066413879395,0.1629154533147812
1788673482089817300,0.3928173828125,0.9790306091308594,-0.009783267974853516,-0.010261699557304382
1788673482105957600,0.40895751953125,0.6875591278076172,0.21834313869476318,-0.1305808424949646
1788673482122100700,0.425100830078125,0.04106426239013672,0.5710798501968384,0.2347586452960968
1788673482138268000,0.441267822265625,-0.41307640075683594,0.12939834594726562,-0.5748288035392761
1788673482154490600,0.45749072265625,-0.38062191009521484,0.06915390491485596,-0.6471278667449951
1788673482170654200,0.473654296875,-0.6714010238647461,-0.2601965665817261,-0.9634100198745728
1788673482186847000,0.489846923828125,-0.4436817169189453,0.061943650245666504,-0.3228161931037903
1788673482202996500,0.50599658203125,0.06193351745605469,0.16509485244750977,0.2236105054616928
1788673482219171800,0.522171875,0.24187755584716797,0.0737229585647583,0.7701286673545837
1788673482235392300,0.538392333984375,0.7218608856201172,-0.0597306489944458,0.7469565272331238
1788673482251560200,0.554560302734375,1.0816679000854492,-0.23060619831085205,0.4357503056526184
1788673482267747300,0.570747314453125,1.2611751556396484,-0.3748050928115845,0.19493736326694489
1788673482283904800,0.58690478515625,0.9032220840454102,-0.4583249092102051,-0.0163252055644989
1788673482300086800,0.603086669921875,0.5000886917114258,-0.4928041696548462,-0.15824304521083832
1788673482316278300,0.6192783203125,0.4914703369140625,-0.48683691024780273,-0.2664174735546112
1788673482332399900,0.63539990234375,0.7454719543457031,-0.6196269989013672,-0.29273903369903564
1788673482348591900,0.651591796875,1.3342323303222656,-0.7035540342330933,-0.37694722414016724
1788673482364756200,0.667756103515625,1.963994026184082,-0.78224778175354,-0.45289528369903564
1788673482380954400,0.683954345703125,2.3459463119506836,-0.9128026366233826,-0.37168797850608826
1788673482397142800,0.700142822265625,2.582882881164551,-1.1305699348449707,-0.1563919484615326
1788673482413271000,0.71627099609375,2.516167640686035,-1.3735668659210205,0.17498238384723663
1788673482429466000,0.732466064453125,1.9107990264892578,-1.5578460693359375,0.5498208999633789
1788673482445613300,0.74861328125,1.001953125,-1.6056429147720337,0.22907695174217224
1788673482461823500,0.764823486328125,0.09280776977539062,-1.4081206321716309,-0.6168076395988464
1788673482478006500,0.781006591796875,-0.7448825836181641,-1.1457785367965698,-1.056652545928955
1788673482494157800,0.79715771484375,-1.0296096801757812,-0.9252465963363647,-1.048287272453308
1788673482510352600,0.8133525390625,-1.160165786743164,-0.7960186004638672,-0.5436813235282898
1788673482526499300,0.829499267578125,-0.9835891723632812,-0.7754565477371216,0.18624664843082428
1788673482542668300,0.845668212890625,-0.7273454666137695,-0.8771281242370605,0.4493044912815094
1788673482558860500,0.861860595703125,-0.756988525390625,-0.9423743486404419,-0.02316765859723091
1788673482575020800,0.878020751953125,-0.6604194641113281,-0.8456199169158936,-0.6093589067459106
1788673482591212300,0.89421240234375,-0.7521705627441406,-1.0207359790802002,-0.7608640193939209
1788673482607359500,0.910359375,-0.9205703735351562,-1.1737353801727295,-0.5837115049362183
1788673482623532500,0.926532470703125,-0.7608489990234375,-1.149017095565796,-0.4658038914203644
1788673482639724800,0.942724853515625,-0.5322036743164062,-1.002010703086853,-0.5827138423919678
1788673482655895600,0.9588955078125,-0.06559467315673828,-0.9499273300170898,-0.6577293872833252
1788673482672086800,0.975086669921875,-0.0007314682006835938,-0.8547098636627197,-0.5151025056838989
1788673482688237600,0.991237548828125,-0.3161602020263672,-0.44587838649749756,-0.18767304718494415
1788673482704416500,1.00741650390625,-0.8803977966308594,-0.20558035373687744,0.11100075393915176
1788673482720605200,1.023605224609375,-1.2146081924438477,-0.05997049808502197,0.33025071024894714
1788673482736778200,1.0397783203125,-1.1170854568481445,0.06922507286071777,0.1673009693622589
1788673482752967400,1.055967529296875,-0.4687519073486328,0.08388972282409668,0.008219309151172638
1788673482769120800,1.072120849609375,0.04993438720703125,-0.10617697238922119,0.16739708185195923
1788673482785306600,1.088306640625,0.29936885833740234,-0.17422914505004883,0.24726590514183044
1788673482801497900,1.104497802734375,0.7942638397216797,-0.3790547847747803,0.09800370037555695
1788673482817624000,1.1206240234375,1.1541948318481445,-0.5100288391113281,-0.24651947617530823
1788673482833815300,1.136815185546875,1.2029409408569336,-0.4356553554534912,-0.5282995700836182
1788673482849984500,1.152984619140625,0.8164100646972656,-0.2987184524536133,-0.7989948391914368
1788673482866184200,1.16918408203125,0.3672504425048828,-0.08019626140594482,-0.7302447557449341
1788673482882338300,1.18533837890625,0.13925457000732422,0.005815982818603516,-0.22937950491905212
1788673482898472400,1.201472412109375,0.20964622497558594,0.09699606895446777,-0.11958800256252289
1788673482914662000,1.217661865234375,0.3966178894042969,0.0740431547164917,-0.1827620267868042
1788673482930839000,1.233839111328125,0.4989461898803711,-0.11108016967773438,-0.14448192715644836
1788673482947039000,1.2500390625,0.5926723480224609,-0.26771974563598633,-0.10271474719047546
1788673482963251200,1.266251220703125,1.2258071899414062,-0.40302133560180664,-0.20193631947040558
1788673482979396600,1.282396728515625,1.8648433685302734,-0.654076337814331,-0.34844833612442017
1788673482995587000,1.298587158203125,1.8006505966186523,-0.6871142387390137,-0.48957890272140503
1788673483011771100,1.314771240234375,1.4004573822021484,-0.7322589159011841,-0.383062481880188
1788673483027984600,1.330984619140625,0.7888660430908203,-0.7663156390190125,-0.21600191295146942
1788673483044203000,1.347203125,0.44722938537597656,-0.7683491110801697,-0.07270821928977966
1788673483060358100,1.363358154296875,0.4969034194946289,-1.0299203395843506,0.18966639041900635
1788673483076473000,1.37947314453125,0.7002525329589844,-1.4923774003982544,0.6301523447036743
1788673483092667400,1.39566748046875,1.5274677276611328,-1.8871806859970093,0.6066893339157104
1788673483108835800,1.4118359375,1.9374628067016602,-1.7346857786178589,0.1059025228023529
1788673483125064000,1.42806396484375,1.4285497665405273,-1.4315216541290283,-0.38593238592147827
1788673483141226000,1.44422607421875,0.46800994873046875,-1.2195558547973633,-0.5186372995376587
1788673483157415400,1.46041552734375,-0.14869403839111328,-1.0876731872558594,-0.3236720561981201
1788673483173563400,1.4765634765625,-0.35185909271240234,-0.9982909560203552,-0.16112801432609558
1788673483189741300,1.4927412109375,-0.31417274475097656,-1.062110185623169,0.1051645576953888
1788673483205972000,1.508971923828125,-0.30878543853759766,-1.117253303527832,0.2473219335079193
1788673483222140700,1.525140625,-0.14496135711669922,-1.103440523147583,0.36406272649765015
1788673483238328800,1.541328857421875,0.02210712432861328,-1.1110787391662598,0.33618247509002686
1788673483254488800,1.55748876953125,0.15503501892089844,-1.0613677501678467,0.10949960350990295
1788673483270673400,1.57367333984375,-0.3828859329223633,-0.7930899858474731,-0.30447545647621155
1788673483286910000,1.589909912109375,-1.3416452407836914,-0.5145062208175659,-0.5326022505760193
1788673483303034000,1.6060341796875,-1.9251694679260254,-0.2575812339782715,-0.4473957419395447
1788673483319223000,1.62222314453125,-1.7892913818359375,-0.03345608711242676,-0.23591744899749756
1788673483335388000,1.638387939453125,-1.4955320358276367,0.08646583557128906,-0.13753479719161987
1788673483351582000,1.65458203125,-1.3142004013061523,0.1381382942199707,-0.2101050615310669
1788673483367785700,1.67078564453125,-0.9628067016601562,0.17516398429870605,-0.4040206968784332
1788673483383911400,1.686911376953125,-0.5968723297119141,0.17103207111358643,-0.5221543908119202
1788673483400049400,1.70304931640625,-0.3070182800292969,0.16066837310791016,-0.35627928376197815
1788673483416198000,1.719197998046875,-0.12886428833007812,0.08732712268829346,-0.002017199993133545
1788673483432406300,1.73540625,0.20293331146240234,0.04586517810821533,0.25419938564300537
1788673483448594000,1.751593994140625,0.6447229385375977,-0.08029806613922119,0.2735404968261719
1788673483464718600,1.767718505859375,1.2545900344848633,-0.08670675754547119,0.13737410306930542
1788673483480911400,1.783911376953125,1.5724658966064453,0.00940239429473877,-0.08792567253112793
1788673483497057300,1.800057373046875,0.9525022506713867,0.10047507286071777,-0.14244884252548218
1788673483513227300,1.816227294921875,0.6352605819702148,0.18131566047668457,-0.04493391513824463
1788673483529421600,1.832421630859375,1.1939477920532227,0.09176218509674072,-0.045377254486083984
1788673483545583900,1.848583984375,-4.080848217010498,-0.07681512832641602,1.350454568862915
1788673483561776000,1.864776123046875,0.9117298126220703,0.041803717613220215,0.7197054028511047
1788673483577919200,1.880919189453125,3.411543846130371,-0.6548125743865967,-0.3822022080421448
1788673483594123800,1.897123779296875,3.2433528900146484,-0.9174926280975342,-0.5341446399688721
1788673483610297600,1.913297607421875,1.7350883483886719,-0.8683935403823853,-0.6568094491958618
1788673483626463200,1.929463134765625,-0.8021430969238281,-0.7196584939956665,0.7225729823112488
1788673483642655700,1.94565576171875,0.025793075561523438,-0.4725019931793213,1.279799222946167
1788673483658792700,1.961792724609375,1.8886775970458984,-1.0664985179901123,1.2323980331420898
1788673483675002600,1.978002685546875,3.85697078704834,-1.8320550918579102,-0.14653337001800537
1788673483691177200,1.99417724609375,3.3976316452026367,-1.7450162172317505,-0.731782078742981
1788673483707343000,2.010343017578125,1.0341558456420898,-1.3153948783874512,-1.4296424388885498
1788673483723535000,2.02653515625,-0.6786594390869141,-1.140191912651062,-1.5768306255340576
1788673483739680500,2.042680419921875,-0.5193376541137695,-0.6371089816093445,-0.8234814405441284
1788673483755860700,2.05886083984375,0.6504707336425781,-0.15677011013031006,-0.5090298652648926
1788673483772036900,2.075036865234375,1.016031265258789,-0.08973348140716553,-0.14012038707733154
1788673483788164000,2.0911640625,-0.49250125885009766,-0.7203723192214966,0.17033618688583374
1788673483804354000,2.10735400390625,-2.0471410751342773,-0.5522007942199707,-0.47763943672180176
1788673483820503600,2.123503662109375,-2.467343807220459,-0.379339337348938,-0.5962478518486023
1788673483836686600,2.1396865234375,-2.147421360015869,-0.42333412170410156,-0.48987501859664917
1788673483852874800,2.155874755859375,-1.5013017654418945,-0.44553816318511963,-0.6132828593254089
1788673483869010000,2.172010009765625,-0.47505760192871094,-0.5758919715881348,-0.5815349817276001
1788673483885203500,2.188203369140625,0.48508167266845703,-0.6641377210617065,-0.5050303339958191
1788673483901371600,2.20437158203125,1.1420011520385742,-0.594882607460022,-0.8160130381584167
1788673483917568800,2.22056884765625,0.6960258483886719,-0.45485174655914307,-1.2958042621612549
1788673483933768200,2.236768310546875,-0.2805213928222656,-0.28380441665649414,-1.4003596305847168
1788673483949881300,2.25288134765625,-0.9286212921142578,-0.09712529182434082,-1.0072922706604004
1788673483966075000,2.269074951171875,-1.0558242797851562,0.04773402214050293,-0.28584036231040955
1788673483982264000,2.28526416015625,-0.8495798110961914,0.05380392074584961,0.25386524200439453
1788673483998455800,2.301455810546875,-0.46096038818359375,-0.10727787017822266,0.1724153757095337
1788673484014675500,2.317675537109375,-0.053915977478027344,-0.26843392848968506,-0.2377350628376007
1788673484030833700,2.333833740234375,0.13118457794189453,-0.2564864158630371,-0.4083985388278961
1788673484047025700,2.350025634765625,0.412322998046875,-0.2797938585281372,-0.37539979815483093
1788673484063218200,2.36621826171875,0.5553159713745117,-0.16917634010314941,-0.3165205121040344
1788673484079389200,2.38238916015625,0.6575345993041992,-0.0974661111831665,-0.24795088171958923
1788673484095612000,2.39861181640625,0.7410678863525391,-0.18361389636993408,-0.2479398548603058
1788673484111774200,2.414774169921875,1.050969123840332,-0.4695308208465576,-0.19251900911331177
1788673484127964000,2.4309638671875,1.6359882354736328,-0.6524143218994141,0.028598248958587646
1788673484144113700,2.44711376953125,1.97705078125,-0.7545101642608643,0.4184885621070862
1788673484160289000,2.4632890625,1.8416099548339844,-0.6624847650527954,0.47503823041915894
1788673484176482000,2.47948193359375,1.5852909088134766,-0.55985426902771,0.31778836250305176
1788673484192647400,2.4956474609375,1.0438766479492188,-0.6708841323852539,-0.052245259284973145
1788673484208840200,2.511840087890625,0.49622631072998047,-0.6045640707015991,-0.48444628715515137
1788673484224999400,2.52799951171875,0.20755863189697266,-0.8798820972442627,-0.1095079779624939
1788673484241184500,2.5441845703125,0.9458961486816406,-1.3877015113830566,0.22504287958145142
1788673484257423400,2.56042333984375,1.595672607421875,-1.314518690109253,-0.016258835792541504
1788673484273546000,2.5765458984375,1.6380958557128906,-1.1450700759887695,-0.15516281127929688
1788673484289737000,2.592737060546875,1.4609394073486328,-1.18271005153656,-0.4239771366119385
1788673484305901000,2.608901123046875,0.9414358139038086,-1.1283388137817383,-0.8001567125320435
1788673484322093300,2.62509326171875,0.0777120590209961,-1.0083351135253906,-0.7664059400558472
1788673484338285600,2.64128564453125,-0.5274620056152344,-0.8646621704101562,-0.5012956261634827
1788673484354423000,2.657423095703125,-0.7545289993286133,-0.7766315937042236,-0.14696896076202393
1788673484370609200,2.673609130859375,-0.8598480224609375,-0.7156907320022583,0.2337285280227661
1788673484386751700,2.689751708984375,-0.7042274475097656,-0.6961512565612793,0.2693129777908325
1788673484402952700,2.70595263671875,-0.6233444213867188,-0.629214882850647,0.018382787704467773
1788673484419069400,2.7220693359375,-0.6850452423095703,-0.5000457763671875,-0.20985853672027588
1788673484435223000,2.73822314453125,-0.6954002380371094,-0.4340939521789551,-0.2687596082687378
1788673484451414300,2.754414306640625,-0.5087337493896484,-0.37140679359436035,-0.4541761875152588
1788673484467560400,2.770560546875,-0.12333011627197266,-0.3190206289291382,-0.6445098519325256
1788673484483733200,2.786733154296875,-0.09237480163574219,-0.24350488185882568,-0.9121759533882141
1788673484499923500,2.80292333984375,-0.46027088165283203,0.014991283416748047,-0.8292723298072815
1788673484516084500,2.81908447265625,-4.504786014556885,0.08973050117492676,0.9945181608200073
1788673484532274700,2.835274658203125,-3.0542073249816895,1.164257526397705,2.9210174083709717
1788673484548412200,2.851412109375,1.3912410736083984,0.9218287467956543,-0.0007922649383544922
1788673484564617000,2.867616943359375,1.9306907653808594,-0.3841489553451538,-0.3596113324165344
1788673484580800000,2.883800048828125,0.4690227508544922,-0.2778667211532593,-0.27660536766052246
1788673484596926000,2.899926025390625,-0.3324146270751953,-0.10406255722045898,-0.1702331304550171
1788673484613119200,2.916119140625,-0.4194011688232422,-0.0691765546798706,0.2532010078430176
1788673484629263600,2.932263671875,0.4262065887451172,0.12415647506713867,0.6564019918441772
1788673484645441300,2.948441162109375,1.4988603591918945,0.4478788375854492,0.43234503269195557
1788673484661628700,2.964628662109375,2.031688690185547,0.41262269020080566,0.12414324283599854
1788673484677794600,2.980794677734375,2.0898828506469727,0.5023552179336548,-0.3757198452949524
1788673484693984800,2.99698486328125,0.9550018310546875,-0.5450180768966675,-0.02870917320251465
1788673484710145800,3.013145751953125,0.6542501449584961,-0.3955867290496826,-0.5436447858810425
1788673484726335200,3.029335205078125,1.4239959716796875,-0.42318737506866455,-0.12925291061401367
1788673484742528000,3.045528076171875,1.8862676620483398,-0.1496133804321289,0.3191249370574951
1788673484758658800,3.061658935546875,1.7898797988891602,-0.21017825603485107,0.6493484973907471
1788673484774800000,3.0777998046875,2.1637420654296875,-0.6351714134216309,0.721147894859314
1788673484790946000,3.093946044921875,2.728573799133301,-0.9218239784240723,0.6210672855377197
1788673484807122200,3.1101220703125,3.0954322814941406,-1.3914268016815186,0.32274746894836426
1788673484823301600,3.126301513671875,2.849581718444824,-1.4746538400650024,-0.28296607732772827
1788673484839440600,3.142440673828125,1.8881988525390625,-1.3626375198364258,-0.6511415243148804
1788673484855632600,3.158632568359375,0.8442764282226562,-1.1789085865020752,-0.7002791166305542
1788673484871790800,3.174790771484375,0.15096378326416016,-0.8425174951553345,-0.5698624849319458
1788673484887988000,3.190988037109375,-0.18626117706298828,-0.6358412504196167,-0.5350044965744019
1788673484904190200,3.207190185546875,-0.5690708160400391,-0.48844313621520996,-0.67099928855896
1788673484920333000,3.2233330078125,-0.89678955078125,-0.5745357275009155,-0.7676488161087036
1788673484936472000,3.23947216796875,-0.8430938720703125,-0.6795864105224609,-0.5345505475997925
1788673484952652800,3.25565283203125,-0.3776521682739258,-0.8654615879058838,-0.057607293128967285
1788673484968858400,3.2718583984375,-0.14941883087158203,-0.906043291091919,-0.11528009176254272
1788673484985069300,3.2880693359375,-0.3790550231933594,-0.8154351711273193,-0.27091002464294434
1788673485001221600,3.3042216796875,-0.6931228637695312,-0.7124601602554321,-0.39139479398727417
1788673485017410000,3.32041015625,-0.9208173751831055,-0.4883519411087036,-0.6062251329421997
1788673485033597000,3.336596923828125,-0.9415092468261719,-0.345822811126709,-0.46963727474212646
1788673485049814300,3.352814208984375,-1.0306396484375,-0.29146015644073486,-0.06717544794082642
1788673485066038500,3.36903857421875,-1.191415786743164,-0.25041747093200684,0.058533549308776855
1788673485082196500,3.385196533203125,-1.3609018325805664,-0.16588187217712402,0.012135148048400879
1788673485098386200,3.40138623046875,-1.0125179290771484,0.04527783393859863,0.11858952045440674
1788673485114532600,3.41753271484375,-0.6154356002807617,0.20676493644714355,0.24236845970153809
1788673485130711600,3.433711669921875,-0.4816598892211914,0.20158720016479492,0.48097413778305054
1788673485146939100,3.449939208984375,-0.8545265197753906,-0.09246015548706055,0.7247505784034729
1788673485163105000,3.46610498046875,-0.3183431625366211,-0.2456531524658203,0.35605937242507935
1788673485179294200,3.482294189453125,-0.15146923065185547,-0.36402249336242676,0.123210608959198
1788673485195454700,3.498454833984375,0.05140495300292969,-0.2632944583892822,0.014111876487731934
1788673485211637500,3.514637451171875,0.5176725387573242,-0.1465303897857666,-0.27256250381469727
1788673485227829500,3.53082958984375,1.0445566177368164,0.06068897247314453,-0.17482608556747437
1788673485243951900,3.546951904296875,0.8637895584106445,0.06471014022827148,-0.04807180166244507
1788673485260104700,3.563104736328125,0.7613744735717773,-0.20624327659606934,-0.14628183841705322
1788673485276275000,3.57927490234375,0.9764699935913086,-0.5678653717041016,-0.046424925327301025
1788673485292468700,3.59546875,1.1526851654052734,-0.7145041227340698,0.23277097940444946
1788673485308656600,3.61165673828125,1.4449481964111328,-0.5548001527786255,0.1781710982322693
1788673485324795600,3.627795654296875,1.478567123413086,-0.5559484958648682,0.14611798524856567
1788673485340933000,3.64393310546875,1.0820226669311523,-0.56583571434021,0.3187190890312195
1788673485357074700,3.66007470703125,0.80670166015625,-0.6753953695297241,0.6617729067802429
1788673485373283300,3.676283447265625,1.3452644348144531,-1.2906171083450317,1.2820682525634766
1788673485389456600,3.69245654296875,3.695995330810547,-1.806119441986084,1.7193021774291992
1788673485405604900,3.70860498046875,2.0566272735595703,-0.8450577259063721,-0.5012685060501099
1788673485421742800,3.724742919921875,1.2436599731445312,-1.2677631378173828,-0.537987470626831
1788673485437875700,3.740875732421875,-0.9453840255737305,-1.2197245359420776,0.0012089014053344727
1788673485454067200,3.757067138671875,-2.1570987701416016,-0.2412358522415161,-0.5055727362632751
1788673485470242300,3.7732421875,-0.28911876678466797,-0.6802990436553955,-0.32749122381210327
1788673485486392600,3.789392578125,-0.043335914611816406,-1.071822166442871,1.6325359344482422
1788673485502580200,3.805580322265625,0.43068885803222656,-0.046820878982543945,0.6387035846710205
1788673485518723300,3.821723388671875,-0.31473541259765625,-0.5312637090682983,0.3593023717403412
1788673485534896400,3.837896484375,-0.5545568466186523,-1.154295563697815,-0.09006175398826599
1788673485551085300,3.854085205078125,0.4689369201660156,-1.2038037776947021,0.4110257029533386
1788673485567247400,3.870247314453125,-0.03966999053955078,-0.562183141708374,0.8459608554840088
1788673485583437000,3.88643701171875,-1.8635554313659668,-0.586524486541748,0.5256710648536682
1788673485599565300,3.9025654296875,-1.733769416809082,-2.035006523132324,1.107054591178894
1788673485615732500,3.918732421875,-1.1199140548706055,-1.0568833351135254,0.26060402393341064
1788673485631917800,3.934917724609375,-1.0467453002929688,0.6658065319061279,-0.21995629370212555
1788673485648083700,3.951083740234375,-1.0947961807250977,0.05323028564453125,-0.3450431525707245
1788673485664267800,3.967267822265625,-1.3603181838989258,0.9653565883636475,-0.24854883551597595
1788673485680415500,3.98341552734375,-0.06331920623779297,1.9865689277648926,-1.4014511108398438
1788673485696588000,3.999588134765625,-0.5037555694580078,1.6060326099395752,-0.4352498948574066
1788673485712768300,4.015768310546875,-0.2871532440185547,0.3829081058502197,0.018218576908111572
1788673485728894700,4.031894775390625,0.24873733520507812,-0.01750636100769043,0.1098904013633728
1788673485745084200,4.048084228515625,-0.1699075698852539,0.30571866035461426,0.24474766850471497
1788673485761250800,4.064250732421875,-0.7055749893188477,0.524395227432251,-0.1565094292163849
1788673485777446100,4.080446044921875,0.2604351043701172,0.2972831726074219,-0.559334397315979
1788673485793642500,4.096642578125,1.1628332138061523,0.43558382987976074,-0.39344489574432373
1788673485809792800,4.112792724609375,1.478388786315918,0.2517971992492676,-0.25547701120376587
1788673485825983000,4.12898291015625,2.0684471130371094,0.14096570014953613,0.22231754660606384
1788673485842139600,4.1451396484375,2.872133255004883,0.20331883430480957,1.5006747245788574
1788673485858322000,4.161322021484375,2.894932746887207,-0.13486480712890625,1.653175711631775
1788673485874518000,4.17751806640625,1.7947940826416016,-0.35248613357543945,1.024806022644043
1788673485890658300,4.193658203125,0.46172046661376953,-0.14700746536254883,0.3936786949634552
1788673485906846000,4.209845947265625,-0.23960399627685547,-0.09120583534240723,-0.05634137988090515
1788673485923023400,4.2260234375,0.4628267288208008,0.07537269592285156,-0.23017460107803345
1788673485939191600,4.242191650390625,1.9311552047729492,-0.14489197731018066,0.6131407618522644
1788673485955382000,4.258382080078125,2.9935121536254883,-0.664875864982605,1.3623244762420654
1788673485971541500,4.27454150390625,2.6990623474121094,-0.9365030527114868,0.8283239603042603
1788673485987684400,4.290684326171875,1.0747642517089844,-0.7622213363647461,-0.05222329497337341
1788673486003817200,4.306817138671875,-0.6720113754272461,-0.4066743850708008,-0.6021984815597534
1788673486020025900,4.32302587890625,-1.409367561340332,-0.12462759017944336,-0.6069092750549316
1788673486036247600,4.33924755859375,-1.6750006675720215,0.04648184776306152,-0.22833839058876038
1788673486052413400,4.355413330078125,-1.4170169830322266,0.009157180786132812,0.03306040167808533
1788673486068554000,4.371553955078125,-0.7666158676147461,-0.22763776779174805,0.3569410741329193
1788673486084705800,4.387705810546875,0.1931018829345703,-0.42308616638183594,0.5743497610092163
1788673486100886000,4.403885986328125,0.40218162536621094,-0.6337873935699463,0.5497097373008728
1788673486117112300,4.4201123046875,-0.13250446319580078,-0.7021788358688354,0.09404437988996506
1788673486133284400,4.436284423828125,-0.5880212783813477,-0.6790453195571899,-0.37660515308380127
1788673486149472800,4.45247265625,-0.8078384399414062,-0.5501232147216797,-0.7616167664527893
1788673486165637400,4.468637451171875,-0.6265449523925781,-0.3396068811416626,-0.8309019804000854
1788673486181830400,4.484830322265625,-0.39255619049072266,-0.2150745391845703,-0.7177847623825073
1788673486198030000,4.501030029296875,-0.4255056381225586,-0.28630053997039795,-0.6637543439865112
1788673486214157600,4.517157470703125,-0.7672967910766602,-0.2275179624557495,-0.6919782161712646
1788673486230354200,4.533354248046875,-0.8124990463256836,-0.027873516082763672,-0.7487671375274658
1788673486246528500,4.549528564453125,-0.9814882278442383,0.1325843334197998,-0.6330873966217041
1788673486262726100,4.56572607421875,-0.9317302703857422,0.21398162841796875,-0.3095151484012604
1788673486278913300,4.581913330078125,-0.5658855438232422,0.26146769523620605,0.1829555779695511
1788673486295049500,4.598049560546875,-0.26677703857421875,0.10318493843078613,0.5810989141464233
1788673486311238100,4.614238037109375,0.2587165832519531,-0.0022170543670654297,0.5113112330436707
1788673486327378000,4.6303779296875,0.3977060317993164,-0.10863065719604492,0.043359220027923584
1788673486343583000,4.6465830078125,0.1511669158935547,-0.11410307884216309,-0.4472886323928833
1788673486359773700,4.662773681640625,-0.029388427734375,0.0005137920379638672,-0.5602892637252808
1788673486375928800,4.6789287109375,-0.003997802734375,0.0952610969543457,-0.2826818525791168
1788673486392119000,4.695119140625,0.30246639251708984,0.20260858535766602,-0.08268636465072632
1788673486408263400,4.711263427734375,0.9373197555541992,-0.06718039512634277,0.21683944761753082
1788673486424436000,4.72743603515625,1.3502092361450195,-0.35258030891418457,0.47665935754776
1788673486440596500,4.743596435546875,2.046097755432129,-0.5165032148361206,0.2962111830711365
1788673486456756700,4.7597568359375,2.244175910949707,-0.5681955814361572,-0.012915432453155518
1788673486472896800,4.775896728515625,1.9681110382080078,-0.230505108833313,-0.43280598521232605
1788673486489043500,4.79204345703125,1.2509098052978516,-0.08212685585021973,-0.46002301573753357
1788673486505217000,4.808217041015625,0.6785898208618164,-0.041950225830078125,0.14257442951202393
1788673486521406200,4.82440625,0.5884561538696289,-0.3148081302642822,0.9007688164710999
1788673486537574700,4.84057470703125,1.1605749130249023,-0.795975923538208,1.2536633014678955
1788673486553764900,4.856764892578125,1.7824935913085938,-1.0359176397323608,1.0141221284866333
1788673486569920000,4.872919921875,1.776047706604004,-1.0330395698547363,0.2613123059272766
1788673486586103800,4.889103759765625,1.2256145477294922,-0.741051197052002,-0.46974897384643555
1788673486602295000,4.905294921875,0.5901212692260742,-0.5225107669830322,-0.5160947442054749
1788673486618469400,4.921469482421875,-0.1969156265258789,-0.4582318067550659,-0.024986177682876587
1788673486634657800,4.93765771484375,-0.9950637817382812,-0.35651540756225586,0.4245225191116333
1788673486650813000,4.95381298828125,-1.4268159866333008,-0.3836197853088379,0.6829293370246887
1788673486667001600,4.970001708984375,-1.4340124130249023,-0.35341131687164307,0.7271139025688171
1788673486683196700,4.98619677734375,-1.3234691619873047,-0.2614433765411377,0.5871753692626953
1788673486699328500,5.00232861328125,-1.0464982986450195,-0.3316934108734131,0.25258108973503113
1788673486715516700,5.0185166015625,-0.5508699417114258,-0.37288713455200195,0.20072585344314575
1788673486731687700,5.034687744140625,-0.17409896850585938,-0.4002760648727417,0.30646318197250366
1788673486747885000,5.050885009765625,-0.09606456756591797,-0.3558814525604248,-0.09816823899745941
1788673486764084200,5.067084228515625,-0.4198722839355469,-0.18035435676574707,-0.5710123777389526
1788673486780216800,5.083216796875,-0.6698007583618164,0.014322996139526367,-0.581842303276062
1788673486796352300,5.099352294921875,-0.6482839584350586,0.1598421335220337,-0.05568845570087433
1788673486812526000,5.115526123046875,-0.647730827331543,0.2345738410949707,0.3315008282661438
1788673486828739300,5.1317392578125,-0.8908309936523438,0.30056166648864746,0.29501327872276306
1788673486844964000,5.147964111328125,-0.7967662811279297,0.23359143733978271,0.14459195733070374
1788673486861109800,5.16410986328125,-0.39516353607177734,0.18319296836853027,0.15483681857585907
1788673486877294800,5.180294921875,0.08631324768066406,0.11278963088989258,0.3421090543270111
1788673486893477600,5.1964775390625,0.09208106994628906,0.22549140453338623,0.25843358039855957
1788673486909638400,5.212638427734375,-0.31635284423828125,0.41263020038604736,0.049151092767715454
1788673486925855700,5.228855712890625,-0.608952522277832,0.5129501819610596,-0.015976667404174805
1788673486942007800,5.2450078125,-0.3445091247558594,0.3852487802505493,0.16118919849395752
1788673486958144300,5.261144287109375,0.465667724609375,0.24468636512756348,0.25609108805656433
1788673486974283800,5.27728369140625,0.724919319152832,-0.018685102462768555,0.5281856656074524
1788673486990446600,5.293446533203125,1.3366127014160156,-0.2423461675643921,0.5927903056144714
1788673487006664000,5.309663818359375,2.0989809036254883,-0.6443531513214111,0.5297247171401978
1788673487022781400,5.325781494140625,2.165097236633301,-0.6396523714065552,0.17746591567993164
1788673487038929200,5.34192919921875,1.7727394104003906,-0.3347688913345337,-0.39009204506874084
1788673487055082500,5.35808251953125,1.5547971725463867,-0.29080331325531006,-0.4936666190624237
1788673487071264800,5.3742646484375,1.93603515625,-0.41890716552734375,-0.13135230541229248
1788673487087484400,5.390484375,2.362680435180664,-0.7371863126754761,-0.18757793307304382
1788673487103606300,5.406606201171875,2.515477180480957,-1.0012000799179077,-0.5250304937362671
1788673487119764000,5.422763916015625,2.172245979309082,-1.0393295288085938,-0.8130588531494141
1788673487135913000,5.438912841796875,1.3625307083129883,-0.8342031240463257,-0.953965425491333
1788673487152091400,5.45509130859375,0.6149969100952148,-0.591999888420105,-0.850040078163147
1788673487168284700,5.47128466796875,-0.03642559051513672,-0.39814603328704834,-0.4929252862930298
1788673487184409000,5.4874091796875,-0.3680419921875,-0.1294717788696289,-0.13181036710739136
1788673487200606500,5.5036064453125,-0.44917869567871094,-0.12766075134277344,0.004368096590042114
1788673487216749300,5.519749267578125,-0.37084197998046875,-0.2797811031341553,0.11194005608558655
1788673487232950800,5.53595068359375,-0.49335193634033203,-0.37893402576446533,0.02094075083732605
1788673487249139700,5.5521396484375,-0.6180849075317383,-0.39350032806396484,-0.2284282147884369
1788673487265281300,5.56828125,-0.40360260009765625,-0.36120152473449707,-0.36583757400512695
1788673487281470500,5.584470458984375,-0.23760414123535156,-0.45925450325012207,-0.31429407000541687
1788673487297612000,5.600612060546875,-0.3617286682128906,-0.44297635555267334,-0.5229686498641968
1788673487313816000,5.616816162109375,-0.903498649597168,-0.30218398571014404,-0.7738581895828247
1788673487330004700,5.633004638671875,-1.5043163299560547,-0.18264472484588623,-0.7361541390419006
1788673487346146000,5.64914599609375,-1.4804878234863281,-0.005285382270812988,-0.5601028203964233
1788673487362284500,5.665284423828125,-1.1247987747192383,0.07864212989807129,-0.14125525951385498
1788673487378428000,5.681427978515625,-1.0389432907104492,0.04088425636291504,0.007418692111968994
1788673487394641200,5.69764111328125,-1.1353378295898438,0.06805789470672607,-0.09314575791358948
1788673487410830800,5.713830810546875,-0.9821176528930664,-0.021720290184020996,-0.03203698992729187
1788673487426991600,5.72999169921875,-0.684234619140625,-0.04635763168334961,0.2115355134010315
1788673487443130400,5.74613037109375,-0.6497182846069336,0.03899669647216797,0.3965931236743927
1788673487459275800,5.76227587890625,-0.8568782806396484,0.1584550142288208,0.07592049241065979
1788673487475447300,5.778447265625,-0.4355459213256836,0.2240198850631714,-0.215389221906662
1788673487491638000,5.794637939453125,0.11446762084960938,0.22440695762634277,-0.3741694986820221
1788673487507809800,5.810809814453125,0.5765295028686523,0.2825002670288086,-0.2635279893875122
1788673487523951900,5.826951904296875,0.6747875213623047,0.17622137069702148,-0.11962781846523285
1788673487540107500,5.843107421875,0.8724660873413086,-0.09609866142272949,0.08216199278831482
1788673487556289000,5.8592890625,1.4099140167236328,-0.19712460041046143,0.32180124521255493
1788673487572453400,5.875453369140625,1.9358577728271484,-0.24340975284576416,0.27395501732826233
1788673487588618200,5.8916181640625,1.9754657745361328,-0.3185793161392212,0.0649888664484024
1788673487604757000,5.907757080078125,1.9433650970458984,-0.3836301565170288,0.000027336180210113525
1788673487620920300,5.92392041015625,2.0862245559692383,-0.518185019493103,0.256422758102417
1788673487637092400,5.94009228515625,2.0412654876708984,-0.6336843967437744,0.4577733874320984
1788673487653282000,5.956281982421875,1.7701663970947266,-0.799098014831543,0.5203683376312256
1788673487669414100,5.9724140625,1.6307430267333984,-0.8451413512229919,0.30873483419418335
1788673487685602800,5.988602783203125,1.2760343551635742,-0.6774988770484924,-0.06359940022230148
1788673487701772800,6.004772705078125,0.7792501449584961,-0.5085866451263428,-0.24551378190517426
1788673487717975000,6.02097509765625,0.5232419967651367,-0.5138572454452515,-0.24927321076393127
1788673487734181600,6.037181640625,0.13005638122558594,-0.5185339450836182,-0.1351824402809143
1788673487750331100,6.0533310546875,-0.40160369873046875,-0.503241777420044,-0.03657275810837746
1788673487766473200,6.06947314453125,-0.537501335144043,-0.46095728874206543,0.18779133260250092
1788673487782656000,6.085656005859375,-0.38170433044433594,-0.4743260145187378,0.2769533097743988
1788673487798862000,6.101862060546875,-0.4980144500732422,-0.3920266628265381,0.1351526826620102
1788673487815080200,6.118080078125,-0.5464458465576172,-0.2318798303604126,-0.2033138871192932
1788673487831228400,6.134228515625,0.0184326171875,-0.26268231868743896,-0.29882606863975525
1788673487847419000,6.1504189453125,0.2237234115600586,-0.25364768505096436,-0.25734958052635193
1788673487863600600,6.1666005859375,-0.2015371322631836,-0.08495724201202393,-0.36804065108299255
1788673487879813000,6.182813232421875,-0.9099674224853516,0.21027421951293945,-0.44637608528137207
1788673487896035800,6.199035888671875,-1.544973373413086,0.24428057670593262,-0.3700411915779114
1788673487912192800,6.21519287109375,-1.6061935424804688,0.39163458347320557,-0.20119743049144745
1788673487928380700,6.231380615234375,-1.2835636138916016,0.5107311010360718,0.025496259331703186
1788673487944532200,6.2475322265625,-0.8054962158203125,0.5019619464874268,0.14277265965938568
1788673487960706800,6.263706787109375,-0.0058383941650390625,0.6042459011077881,0.37875574827194214
1788673487976928300,6.27992822265625,0.37983226776123047,0.47493934631347656,0.6761482954025269
1788673487993090800,6.2960908203125,-1.1615562438964844,0.34978723526000977,-0.4586474895477295
1788673488009278500,6.312278564453125,-1.370901107788086,0.4944957494735718,-0.893334150314331
1788673488025436000,6.328435791015625,-0.6302394866943359,0.35824644565582275,-0.18645857274532318
1788673488041617000,6.344616943359375,0.7929525375366211,0.2735786437988281,0.6746828556060791
1788673488057790700,6.360790771484375,1.6034841537475586,0.5225917100906372,1.1320751905441284
1788673488073912800,6.376912841796875,1.1041507720947266,0.40107786655426025,0.2861865162849426
1788673488090050300,6.39305029296875,-0.12819290161132812,0.44091153144836426,-0.7727360129356384
1788673488106199000,6.409198974609375,-0.7299928665161133,0.23230242729187012,-0.7133181691169739
1788673488122393300,6.425393310546875,0.09772777557373047,-0.060387372970581055,0.18291528522968292
1788673488138593300,6.44159326171875,1.5145978927612305,-0.3241586685180664,0.7229451537132263
1788673488154718500,6.457718505859375,2.0488834381103516,-0.2918891906738281,0.5019076466560364
1788673488170859300,6.473859375,1.4392480850219727,-0.2655518054962158,0.08109290897846222
1788673488187004200,6.490004150390625,0.9587869644165039,-0.3134807348251343,-0.2245643585920334
1788673488203202300,6.506202392578125,0.9864006042480469,-0.2834266424179077,-0.2823159098625183
1788673488219390500,6.522390380859375,1.687727928161621,-0.6383742094039917,0.051300495862960815
1788673488235527200,6.538527099609375,2.4256467819213867,-0.9132377505302429,0.20387035608291626
1788673488251714600,6.554714599609375,2.91933536529541,-0.9261186718940735,0.003259606659412384
1788673488267843600,6.570843505859375,2.180569648742676,-0.7935848236083984,-0.447574257850647
1788673488284038100,6.5870380859375,1.003310203552246,-0.5877895355224609,-0.7071279287338257
1788673488300207600,6.60320751953125,-0.03188323974609375,-0.47889137268066406,-0.6214221715927124
1788673488316357600,6.619357666015625,-0.6529245376586914,-0.3642081022262573,-0.5710031986236572
1788673488332545800,6.6355458984375,-1.0717086791992188,-0.3149087429046631,-0.4385463297367096
1788673488348681000,6.651680908203125,-1.3437042236328125,-0.3704594373703003,-0.1026080921292305
1788673488364848600,6.6678486328125,-0.8121786117553711,-0.47520434856414795,0.5383733510971069
1788673488381037800,6.684037841796875,0.4689512252807617,-0.7420517206192017,0.7954082489013672
1788673488397196300,6.7001962890625,0.9525976181030273,-0.8730002641677856,0.3493306040763855
1788673488413382700,6.716382568359375,0.4288959503173828,-0.7982547879219055,-0.2449708729982376
1788673488429525200,6.732525146484375,-0.3936939239501953,-0.48741471767425537,-0.5670535564422607
1788673488445702400,6.748702392578125,-0.8321142196655273,-0.28037142753601074,-0.06840259581804276
1788673488461813800,6.764813720703125,-0.9973154067993164,-0.16348612308502197,0.32065603137016296
1788673488477982200,6.780982177734375,-1.1185789108276367,-0.21162009239196777,0.21832123398780823
1788673488494120700,6.79712060546875,-1.461446762084961,-0.26066088676452637,0.09356352686882019
1788673488510269400,6.81326953125,-1.6496357917785645,-0.25537729263305664,-0.04389548301696777
1788673488526451000,6.829450927734375,-1.3554573059082031,-0.26805007457733154,0.09849710762500763
1788673488542638000,6.84563818359375,-0.6546487808227539,-0.3909316062927246,0.38971346616744995
1788673488558763300,6.86176318359375,-0.11342906951904297,-0.4139840602874756,0.6643040776252747
1788673488574948900,6.877948974609375,0.06534290313720703,-0.23314082622528076,0.8522757291793823
1788673488591115000,6.894114990234375,0.19084548950195312,-0.14964330196380615,0.6377041935920715
1788673488607307500,6.9103076171875,0.38741493225097656,-0.13904154300689697,-0.04150417819619179
1788673488623501600,6.92650146484375,0.5435123443603516,-0.1898179054260254,-0.7668610215187073
1788673488639635200,6.94263525390625,0.5256624221801758,-0.21120059490203857,-1.0582751035690308
1788673488655824000,6.958823974609375,0.3125171661376953,-0.1462305784225464,-0.7370437383651733
1788673488671997200,6.9749970703125,0.44675636291503906,0.07807445526123047,0.30706191062927246
1788673488688199000,6.991198974609375,0.9777212142944336,0.10599768161773682,0.9131082892417908
1788673488704398600,7.007398681640625,1.433370590209961,0.06142020225524902,0.7568613290786743
1788673488720541700,7.023541748046875,1.1453447341918945,0.19189798831939697,0.040155768394470215
1788673488736679400,7.039679443359375,0.4336414337158203,0.2694813013076782,-0.5459330081939697
1788673488752861700,7.05586181640625,0.022480010986328125,0.25203871726989746,-0.41310977935791016
1788673488769074700,7.07207470703125,0.6811647415161133,0.16921782493591309,0.28754258155822754
1788673488785289000,7.0882890625,1.9461297988891602,-0.10716879367828369,0.7699314951896667
1788673488801436200,7.104436279296875,2.9709243774414062,-0.36885392665863037,0.8437089920043945
1788673488817626000,7.120626220703125,2.5056629180908203,-0.4142035245895386,0.42550432682037354
1788673488833796400,7.13679638671875,1.1796607971191406,-0.20332729816436768,-0.330044150352478
1788673488850009000,7.153009033203125,0.22856521606445312,-0.01777803897857666,-0.6160886883735657
1788673488866228200,7.169228271484375,-0.33348655700683594,0.0936349630355835,-0.16425597667694092
1788673488882385200,7.18538525390625,-0.6969118118286133,0.10897541046142578,0.5863432884216309
1788673488898574600,7.20157470703125,-1.0753288269042969,0.1355900764465332,1.1366709470748901
1788673488914765000,7.21776513671875,-1.4140491485595703,0.17060601711273193,1.413638949394226
1788673488930935600,7.233935546875,-1.6841483116149902,0.07434594631195068,1.0923216342926025
1788673488947166000,7.250166015625,-1.3119268417358398,0.021518945693969727,0.4169907569885254
1788673488963325700,7.26632568359375,-0.781834602355957,-0.07788705825805664,0.17399564385414124
1788673488979514600,7.2825146484375,-0.46461009979248047,0.037250518798828125,0.05378939211368561
1788673488995669200,7.298669189453125,-0.5598125457763672,0.2912168502807617,-0.04723548889160156
1788673489011852000,7.31485205078125,-0.8309946060180664,0.4801912307739258,-0.15241184830665588
1788673489028089300,7.33108935546875,-1.0643911361694336,0.5922651290893555,-0.24113930761814117
1788673489044212500,7.34721240234375,-1.0991325378417969,0.681587815284729,-0.41818082332611084
1788673489060403500,7.363403564453125,-1.1191368103027344,0.7620211839675903,-0.5573233962059021
1788673489076568000,7.379568115234375,-0.9474048614501953,0.8489220142364502,-0.3712754249572754
1788673489092755700,7.395755615234375,-0.6499900817871094,0.7931885719299316,0.11134836822748184
1788673489108952000,7.4119521484375,-0.47272396087646484,0.6750984191894531,0.45356306433677673
1788673489125091300,7.42809130859375,-0.1716785430908203,0.6268161535263062,0.3830890655517578
1788673489141280800,7.44428076171875,-0.007046699523925781,0.5481815338134766,-0.015461735427379608
1788673489157420800,7.4604208984375,0.19170284271240234,0.4948399066925049,-0.5714721083641052
1788673489173624300,7.476624267578125,0.5568075180053711,0.5820585489273071,-0.8237700462341309
1788673489189813800,7.492813720703125,0.9536199569702148,0.5660521984100342,-0.5824582576751709
1788673489205963000,7.508962890625,0.9510374069213867,0.4596984386444092,-0.18038667738437653
1788673489222129000,7.52512890625,0.7158136367797852,0.32989585399627686,0.08296225219964981
1788673489238272300,7.541272216796875,0.9308862686157227,0.06536853313446045,0.47713083028793335
1788673489254487000,7.557487060546875,1.5092735290527344,-0.3098069429397583,0.8869817852973938
1788673489270677200,7.57367724609375,1.4898643493652344,-0.3597910404205322,0.8424230217933655
1788673489286837800,7.589837646484375,0.7451486587524414,-0.11506080627441406,0.33333131670951843
1788673489303028500,7.606028564453125,0.5899934768676758,-0.10570025444030762,0.09120505303144455
1788673489319173000,7.622173095703125,1.4194746017456055,-0.2999730110168457,0.24804925918579102
1788673489335343400,7.63834326171875,2.387296676635742,-0.6641683578491211,0.5604504942893982
1788673489351517000,7.654516845703125,2.9587364196777344,-0.8935755491256714,0.39140379428863525
1788673489367680000,7.670679931640625,2.6052303314208984,-1.0022456645965576,0.0483795702457428
1788673489383822800,7.68682275390625,0.9137907028198242,-0.9062427282333374,-0.48908430337905884
1788673489399955200,7.702955078125,-0.5490922927856445,-0.5847612619400024,-1.0016345977783203
1788673489416130800,7.719130859375,-1.0251245498657227,-0.5125632286071777,-0.9762721061706543
1788673489432316400,7.73531640625,-0.8282918930053711,-0.38354313373565674,-0.8663377165794373
1788673489448487400,7.7514873046875,-0.6402721405029297,-0.22966647148132324,-0.6645379066467285
1788673489464628000,7.7676279296875,-0.3755378723144531,-0.21609902381896973,-0.2169055938720703
1788673489480783600,7.78378369140625,-0.12720489501953125,-0.289531946182251,0.1447259932756424
1788673489496967400,7.799967529296875,-0.2138233184814453,-0.44756102561950684,0.19144955277442932
1788673489513163300,7.816163330078125,-0.21109962463378906,-0.49318861961364746,-0.13883529603481293
1788673489529292300,7.832292236328125,-0.0034742355346679688,-0.3618980646133423,-0.5277705192565918
1788673489545482200,7.848482177734375,-0.06437397003173828,-0.26563215255737305,-0.7532007098197937
1788673489561648600,7.864648681640625,-0.43325233459472656,-0.15968644618988037,-0.7541310787200928
1788673489577841200,7.880841064453125,-0.7432193756103516,-0.0678485631942749,-0.515844464302063
1788673489594036000,7.897035888671875,-1.0030698776245117,0.05033862590789795,-0.28302717208862305
1788673489610169900,7.913169921875,-1.056075096130371,0.1600281000137329,-0.13499639928340912
1788673489626358500,7.929358642578125,-0.9699029922485352,0.19075512886047363,-0.14200152456760406
1788673489642526700,7.945526611328125,-0.8278694152832031,0.19796991348266602,-0.009061560034751892
1788673489658726000,7.961725830078125,-0.9729070663452148,0.23956871032714844,0.210382878780365
1788673489674892000,7.97789208984375,-1.0063657760620117,0.29384875297546387,0.5451077818870544
1788673489691035000,7.994034912109375,-0.6326370239257812,0.3178863525390625,0.8344553709030151
1788673489707223300,8.010223388671875,0.005198478698730469,0.3229372501373291,0.6055271625518799
1788673489723403800,8.02640380859375,0.33922290802001953,0.3532916307449341,0.17340701818466187
1788673489739610000,8.042610107421876,0.5435047149658203,0.4083878993988037,-0.1937200427055359
1788673489755824400,8.058824462890625,1.0646486282348633,0.34868645668029785,-0.13555368781089783
1788673489771971300,8.074971435546875,1.472123146057129,0.26909875869750977,0.034854911267757416
1788673489788161500,8.09116162109375,1.7240734100341797,0.11465573310852051,0.1535300612449646
1788673489804348700,8.1073486328125,2.0934839248657227,-0.10981440544128418,0.21025428175926208
1788673489820551200,8.12355126953125,2.2883052825927734,-0.3851698637008667,-0.07121241092681885
1788673489836757800,8.1397578125,2.0166406631469727,-0.19071722030639648,-0.5670469403266907
1788673489852921300,8.15592138671875,1.3231525421142578,-0.032044053077697754,-0.6017606258392334
1788673489869062400,8.1720625,1.163060188293457,0.045350074768066406,0.11418496817350388
1788673489885256400,8.18825634765625,1.8296794891357422,-0.247336745262146,1.1746073961257935
1788673489901432300,8.204432373046876,2.2938060760498047,-0.7736238241195679,0.8798567056655884
1788673489917647000,8.220647216796875,1.5534420013427734,-0.9548406004905701,-0.3694462180137634
1788673489933814500,8.236814453125,0.14206600189208984,-0.8273236155509949,-1.2448067665100098
1788673489949954300,8.252954345703126,-0.5063533782958984,-0.6848432421684265,-1.2398231029510498
1788673489966099500,8.269099365234375,-0.035079002380371094,-0.5483592748641968,-0.4315321743488312
1788673489982281500,8.285281494140625,0.5303916931152344,-0.42420661449432373,0.44688138365745544
1788673489998475300,8.301475341796875,0.2059764862060547,-0.36613988876342773,0.9435968995094299
1788673490014595000,8.317594970703125,-0.8376998901367188,-0.19625425338745117,0.9732837080955505
1788673490030785500,8.33378564453125,-1.746973991394043,-0.038594603538513184,0.699900209903717
1788673490046952000,8.349951904296875,-1.83237886428833,-0.01070249080657959,0.4855407774448395
1788673490063145200,8.366145263671875,-1.1803617477416992,-0.2320016622543335,0.39392295479774475
1788673490079332600,8.38233251953125,-0.16619205474853516,-0.33839869499206543,0.28794583678245544
1788673490095470000,8.398469970703125,0.19735240936279297,-0.25123047828674316,0.07151952385902405
1788673490111654000,8.41465380859375,-0.42566967010498047,-0.14696669578552246,-0.036480143666267395
1788673490127794000,8.4307939453125,-1.409048080444336,-0.05734407901763916,-0.25171104073524475
1788673490143997200,8.4469970703125,-1.8585443496704102,-0.029465675354003906,-0.5681889057159424
1788673490160182000,8.46318212890625,-1.5412473678588867,0.02075815200805664,-0.7418204545974731
1788673490176327000,8.479326904296874,-1.1180143356323242,0.08329272270202637,-0.5517156720161438
1788673490192515600,8.495515625,-0.4825096130371094,0.284440279006958,-0.13013136386871338
1788673490208659500,8.511659423828124,0.07916927337646484,0.37827277183532715,0.4928774833679199
1788673490224874000,8.5278740234375,0.036719322204589844,0.4532508850097656,0.6221897006034851
1788673490241065500,8.5440654296875,-0.44746875762939453,0.6032364368438721,0.22908490896224976
1788673490257218300,8.56021826171875,-0.4280691146850586,0.9489456415176392,-0.43846166133880615
1788673490273402600,8.576402587890625,0.5232028961181641,1.1810450553894043,-0.7393434047698975
1788673490289541400,8.592541259765625,1.6761789321899414,1.1222310066223145,-0.7232000827789307
1788673490305708500,8.60870849609375,1.9390840530395508,0.8140550851821899,-0.3708120882511139
1788673490321897000,8.62489697265625,1.6144542694091797,0.4909508228302002,0.07195615023374557
1788673490338058000,8.64105810546875,1.4638919830322266,-0.025844573974609375,0.5508543848991394
1788673490354196200,8.6571962890625,1.494645118713379,-0.5097296237945557,0.9297126531600952
1788673490370343700,8.67334375,1.389577865600586,-0.497542142868042,0.805613100528717
1788673490386519300,8.689519287109375,1.172825813293457,-0.2023928165435791,0.24071276187896729
1788673490402708000,8.7057080078125,0.9260749816894531,-0.30737924575805664,0.13548599183559418
1788673490418827800,8.721827880859376,1.089228630065918,-0.585303783416748,0.36369192600250244
1788673490435016700,8.7380166015625,1.3535614013671875,-0.8737542629241943,0.4618428945541382
1788673490451175000,8.7541748046875,1.424468994140625,-1.0855638980865479,0.10009650886058807
1788673490467359000,8.77035888671875,0.7866659164428711,-0.8715970516204834,-0.5385350584983826
1788673490483504600,8.786504638671875,-0.2933998107910156,-0.7086373567581177,-0.568688690662384
1788673490499630000,8.802630126953124,-0.7173538208007812,-0.6264251470565796,-0.0727158933877945
1788673490515819500,8.818819580078125,-0.1065969467163086,-0.5930428504943848,0.08945534378290176
1788673490531978800,8.834978759765624,0.6961889266967773,-0.48874199390411377,0.0487823560833931
1788673490548171800,8.851171875,0.7208623886108398,-0.3065110445022583,-0.08998243510723114
1788673490564368000,8.867367919921875,-0.3326406478881836,-0.2776668071746826,0.014024343341588974
1788673490580503300,8.88350341796875,-1.4832420349121094,-0.37261199951171875,0.2931044399738312
1788673490596692000,8.89969189453125,-1.9136834144592285,-0.4948556423187256,0.5028892755508423
1788673490612861700,8.91586181640625,-1.0667028427124023,-0.5032150745391846,0.38932564854621887
1788673490629066800,8.932066650390626,-0.0339202880859375,-0.4986794590950012,-0.0699048712849617
1788673490645277200,8.948277099609374,0.21924781799316406,-0.3924170732498169,-0.3921603858470917
1788673490661426200,8.96442626953125,-0.23639869689941406,-0.2554734945297241,-0.46866658329963684
1788673490677567200,8.980567138671875,-0.7310543060302734,-0.029470324516296387,-0.2514914274215698
1788673490693750000,8.99675,-0.3968238830566406,0.060249924659729004,0.39715078473091125
1788673490709914600,9.01291455078125,-0.3217744827270508,0.25624334812164307,0.32415270805358887
1788673490726137900,9.029137939453125,-0.8811807632446289,0.3509688377380371,-0.04794028401374817
1788673490742297900,9.0452978515625,-1.3827972412109375,0.2076650857925415,-0.082135409116745
1788673490758438100,9.061438232421875,-0.9132146835327148,0.01342320442199707,0.0005798637866973877
1788673490774628400,9.07762841796875,0.3872804641723633,0.17387712001800537,-0.05953717231750488
1788673490790796500,9.093796630859375,1.1178913116455078,0.15282082557678223,-0.12227419018745422
1788673490807022000,9.11002197265625,1.1820793151855469,0.14579439163208008,0.06300407648086548
1788673490823186200,9.126186279296874,0.2880134582519531,0.646192193031311,0.5765745639801025
1788673490839381200,9.14238134765625,-0.6635036468505859,0.6348809003829956,0.33261722326278687
1788673490855538200,9.1585380859375,-0.4334068298339844,0.32662737369537354,-0.21184447407722473
1788673490871720200,9.17472021484375,0.4250211715698242,0.4945516586303711,-0.3595917820930481
1788673490887953000,9.190952880859374,0.4481468200683594,0.6289981603622437,0.06297407299280167
1788673490904074500,9.207074462890626,0.2048511505126953,-0.17999708652496338,1.7688608169555664
1788673490920263200,9.22326318359375,1.2554073333740234,-0.42766237258911133,1.7283183336257935
1788673490936424700,9.2394248046875,2.2937917709350586,0.002390265464782715,1.2402873039245605
1788673490952593200,9.25559326171875,2.2650346755981445,0.3118699789047241,-0.8134580850601196
1788673490968765700,9.271765625,2.7576675415039062,-0.9907938838005066,-0.8286933898925781
1788673490984886500,9.287886474609374,3.6221485137939453,-1.5469987392425537,-0.8072540760040283
1788673491001027800,9.30402783203125,3.652857780456543,-1.258474349975586,-0.47282910346984863
1788673491017172200,9.320172119140626,1.9201278686523438,-1.2536605596542358,-0.02968388795852661
1788673491033348900,9.336348876953124,0.8607616424560547,-0.41146910190582275,0.006014049053192139
1788673491049521700,9.352521728515624,0.25196075439453125,-0.0068089962005615234,-0.21618828177452087
1788673491065664800,9.368664794921875,-0.06765365600585938,-0.27626287937164307,0.35939526557922363
1788673491081806000,9.38480615234375,-0.8015775680541992,-0.262798547744751,0.29464834928512573
1788673491097948400,9.400948486328126,-1.3885364532470703,-0.3288983106613159,0.10281294584274292
1788673491114152400,9.41715234375,-1.8391714096069336,-0.20424818992614746,0.2147037833929062
1788673491130337500,9.433337646484375,-1.7758111953735352,-0.10421574115753174,0.3879823088645935
1788673491146479400,9.449479248046876,-1.559718132019043,-0.20756614208221436,0.24954546988010406
1788673491162592800,9.4655927734375,-0.86004638671875,-0.3283597230911255,0.2377605438232422
1788673491178735400,9.4817353515625,-0.8370342254638672,-0.6384129524230957,0.2531784176826477
1788673491194942200,9.497942138671876,-1.11468505859375,-0.6365567445755005,0.37613001465797424
1788673491211127300,9.514127197265625,-1.6204118728637695,-0.2668788433074951,0.8707572817802429
1788673491227279600,9.530279541015625,-1.5374832153320312,0.24139535427093506,0.27449560165405273
1788673491243417600,9.54641748046875,-1.2631044387817383,0.38714098930358887,-0.8983375430107117
1788673491259561000,9.56256103515625,-1.3658857345581055,0.01697397232055664,-1.160323977470398
1788673491275735000,9.578735107421876,-1.3096084594726562,-0.05320608615875244,-0.6846504211425781
1788673491291924700,9.5949248046875,-0.6763811111450195,-0.45984339714050293,0.9743244051933289
1788673491308096000,9.611095947265625,-0.5111141204833984,0.4496896266937256,0.7006164193153381
1788673491324288500,9.62728857421875,-0.19877243041992188,-0.11537635326385498,2.3620197772979736
1788673491340432100,9.64343212890625,0.2616615295410156,0.4684767723083496,1.0795574188232422
1788673491356606700,9.659606689453126,0.2713937759399414,0.8717739582061768,-1.0010966062545776
1788673491372788000,9.6757880859375,0.5845661163330078,0.9085379838943481,-1.9777404069900513
1788673491388941300,9.69194140625,-0.1728658676147461,0.5263110399246216,-1.5535157918930054
1788673491405080800,9.708080810546875,0.30344486236572266,0.14650440216064453,-0.28738248348236084
1788673491421238800,9.72423876953125,1.7885303497314453,0.05871164798736572,1.0317163467407227
1788673491437411300,9.740411376953125,2.3710460662841797,0.24431681632995605,2.153909683227539
1788673491453588200,9.756588134765625,2.1814393997192383,0.021915078163146973,2.350774049758911
1788673491469718000,9.772718017578125,1.652261734008789,-0.41533076763153076,1.7532836198806763
1788673491485879800,9.7888798828125,1.6241865158081055,-0.5825916528701782,0.747957170009613
1788673491502047200,9.805047119140625,2.128856658935547,-0.448361873626709,-0.37133368849754333
1788673491518225700,9.8212255859375,2.398871421813965,-0.32442808151245117,-0.9034773707389832
1788673491534410200,9.83741015625,2.2047510147094727,-0.5558335781097412,-0.70648193359375
1788673491550551600,9.853551513671874,2.0824337005615234,-0.7725996971130371,-0.45013558864593506
1788673491566741000,9.869740966796876,1.5510969161987305,-0.7951220273971558,-0.5090105533599854
1788673491582916600,9.88591650390625,0.5962133407592773,-0.590823233127594,-0.6691279411315918
1788673491599121400,9.902121337890625,0.14538860321044922,-0.2261643409729004,-0.7091522216796875
1788673491615330300,9.918330322265625,-0.22584819793701172,0.16971421241760254,-0.9386423826217651
1788673491631475700,9.934475830078124,-0.47454071044921875,0.17621839046478271,-0.8795422315597534
1788673491647663900,9.950663818359375,0.07317638397216797,0.08753037452697754,-0.32731786370277405
1788673491663852300,9.966852294921875,-0.13210773468017578,-0.07837390899658203,-0.09461164474487305
1788673491680019700,9.983019775390625,-0.6642274856567383,-0.27652907371520996,0.028662443161010742
1788673491696241700,9.99924169921875,-0.7657918930053711,-0.3500936031341553,0.05936187505722046
1788673491712401700,10.015401611328125,-0.7779464721679688,-0.2317272424697876,-0.07979294657707214
1788673491728593200,10.03159326171875,-0.9595127105712891,0.006451606750488281,0.018299341201782227
1788673491744741600,10.04774169921875,-1.1527585983276367,0.22505879402160645,0.11718717217445374
1788673491760913000,10.063912841796874,-1.0562219619750977,0.3991992473602295,0.035569578409194946
1788673491777143800,10.080143798828125,-0.9352359771728516,0.42138445377349854,-0.03849278390407562
1788673491793309400,10.096309326171875,-0.5784587860107422,0.3964264392852783,-0.05991861969232559
1788673491809497900,10.112497802734374,-0.19052982330322266,0.34307384490966797,-0.05872827023267746
1788673491825646800,10.128646728515625,-0.2546415328979492,0.28082263469696045,0.08806359022855759
1788673491841823500,10.144823486328125,-0.6501760482788086,0.1399763822555542,0.487812340259552
1788673491858056200,10.16105615234375,-0.7991018295288086,0.16019165515899658,0.6795209646224976
1788673491874224600,10.177224609375,-0.4183034896850586,0.23237848281860352,0.7383831739425659
1788673491890412000,10.193412109375,0.000171661376953125,0.15799963474273682,0.41945433616638184
1788673491906572000,10.209572021484375,0.10490703582763672,0.0678412914276123,-0.06516476720571518
1788673491922759200,10.22575927734375,0.3357810974121094,0.08273518085479736,-0.3453476130962372
1788673491938952200,10.2419521484375,0.9256734848022461,0.04927551746368408,-0.3795762360095978
1788673491955075600,10.25807568359375,1.3126811981201172,-0.26678478717803955,-0.011411331593990326
1788673491971267300,10.274267333984374,1.4774274826049805,-0.44458091259002686,0.49428558349609375
1788673491987411700,10.29041162109375,1.5408134460449219,-0.5097590684890747,0.6933820843696594
1788673492003603000,10.30660302734375,1.697896957397461,-0.5043970346450806,0.4003050923347473
1788673492019793400,10.32279345703125,1.7332897186279297,-0.3714388608932495,-0.31982970237731934
1788673492035934000,10.338933837890625,1.6147956848144531,-0.4220693111419678,-0.7480651140213013
1788673492052073200,10.3550732421875,1.3812789916992188,-0.5393524765968323,-0.6438966989517212
1788673492068218000,10.371218017578125,1.7761964797973633,-0.7744113802909851,-0.2729054093360901
1788673492084428000,10.387427978515625,2.0824031829833984,-0.8573723435401917,0.01242382824420929
1788673492100614000,10.40361376953125,1.6106328964233398,-0.6634485721588135,0.04081051051616669
1788673492116760800,10.4197607421875,0.5679521560668945,-0.45713531970977783,-0.10551267117261887
1788673492132951800,10.435951904296875,-0.24739933013916016,-0.3567061424255371,-0.1194131076335907
1788673492149092000,10.452092041015625,-0.4978618621826172,-0.31485581398010254,-0.16403107345104218
1788673492165292300,10.468292236328125,-0.6603765487670898,-0.3602414131164551,-0.118098184466362
1788673492181482000,10.48448193359375,-0.9344310760498047,-0.43322956562042236,-0.19252143800258636
1788673492197637400,10.500637451171874,-1.1083860397338867,-0.45754528045654297,-0.2087823450565338
1788673492213824500,10.516824462890625,-1.1780223846435547,-0.4666316509246826,-0.1630953699350357
1788673492229966600,10.532966552734376,-1.1470632553100586,-0.3759899139404297,-0.15967027842998505
1788673492246138000,10.54913818359375,-0.8945503234863281,-0.3325566053390503,-0.06481626629829407
1788673492262324500,10.565324462890626,-0.6006879806518555,-0.3679276704788208,-0.008459419012069702
1788673492278490600,10.58149072265625,-0.34111690521240234,-0.21759307384490967,-0.11882585287094116
1788673492294678000,10.597677978515625,-0.31149768829345703,-0.10388696193695068,-0.2136692851781845
1788673492310828500,10.61382861328125,-0.6745767593383789,-0.13140594959259033,-0.3760046660900116
1788673492327007500,10.630007568359375,-1.2135734558105469,-0.1223829984664917,-0.4910321533679962
1788673492343195100,10.646195068359376,-1.5611381530761719,-0.01720404624938965,-0.4333012104034424
1788673492359316500,10.66231640625,-1.3976716995239258,0.1829068660736084,-0.21424290537834167
1788673492375504600,10.678504638671875,-0.9554815292358398,0.21442842483520508,0.16553258895874023
1788673492391661800,10.694661865234375,-0.28597450256347656,0.17603039741516113,0.3708885908126831
1788673492407853600,10.710853515625,0.1405038833618164,0.15609967708587646,0.2740079462528229
1788673492424049000,10.727048828125,0.09946155548095703,0.18847417831420898,-0.05165025591850281
1788673492440178400,10.743178466796875,-0.32802677154541016,0.2969862222671509,-0.3112044036388397
1788673492456366300,10.759366455078125,-0.4770631790161133,0.40729081630706787,-0.37992045283317566
1788673492472536800,10.775536865234375,-0.4740018844604492,0.5572803020477295,-0.4988860487937927
1788673492488737300,10.7917373046875,0.0718536376953125,0.5953556299209595,0.03549778461456299
1788673492504862500,10.807862548828124,0.7903308868408203,0.38769352436065674,0.6070195436477661
1788673492521001500,10.82400146484375,1.138258934020996,-0.012546062469482422,0.5990076661109924
1788673492537165000,10.8401650390625,1.052006721496582,-0.43645966053009033,0.5804150104522705
1788673492553345000,10.856344970703125,0.9929294586181641,-0.6071454286575317,0.7900413870811462
1788673492569553700,10.8725537109375,1.030756950378418,-0.35772860050201416,0.8116977214813232
1788673492585767700,10.888767578125,1.660435676574707,-0.3130779266357422,0.9503331184387207
1788673492601918700,10.904918701171875,2.6588172912597656,-0.40357887744903564,0.8079429864883423
1788673492618109200,10.921109130859374,2.9230566024780273,-0.6059457659721375,0.44170644879341125
1788673492634271500,10.937271484375,2.390655517578125,-0.6281671524047852,0.00897248089313507
1788673492650468900,10.95346875,1.4916353225708008,-0.45279717445373535,-0.19035503268241882
1788673492666692000,10.969692138671874,0.5854740142822266,-0.36579203605651855,-0.22765828669071198
1788673492682846200,10.98584619140625,0.16332149505615234,-0.2280423641204834,-0.30913305282592773
1788673492699035000,11.002034912109375,0.2054901123046875,-0.16460561752319336,-0.18795278668403625
1788673492715227400,11.018227294921875,0.25595855712890625,-0.16791701316833496,-0.03874911367893219
1788673492731399000,11.03439892578125,0.7508726119995117,-0.4156096577644348,1.8149163722991943
1788673492747624400,11.05062451171875,-0.7851009368896484,0.34798264503479004,-0.1072065681219101
1788673492763787300,11.066787353515625,-1.4277544021606445,-0.13988125324249268,-0.33563196659088135
1788673492779927000,11.082927001953125,-1.4255609512329102,-0.7612169981002808,-0.34950780868530273
1788673492796073700,11.09907373046875,-0.18960094451904297,-0.24666792154312134,0.07379224896430969
1788673492812250000,11.11525,0.1721973419189453,-0.12755703926086426,-0.14578315615653992
1788673492828483600,11.131483642578125,0.47833919525146484,-0.396892786026001,-0.16250742971897125
1788673492844608300,11.147608154296876,-0.0901346206665039,-0.19922834634780884,-0.18671798706054688
1788673492860797400,11.16379736328125,0.166595458984375,0.100486159324646,-0.7984817028045654
1788673492876960000,11.1799599609375,-0.5966615676879883,-0.19065797328948975,-0.0752679854631424
1788673492893155600,11.196155517578125,-0.8218460083007812,0.2352367639541626,-0.1273723989725113
1788673492909355800,11.212355712890625,-0.4861793518066406,0.2878354787826538,-0.3387346863746643
1788673492925483800,11.22848388671875,-0.2225484848022461,-0.20777058601379395,0.150560200214386
1788673492941678300,11.24467822265625,0.1125020980834961,-0.3252633213996887,0.22461682558059692
1788673492957825300,11.2608251953125,0.32522106170654297,-0.10965955257415771,0.17193296551704407
1788673492974037200,11.277037353515626,0.3455772399902344,-0.05773723125457764,0.050077617168426514
1788673492990205000,11.293204833984374,0.21448516845703125,0.0332334041595459,-0.10951420664787292
1788673493006354000,11.30935400390625,0.10222911834716797,0.23760569095611572,-0.11116340756416321
1788673493022546700,11.325546630859375,0.39640140533447266,0.17554664611816406,0.06142592430114746
1788673493038691300,11.34169140625,0.9441547393798828,0.07467758655548096,0.06820696592330933
1788673493054902800,11.35790283203125,1.5734548568725586,-0.08743607997894287,-0.10618242621421814
1788673493071074000,11.374073974609376,2.25559139251709,-0.3014035224914551,0.09992587566375732
1788673493087223800,11.390223876953126,2.3327808380126953,-0.4989258646965027,0.07728183269500732
1788673493103395000,11.40639501953125,1.9505558013916016,-0.585342526435852,-0.09886163473129272
1788673493119540700,11.422540771484375,0.8327503204345703,-0.36307549476623535,-0.3785087466239929
1788673493135711200,11.438711181640626,-0.16894245147705078,-0.22272872924804688,-0.5042703151702881
1788673493151897900,11.45489794921875,-0.6376132965087891,-0.21791326999664307,0.03789633512496948
1788673493168068400,11.471068359375,0.03911018371582031,-0.5205494165420532,0.5054330825805664
1788673493184212500,11.48721240234375,1.2918033599853516,-0.7227579951286316,0.5810084342956543
1788673493200348400,11.503348388671874,1.908158302307129,-0.7919172048568726,0.36866146326065063
1788673493216523000,11.51952294921875,1.6131401062011719,-0.546000599861145,0.11226081848144531
1788673493232713700,11.535713623046876,0.7831087112426758,-0.10058480501174927,-0.37890294194221497
1788673493248887600,11.551887451171876,0.00040721893310546875,0.05947136878967285,-0.33225348591804504
1788673493265081600,11.56808154296875,-2.163109302520752,1.5468195676803589,0.7622823715209961
1788673493281223700,11.5842236328125,-1.3427915573120117,-0.5251794457435608,0.8600390553474426
1788673493297401300,11.6004013671875,-2.361391544342041,0.07144451141357422,1.042539119720459
1788673493313597000,11.616596923828125,-1.1109237670898438,-0.4310835599899292,0.8310139775276184
1788673493329724400,11.632724365234376,-0.1986980438232422,-0.5458822846412659,0.38349103927612305
1788673493345902300,11.64890234375,0.3837299346923828,-0.6833148002624512,0.49956977367401123
1788673493362065000,11.66506494140625,0.19618797302246094,-0.6864016056060791,0.678443968296051
1788673493378252500,11.68125244140625,-0.3307199478149414,-0.3072988986968994,0.611828625202179
1788673493394445000,11.697445068359375,-1.240086555480957,0.1459648609161377,0.19994580745697021
1788673493410575600,11.71357568359375,-1.6218299865722656,0.5278976559638977,-0.2344869077205658
1788673493426764300,11.729764404296875,-1.5809440612792969,0.6401625275611877,-0.09438437223434448
1788673493442931000,11.745930908203125,-1.5606117248535156,0.7066458463668823,0.6085578799247742
1788673493459133700,11.7621337890625,-1.4896955490112305,0.8875244855880737,0.6517845392227173
1788673493475342300,11.77834228515625,-1.2994842529296875,0.9204570651054382,0.5254202485084534
1788673493491488500,11.794488525390625,-0.8083000183105469,0.7871454954147339,0.3681660294532776
1788673493507628000,11.8106279296875,-0.23551559448242188,0.4708769917488098,0.24823307991027832
1788673493523810600,11.826810546875,0.051102638244628906,0.1962631344795227,0.2999727725982666
1788673493540019000,11.84301904296875,0.13477611541748047,0.347292959690094,0.35514307022094727
1788673493556235800,11.85923583984375,0.32528209686279297,0.6611212491989136,0.542461633682251
1788673493572392000,11.875391845703126,0.6874980926513672,0.6870930194854736,0.35793954133987427
1788673493588532500,11.891532470703124,1.0046157836914062,0.49388188123703003,0.059621214866638184
1788673493604725800,11.907725830078125,1.4300165176391602,0.22424453496932983,-0.025898277759552002
1788673493620897500,11.9238974609375,1.6099967956542969,-0.21424227952957153,0.06779032945632935
1788673493637127200,11.940127197265625,1.6543874740600586,-0.7226439714431763,0.17248940467834473
1788673493653288000,11.956287841796875,1.5609130859375,-0.9328810572624207,0.7793514728546143
1788673493669424600,11.972424560546875,0.8500757217407227,-0.6154457926750183,0.9861063957214355
1788673493685566200,11.988566162109375,0.6416940689086914,-0.24419426918029785,0.09809273481369019
1788673493701738000,12.004738037109375,1.5378961563110352,-0.23503917455673218,-0.627688467502594
1788673493717953300,12.020953369140624,2.61057186126709,-0.6532195806503296,-0.21688225865364075
1788673493734123000,12.037123046875,1.9494304656982422,-1.0646870136260986,0.0750853419303894
1788673493750312700,12.053312744140625,1.4604434967041016,-0.801293134689331,0.2916158437728882
1788673493766465500,12.069465576171876,1.4510860443115234,-0.7030370235443115,0.37348389625549316
1788673493782648300,12.0856484375,1.2695989608764648,-0.47345632314682007,-0.16435623168945312
1788673493798837200,12.101837158203125,0.7630252838134766,-0.43441373109817505,-0.22791939973831177
1788673493814957800,12.117957763671875,0.06679725646972656,-0.5291076898574829,-0.1063985824584961
1788673493831147000,12.13414697265625,-0.2849617004394531,-0.46759265661239624,-0.09019988775253296
1788673493847304700,12.1503046875,-0.27628135681152344,-0.3745679259300232,-0.12129241228103638
1788673493863499000,12.1664990234375,-0.6058130264282227,-0.34187430143356323,-0.22525009512901306
1788673493879690000,12.18268994140625,-0.8904237747192383,-0.39698243141174316,-0.2517963945865631
1788673493895826200,12.198826171875,-0.9661226272583008,-0.47067609429359436,-0.08285856246948242
1788673493912013800,12.215013916015625,-0.8429117202758789,-0.47036075592041016,-0.04918169975280762
1788673493928154400,12.231154296875,-0.5131559371948242,-0.24711519479751587,-0.09320449829101562
1788673493944356000,12.247356201171876,-0.7535724639892578,-0.011318087577819824,-0.15055933594703674
1788673493960542200,12.263542236328124,-1.0590543746948242,0.07002979516983032,-0.2993883192539215
1788673493976690200,12.279690185546874,-1.3515987396240234,0.06623417139053345,-0.31259289383888245
1788673493992881700,12.295881591796874,-1.6702041625976562,0.08026283979415894,-0.1774919629096985
1788673494009026000,12.312026123046875,-1.3761672973632812,0.20267009735107422,-0.07345479726791382
1788673494025242000,12.3282421875,-0.7159881591796875,0.15861356258392334,-0.07173347473144531
1788673494041432300,12.344432373046875,-0.3549518585205078,0.03453260660171509,-0.0071190595626831055
1788673494057589200,12.36058935546875,0.020679473876953125,0.061693429946899414,0.08190321922302246
1788673494073779000,12.376779052734374,0.4704551696777344,0.07182294130325317,0.2643936276435852
1788673494089920500,12.39292041015625,0.4838218688964844,0.10895216464996338,0.25438398122787476
1788673494106099500,12.409099365234376,-0.042458534240722656,0.26794612407684326,0.1183851957321167
1788673494122291700,12.425291748046876,-0.2559041976928711,0.5621132850646973,0.08367133140563965
1788673494138461000,12.4414609375,0.07685470581054688,0.7636310458183289,-0.07923442125320435
1788673494154626000,12.4576259765625,0.6264743804931641,0.6343252658843994,-0.0361517071723938
1788673494170778600,12.473778564453125,1.079782485961914,0.14749598503112793,0.13264703750610352
1788673494186957600,12.48995751953125,1.324106216430664,-0.12533462047576904,0.15285742282867432
1788673494203147300,12.506147216796874,1.4223861694335938,-0.31821489334106445,-0.17371273040771484
1788673494219321900,12.52232177734375,1.7744216918945312,-0.32705259323120117,-0.21508300304412842
1788673494235515600,12.538515625,1.5873823165893555,0.06290543079376221,-0.5674291849136353
1788673494251679000,12.554678955078124,0.9294977188110352,0.22120237350463867,-0.8192021250724792
1788673494267866600,12.57086669921875,0.7022132873535156,-0.03401446342468262,-0.5851036906242371
1788673494284062000,12.58706201171875,0.8968658447265625,-0.7543562650680542,0.055148541927337646
1788673494300192500,12.603192626953126,1.8751983642578125,-1.0227965116500854,0.5245516300201416
1788673494316381000,12.619380859375,2.0394296646118164,-0.930692195892334,0.49330854415893555
1788673494332535600,12.63553564453125,1.2561464309692383,-0.6769870519638062,-0.20353937149047852
1788673494348732000,12.65173193359375,0.44087791442871094,-0.42411985993385315,-0.9901930093765259
1788673494364935200,12.66793505859375,-0.31438732147216797,-0.3793727159500122,-0.7520436644554138
1788673494381078800,12.684078857421875,-0.8989887237548828,-0.3668375015258789,-0.2937760353088379
1788673494397267700,12.700267822265625,-1.0524673461914062,-0.3136554956436157,0.04043567180633545
1788673494413443300,12.716443359375,-0.6854686737060547,-0.33071136474609375,0.05029404163360596
1788673494429653500,12.732653564453125,-0.23256587982177734,-0.4133346378803253,0.13115745782852173
1788673494445863400,12.748863525390625,0.0011138916015625,-0.44431376457214355,0.1631563901901245
1788673494462014500,12.765014404296876,-0.019220352172851562,-0.41863954067230225,0.09984564781188965
1788673494478157000,12.781156982421875,-0.14524078369140625,-0.3862416744232178,0.23435920476913452
1788673494494346500,12.797346435546874,-0.31347179412841797,-0.21424975991249084,0.4826529622077942
1788673494510514700,12.8135146484375,-0.3640251159667969,0.10072773694992065,0.31659984588623047
1788673494526687500,12.8296875,-0.8813972473144531,0.3237231373786926,0.27069616317749023
1788673494542840300,12.84584033203125,-1.1797428131103516,0.47200220823287964,0.15572404861450195
1788673494559029200,12.862029296875,-1.1080207824707031,0.6032238006591797,0.10367977619171143
1788673494575169800,12.878169677734375,-0.9004316329956055,0.5639259219169617,-0.022899866104125977
1788673494591338500,12.89433837890625,-0.27974987030029297,0.5546958446502686,-0.013491392135620117
1788673494607564800,12.910564697265626,0.32857799530029297,0.5539796948432922,0.1804342269897461
1788673494623727900,12.926727783203125,0.2368173599243164,0.35859572887420654,-0.04803788661956787
1788673494639916000,12.942916015625,-0.3215360641479492,0.3490259647369385,-0.33259642124176025
1788673494656066300,12.95906640625,-0.6934747695922852,0.42908310890197754,-0.29136574268341064
1788673494672244700,12.97524462890625,-0.16040611267089844,0.6634522676467896,-0.2264832854270935
1788673494688479500,12.9914794921875,0.4555540084838867,0.8095551133155823,-0.1467607617378235
1788673494704651800,13.00765185546875,0.6210060119628906,0.7424389719963074,-0.22820746898651123
1788673494720838400,13.02383837890625,0.4825553894042969,0.5408332347869873,-0.3235187530517578
1788673494736994600,13.03999462890625,0.5668506622314453,0.263765811920166,-0.34689247608184814
1788673494753182200,13.05618212890625,0.9781885147094727,-0.23468631505966187,-0.4307743310928345
1788673494769373700,13.072373779296875,1.4877605438232422,-0.5473165512084961,-0.43919092416763306
1788673494785497900,13.088497802734375,1.4504499435424805,-0.46955716609954834,-0.6193884611129761
1788673494801653200,13.1046533203125,1.0309486389160156,-0.5403342843055725,-0.6915373802185059
1788673494817824800,13.12082470703125,1.1490240097045898,-0.6801959276199341,-0.4859352111816406
1788673494834017000,13.13701708984375,1.7834844589233398,-1.0437352657318115,-0.410961389541626
1788673494850189600,13.153189453125,2.4077444076538086,-1.3833413124084473,-0.34472203254699707
1788673494866328600,13.16932861328125,2.6125898361206055,-1.396080493927002,-0.45995962619781494
1788673494882520300,13.185520263671876,1.9700145721435547,-1.214866042137146,-0.8603640794754028
1788673494898667300,13.201667236328126,0.8933706283569336,-0.8690072298049927,-0.8632981777191162
1788673494914875100,13.217875244140625,0.1368389129638672,-0.6093086004257202,-0.9507126808166504
1788673494931055600,13.2340556640625,0.12005805969238281,-0.5786421895027161,-0.8347864151000977
1788673494947202000,13.2502021484375,0.2103281021118164,-0.5552091002464294,-0.8998830914497375
1788673494963340800,13.2663408203125,-1.8939905166625977,-0.23869842290878296,-0.4667038917541504
1788673494979467800,13.2824677734375,-0.09274101257324219,-0.559738278388977,-0.7017314434051514
1788673494995668200,13.298668212890625,0.5200347900390625,-0.4450070858001709,-0.19417917728424072
1788673495011857400,13.314857421875,-0.030109405517578125,-0.4016546607017517,0.1868804693222046
1788673495028013000,13.331012939453124,-1.2966947555541992,-0.2929416298866272,-0.4303473234176636
1788673495044201200,13.347201171875,-1.885972023010254,0.0698326826095581,-0.44749319553375244
1788673495060348200,13.36334814453125,-1.1425647735595703,0.23955518007278442,0.1543567180633545
1788673495076522500,13.3795224609375,-0.2478780746459961,0.28534942865371704,-0.28616929054260254
1788673495092711700,13.395711669921875,-0.2948579788208008,0.3696625828742981,-0.47310981154441833
1788673495108877600,13.411877685546875,-1.2460212707519531,0.5309840440750122,-0.45988959074020386
1788673495125018400,13.428018310546875,-2.1343865394592285,0.6878409385681152,-0.1953936219215393
1788673495141153000,13.444153076171874,-2.0435447692871094,0.842484712600708,-0.02333766222000122
1788673495157336000,13.460336181640624,-0.7252063751220703,0.7898261547088623,-0.0829729437828064
1788673495173508600,13.476508544921876,0.48107147216796875,0.4759960174560547,0.04290682077407837
1788673495189638700,13.492638671875,0.8303489685058594,0.2717210054397583,-0.026291608810424805
1788673495205800700,13.50880078125,0.33183860778808594,0.1315687894821167,0.04858344793319702
1788673495221954600,13.52495458984375,-0.034964561462402344,0.18131577968597412,0.2731456756591797
1788673495238142500,13.541142578125,-0.00128173828125,0.36889636516571045,0.3008607029914856
1788673495254341600,13.557341552734375,0.3777198791503906,0.5393106937408447,-0.0069803595542907715
1788673495270479600,13.573479736328125,0.8412809371948242,0.5448368787765503,-0.20950710773468018
1788673495286646800,13.589646728515625,1.2004146575927734,0.10823583602905273,-0.030645132064819336
1788673495302823000,13.605822998046875,1.5143365859985352,-0.20096755027770996,-0.024737834930419922
1788673495319022000,13.62202197265625,2.030191421508789,-0.33205848932266235,-0.24329763650894165
1788673495335208400,13.63820849609375,2.041545867919922,-0.2718181610107422,-0.5271610021591187
1788673495351348000,13.654347900390626,1.2215023040771484,-0.047846198081970215,-0.903133749961853
1788673495367536000,13.6705361328125,0.4937772750854492,-0.14617371559143066,-0.8085797429084778
1788673495383713800,13.6867138671875,0.5026187896728516,-0.7380969524383545,-0.1693497896194458
1788673495399919900,13.702919921875,1.8192577362060547,-1.164758563041687,0.47753047943115234
1788673495416108300,13.7191083984375,2.945446014404297,-1.0388309955596924,0.3938862085342407
1788673495432252000,13.735251953125,2.3757429122924805,-0.7225013375282288,-0.20643478631973267
1788673495448438300,13.751438232421876,1.2307453155517578,-0.30465245246887207,-1.1718931198120117
1788673495464658400,13.767658447265624,0.3963308334350586,0.1897568702697754,-1.6163151264190674
1788673495480822800,13.78382275390625,-0.09465408325195312,0.1637885570526123,-1.3430778980255127
1788673495497033000,13.800032958984374,-0.5692558288574219,-0.13658994436264038,-1.023486852645874
1788673495513187800,13.816187744140626,-0.9051275253295898,-0.2560286521911621,-0.6282800436019897
1788673495529324800,13.83232470703125,-0.6991596221923828,0.011595845222473145,-0.46795547008514404
1788673495545510100,13.84851025390625,-0.4898996353149414,0.05143320560455322,-0.36514949798583984
1788673495561674000,13.864674072265625,-0.1390676498413086,-0.1234634518623352,0.5751352906227112
1788673495577892900,13.880892822265626,-0.1706705093383789,0.07860410213470459,0.38294827938079834
1788673495594050600,13.897050537109376,-0.6623954772949219,0.20689809322357178,-0.5188205242156982
1788673495610238200,13.91323828125,-1.5070810317993164,0.1377112865447998,-0.8455168008804321
1788673495626387500,13.929387451171875,-1.8163957595825195,0.3033860921859741,-0.9024080634117126
1788673495642560000,13.94556005859375,-1.4234647750854492,0.3377976417541504,-0.8551480770111084
1788673495658794000,13.9617939453125,-0.8352069854736328,0.22958195209503174,-0.8706528544425964
1788673495674960100,13.977960205078125,-0.8696146011352539,0.1817643642425537,-0.7723650932312012
1788673495691097300,13.994097412109374,-1.1086654663085938,0.17451000213623047,-0.2245628982782364
1788673495707252700,14.010252685546876,-1.23358154296875,0.29524362087249756,0.47820955514907837
1788673495723440400,14.0264404296875,-0.9222917556762695,0.4062846899032593,0.8493539094924927
1788673495739633400,14.04263330078125,-0.3370523452758789,0.5068594217300415,0.5431715250015259
1788673495755757300,14.05875732421875,0.21754932403564453,0.3785865306854248,0.071533203125
1788673495771896000,14.07489599609375,0.39173221588134766,0.3223522901535034,-0.443379670381546
1788673495788070400,14.0910703125,0.7289638519287109,0.5518615245819092,-0.5658210515975952
1788673495804267000,14.10726708984375,0.9385700225830078,0.6485209465026855,-0.15659575164318085
1788673495820454000,14.123453857421875,1.2230815887451172,0.6240816116333008,0.12178623676300049
1788673495836625000,14.139625,1.3543109893798828,0.31652212142944336,0.18486632406711578
1788673495852764400,14.155764404296875,1.4499692916870117,-0.12272489070892334,0.29337090253829956
1788673495868906000,14.171906005859375,1.5989351272583008,-0.4335114359855652,0.5344176292419434
1788673495885104600,14.188104736328125,1.1928558349609375,-0.3513205051422119,0.699828565120697
1788673495901289700,14.204289794921875,0.7666454315185547,-0.18184804916381836,0.801630973815918
1788673495917438200,14.220438232421875,1.1388959884643555,-0.29190635681152344,0.844689130783081
1788673495933578800,14.236578857421875,1.8219070434570312,-0.5461862087249756,0.6875146627426147
1788673495949724200,14.25272412109375,1.9116878509521484,-0.7087615132331848,0.3527229428291321
1788673495965894000,14.268893798828126,1.5944108963012695,-0.7717108726501465,-0.018150538206100464
1788673495982082000,14.28508203125,1.2162160873413086,-0.8352064490318298,-0.14195851981639862
1788673495998240000,14.301239990234375,1.2894487380981445,-0.812088131904602,-0.1823900043964386
1788673496014380800,14.317380859375,1.124140739440918,-0.8325539827346802,-0.193854421377182
1788673496030523600,14.333523681640624,0.5774955749511719,-0.7136378884315491,-0.44960469007492065
1788673496046695200,14.349695068359376,0.04892730712890625,-0.5782924294471741,-0.6787917613983154
1788673496062882000,14.365882080078125,-0.32942771911621094,-0.5380910634994507,-0.7367790937423706
1788673496079049700,14.3820498046875,-0.5572319030761719,-0.5961636304855347,-0.46347230672836304
1788673496095237000,14.398237060546874,-0.43957042694091797,-0.5312384366989136,0.084482342004776
1788673496111389000,14.414388916015625,-0.1567373275756836,-0.4321022033691406,0.306142121553421
1788673496127565000,14.43056494140625,-0.28072071075439453,-0.3118969798088074,0.13119488954544067
1788673496143753700,14.446753662109375,-0.8163032531738281,-0.05622828006744385,-0.1947476714849472
1788673496159877600,14.462877685546875,-1.4340400695800781,0.04957175254821777,-0.5630112290382385
1788673496176066800,14.47906689453125,-1.8324475288391113,0.10589075088500977,-0.8996899724006653
1788673496192223200,14.49522314453125,-2.0256800651550293,0.09454119205474854,-0.7240824699401855
1788673496208396500,14.511396484375,-1.784475326538086,0.12459790706634521,-0.522741436958313
1788673496224586000,14.5275859375,-1.1524124145507812,0.158669114112854,-0.28440362215042114
1788673496240711200,14.543711181640624,-0.390625,0.18536651134490967,0.1757446825504303
1788673496256898300,14.559898193359375,0.02698993682861328,0.2064361572265625,0.2778624892234802
1788673496273071000,14.576071044921875,0.0570526123046875,0.2117784023284912,0.2029813826084137
1788673496289269000,14.59226904296875,-0.19815444946289062,0.0759584903717041,0.13646632432937622
1788673496305462800,14.608462890625,-0.22423934936523438,0.07984781265258789,0.08435183763504028
1788673496321601000,14.62460107421875,-0.05514717102050781,0.26283740997314453,-0.008555859327316284
1788673496337788200,14.6407880859375,0.4626016616821289,0.3205331563949585,-0.3025261163711548
1788673496353968000,14.656968017578125,1.059077262878418,0.087776780128479,-0.5267359018325806
1788673496370177800,14.673177734375,1.4158573150634766,-0.2839047908782959,-0.5512337684631348
1788673496386392600,14.689392578125,1.5551137924194336,-0.34445202350616455,-0.17630498111248016
1788673496402542800,14.70554296875,1.4028549194335938,-0.4133570194244385,0.3185775578022003
1788673496418683000,14.721682861328125,1.3721580505371094,-0.30888211727142334,0.5898178219795227
1788673496434870000,14.7378701171875,1.6006078720092773,-0.04798102378845215,0.4416661858558655
1788673496451086300,14.75408642578125,1.437936782836914,-0.04349255561828613,0.37043261528015137
1788673496467307300,14.770307373046874,1.3511037826538086,-0.30283522605895996,0.38678595423698425
1788673496483458300,14.786458251953125,1.9592885971069336,-0.6926450133323669,0.5962782502174377
1788673496499649000,14.80264892578125,2.664608955383301,-0.9410657286643982,0.8160846829414368
1788673496515776500,14.818776611328126,2.516119956970215,-0.8340383768081665,0.5629631280899048
1788673496531990000,14.834989990234375,1.5301322937011719,-0.659760057926178,-0.039235591888427734
1788673496548128000,14.8511279296875,0.36966896057128906,-0.6178286075592041,-0.0780181884765625
1788673496564298500,14.867298583984375,-0.28937625885009766,-0.573207676410675,0.16322976350784302
1788673496580491800,14.88349169921875,-0.5716104507446289,-0.4360846281051636,0.3787631392478943
1788673496596648000,14.89964794921875,-0.7585344314575195,-0.44354450702667236,0.5054171681404114
1788673496612835300,14.91583544921875,-1.1502151489257812,-0.4014725685119629,0.29403960704803467
1788673496629030700,14.93203076171875,-1.5408763885498047,-0.24228179454803467,0.06551969051361084
1788673496645159200,14.9481591796875,-1.6187896728515625,-0.23475754261016846,0.15908288955688477
1788673496661352700,14.964352783203125,-1.440587043762207,-0.29256343841552734,0.41245609521865845
1788673496677516000,14.98051611328125,-1.3339900970458984,-0.1477184295654297,0.5688555240631104
1788673496693713200,14.996713134765624,-1.516901969909668,0.0035936832427978516,0.19375044107437134
1788673496709913000,15.0129130859375,-1.9030213356018066,-0.017607569694519043,-0.4240819811820984
1788673496726035500,15.029035400390624,-2.059227466583252,0.011774182319641113,-0.9420002698898315
1788673496742235600,15.045235595703126,-1.6390800476074219,0.23568367958068848,-0.6020106673240662
1788673496758378500,15.06137841796875,-1.1544246673583984,0.432031512260437,0.24756506085395813
1788673496774580700,15.077580810546875,-1.0586166381835938,0.7807720899581909,1.0431463718414307
1788673496790771700,15.093771728515625,-0.880096435546875,0.9007652997970581,1.2636072635650635
1788673496806916600,15.10991650390625,-0.5981006622314453,0.7730830907821655,0.8661344647407532
1788673496823056000,15.126055908203124,-0.3102455139160156,0.515731930732727,0.2754685878753662
1788673496839199200,15.14219921875,0.0676259994506836,0.44546353816986084,-0.2921816110610962
1788673496855403500,15.158403564453126,0.6662025451660156,0.45561766624450684,-0.4528012275695801
1788673496871591000,15.1745908203125,1.1913394927978516,0.5637634992599487,-0.24502846598625183
1788673496887727000,15.19072705078125,1.2932968139648438,0.633441686630249,-0.13692283630371094
1788673496903865300,15.206865234375,1.3473711013793945,0.46894514560699463,0.09245896339416504
1788673496920007700,15.223007568359375,1.628066062927246,0.17106389999389648,0.3260738253593445
1788673496936176400,15.23917626953125,1.9362049102783203,-0.19430148601531982,0.46448349952697754
1788673496952348700,15.2553486328125,1.9932727813720703,-0.48913246393203735,0.5970643758773804
1788673496968510700,15.2715107421875,1.455744743347168,-0.3078920841217041,0.5803887844085693
1788673496984649200,15.287649169921876,1.0279884338378906,-0.24827253818511963,0.7126335501670837
1788673497000800300,15.30380029296875,1.5243244171142578,-0.37683534622192383,0.8926414847373962
1788673497016980200,15.319980224609376,2.6896915435791016,-0.6875222325325012,0.8218228816986084
1788673497033149200,15.336149169921875,3.1726627349853516,-0.9948914647102356,0.38408637046813965
1788673497049272600,15.3522724609375,2.8273067474365234,-1.0412534475326538,-0.39459073543548584
1788673497065464600,15.368464599609375,1.6761751174926758,-0.879123330116272,-0.9072450399398804
1788673497081626400,15.38462646484375,0.29502010345458984,-0.7132555842399597,-0.9393231868743896
1788673497097808000,15.400807861328126,-0.28932762145996094,-0.569146990776062,-0.7015693783760071
1788673497113997600,15.41699755859375,-0.10194683074951172,-0.42779457569122314,-0.40792182087898254
1788673497130134300,15.43313427734375,-0.06388092041015625,-0.3908810615539551,-0.2541499733924866
1788673497146324200,15.44932421875,-0.2389373779296875,-0.3694702386856079,-0.3408256471157074
1788673497162494500,15.465494384765625,-0.4599475860595703,-0.36524444818496704,-0.3483927249908447
1788673497178692900,15.48169287109375,-0.4684257507324219,-0.3823360204696655,-0.09988778829574585
1788673497194893000,15.49789306640625,-0.31650829315185547,-0.44681060314178467,0.023173362016677856
1788673497211025400,15.514025390625,-0.3313770294189453,-0.3741046190261841,-0.11334192752838135
1788673497227215400,15.53021533203125,-0.8520574569702148,-0.22423380613327026,-0.4001101851463318
1788673497243388400,15.546388427734374,-1.4920272827148438,-0.09184503555297852,-0.6650124788284302
1788673497259592200,15.56259228515625,-1.6402091979980469,0.09122562408447266,-0.8252256512641907
1788673497275790600,15.57879052734375,-1.4975929260253906,0.20631885528564453,-0.6214134097099304
1788673497291940400,15.5949404296875,-1.3536176681518555,0.2504175901412964,-0.2323395311832428
1788673497308130800,15.611130859375,-1.2870416641235352,0.2552022933959961,-0.011271893978118896
1788673497324310500,15.627310546875,-1.1599311828613281,0.320670485496521,0.025405585765838623
1788673497340518100,15.64351806640625,-0.7771806716918945,0.36604249477386475,0.24491459131240845
1788673497356727300,15.659727294921876,-0.35939502716064453,0.28568291664123535,0.3808519244194031
1788673497372876800,15.675876708984376,-0.09300994873046875,0.1539626121520996,0.3134784400463104
1788673497389066500,15.69206640625,0.0652456283569336,0.14299261569976807,0.32269421219825745
1788673497405255400,15.70825537109375,0.2594003677368164,0.24282515048980713,0.1974692940711975
1788673497421424000,15.724424072265625,0.37485313415527344,0.35092341899871826,0.036224812269210815
1788673497437642200,15.740642333984376,0.5839347839355469,0.35696911811828613,0.03314724564552307
1788673497453798700,15.756798583984375,0.9815607070922852,0.11528432369232178,0.18543675541877747
1788673497469964000,15.772964111328125,1.479227066040039,-0.12694001197814941,0.27411824464797974
1788673497486157800,15.78915771484375,1.7039728164672852,-0.20440983772277832,0.24048659205436707
1788673497502328800,15.805328857421875,1.8470754623413086,-0.25639545917510986,0.35798320174217224
1788673497518559700,15.821559814453124,2.0371313095092773,-0.06836986541748047,0.44255557656288147
1788673497534729500,15.8377294921875,1.88140869140625,-0.0242081880569458,0.33209899067878723
1788673497550871600,15.85387158203125,1.7962331771850586,-0.11670982837677002,0.3084852397441864
1788673497567029000,15.870029052734376,2.0991296768188477,-0.3700576424598694,0.6813822388648987
1788673497583197200,15.886197265625,3.024765968322754,-0.6180578470230103,0.8934744596481323
1788673497599373600,15.90237353515625,3.296858787536621,-0.7537921071052551,0.715357780456543
1788673497615499800,15.918499755859376,2.265355110168457,-0.5368883013725281,-0.1896013617515564
1788673497631641300,15.934641357421874,0.7357149124145508,-0.44556933641433716,-0.9792658686637878
1788673497647790800,15.950790771484375,-0.5363368988037109,-0.5240057110786438,-0.8670457601547241
1788673497663971300,15.966971435546874,-1.5389280319213867,-0.41446012258529663,-0.27883216738700867
1788673497680158200,15.983158203125,-1.9064245223999023,-0.16637539863586426,0.4661405682563782
1788673497696275500,15.999275390625,-1.9127931594848633,0.02964627742767334,1.1809659004211426
1788673497712465000,16.01546484375,-1.7136778831481934,0.0945746898651123,1.3215184211730957
1788673497728605400,16.03160546875,-1.7010703086853027,-0.21466493606567383,0.7192612886428833
1788673497744803600,16.047803466796875,-1.642120361328125,-0.5492296814918518,-0.07752224802970886
1788673497760986000,16.063986083984375,-1.3403968811035156,-0.6197212338447571,-0.4130639135837555
1788673497777125600,16.080125732421877,-0.7830629348754883,-0.5177599191665649,-0.24630676209926605
1788673497793314000,16.09631396484375,-0.5436868667602539,-0.34419959783554077,-0.04975008964538574
1788673497809454800,16.112454833984376,-0.8433904647827148,-0.10266327857971191,-0.184797003865242
1788673497825661200,16.1286611328125,-1.5374774932861328,-0.028517842292785645,-0.3869427740573883
1788673497841850000,16.14485009765625,-1.8970742225646973,-0.07983231544494629,-0.4533487558364868
1788673497858001000,16.1610009765625,-1.8141531944274902,-0.015265703201293945,-0.3892967998981476
1788673497874141400,16.177141357421874,-1.6341352462768555,0.026028990745544434,-0.34078264236450195
1788673497890283300,16.193283203125,-1.2663497924804688,0.11750233173370361,-0.2716386616230011
1788673497906451200,16.209451171875,-0.6866798400878906,0.19362342357635498,0.15454056859016418
1788673497922638300,16.225638427734374,-0.06670761108398438,0.27456116676330566,0.6300987005233765
1788673497938799900,16.2417998046875,0.4540061950683594,0.43687450885772705,0.8317294120788574
1788673497954989000,16.257989013671875,0.6683874130249023,0.525660514831543,0.5040558576583862
1788673497971140900,16.274140869140624,0.6671524047851562,0.5948235988616943,-0.11252295970916748
1788673497987320600,16.290320556640626,0.6929655075073242,0.6050362586975098,-0.4184510409832001
1788673498003492000,16.3064921875,0.7737598419189453,0.5422523021697998,-0.060305118560791016
1788673498019662300,16.322662353515625,0.8208417892456055,0.4237290620803833,0.5099654197692871
1788673498035805400,16.338805419921876,1.1460256576538086,0.24729526042938232,1.1173673868179321
1788673498051963000,16.354962890625,1.4793949127197266,-0.0032715797424316406,1.3397942781448364
1788673498068153300,16.3711533203125,1.4068050384521484,-0.019941329956054688,0.8584474325180054
1788673498084351700,16.387351806640623,1.4450502395629883,0.03514134883880615,0.2900792360305786
1788673498100484600,16.403484619140624,2.263883590698242,-0.18222355842590332,0.47800254821777344
1788673498116675000,16.419675048828125,3.5100173950195312,-0.43317389488220215,0.8570762872695923
1788673498132817400,16.4358173828125,4.245266914367676,-0.770427942276001,1.1101865768432617
1788673498148996000,16.45199609375,3.7780017852783203,-0.8028956055641174,0.7542389631271362
1788673498165172700,16.4681728515625,1.9716520309448242,-0.5748637318611145,-0.12315890192985535
1788673498181309400,16.484309326171875,0.2771635055541992,-0.4091337323188782,-0.6081384420394897
1788673498197500700,16.500500732421877,-0.3372783660888672,-0.20426905155181885,-0.7146036624908447
1788673498213668400,16.51666845703125,-0.18436908721923828,-0.19047951698303223,-0.596137523651123
1788673498229871600,16.53287158203125,0.0285186767578125,-0.19534623622894287,-0.4854884147644043
1788673498246081000,16.5490810546875,0.13307762145996094,-0.18671464920043945,-0.24576109647750854
1788673498262229200,16.565229248046876,-0.037354469299316406,-0.22807204723358154,-0.03305411338806152
1788673498278422000,16.581422119140626,-0.6187009811401367,-0.3420031666755676,0.09203788638114929
1788673498294608400,16.5976083984375,-1.3353090286254883,-0.40615159273147583,-0.22570335865020752
1788673498310821000,16.613821044921874,-1.5361642837524414,-0.38389647006988525,-0.38866913318634033
1788673498327039700,16.630039794921874,-1.2096357345581055,-0.3137965798377991,-0.4103505313396454
1788673498343198200,16.6461982421875,-0.7144908905029297,-0.1972295045852661,-0.5142285823822021
1788673498359385300,16.66238525390625,-0.43262290954589844,-0.1710749864578247,-0.5801854133605957
1788673498375528400,16.678528564453124,-0.8011245727539062,-0.1889249086380005,-0.6225380301475525
1788673498391699500,16.694699462890625,-1.3701400756835938,-0.1736891269683838,-0.4049929976463318
1788673498407923000,16.7109228515625,-1.6892414093017578,0.015143871307373047,-0.05047444999217987
1788673498424074200,16.72707421875,-1.4205188751220703,0.05917394161224365,0.133908212184906
1788673498440266800,16.743266845703126,-0.5360727310180664,0.03015446662902832,0.3016141653060913
1788673498456421600,16.759421630859375,0.19880390167236328,-0.09508717060089111,0.5424900054931641
1788673498472595700,16.775595703125,0.6629619598388672,-0.31853926181793213,0.4819195866584778
1788673498488805400,16.791805419921875,0.5311508178710938,-0.2948746681213379,0.30571404099464417
1788673498504970200,16.80797021484375,0.05015087127685547,-0.11893856525421143,0.07012221217155457
1788673498521162500,16.82416259765625,-0.24857616424560547,0.16477954387664795,-0.13024957478046417
1788673498537319400,16.8403193359375,-0.19156837463378906,0.20503580570220947,0.06493565440177917
1788673498553507300,16.85650732421875,0.3162813186645508,-0.12595081329345703,0.4122036099433899
1788673498569683200,16.87268310546875,0.9543991088867188,-0.3669462203979492,0.6373476982116699
1788673498585857300,16.888857177734376,1.3668670654296875,-0.5021588802337646,0.904914140701294
1788673498602000100,16.905000244140624,1.7427024841308594,-0.4779897928237915,0.5509262084960938
1788673498618167600,16.92116748046875,1.8167362213134766,-0.3113527297973633,-0.06571921706199646
1788673498634364400,16.937364501953127,1.197159767150879,-0.16980504989624023,-0.1895628124475479
1788673498650563300,16.953563232421875,0.2333087921142578,-0.19877195358276367,-0.01710006594657898
1788673498666705000,16.969704833984373,0.3772153854370117,-0.41175878047943115,0.5185115337371826
1788673498682895600,16.9858955078125,2.165541648864746,-0.5924137234687805,0.9655607342720032
1788673498699021600,17.002021484375,3.2591981887817383,-0.587827205657959,0.7149091958999634
1788673498715212800,17.018212890625,2.793933868408203,-0.5484304428100586,-0.17334792017936707
1788673498731395000,17.03439501953125,1.1514263153076172,-0.524497389793396,-0.8699113130569458
1788673498747538400,17.050538330078126,-0.0857248306274414,-0.37305212020874023,-0.809014081954956
1788673498763727000,17.06672705078125,-0.5416164398193359,-0.2304161787033081,-0.04179137945175171
1788673498779861000,17.082861083984376,-0.6323652267456055,-0.13253116607666016,0.5349366664886475
1788673498796059000,17.099058837890624,-0.8013582229614258,-0.19493305683135986,0.47910454869270325
1788673498812247600,17.11524755859375,-1.058034896850586,-0.2795901298522949,0.2257246971130371
1788673498828402000,17.13140185546875,-1.100931167602539,-0.3500016927719116,0.07312256097793579
1788673498844590600,17.147590576171876,-0.8096847534179688,-0.5064472556114197,0.06220144033432007
1788673498860736500,17.163736572265623,-0.4399433135986328,-0.5371822118759155,0.23530331254005432
1788673498876904200,17.179904296875,-0.4377889633178711,-0.3074193596839905,0.07161957025527954
1788673498893095200,17.19609521484375,-0.9889030456542969,-0.15041589736938477,-0.36339902877807617
1788673498909258800,17.2122587890625,-1.6530542373657227,-0.04774749279022217,-0.7360514402389526
1788673498925449200,17.22844921875,-1.7423772811889648,-0.010716438293457031,-0.8368073105812073
1788673498941600800,17.244600830078124,-1.3510761260986328,0.039060115814208984,-0.48784565925598145
1788673498957785000,17.26078515625,-1.0482826232910156,0.17367851734161377,-0.1014709621667862
1788673498973973800,17.276973876953125,-0.9649868011474609,0.31784069538116455,0.2256690263748169
1788673498990150000,17.29314990234375,-0.8717050552368164,0.32559168338775635,0.4880438446998596
1788673499006343200,17.30934326171875,-0.6061620712280273,0.3343510627746582,0.6161746978759766
1788673499022500000,17.3255,-0.34720420837402344,0.44312453269958496,0.4893832802772522
1788673499038689800,17.341689697265625,-0.17816734313964844,0.5978046655654907,0.14753949642181396
1788673499054879000,17.35787890625,0.1119985580444336,0.7724289894104004,0.4319669008255005
1788673499071009000,17.374009033203127,0.46189403533935547,0.8764010667800903,1.1076503992080688
1788673499087199000,17.390198974609376,0.8694820404052734,0.702625036239624,0.7673488259315491
1788673499103365600,17.40636572265625,1.0808296203613281,0.3518253564834595,-0.7539082169532776
1788673499119561700,17.422561767578124,1.021031379699707,-0.19794702529907227,-1.3485209941864014
1788673499135760600,17.4387607421875,0.8592367172241211,-0.7019851803779602,-1.0281767845153809
1788673499151896600,17.454896484375,1.2287702560424805,-0.6890541911125183,0.23517918586730957
1788673499168038000,17.471037841796875,1.3081464767456055,-0.17431390285491943,1.2291522026062012
1788673499184207600,17.48720751953125,0.9805059432983398,0.09303796291351318,1.270556926727295
1788673499200401000,17.50340087890625,1.1567249298095703,-0.14553773403167725,0.9979036450386047
1788673499216610300,17.5196103515625,2.2675657272338867,-0.3544158935546875,0.7572751641273499
1788673499232753200,17.535753173828127,3.102908134460449,-0.9624775648117065,0.42910659313201904
1788673499248912600,17.55191259765625,3.0721263885498047,-1.176214575767517,-0.5327705144882202
1788673499265076200,17.568076171875,2.2391347885131836,-0.8367455005645752,-1.1099414825439453
1788673499281269800,17.584269775390624,1.084040641784668,-0.6244277954101562,-0.7194246649742126
1788673499297466600,17.600466552734375,0.20003414154052734,-0.4148050546646118,0.05860454589128494
1788673499313615600,17.61661572265625,-0.28517627716064453,-0.16995036602020264,0.7507334351539612
1788673499329799400,17.63279931640625,-0.4825887680053711,0.08474147319793701,1.0321248769760132
1788673499345980200,17.648980224609375,-0.5147294998168945,-0.16232383251190186,0.9560703039169312
1788673499362146300,17.665146240234375,-0.4641094207763672,-0.13314223289489746,0.3591763973236084
1788673499378366700,17.68136669921875,-0.7983036041259766,-0.32365143299102783,-0.0060244351625442505
1788673499394524400,17.6975244140625,-1.0529489517211914,-0.5323539972305298,-0.18357403576374054
1788673499410713000,17.713713134765626,-1.1995563507080078,-0.31050533056259155,-0.46771442890167236
1788673499426861800,17.72986181640625,-1.06573486328125,-0.10767161846160889,-0.39932724833488464
1788673499443044400,17.74604443359375,-0.8617944717407227,0.04446256160736084,-0.4085429608821869
1788673499459274500,17.7622744140625,-0.7498664855957031,0.09049713611602783,-0.5297789573669434
1788673499475449000,17.778448974609375,-0.8634872436523438,0.06843340396881104,-0.7317278385162354
1788673499491590100,17.794590087890626,-1.0544452667236328,0.07899141311645508,-0.5839347839355469
1788673499507753500,17.81075341796875,-0.8974876403808594,0.31062591075897217,-0.22966156899929047
1788673499523942100,17.826942138671875,-0.7378559112548828,0.39602553844451904,0.11165152490139008
1788673499540134700,17.843134765625,-0.5948486328125,0.3079094886779785,0.3994477391242981
1788673499556260600,17.859260498046876,-0.33493614196777344,0.2398000955581665,0.34777170419692993
1788673499572405800,17.87540576171875,0.08703804016113281,0.10736119747161865,0.3868113160133362
1788673499588581000,17.8915810546875,0.27661800384521484,0.09535098075866699,0.3177526593208313
1788673499604782000,17.907781982421874,0.4636402130126953,0.21424829959869385,0.014052659273147583
1788673499620973600,17.9239736328125,0.8418960571289062,0.28482258319854736,-0.3153724670410156
1788673499637113900,17.94011376953125,1.1010198593139648,0.3539252281188965,-0.4227800965309143
1788673499653273300,17.9562734375,1.3111562728881836,0.2833751440048218,-0.022661983966827393
1788673499669419000,17.9724189453125,1.4957304000854492,-0.05226898193359375,0.3677835166454315
1788673499685626000,17.988626220703125,1.8547658920288086,-0.3376654386520386,0.3052694499492645
1788673499701800000,18.004800048828123,2.32021427154541,-0.4613727927207947,-0.004461526870727539
1788673499717948400,18.020948486328123,2.3489227294921875,-0.389087438583374,-0.3393804132938385
1788673499734139000,18.037138916015625,2.287407875061035,-0.21389317512512207,-0.6804083585739136
1788673499750263800,18.053263916015624,1.7420063018798828,-0.23604631423950195,-0.32266515493392944
1788673499766476500,18.0694765625,0.9884233474731445,-0.4431802034378052,0.1836366057395935
1788673499782667000,18.0856669921875,1.0829715728759766,-0.9208890795707703,0.585875391960144
1788673499798826800,18.10182666015625,2.0127391815185547,-1.0198662281036377,0.37074947357177734
1788673499814970400,18.117970458984374,1.9030256271362305,-0.973469614982605,-0.5106889605522156
1788673499831115800,18.13411572265625,0.7561197280883789,-0.9015153050422668,-1.173142671585083
1788673499847286500,18.15028662109375,-0.3790750503540039,-0.8072167038917542,-1.1903678178787231
1788673499863460900,18.1664609375,-1.0556488037109375,-0.6285236477851868,-0.6895405054092407
1788673499879619000,18.182619140625,-1.1310253143310547,-0.4732239246368408,0.0762948989868164
1788673499895806200,18.19880615234375,-1.0232114791870117,-0.42292511463165283,0.546962320804596
1788673499911953200,18.214953125,-0.5916633605957031,-0.40942394733428955,0.5610177516937256
1788673499928131300,18.23113134765625,-0.2083148956298828,-0.439544677734375,0.08330857753753662
1788673499944321000,18.247321044921875,0.1460247039794922,-0.5448650121688843,-0.4543078541755676
1788673499960448800,18.26344873046875,0.14135456085205078,-0.6045106053352356,-0.6771432757377625
1788673499976591600,18.279591552734374,-0.46311473846435547,-0.5132079124450684,-0.6072444319725037
1788673499992744700,18.29574462890625,-1.5357370376586914,-0.29776549339294434,-0.5359669327735901
1788673500008928500,18.311928466796875,-2.3242874145507812,-0.01677572727203369,-0.51014244556427
1788673500025097700,18.32809765625,-2.6654114723205566,0.12337017059326172,-0.4630314111709595
1788673500041221000,18.34422119140625,-2.6435961723327637,0.16805362701416016,-0.3069482743740082
1788673500057409000,18.360408935546875,-2.36189603805542,0.1704636812210083,-0.11793845891952515
1788673500073556500,18.376556396484375,-1.9260797500610352,0.12606394290924072,0.024389535188674927
1788673500089755600,18.392755615234375,-1.2908992767333984,0.14949464797973633,0.2207893431186676
1788673500105955600,18.40895556640625,-0.688054084777832,0.15836989879608154,0.2104605734348297
1788673500122094300,18.42509423828125,-0.10944461822509766,0.2374560832977295,0.004454195499420166
1788673500138234400,18.441234375,0.4479799270629883,0.3168450593948364,0.025647222995758057
1788673500154406000,18.457406005859376,1.0554523468017578,0.4257103204727173,0.060147762298583984
1788673500170607400,18.473607421875,1.0821638107299805,0.5768865346908569,0.014047324657440186
1788673500186815200,18.489815185546874,0.7846488952636719,0.6753028631210327,0.019645392894744873
1788673500202942500,18.5059423828125,0.7318716049194336,0.5478076934814453,-0.041424840688705444
1788673500219082800,18.522082763671875,1.2127876281738281,0.2731107473373413,-0.3479716181755066
1788673500235269000,18.53826904296875,2.0094003677368164,-0.2466721534729004,-0.3436468541622162
1788673500251476000,18.55447607421875,2.5024938583374023,-0.5248596668243408,0.2663392424583435
1788673500267680500,18.570680419921874,1.8949918746948242,-0.3990464210510254,0.783197283744812
1788673500283833600,18.58683349609375,1.0601434707641602,-0.1255044937133789,0.833366870880127
1788673500300021000,18.60302099609375,1.5117111206054688,-0.3415185213088989,0.7880175113677979
1788673500316208400,18.61920849609375,2.747208595275879,-0.7256591320037842,0.730073094367981
1788673500332407800,18.63540771484375,3.128602981567383,-0.8385236859321594,0.13904571533203125
1788673500348614100,18.6516142578125,2.387112617492676,-0.7953734993934631,-0.5975977182388306
1788673500364778500,18.667778564453126,1.2838783264160156,-0.588245689868927,-0.8895969390869141
1788673500380969000,18.683968994140624,0.5704841613769531,-0.41002774238586426,-0.5460858345031738
1788673500397126700,18.700126708984374,0.3163309097290039,-0.3317756652832031,-0.1988161951303482
1788673500413298700,18.716298583984376,0.2543973922729492,-0.3047407865524292,-0.12393242120742798
1788673500429534200,18.7325341796875,0.07353496551513672,-0.259865403175354,-0.2823919653892517
1788673500445707300,18.748707275390625,-0.17798328399658203,-0.21739399433135986,-0.5135046243667603
1788673500461901600,18.764901611328124,-0.5521297454833984,-0.18243718147277832,-0.3166891038417816
1788673500478056700,18.781056640625,-0.9357500076293945,-0.26576125621795654,0.10480189323425293
1788673500494250500,18.79725048828125,-1.307551383972168,-0.29635798931121826,0.3024733364582062
1788673500510493000,18.813492919921874,-1.4625587463378906,-0.23172283172607422,0.4835612177848816
1788673500526619400,18.829619384765625,-1.425704002380371,-0.15010333061218262,0.35573890805244446
1788673500542761700,18.84576171875,-0.9625082015991211,-0.0946420431137085,-0.07442352175712585
1788673500558930000,18.861929931640624,-0.5674066543579102,-0.19604825973510742,-0.5515064001083374
1788673500575125800,18.878125732421875,-0.6102533340454102,-0.19162380695343018,-0.819673478603363
1788673500591289600,18.89428955078125,-0.8413705825805664,-0.10216665267944336,-0.7468093633651733
1788673500607432700,18.9104326171875,-0.9317035675048828,-0.05988204479217529,-0.08670751750469208
1788673500623621600,18.92662158203125,-1.01190185546875,-0.019508719444274902,0.35218024253845215
1788673500639766800,18.942766845703126,-0.8395013809204102,-0.07523632049560547,0.4355553686618805
1788673500655974700,18.958974609375,-0.6455602645874023,-0.21952581405639648,0.3016108274459839
1788673500672167400,18.97516748046875,-0.16471004486083984,-0.35784876346588135,-0.06493586301803589
1788673500688315100,18.991315185546874,0.2855501174926758,-0.36309337615966797,-0.44388347864151
1788673500704501500,19.00750146484375,0.35047245025634766,-0.19963335990905762,-0.44917306303977966
1788673500720648000,19.02364794921875,0.16757583618164062,0.1538403034210205,-0.2859383225440979
1788673500736866600,19.039866455078126,0.0983114242553711,0.21947741508483887,0.0008436441421508789
1788673500753056300,19.05605615234375,0.4337606430053711,-0.06988298892974854,0.39009353518486023
1788673500769208800,19.072208740234377,1.0268821716308594,-0.2908213138580322,0.6233586072921753
1788673500785356000,19.08835595703125,1.297220230102539,-0.5047271251678467,0.61103355884552
1788673500801498400,19.104498291015624,1.607295036315918,-0.547781229019165,0.20751643180847168
1788673500817666000,19.120666015625,2.0773744583129883,-0.4481896162033081,-0.2206798642873764
1788673500833840400,19.13684033203125,2.101804733276367,-0.2777271270751953,-0.33209383487701416
1788673500850007300,19.15300732421875,1.5916433334350586,-0.19638347625732422,-0.051999419927597046
1788673500866196500,19.169196533203124,1.4906425476074219,-0.3222639560699463,0.355678915977478
1788673500882348300,19.185348388671876,2.1321096420288086,-0.6734824776649475,0.6816343069076538
1788673500898560300,19.201560302734375,2.629969596862793,-0.6642289161682129,0.5458979606628418
1788673500914734800,19.21773486328125,2.163961410522461,-0.30866026878356934,-0.33276957273483276
1788673500930861300,19.233861328125,0.8363399505615234,-0.26551353931427,-0.7014529705047607
1788673500947050500,19.250050537109374,-0.2033214569091797,-0.2256333827972412,-0.41074609756469727
1788673500963193300,19.266193359375,-0.7971868515014648,-0.10783207416534424,0.13327229022979736
1788673500979372500,19.28237255859375,-0.9455223083496094,-0.07136237621307373,0.6817141771316528
1788673500995561000,19.29856103515625,-0.8434963226318359,-0.1890963315963745,1.0209197998046875
1788673501011682800,19.314682861328127,-0.708500862121582,-0.2477189302444458,0.7964885234832764
1788673501027875300,19.330875244140625,-0.6733694076538086,-0.2793315649032593,0.2814919054508209
1788673501044047000,19.347047119140626,-0.5619487762451172,-0.3107262849807739,-0.13500219583511353
1788673501060249600,19.36324951171875,-0.3156003952026367,-0.43908798694610596,-0.2688773274421692
1788673501076450800,19.379450927734375,-0.3502054214477539,-0.3101789951324463,-0.2779960036277771
1788673501092589000,19.395589111328125,-0.8105545043945312,-0.08591616153717041,-0.2862532138824463
1788673501108779000,19.411779052734374,-1.4673547744750977,0.11225807666778564,-0.23063477873802185
1788673501124958000,19.4279580078125,-1.781270980834961,0.23655366897583008,-0.17961594462394714
1788673501141162200,19.444162353515626,-1.7821450233459473,0.2807515859603882,-0.09049361944198608
1788673501157376300,19.460376220703125,-1.6066713333129883,0.2417696714401245,-0.13741561770439148
1788673501173521200,19.476521240234376,-1.5106096267700195,0.273712158203125,-0.2715090811252594
1788673501189709600,19.49270947265625,-1.2761812210083008,0.3398653268814087,-0.0992666482925415
1788673501205889500,19.5088896484375,-0.7650032043457031,0.2683221101760864,0.3171491324901581
1788673501222101500,19.5251015625,-0.33823108673095703,0.19488608837127686,0.3736206293106079
1788673501238318000,19.541318115234375,0.09663963317871094,0.2293558120727539,0.12472528219223022
1788673501254474500,19.557474609375,0.2289724349975586,0.15025627613067627,-0.15464270114898682
1788673501270669000,19.5736689453125,0.2160663604736328,0.25013303756713867,-0.40184295177459717
1788673501286862300,19.5898623046875,0.2666778564453125,0.4661898612976074,-0.3917659521102905
1788673501303080400,19.60608056640625,0.5697641372680664,0.42562782764434814,-0.24019725620746613
1788673501319305500,19.622305419921876,1.283036231994629,0.21301615238189697,0.09029240906238556
1788673501335431000,19.638430908203127,1.9156303405761719,-0.18962836265563965,0.20569612085819244
1788673501351574300,19.65457421875,2.3248538970947266,-0.5910842418670654,0.25552356243133545
1788673501367708700,19.670708740234375,1.9623966217041016,-0.579213559627533,0.3394985795021057
1788673501383897300,19.6868974609375,1.0592546463012695,-0.14250552654266357,0.25086814165115356
1788673501400137500,19.703137451171877,1.1858339309692383,-0.01691579818725586,0.2600657343864441
1788673501416258300,19.71925830078125,2.5145225524902344,-0.16434788703918457,0.49402520060539246
1788673501432448300,19.7354482421875,3.4303112030029297,-0.4793548583984375,0.5262190103530884
1788673501448598800,19.751598876953125,2.920668601989746,-0.8179505467414856,0.4783860445022583
1788673501464776400,19.7677763671875,1.2854032516479492,-0.8442888259887695,0.059122562408447266
1788673501480958500,19.78395849609375,-0.41003990173339844,-0.6038436889648438,-0.4061444401741028
1788673501497085700,19.800085693359375,-0.9307727813720703,-0.2814518213272095,-0.4265391230583191
1788673501513280500,19.816280517578125,-0.31643009185791016,-0.21057558059692383,-0.025461137294769287
1788673501529419800,19.832419677734375,0.28533267974853516,-0.22897982597351074,0.13947874307632446
1788673501545625300,19.848625244140624,0.3285961151123047,-0.17743372917175293,0.0032698512077331543
1788673501561818000,19.864818115234375,0.008646011352539062,-0.21332812309265137,-0.04474747180938721
1788673501577965800,19.8809658203125,-0.1345691680908203,-0.30349159240722656,0.1309763491153717
1788673501594121700,19.897121826171876,-0.18245506286621094,-0.4397495985031128,0.2115515172481537
1788673501610270000,19.91327001953125,-0.44539833068847656,-0.49553459882736206,0.1922435164451599
1788673501626484200,19.929484130859375,-0.6688385009765625,-0.3732677698135376,-0.07871100306510925
1788673501642675700,19.94567578125,-0.6871509552001953,-0.2176445722579956,-0.45752859115600586
1788673501658832000,19.961831787109375,-0.6030588150024414,-0.20781183242797852,-0.5742849111557007
1788673501675024400,19.9780244140625,-0.5456943511962891,-0.25415217876434326,-0.564279317855835
1788673501691169800,19.994169677734376,-0.5884466171264648,-0.2526329755783081,-0.7335963845252991
1788673501707343000,20.010343017578126,-0.889068603515625,-0.16134119033813477,-0.7437689304351807
1788673501723534800,20.026534912109376,-1.2115411758422852,-0.002521038055419922,-0.46397900581359863
1788673501739693800,20.04269384765625,-1.2375402450561523,0.1582874059677124,-0.09779709577560425
1788673501755883300,20.05888330078125,-0.89251708984375,0.08023452758789062,0.33112794160842896
1788673501772028400,20.0750283203125,-0.26796817779541016,-0.07351469993591309,0.43893131613731384
