time,seconds_elapsed,z,y,x
1788043743659078100,0.172078125,0.16780662536621094,-0.01641547679901123,-0.15333528816699982
1788043743675809800,0.188809814453125,0.17330169677734375,-0.06956028938293457,-0.15455567836761475
1788043743691495400,0.204495361328125,0.06601810455322266,-0.026224851608276367,-0.11859413981437683
1788043743707445000,0.220445068359375,-0.005368232727050781,0.0050389766693115234,-0.09976308047771454
1788043743723907800,0.236907958984375,-0.0815439224243164,0.01714932918548584,-0.033328741788864136
1788043743739612700,0.25261279296875,-0.05238056182861328,0.010060906410217285,0.06399223208427429
1788043743755584800,0.268584716796875,-0.04718303680419922,0.04371213912963867,0.09066881239414215
1788043743771798500,0.284798583984375,0.051375389099121094,0.06288647651672363,0.06928999722003937
1788043743787668200,0.300668212890625,0.10677909851074219,0.05288577079772949,0.05937865376472473
1788043743804092700,0.3170927734375,0.1500234603881836,0.031119227409362793,0.05379229784011841
1788043743819904800,0.33290478515625,0.06601333618164062,-0.025366544723510742,0.14978709816932678
1788043743835892200,0.348892333984375,-0.10438823699951172,0.009308695793151855,0.17545658349990845
1788043743852102100,0.36510205078125,-0.15239524841308594,0.07537806034088135,0.0479046106338501
1788043743867872300,0.380872314453125,-0.01787090301513672,0.0844888687133789,-0.06296941637992859
1788043743884319000,0.397319091796875,0.12901782989501953,-0.015516281127929688,0.06381405889987946
1788043743900025600,0.413025634765625,0.19455623626708984,-0.05960988998413086,0.18880420923233032
1788043743916121600,0.42912158203125,0.1375741958618164,0.0036853551864624023,0.12498962879180908
1788043743932483300,0.4454833984375,0.017950057983398438,0.05205404758453369,0.05119512975215912
1788043743948095500,0.461095458984375,-0.061069488525390625,0.07041788101196289,0.12253478914499283
1788043743972275000,0.48527490234375,0.08549976348876953,0.055098533630371094,0.09609861671924591
1788043743988262700,0.5012626953125,0.22489643096923828,-0.002146482467651367,0.11395711451768875
1788043744004684000,0.51768408203125,0.3136873245239258,0.009537339210510254,0.12219075858592987
1788043744028303000,0.54130322265625,0.2699575424194336,-0.018129467964172363,0.021805182099342346
1788043744044792800,0.557792724609375,0.1397256851196289,0.0033111572265625,0.008937746286392212
1788043744076521700,0.589521728515625,-0.05388355255126953,0.07572245597839355,-0.08504404127597809
1788043744100549400,0.61354931640625,-0.29727935791015625,0.11488896608352661,-0.020614266395568848
1788043744116589600,0.629589599609375,-0.35045433044433594,0.08191001415252686,0.08213083446025848
1788043744132801300,0.64580126953125,-0.34066104888916016,0.02910614013671875,0.15165749192237854
1788043744148717600,0.661717529296875,-0.11705875396728516,0.012589097023010254,0.17882008850574493
1788043744165082000,0.67808203125,0.17185020446777344,-0.039440274238586426,0.14872780442237854
1788043744180809000,0.69380908203125,0.30767250061035156,-0.094199538230896,0.13329842686653137
1788043744196822000,0.709822021484375,0.3426837921142578,-0.12765705585479736,0.09432385861873627
1788043744213081600,0.72608154296875,0.32212162017822266,-0.09880220890045166,0.08928735554218292
1788043744228943000,0.741943115234375,0.28685855865478516,-0.020650744438171387,0.11481431126594543
1788043744245368300,0.758368408203125,0.2511758804321289,-0.039601683616638184,0.16922369599342346
1788043744261070000,0.774070068359375,0.07389354705810547,-0.04927849769592285,0.18386636674404144
1788043744277057500,0.7900576171875,-0.005312919616699219,0.002438783645629883,0.11042513698339462
1788043744293190400,0.8061904296875,0.05218315124511719,0.0679938793182373,0.0976366400718689
1788043744309323800,0.82232373046875,0.18871402740478516,0.004530906677246094,0.13955624401569366
1788043744325560000,0.83856005859375,0.24123573303222656,-0.00023448467254638672,0.10340933501720428
1788043744341658000,0.854658203125,0.1951904296875,0.037165284156799316,0.029886797070503235
1788043744357486800,0.87048681640625,0.048343658447265625,0.047222018241882324,-0.16809192299842834
1788043744373454800,0.886454833984375,-0.043354034423828125,-0.017012834548950195,-0.10070157051086426
1788043744389443600,0.902443603515625,0.1119985580444336,-0.09679388999938965,0.0737866461277008
1788043744405784600,0.91878466796875,0.2461690902709961,-0.06218385696411133,0.11307784914970398
1788043744421418800,0.934418701171875,0.23636627197265625,-0.0366826057434082,0.06794876605272293
1788043744437449700,0.95044970703125,0.0273284912109375,0.0012993812561035156,0.0016555488109588623
1788043744453621000,0.96662109375,-0.08864212036132812,-0.0020793676376342773,-0.020173639059066772
1788043744469602800,0.982602783203125,-0.14684200286865234,0.008516788482666016,-0.097444087266922
1788043744485994200,0.998994140625,-0.0992422103881836,-0.035036325454711914,-0.026112601161003113
1788043744501729800,1.014729736328125,0.032619476318359375,-0.07705676555633545,0.03964628279209137
1788043744517791700,1.030791748046875,0.08559989929199219,-0.08913064002990723,0.10012362897396088
1788043744533967000,1.046967041015625,0.028339385986328125,-0.10695481300354004,0.05036646127700806
1788043744549981200,1.062981201171875,-0.06253814697265625,-0.04156374931335449,-0.056348055601119995
1788043744566365400,1.079365478515625,-0.18218231201171875,-0.0340348482131958,-0.033338651061058044
1788043744582062300,1.095062255859375,-0.1723623275756836,-0.017739534378051758,-0.017451226711273193
1788043744598538800,1.111538818359375,-0.06652164459228516,0.007922172546386719,0.015546604990959167
1788043744614285000,1.12728515625,0.02045917510986328,0.04791247844696045,0.025981426239013672
1788043744630360600,1.143360595703125,0.06432151794433594,0.1043616533279419,0.027180880308151245
1788043744646640400,1.159640380859375,0.036376953125,0.07950055599212646,0.009358420968055725
1788043744662310700,1.175310546875,0.0947866439819336,0.10649740695953369,-0.02880239486694336
1788043744678326800,1.191326904296875,0.2515125274658203,0.12979936599731445,-0.013336420059204102
1788043744694573600,1.207573486328125,0.2929410934448242,0.18569105863571167,0.019075945019721985
1788043744710493200,1.2234931640625,0.19716453552246094,0.19947689771652222,-0.011648416519165039
1788043744726866200,1.2398662109375,0.1057138442993164,0.17131280899047852,-0.0993214100599289
1788043744742615300,1.255615234375,0.08861255645751953,0.13941550254821777,-0.17001895606517792
1788043744758570800,1.27157080078125,0.24419498443603516,0.18406766653060913,-0.2105148434638977
1788043744774753000,1.2877529296875,0.3038616180419922,0.21260219812393188,-0.17915019392967224
1788043744790750700,1.303750732421875,0.18573379516601562,0.26157140731811523,-0.15755659341812134
1788043744807110100,1.320110107421875,-0.06468868255615234,0.1853354573249817,-0.1672244518995285
1788043744822833000,1.3358330078125,-0.11616897583007812,0.14528077840805054,-0.16430413722991943
1788043744839056400,1.352056396484375,0.04608631134033203,0.11672818660736084,-0.19694551825523376
1788043744855281000,1.368281005859375,0.13939476013183594,0.07983839511871338,-0.35314974188804626
1788043744871017700,1.384017822265625,0.13703441619873047,0.07016324996948242,-0.3693103790283203
1788043744887382000,1.400382080078125,0.038880348205566406,0.03489351272583008,-0.1886177659034729
1788043744903234800,1.41623486328125,-0.08574390411376953,0.054181694984436035,-0.08611676096916199
1788043744919320000,1.432320068359375,-0.2080516815185547,0.10088741779327393,-0.1417948305606842
1788043744935403800,1.44840380859375,-0.208038330078125,0.09896230697631836,-0.17901751399040222
1788043744951264800,1.4642646484375,-0.17411327362060547,0.05556619167327881,-0.22752472758293152
1788043744967636500,1.480636474609375,-0.09425735473632812,0.06750667095184326,-0.34049054980278015
1788043744983348500,1.496348388671875,-0.04987049102783203,0.060260653495788574,-0.28950703144073486
1788043744999463700,1.512463623046875,-0.07974910736083984,0.087441086769104,-0.14403462409973145
1788043745015594800,1.5285947265625,-0.15057754516601562,0.10347974300384521,-0.11877933144569397
1788043745031611400,1.544611328125,-0.197540283203125,0.11474573612213135,-0.1800662875175476
1788043745047976700,1.560976806640625,-0.1410360336303711,0.11618208885192871,-0.16032308340072632
1788043745063977500,1.5769775390625,0.038036346435546875,0.19317513704299927,-0.07558596134185791
1788043745079762200,1.59276220703125,0.1905078887939453,0.28390300273895264,0.057871848344802856
1788043745095913200,1.608913330078125,0.3325662612915039,0.2981853485107422,0.062350302934646606
1788043745111906300,1.62490625,0.3084573745727539,0.25213247537612915,-0.06229311227798462
1788043745128312600,1.6413125,0.37029457092285156,0.2923671007156372,-0.14836186170578003
1788043745144031700,1.65703173828125,0.4774932861328125,0.4071904420852661,-0.047102272510528564
1788043745160472800,1.673472900390625,0.4713249206542969,0.47669702768325806,-0.02233213186264038
1788043745176207000,1.68920703125,0.1649799346923828,0.4343438744544983,-0.03425765037536621
1788043745192142800,1.705142822265625,-0.1901264190673828,0.46860480308532715,-0.04874527454376221
1788043745208572200,1.721572265625,-0.17407512664794922,0.46325331926345825,-0.12571954727172852
1788043745224260900,1.7372607421875,0.005976676940917969,0.320091187953949,-0.126803457736969
1788043745240338700,1.753338623046875,0.13907432556152344,0.1754603385925293,0.031094670295715332
1788043745256456000,1.7694560546875,0.1695842742919922,0.10064190626144409,0.17466938495635986
1788043745272419300,1.78541943359375,0.23845863342285156,0.07173794507980347,0.2213444858789444
1788043745288899600,1.801899658203125,0.38402271270751953,0.018781721591949463,0.11563551425933838
1788043745304573400,1.817573486328125,0.5008554458618164,0.00208967924118042,0.13093602657318115
1788043745320633000,1.833633056640625,0.41318607330322266,0.06918340921401978,0.3849186301231384
1788043745336881000,1.849880859375,0.050731658935546875,0.2992054224014282,0.541892945766449
1788043745352918500,1.86591845703125,-0.48767662048339844,0.6338784694671631,0.7346957325935364
1788043745369168100,1.882168212890625,-0.8701658248901367,0.8314201831817627,0.9966753125190735
1788043745385137000,1.898136962890625,-0.8166675567626953,0.6791529655456543,1.1725294589996338
1788043745400878800,1.91387890625,-0.33574676513671875,0.3063180446624756,1.0210883617401123
1788043745417350700,1.9303505859375,0.3116788864135742,0.010669708251953125,0.7765003442764282
1788043745433198300,1.9461982421875,0.9479265213012695,-0.062311530113220215,0.3991474211215973
1788043745449471500,1.962471435546875,1.224954605102539,0.008794307708740234,0.2837250530719757
1788043745465183000,1.978182861328125,1.0121288299560547,0.04802674055099487,0.38426727056503296
1788043745481262000,1.994261962890625,0.3474102020263672,0.18837124109268188,0.5236342549324036
1788043745497414000,2.010413818359375,-0.3037757873535156,0.46315157413482666,0.6081235408782959
1788043745513422600,2.026422607421875,-0.6793441772460938,0.7081074714660645,0.5540318489074707
1788043745529812700,2.042812744140625,-0.7809476852416992,0.8283684849739075,0.48373329639434814
1788043745545524500,2.0585244140625,-0.6335592269897461,0.8479124307632446,0.48982951045036316
1788043745561738000,2.074738037109375,-0.37517452239990234,0.8547213077545166,0.35638588666915894
1788043745577944000,2.090944091796875,-0.22525310516357422,0.7711495161056519,0.25775277614593506
1788043745593900300,2.106900390625,-0.16379547119140625,0.8192632794380188,0.25158295035362244
1788043745610120700,2.12312060546875,-0.13719940185546875,0.8233948349952698,0.2517719864845276
1788043745625950700,2.13895068359375,-0.10709857940673828,0.7576773762702942,0.2241988480091095
1788043745641912000,2.154912109375,0.10262489318847656,0.6196650266647339,0.1505395770072937
1788043745658078000,2.171077880859375,0.3792581558227539,0.4633753001689911,0.21502342820167542
1788043745674361900,2.18736181640625,0.5834932327270508,0.3321463167667389,0.15400317311286926
1788043745690380000,2.203380126953125,0.5579376220703125,0.3641892373561859,0.11550261080265045
1788043745706088000,2.219087890625,0.4030008316040039,0.39697983860969543,0.2031373232603073
1788043745722071600,2.235071533203125,0.16611766815185547,0.4151499271392822,0.30171093344688416
1788043745738276900,2.25127685546875,0.2354269027709961,0.3322734534740448,0.27890920639038086
1788043745754258000,2.2672578125,0.29291248321533203,0.2595885097980499,0.38359299302101135
1788043745770630100,2.283630126953125,0.21867656707763672,0.19053596258163452,0.43044188618659973
1788043745786332700,2.299332763671875,0.2547750473022461,0.13484331965446472,0.5224860310554504
1788043745802352400,2.315352294921875,0.43009376525878906,0.04089772701263428,0.7199450135231018
1788043745818549800,2.3315498046875,0.6345863342285156,-0.006914973258972168,0.9906855225563049
1788043745834616300,2.3476162109375,0.8585948944091797,-0.0650445818901062,1.1492483615875244
1788043745850883800,2.3638837890625,1.0492324829101562,-0.1150556206703186,1.251932144165039
1788043745866600000,2.379599853515625,1.1701555252075195,-0.08647331595420837,1.372603178024292
1788043745882601000,2.39560107421875,0.945988655090332,0.02752763032913208,0.9627053737640381
1788043745898799900,2.4117998046875,0.5875139236450195,-0.3311122953891754,0.18200203776359558
1788043745914788900,2.427788818359375,0.6413955688476562,-0.8538891077041626,-0.6487843990325928
1788043745931171000,2.444171142578125,1.2153263092041016,-1.0713536739349365,-1.0991060733795166
1788043745946862600,2.459862548828125,1.9333620071411133,-1.3002229928970337,-1.0504980087280273
1788043745963120000,2.4761201171875,2.683194160461426,-1.5565799474716187,-0.7618333697319031
1788043745979345000,2.492344970703125,2.899123191833496,-1.7071305513381958,-0.7855398058891296
1788043745995293700,2.508293701171875,2.271272659301758,-1.4864994287490845,-1.175970196723938
1788043746011461000,2.524461181640625,0.9908046722412109,-1.1945875883102417,-1.3422629833221436
1788043746027501600,2.54050146484375,-0.2851533889770508,-0.9603888392448425,-1.304809808731079
1788043746043140900,2.556140869140625,-1.385538101196289,-0.7166624069213867,-1.3557922840118408
1788043746059479000,2.57247900390625,-1.9726152420043945,-0.5890586376190186,-1.3025071620941162
1788043746075360500,2.588360595703125,-2.2024173736572266,-0.594640851020813,-1.0901635885238647
1788043746091761700,2.60476171875,-1.8645930290222168,-0.7662776708602905,-0.9908267259597778
1788043746107726300,2.620726318359375,-1.1724681854248047,-0.8928292989730835,-0.9057899117469788
1788043746123405000,2.636405029296875,-0.6742935180664062,-0.9554517269134521,-0.8679193258285522
1788043746139597000,2.65259716796875,-0.4825448989868164,-0.9916608333587646,-0.9078819155693054
1788043746155597600,2.66859765625,-0.5374155044555664,-0.9204655885696411,-0.9140303134918213
1788043746172022800,2.685022705078125,-0.7336025238037109,-0.8182456493377686,-0.7434720993041992
1788043746187884300,2.70088427734375,-0.9444341659545898,-0.6192082166671753,-0.6487721800804138
1788043746203964000,2.7169638671875,-1.102463722229004,-0.3856520354747772,-0.525273323059082
1788043746219885800,2.7328857421875,-1.3010149002075195,-0.2361191213130951,-0.41316336393356323
1788043746236248600,2.74924853515625,-1.4971342086791992,-0.12606127560138702,-0.41771820187568665
1788043746252305700,2.7653056640625,-1.444326400756836,-0.06098663806915283,-0.48901838064193726
1788043746268179000,2.781178955078125,-1.1904983520507812,-0.10085203498601913,-0.47013992071151733
1788043746284024000,2.797024169921875,-0.8457832336425781,-0.16088059544563293,-0.32390978932380676
1788043746300203000,2.813203125,-0.48421382904052734,-0.07109583914279938,-0.21006366610527039
1788043746316188000,2.82918798828125,-0.32604026794433594,0.0023900941014289856,-0.2504166066646576
1788043746332602000,2.84560205078125,-0.3666238784790039,0.036134421825408936,-0.4596130847930908
1788043746348418600,2.86141845703125,-0.41452693939208984,0.024844974279403687,-0.6026963591575623
1788043746364418600,2.87741845703125,-0.19207382202148438,0.03599973022937775,-0.5627661943435669
1788043746380561700,2.893561767578125,0.2027139663696289,-0.0010350346565246582,-0.47332578897476196
1788043746396666400,2.909666259765625,0.6883945465087891,0.09572362899780273,-0.5885441899299622
1788043746412951600,2.92595166015625,0.9775943756103516,0.19985246658325195,-0.5866103172302246
1788043746428689200,2.941689208984375,0.9867210388183594,0.2647925317287445,-0.34665533900260925
1788043746444976600,2.9579765625,0.8979320526123047,0.23527473211288452,-0.17287051677703857
1788043746460920800,2.9739208984375,0.8286800384521484,0.19579723477363586,-0.1537143886089325
1788043746477084000,2.990083984375,0.7024383544921875,0.03563643991947174,-0.1344858705997467
1788043746493283800,3.006283935546875,0.7825899124145508,-0.24057860672473907,-0.1425928920507431
1788043746509025000,3.02202490234375,1.0833768844604492,-0.1978071630001068,-0.35202261805534363
1788043746525130200,3.038130126953125,1.1112918853759766,0.7621493935585022,-0.3552349805831909
1788043746541207600,3.05420751953125,0.7772140502929688,0.5324888229370117,0.44384658336639404
1788043746557187800,3.070187744140625,0.4280815124511719,-1.017797589302063,0.7790109515190125
1788043746573563100,3.086563232421875,1.2078132629394531,-1.7950968742370605,0.005318164825439453
1788043746589280300,3.1022802734375,2.9586029052734375,-2.270477533340454,-0.7428766489028931
1788043746605321700,3.11832177734375,4.094038009643555,-2.23740816116333,-0.6714069843292236
1788043746621439000,3.13443896484375,3.776564598083496,-1.6530416011810303,-0.31861937046051025
1788043746637446700,3.15044677734375,1.4940385818481445,-0.99042809009552,0.05813413858413696
1788043746653821200,3.1668212890625,-1.181966781616211,-0.5772128701210022,0.538367509841919
1788043746669535700,3.18253564453125,-3.1284103393554688,-0.42549335956573486,0.7110295295715332
1788043746685642000,3.19864208984375,-3.5190320014953613,-0.5791258215904236,0.562395453453064
1788043746702017300,3.215017333984375,-2.477598190307617,-0.8980913162231445,0.46183305978775024
1788043746717688000,3.23068798828125,-0.7819089889526367,-1.244901180267334,0.4130108952522278
1788043746734095600,3.247095703125,0.2865304946899414,-1.467759609222412,0.3840004503726959
1788043746749946400,3.2629462890625,0.6782999038696289,-1.3702809810638428,0.18394918739795685
1788043746765915000,3.278914794921875,0.2879009246826172,-1.0628303289413452,0.09797440469264984
1788043746782047000,3.295046875,-0.4852914810180664,-0.7445992827415466,0.049277350306510925
1788043746798355700,3.311355712890625,-1.2679901123046875,-0.2988949418067932,-0.18115036189556122
1788043746814410000,3.327409912109375,-1.7585277557373047,-0.09292242676019669,-0.29743698239326477
1788043746830107600,3.343107666015625,-1.8923125267028809,-0.05350912734866142,-0.2899182140827179
1788043746846135300,3.35913525390625,-1.6839427947998047,0.032448865473270416,-0.27581536769866943
1788043746862335200,3.375335205078125,-1.4878454208374023,0.15453892946243286,-0.1389465630054474
1788043746878319600,3.391319580078125,-1.3637380599975586,0.23606175184249878,0.04743433743715286
1788043746894713600,3.407713623046875,-1.2683839797973633,0.2639104425907135,0.09380190819501877
1788043746910458600,3.423458740234375,-1.115438461303711,0.24538272619247437,0.11553336679935455
1788043746926472400,3.439472412109375,-0.844996452331543,0.2038533240556717,0.11975999921560287
1788043746942916900,3.455916748046875,-0.5337400436401367,0.14478799700737,0.27645736932754517
1788043746958665000,3.4716650390625,-0.15298843383789062,-0.08733218908309937,0.3971712291240692
1788043746975042600,3.48804248046875,0.13439083099365234,-0.22259557247161865,0.4096528887748718
1788043746990784800,3.50378466796875,0.36429882049560547,-0.3075345754623413,0.3507978916168213
1788043747006879700,3.519879638671875,0.7402420043945312,-0.3944680988788605,0.2600835859775543
1788043747022980600,3.535980712890625,1.128133773803711,-0.5296661853790283,0.23156289756298065
1788043747038906400,3.55190625,1.3100271224975586,-0.530046284198761,0.22702795267105103
1788043747055378700,3.568378662109375,1.415156364440918,-0.5576227307319641,0.12138636410236359
1788043747071056100,3.58405615234375,1.3240222930908203,-0.7018630504608154,-0.26103267073631287
1788043747087091500,3.600091552734375,1.2187089920043945,-0.7209208011627197,-0.6567745208740234
1788043747103233500,3.616233642578125,0.9220352172851562,0.40415245294570923,-0.47854501008987427
1788043747119221500,3.632221435546875,0.905522346496582,0.43137696385383606,0.018911926075816154
1788043747135713300,3.64871337890625,1.2839345932006836,-1.2019413709640503,0.35284048318862915
1788043747151380700,3.664380615234375,2.7804794311523438,-2.3680970668792725,-0.16490599513053894
1788043747167463200,3.680463134765625,4.354518890380859,-2.650116443634033,-0.7901006937026978
1788043747183571700,3.69657177734375,5.070181846618652,-2.763824462890625,-1.2058441638946533
1788043747199583700,3.712583740234375,3.9651899337768555,-2.3543193340301514,-1.3526923656463623
1788043747215998700,3.728998779296875,1.775864601135254,-1.6970551013946533,-1.2605671882629395
1788043747231630600,3.744630615234375,-0.7942724227905273,-1.0978419780731201,-1.2410211563110352
1788043747247660500,3.76066064453125,-2.2855448722839355,-0.7670035362243652,-1.2671478986740112
1788043747263805000,3.776804931640625,-2.6964731216430664,-0.5419068336486816,-1.4147329330444336
1788043747279801900,3.7928017578125,-2.2316689491271973,-0.41503190994262695,-1.4497406482696533
1788043747296170800,3.809170654296875,-1.5948410034179688,-0.5579524040222168,-1.2579060792922974
1788043747312327400,3.825327392578125,-1.1640357971191406,-0.7341222167015076,-1.0808165073394775
1788043747327927000,3.840927001953125,-1.2095012664794922,-0.8152878880500793,-1.024242877960205
1788043747344105500,3.85710546875,-1.309901237487793,-0.8234215974807739,-0.8347472548484802
1788043747360095200,3.87309521484375,-1.305109977722168,-0.8800607919692993,-0.5545755624771118
1788043747376498000,3.889497802734375,-1.192793846130371,-0.8317259550094604,-0.3350764513015747
1788043747392219000,3.905218994140625,-1.1667795181274414,-0.7159822583198547,-0.17950518429279327
1788043747408247300,3.921247314453125,-1.2509546279907227,-0.5692311525344849,-0.1770019233226776
1788043747424433700,3.93743359375,-1.3877687454223633,-0.3548116683959961,-0.34382325410842896
1788043747440565800,3.953565673828125,-1.4311389923095703,-0.19530543684959412,-0.46128833293914795
1788043747456879000,3.969879150390625,-1.4146394729614258,-0.05950034782290459,-0.6024214029312134
1788043747472628000,3.9856279296875,-1.2424688339233398,0.0035123005509376526,-0.6945589780807495
1788043747488570600,4.001570556640625,-0.9169063568115234,-0.0021934732794761658,-0.6158603429794312
1788043747504914200,4.0179140625,-0.591059684753418,0.0008261576294898987,-0.5125542879104614
1788043747520708900,4.033708984375,-0.3104419708251953,0.1463269591331482,-0.432367742061615
1788043747537128700,4.050128662109375,-0.18298721313476562,0.293089896440506,-0.47961366176605225
1788043747552844300,4.06584423828125,0.05451202392578125,0.3495689928531647,-0.6208574175834656
1788043747569055700,4.0820556640625,0.40654754638671875,0.34925463795661926,-0.5853369832038879
1788043747585089500,4.098089599609375,0.5213165283203125,0.3112700283527374,-0.27103984355926514
1788043747601283800,4.114283935546875,0.5092487335205078,0.3409150242805481,-0.18467247486114502
1788043747617422600,4.130422607421875,0.5692481994628906,0.3138244152069092,-0.285605788230896
1788043747633316600,4.146316650390625,0.8497867584228516,0.09067818522453308,-0.35405030846595764
1788043747649259300,4.16225927734375,1.1158428192138672,-0.2503710985183716,-0.36022302508354187
1788043747665317000,4.178317138671875,1.4199085235595703,-0.6322557926177979,-0.505302369594574
1788043747681311000,4.19431103515625,1.7237367630004883,-0.9159085750579834,-0.6143078804016113
1788043747697718000,4.210718017578125,1.9198799133300781,-0.5613600015640259,-0.9226413369178772
1788043747713570600,4.226570556640625,1.543818473815918,0.466744601726532,-0.42643219232559204
1788043747729384200,4.24238427734375,1.0097980499267578,-0.4934367537498474,0.21684350073337555
1788043747745636600,4.25863671875,0.8775367736816406,-1.945224642753601,0.07593439519405365
1788043747761547800,4.2745478515625,1.8672409057617188,-2.521212100982666,-0.22541646659374237
1788043747777999400,4.290999267578125,3.46978759765625,-2.6843152046203613,-0.3479323983192444
1788043747793637000,4.30663720703125,3.9193506240844727,-2.233154058456421,-0.048072583973407745
1788043747809685800,4.322685791015625,2.6168746948242188,-1.4167989492416382,0.3131190538406372
1788043747825814300,4.338814208984375,0.13907623291015625,-0.7463926076889038,0.667638897895813
1788043747841970000,4.354969970703125,-1.923588752746582,-0.6396424174308777,0.9872274994850159
1788043747858248400,4.37124853515625,-2.8222217559814453,-0.6349462866783142,1.1035921573638916
1788043747874307600,4.3873076171875,-2.526866912841797,-0.6018892526626587,0.9586637616157532
1788043747889990100,4.402990234375,-1.7681522369384766,-0.5929104089736938,0.7092611789703369
1788043747906124500,4.41912451171875,-0.9431171417236328,-0.6861847639083862,0.3809729814529419
1788043747922173700,4.435173583984375,-0.7693367004394531,-0.7711741924285889,0.11455925554037094
1788043747938571000,4.451571044921875,-0.8489904403686523,-0.8979033827781677,-0.04980802908539772
1788043747954280200,4.4672802734375,-0.8180131912231445,-0.9327204823493958,-0.08947494626045227
1788043747970462500,4.48346240234375,-0.7506885528564453,-0.8151448965072632,-0.18973982334136963
1788043747986550500,4.499550537109375,-0.5919523239135742,-0.6717678308486938,-0.29217612743377686
1788043748002522400,4.5155224609375,-0.7012128829956055,-0.4883086383342743,-0.279718279838562
1788043748018887700,4.5318876953125,-1.0043916702270508,-0.23316437005996704,-0.1286015510559082
1788043748034588200,4.547588134765625,-1.3172836303710938,0.027066221460700035,-0.004541128873825073
1788043748050609700,4.563609619140625,-1.5180606842041016,0.227172389626503,-0.011682718992233276
1788043748066758400,4.57975830078125,-1.573080062866211,0.25800272822380066,-0.08183696866035461
1788043748082758100,4.595758056640625,-1.3647842407226562,0.2323795109987259,-0.12615352869033813
1788043748099161300,4.612161376953125,-0.9384927749633789,0.28310200572013855,-0.028190791606903076
1788043748114902500,4.627902587890625,-0.46668529510498047,0.35370534658432007,0.043076783418655396
1788043748131339000,4.644339111328125,-0.14109516143798828,0.3389773666858673,0.024757295846939087
1788043748147089400,4.66008935546875,0.06940174102783203,0.18953481316566467,0.0884171724319458
1788043748163046400,4.67604638671875,0.1505603790283203,0.2704477310180664,0.026870548725128174
1788043748179445800,4.69244580078125,0.3635139465332031,0.4112089276313782,-0.02335384488105774
1788043748195108000,4.708108154296875,0.6724300384521484,0.43978357315063477,0.03946086764335632
1788043748211136800,4.72413671875,0.8784494400024414,0.42601278424263,0.04056929051876068
1788043748227436300,4.740436279296875,0.8378763198852539,0.22755557298660278,0.028269335627555847
1788043748243278000,4.756278076171875,0.902552604675293,-0.2927885055541992,-0.07964730262756348
1788043748259691500,4.77269140625,1.5344715118408203,-1.0331295728683472,-0.1849077045917511
1788043748275378400,4.78837841796875,2.3289852142333984,-1.128890872001648,-0.3961341977119446
1788043748291380000,4.8043798828125,2.6805315017700195,-0.1207902729511261,-0.2367401421070099
1788043748307781400,4.820781494140625,2.4768457412719727,-0.1789366900920868,0.3241226077079773
1788043748323523000,4.836523193359375,1.947617530822754,-1.0488618612289429,-0.10485261678695679
1788043748339943200,4.852943115234375,2.0813283920288086,-1.8005133867263794,-1.173134684562683
1788043748355640000,4.86864013671875,2.947284698486328,-2.4489622116088867,-1.647933840751648
1788043748371613000,4.884613037109375,3.7486534118652344,-2.7524361610412598,-1.5004242658615112
1788043748387749000,4.9007490234375,3.6864757537841797,-2.280977249145508,-1.0718796253204346
1788043748403872300,4.916872314453125,2.6197071075439453,-2.0713937282562256,-0.6052234768867493
1788043748420143900,4.933143798828125,1.1014137268066406,-1.9429062604904175,-0.7005705833435059
1788043748436183000,4.94918310546875,-0.47562694549560547,-1.635310173034668,-0.7448582053184509
1788043748451789800,4.964789794921875,-1.5181913375854492,-1.2813693284988403,-0.793319582939148
1788043748467974400,4.980974365234375,-2.101682662963867,-1.1749792098999023,-0.8057739734649658
1788043748483885300,4.99688525390625,-2.1797051429748535,-1.2233896255493164,-0.7140655517578125
1788043748500239000,5.013239013671875,-2.0242538452148438,-1.2496864795684814,-0.49560657143592834
1788043748515931400,5.028931396484375,-1.6328010559082031,-1.1860613822937012,-0.15384763479232788
1788043748531934000,5.044933837890625,-1.3377952575683594,-1.1793200969696045,0.2999555468559265
1788043748548118000,5.061117919921875,-1.2273368835449219,-1.1840522289276123,0.6658331155776978
1788043748564214500,5.077214599609375,-1.4756278991699219,-1.1225275993347168,0.8196246027946472
1788043748580477700,5.093477783203125,-1.8097214698791504,-0.97563236951828,0.7670758962631226
1788043748596168000,5.10916796875,-2.1839346885681152,-0.7873518466949463,0.6008979678153992
1788043748612333300,5.125333251953125,-2.375753402709961,-0.5545926690101624,0.5375617742538452
1788043748628664600,5.14166455078125,-2.3879494667053223,-0.32445958256721497,0.5016651749610901
1788043748644351000,5.15735107421875,-2.2254843711853027,-0.13124123215675354,0.3053218722343445
1788043748660708000,5.1737080078125,-1.8667783737182617,0.0011333227157592773,0.0034053530544042587
1788043748676469000,5.189468994140625,-1.3979787826538086,0.06858870387077332,-0.0699344277381897
1788043748692856300,5.205856201171875,-0.9554653167724609,0.06327888369560242,0.011365916579961777
1788043748708641000,5.22164111328125,-0.48900604248046875,0.22268599271774292,-0.09684468060731888
1788043748724625400,5.23762548828125,0.10202312469482422,0.2448747158050537,-0.4388427436351776
1788043748740989700,5.25398974609375,0.2481069564819336,0.04808008670806885,-0.6833881139755249
1788043748756682000,5.269681884765625,0.24648284912109375,-0.25822341442108154,-0.8761230707168579
1788043748772884700,5.285884765625,0.3149261474609375,-0.16366666555404663,-1.1745308637619019
1788043748788861400,5.301861328125,0.646937370300293,0.005483835935592651,-1.5590370893478394
1788043748805092400,5.31809228515625,1.2599563598632812,0.009350508451461792,-1.687928557395935
1788043748821289000,5.3342890625,1.879964828491211,-0.22816362977027893,-1.3876816034317017
1788043748836947200,5.349947265625,2.2815914154052734,-0.5624582767486572,-1.0260226726531982
1788043748852953600,5.36595361328125,2.5777807235717773,-0.904678463935852,-0.7434152364730835
1788043748869119700,5.38211962890625,2.85512638092041,-1.0055937767028809,-0.4603233337402344
1788043748885150700,5.398150634765625,2.898336410522461,0.13580873608589172,-0.555094838142395
1788043748901576700,5.41457666015625,2.2742395401000977,1.2364251613616943,0.12758395075798035
1788043748917280000,5.430280029296875,1.4592609405517578,-0.2144697606563568,1.3033006191253662
1788043748933298200,5.446298095703125,1.3887462615966797,-1.479891061782837,0.8402293920516968
1788043748949732000,5.462732177734375,2.279539108276367,-1.9957544803619385,-0.1958932876586914
1788043748965411800,5.478411865234375,3.353386878967285,-2.4212005138397217,-0.3362456262111664
1788043748981821700,5.49482177734375,3.2611122131347656,-2.1769402027130127,0.3757091760635376
1788043748997538000,5.5105380859375,1.6617403030395508,-1.468830943107605,1.1314796209335327
1788043749013556700,5.526556640625,-0.21482467651367188,-1.2144237756729126,1.4808964729309082
1788043749029712600,5.542712646484375,-1.7531471252441406,-1.1518785953521729,1.588214635848999
1788043749045711600,5.558711669921875,-2.642518997192383,-0.965040922164917,1.4370819330215454
1788043749062093600,5.575093505859375,-2.6845998764038086,-0.78793865442276,1.0548096895217896
1788043749077818400,5.590818359375,-2.2585368156433105,-0.9590646624565125,0.792268693447113
1788043749094048300,5.60704833984375,-1.5841598510742188,-1.2964935302734375,0.4342283606529236
1788043749110172400,5.62317236328125,-1.0237932205200195,-1.3916616439819336,0.11776179075241089
1788043749126063000,5.63906298828125,-0.960627555847168,-1.2859834432601929,0.05390176177024841
1788043749142333200,5.655333251953125,-1.1095895767211914,-1.0765124559402466,-0.0060176849365234375
1788043749158055400,5.671055419921875,-1.3389606475830078,-0.8788940906524658,-0.10265733301639557
1788043749174267100,5.68726708984375,-1.533982276916504,-0.6633304357528687,-0.14869245886802673
1788043749190246400,5.703246337890625,-1.6376209259033203,-0.38400882482528687,-0.08532397449016571
1788043749206276000,5.719276123046875,-1.731431007385254,-0.11769792437553406,0.06927253305912018
1788043749222603800,5.735603759765625,-1.7054195404052734,0.08102485537528992,0.331897109746933
1788043749238580700,5.751580810546875,-1.710540771484375,0.2639296352863312,0.43209969997406006
1788043749254776600,5.767776611328125,-1.5672626495361328,0.3046104311943054,0.4830550253391266
1788043749270644000,5.78364404296875,-1.2325305938720703,0.13884049654006958,0.5211026668548584
1788043749286661400,5.799661376953125,-0.7925958633422852,0.03634321689605713,0.4359692931175232
1788043749302951200,5.815951171875,-0.2546663284301758,-0.012214034795761108,0.2672700881958008
1788043749318690000,5.83168994140625,0.40291500091552734,-0.1571243405342102,0.27418044209480286
1788043749334732000,5.84773193359375,0.8523893356323242,-0.310463011264801,0.300737202167511
1788043749350981600,5.863981689453125,1.048370361328125,-0.29886895418167114,0.2244933545589447
1788043749366995700,5.87999560546875,1.034379005432129,-0.09257790446281433,0.10176747292280197
1788043749383259400,5.89625927734375,1.0041418075561523,0.10329684615135193,0.19025734066963196
1788043749398898400,5.9118984375,0.7563085556030273,0.17773577570915222,0.31839627027511597
1788043749414923500,5.927923583984375,0.5635757446289062,0.17293542623519897,0.3216899037361145
1788043749439065900,5.95206591796875,0.7971677780151367,-0.40306591987609863,-0.010459661483764648
1788043749455045600,5.968045654296875,1.364959716796875,-0.9506351947784424,-0.40883034467697144
1788043749471231700,5.984231689453125,1.6237335205078125,-0.3840283155441284,-0.6627355813980103
1788043749487171600,6.000171630859375,1.5284404754638672,0.5349717140197754,-0.37392657995224
1788043749503651800,6.01665185546875,1.1723833084106445,-0.23692883551120758,-0.17620748281478882
1788043749519363300,6.03236328125,1.2608575820922852,-1.2318272590637207,-0.6885238289833069
1788043749535365000,6.048365234375,2.26271915435791,-1.8379228115081787,-1.065626859664917
1788043749551500500,6.06450048828125,3.4887046813964844,-2.355888605117798,-1.079309105873108
1788043749567593500,6.080593505859375,4.152417182922363,-2.5878756046295166,-0.8512041568756104
1788043749583881200,6.096881103515625,3.7303409576416016,-2.2458953857421875,-0.7474362254142761
1788043749599594000,6.112593994140625,2.342329978942871,-1.8390626907348633,-0.6959304213523865
1788043749615974700,6.128974609375,0.7354259490966797,-1.7366787195205688,-0.7801851034164429
1788043749631751400,6.14475146484375,-0.45365047454833984,-1.667612910270691,-0.7619053721427917
1788043749647663600,6.16066357421875,-1.1326913833618164,-1.5133048295974731,-0.6698323488235474
1788043749664123000,6.177122802734375,-1.4751310348510742,-1.2643083333969116,-0.6058598160743713
1788043749679991800,6.19299169921875,-1.5465564727783203,-1.1845000982284546,-0.6382849812507629
1788043749695870000,6.208869873046875,-1.4299192428588867,-1.253774642944336,-0.39451509714126587
1788043749712035800,6.225035888671875,-1.347341537475586,-1.1801091432571411,-0.07103508710861206
1788043749728008200,6.24100830078125,-1.3126239776611328,-1.0715655088424683,0.16197630763053894
1788043749744436000,6.25743603515625,-1.4858531951904297,-0.9834869503974915,0.3202916085720062
1788043749760204800,6.273204833984375,-1.7257089614868164,-0.8088719248771667,0.2576482892036438
1788043749776247600,6.28924755859375,-2.0513949394226074,-0.4990427494049072,0.08867235481739044
1788043749792348000,6.305347900390625,-2.3051013946533203,-0.3441561162471771,-0.01857740432024002
1788043749808566800,6.32156689453125,-2.408173084259033,-0.3558862507343292,0.013253066688776016
1788043749824735000,6.33773486328125,-2.0687971115112305,-0.26577723026275635,-0.12637904286384583
1788043749840495900,6.353495849609375,-1.6292705535888672,-0.18937382102012634,-0.0494537316262722
1788043749856535000,6.36953515625,-1.2496013641357422,-0.17854617536067963,-0.04009208083152771
1788043749872691000,6.38569091796875,-1.123560905456543,-0.15115313231945038,-0.20518794655799866
1788043749888616700,6.40161669921875,-0.9518194198608398,-0.09213891625404358,-0.4560728073120117
1788043749905055000,6.418054931640625,-0.6004924774169922,-0.03940385580062866,-0.6364203691482544
1788043749921118200,6.4341181640625,-0.21319866180419922,-0.09367267787456512,-0.7427412867546082
1788043749936891100,6.44989111328125,0.15746116638183594,-0.1307888627052307,-0.8723093271255493
1788043749952915000,6.4659150390625,0.4731149673461914,-0.0043298304080963135,-0.9649398922920227
1788043749968989200,6.4819892578125,0.6835088729858398,0.09372544288635254,-0.8251861929893494
1788043749985328600,6.49832861328125,0.8869667053222656,0.1114392876625061,-0.531208872795105
1788043750001396000,6.51439599609375,0.9495029449462891,0.21578726172447205,-0.40212032198905945
1788043750017049300,6.53004931640625,0.9715385437011719,0.35448166728019714,-0.3727608621120453
1788043750033226800,6.546226806640625,0.9625530242919922,0.2536808252334595,-0.44310179352760315
1788043750049171700,6.562171630859375,1.209528923034668,-0.07396334409713745,-0.5538676381111145
1788043750065609500,6.578609375,1.676382064819336,-0.49497950077056885,-0.6734783053398132
1788043750081348400,6.594348388671875,2.1789493560791016,-0.5838519334793091,-0.7408989667892456
1788043750097272000,6.61027197265625,2.1213645935058594,0.4271172285079956,-0.6290353536605835
1788043750113592300,6.62659228515625,1.4488258361816406,0.7428970336914062,0.3366556763648987
1788043750129808400,6.642808349609375,0.8457422256469727,-0.6562750339508057,0.9276005625724792
1788043750145849600,6.658849609375,1.1542139053344727,-1.6643728017807007,0.40475234389305115
1788043750161639000,6.674638916015625,2.340351104736328,-2.164069175720215,-0.18205875158309937
1788043750177967900,6.6909677734375,3.4569177627563477,-2.4210357666015625,-0.1169511079788208
1788043750193714400,6.70671435546875,3.2883119583129883,-1.877892255783081,0.1615738868713379
1788043750209685000,6.72268505859375,1.763296127319336,-1.2251286506652832,0.42110303044319153
1788043750226075600,6.73907568359375,-0.6193656921386719,-0.8410508036613464,0.8485975861549377
1788043750241782000,6.754781982421875,-2.3059659004211426,-0.6539229154586792,1.1304121017456055
1788043750257809400,6.770809326171875,-3.0255889892578125,-0.718085527420044,1.2327804565429688
1788043750273979000,6.786978759765625,-2.5236549377441406,-0.8353718519210815,1.1664179563522339
1788043750289922600,6.802922607421875,-1.3584976196289062,-1.0567296743392944,1.045976161956787
1788043750306417200,6.819417236328125,-0.37902355194091797,-1.3697723150253296,0.8411596417427063
1788043750322119000,6.835118896484375,0.14084911346435547,-1.6921786069869995,0.4980197250843048
1788043750338050800,6.85105078125,0.3905906677246094,-1.9051637649536133,0.15207141637802124
1788043750354279000,6.86727880859375,0.4513692855834961,-1.8178071975708008,-0.14636915922164917
1788043750370225200,6.88322509765625,0.3183002471923828,-1.464823842048645,-0.27810388803482056
1788043750386630400,6.89963037109375,-0.1542835235595703,-1.1012541055679321,-0.12949734926223755
1788043750402355500,6.91535546875,-0.7985820770263672,-0.6841751337051392,-0.012081392109394073
1788043750418303700,6.9313037109375,-1.5477514266967773,-0.243326798081398,-0.0701383501291275
1788043750434755000,6.947755126953125,-2.0166077613830566,0.06055381894111633,-0.12174565345048904
1788043750450584000,6.963583984375,-2.255711555480957,0.29970282316207886,-0.1550188511610031
1788043750466878200,6.979878173828125,-2.1574487686157227,0.4294814467430115,-0.12488105893135071
1788043750482921700,6.995921630859375,-1.7840642929077148,0.4149574935436249,-0.05869166553020477
1788043750498556400,7.011556396484375,-1.2312688827514648,0.36721503734588623,-0.0547204464673996
1788043750514735600,7.027735595703125,-0.7671136856079102,0.3736411929130554,0.006561785936355591
1788043750530683100,7.04368310546875,-0.5135488510131836,0.4237600564956665,0.08011312782764435
1788043750547107000,7.060107177734375,-0.26943206787109375,0.44029515981674194,0.21892493963241577
1788043750562865000,7.075864990234375,0.11606884002685547,0.33917272090911865,0.4012928605079651
1788043750578801700,7.0918017578125,0.5974407196044922,0.33305150270462036,0.43902572989463806
1788043750594966800,7.107966796875,0.8945941925048828,0.4677887260913849,0.37185800075531006
1788043750610918100,7.123918212890625,1.0051450729370117,0.5227171182632446,0.20313426852226257
1788043750627399000,7.14039892578125,0.7784957885742188,0.5098181366920471,0.06882484257221222
1788043750643192300,7.1561923828125,0.4444255828857422,0.5946052074432373,-0.015437215566635132
1788043750659368200,7.1723681640625,0.22284412384033203,0.5486040115356445,-0.21940475702285767
1788043750675265000,7.18826513671875,0.5370693206787109,0.24393191933631897,-0.3566894829273224
1788043750691212800,7.204212890625,1.0949316024780273,-0.12205823510885239,-0.36607468128204346
1788043750707697700,7.22069775390625,1.6955385208129883,-0.41596370935440063,-0.2959063649177551
1788043750723411700,7.23641162109375,2.1886720657348633,-0.522305965423584,-0.24981297552585602
1788043750739822300,7.252822265625,2.5052223205566406,0.08804203569889069,-0.5084165334701538
1788043750755590400,7.26859033203125,2.116286277770996,0.4793423116207123,-0.4336034953594208
1788043750771566300,7.28456640625,1.4715118408203125,-0.06127279996871948,-0.10392722487449646
1788043750788018000,7.301017822265625,1.362813949584961,-0.43972712755203247,-0.35492733120918274
1788043750803991300,7.3169912109375,1.9907159805297852,-0.8496286273002625,-0.7004302740097046
1788043750819811000,7.33281103515625,2.917080879211426,-1.8598535060882568,-0.350249707698822
1788043750835945700,7.34894580078125,3.374086380004883,-2.4768309593200684,0.05424150824546814
1788043750851903700,7.36490380859375,2.9675559997558594,-2.399610757827759,0.012595146894454956
1788043750868367400,7.381367431640625,1.7225580215454102,-2.128014087677002,-0.29284313321113586
1788043750884076800,7.397076904296875,0.17153263092041016,-2.024075746536255,-0.4610210061073303
1788043750900053000,7.413052978515625,-1.4003944396972656,-1.9802430868148804,-0.5902774333953857
1788043750916531500,7.429531494140625,-2.3666772842407227,-1.9493355751037598,-0.5634781122207642
1788043750932146400,7.445146484375,-2.794282913208008,-1.8817596435546875,-0.37690937519073486
1788043750948619300,7.461619384765625,-2.5935864448547363,-1.793119192123413,-0.21195034682750702
1788043750964329200,7.4773291015625,-2.0658388137817383,-1.8569567203521729,0.01467975601553917
1788043750980310800,7.493310791015625,-1.435502052307129,-1.9387357234954834,0.27860569953918457
1788043750996839700,7.509839599609375,-0.9120960235595703,-1.8695578575134277,0.45779627561569214
1788043751012444400,7.5254443359375,-0.582554817199707,-1.6331487894058228,0.6110320091247559
1788043751028886500,7.541886474609375,-0.6475610733032227,-1.3378629684448242,0.6514293551445007
1788043751044600600,7.5576005859375,-0.9034862518310547,-1.031112551689148,0.580816388130188
1788043751060608300,7.573608154296875,-1.262044906616211,-0.8402831554412842,0.42906972765922546
1788043751076809000,7.58980908203125,-1.5082111358642578,-0.703687310218811,0.15136580169200897
1788043751092806100,7.60580615234375,-1.520040512084961,-0.5774527788162231,-0.19559182226657867
1788043751109200600,7.62220068359375,-1.455306053161621,-0.49696314334869385,-0.27691850066185
1788043751124896500,7.637896484375,-1.4147443771362305,-0.48556461930274963,-0.27432411909103394
1788043751140944400,7.6539443359375,-1.2067203521728516,-0.4766501188278198,-0.2589699923992157
1788043751157084700,7.670084716796875,-0.8960409164428711,-0.39534297585487366,-0.25939807295799255
1788043751173102300,7.686102294921875,-0.4032020568847656,-0.361419677734375,-0.07667332887649536
1788043751189565400,7.7025654296875,-0.022687911987304688,-0.2651658058166504,-0.09895390272140503
1788043751205217800,7.7182177734375,0.1522808074951172,-0.2045886516571045,-0.05238780379295349
1788043751221280500,7.734280517578125,0.2417898178100586,-0.13917741179466248,0.12626054883003235
1788043751237383000,7.7503828125,0.12119388580322266,0.03693908452987671,0.2682775855064392
1788043751253311500,7.7663115234375,0.12304210662841797,0.14920830726623535,0.33365941047668457
1788043751269823000,7.782822998046875,0.15378093719482422,0.07137793302536011,0.28169405460357666
1788043751285463300,7.79846337890625,0.249237060546875,0.06901827454566956,0.25432127714157104
1788043751301883000,7.8148828125,0.5195035934448242,0.09798863530158997,0.3067096173763275
1788043751317559800,7.830559814453125,0.7563018798828125,-0.005631178617477417,0.23922568559646606
1788043751333498600,7.84649853515625,0.9836711883544922,-0.19219040870666504,0.20508889853954315
1788043751349929200,7.86292919921875,1.2662677764892578,-0.3787502944469452,0.20094338059425354
1788043751365615900,7.878615966796875,1.5848722457885742,-0.49563437700271606,0.007322400808334351
1788043751381583400,7.894583251953125,1.8341751098632812,-0.6202054023742676,-0.26815617084503174
1788043751397715200,7.910715087890625,1.9687347412109375,-0.5311651229858398,-0.4978157877922058
1788043751413667300,7.926667236328125,1.8090181350708008,0.27769479155540466,-0.650322675704956
1788043751430165500,7.94316552734375,1.4339466094970703,0.7430117130279541,-0.02001616358757019
1788043751445807900,7.958807861328125,1.4396638870239258,-0.4799630045890808,0.3171745836734772
1788043751461773300,7.974773193359375,1.5000133514404297,-1.1126608848571777,-0.11453111469745636
1788043751477925600,7.990925537109375,2.0309972763061523,-1.3010733127593994,-0.34760308265686035
1788043751493835800,8.006835693359376,2.398283004760742,-1.8849178552627563,-0.11930053681135178
1788043751510264600,8.0232646484375,2.4755287170410156,-2.1212973594665527,-0.05245089530944824
1788043751525926000,8.03892578125,2.0072851181030273,-1.804391860961914,0.19494739174842834
1788043751541881900,8.0548818359375,0.9441452026367188,-1.7015228271484375,0.7061155438423157
1788043751558422000,8.071422119140625,-0.1965503692626953,-1.947346806526184,1.0276598930358887
1788043751573958100,8.086958251953124,-0.9796619415283203,-2.1545233726501465,0.8433190584182739
1788043751590405600,8.103405517578125,-1.2578010559082031,-2.015251874923706,0.6431739926338196
1788043751606092500,8.119092529296875,-1.2233686447143555,-1.8936233520507812,0.7544370293617249
1788043751622067000,8.13506689453125,-1.0650854110717773,-2.008697032928467,1.015588402748108
1788043751638299100,8.151299072265624,-0.9287109375,-2.0401554107666016,0.8405923247337341
1788043751654222800,8.167222900390625,-0.7376623153686523,-2.1644017696380615,0.7052631378173828
1788043751670664400,8.18366455078125,-0.5326604843139648,-2.2195146083831787,0.5867221355438232
1788043751686372900,8.199372802734375,-0.43309879302978516,-2.1354236602783203,0.5079138278961182
1788043751702345000,8.215344970703125,-0.5046596527099609,-1.8929929733276367,0.5222269296646118
1788043751718512600,8.2315126953125,-0.8602256774902344,-1.5707846879959106,0.6959652900695801
1788043751734480100,8.247480224609374,-1.3298654556274414,-1.3157554864883423,0.7994998097419739
1788043751750977000,8.26397705078125,-1.6960515975952148,-1.1654232740402222,0.7111815214157104
1788043751766656000,8.279656005859374,-1.8104057312011719,-1.0502097606658936,0.6897474527359009
1788043751782647300,8.295647216796874,-1.7168769836425781,-1.0124194622039795,0.6916611194610596
1788043751798988800,8.31198876953125,-1.236124038696289,-1.109918475151062,0.6450531482696533
1788043751815214300,8.32821435546875,-0.6049928665161133,-1.263724684715271,0.4993687868118286
1788043751831217400,8.344217529296875,-0.029061317443847656,-1.3461205959320068,0.20899885892868042
1788043751846922000,8.359921875,0.3171195983886719,-1.450089454650879,0.020310968160629272
1788043751862851000,8.37585107421875,0.5773820877075195,-1.5731908082962036,-0.21117261052131653
1788043751879053300,8.39205322265625,0.790130615234375,-1.5517600774765015,-0.5174415707588196
1788043751895021300,8.408021240234374,0.840510368347168,-1.382033109664917,-0.75328129529953
1788043751911503000,8.424503173828125,0.6662435531616211,-1.2009708881378174,-0.6593723297119141
1788043751927126500,8.44012646484375,0.2816934585571289,-0.9090002775192261,-0.4815051555633545
1788043751943193900,8.45619384765625,-0.2127218246459961,-0.609556257724762,-0.2493920922279358
1788043751959333400,8.47233349609375,-0.6543817520141602,-0.47953352332115173,-0.019978344440460205
1788043751975262500,8.488262451171876,-0.8160362243652344,-0.433279424905777,-0.08793178200721741
1788043751991730400,8.50473046875,-0.7436590194702148,-0.4203069806098938,-0.005386382341384888
1788043752007421400,8.52042138671875,-0.40329742431640625,-0.40535253286361694,-0.0177994966506958
1788043752023400000,8.53639990234375,-0.08454418182373047,-0.36208629608154297,-0.0012263953685760498
1788043752039754000,8.55275390625,-0.04568672180175781,-0.390827476978302,0.0903472751379013
1788043752055578400,8.568578369140624,-0.1048593521118164,-0.441185861825943,0.09933005273342133
1788043752072061200,8.585061279296875,-0.10649394989013672,-0.45828017592430115,0.109595388174057
1788043752087751400,8.60075146484375,0.02371501922607422,-0.40594449639320374,0.20359373092651367
1788043752103904800,8.61690478515625,0.22833251953125,-0.30972638726234436,0.3935604393482208
1788043752119909000,8.6329091796875,0.30843353271484375,-0.24952295422554016,0.5298194885253906
1788043752135867400,8.648867431640625,0.3164501190185547,-0.11653348803520203,0.48497796058654785
1788043752152368000,8.6653681640625,0.39141082763671875,-0.0706045925617218,0.299951434135437
1788043752168119800,8.681119873046875,0.6101894378662109,-0.17121541500091553,0.14013993740081787
1788043752184020000,8.69702001953125,0.9131879806518555,-0.23674634099006653,0.020167648792266846
1788043752200202500,8.713202392578125,1.159235954284668,-0.20231279730796814,-0.1729198694229126
1788043752216120300,8.729120361328125,1.2903594970703125,-0.2855481207370758,-0.2658941149711609
1788043752232558800,8.745558837890625,1.1794157028198242,-0.35236355662345886,-0.2215028703212738
1788043752248226300,8.761226318359375,0.8090724945068359,-0.24001970887184143,-0.1576792597770691
1788043752264389000,8.77738916015625,0.38283252716064453,-0.1415492296218872,-0.09644517302513123
1788043752280487400,8.7934873046875,0.035160064697265625,-0.08930063247680664,-0.0016412734985351562
1788043752296330500,8.80933056640625,-0.12846660614013672,0.03779551386833191,0.1092965304851532
1788043752312763400,8.825763427734374,-0.24680137634277344,0.13044574856758118,0.25699374079704285
1788043752328825600,8.84182568359375,-0.35809326171875,0.13975748419761658,0.390654057264328
1788043752344439800,8.857439697265624,-0.46196937561035156,0.1908673346042633,0.4389601945877075
1788043752360726300,8.873726318359376,-0.44596290588378906,0.14228226244449615,0.5686746835708618
1788043752376962300,8.88996240234375,-0.29795074462890625,0.03592684864997864,0.7114289999008179
1788043752392997400,8.905997314453124,0.02511310577392578,-0.049002230167388916,0.7375521659851074
1788043752409055700,8.9220556640625,0.3625335693359375,-0.10784885287284851,0.8246221542358398
1788043752424727800,8.937727783203124,0.4866914749145508,-0.10968318581581116,0.9506130814552307
1788043752440905500,8.953905517578125,0.5124387741088867,-0.11352699995040894,0.9925727844238281
1788043752456866300,8.9698662109375,0.4422569274902344,-0.09029799699783325,0.928207516670227
1788043752473234000,8.98623388671875,0.30499744415283203,-0.17928993701934814,1.0101637840270996
1788043752489211400,9.00221142578125,0.1916513442993164,-0.21223774552345276,1.0010372400283813
1788043752505051000,9.01805078125,0.13823986053466797,-0.16296634078025818,0.9424260854721069
1788043752521161200,9.0341611328125,0.1277790069580078,-0.1439121961593628,0.9183530807495117
1788043752537451300,9.050451171875,0.1363391876220703,-0.19059476256370544,0.7546902894973755
1788043752553506300,9.06650634765625,0.2765817642211914,-0.24694609642028809,0.5231941342353821
1788043752569235200,9.082235107421875,0.46727752685546875,-0.2564236521720886,0.36142289638519287
1788043752585430300,9.09843017578125,0.5791339874267578,-0.301780641078949,0.3396390378475189
1788043752601441000,9.11444091796875,0.4325075149536133,-0.3377104103565216,0.4215456247329712
1788043752617346600,9.1303466796875,0.22379589080810547,-0.3227475881576538,0.26905328035354614
1788043752633801500,9.146801513671875,0.027199745178222656,-0.3132525086402893,0.09692193567752838
1788043752649557200,9.16255712890625,-0.16692543029785156,-0.367546021938324,-0.027257882058620453
1788043752665836500,9.17883642578125,-0.3007488250732422,-0.4016056954860687,-0.021474741399288177
1788043752681908700,9.19490869140625,-0.3480110168457031,-0.4413699805736542,-0.18757915496826172
1788043752697643500,9.2106435546875,-0.3305654525756836,-0.5313804149627686,-0.24491360783576965
1788043752714119000,9.227118896484376,-0.1739501953125,-0.6577236652374268,-0.2643625736236572
1788043752729916200,9.242916259765625,-0.005030632019042969,-0.6910091638565063,-0.3931227922439575
1788043752745921000,9.258921142578124,0.053954124450683594,-0.7107491493225098,-0.44203633069992065
1788043752762039000,9.2750390625,-0.028283119201660156,-0.6580091714859009,-0.3445632755756378
1788043752778026500,9.291026611328125,-0.12494277954101562,-0.6132791042327881,-0.34209778904914856
1788043752794416600,9.307416748046874,-0.14485836029052734,-0.6487719416618347,-0.3619184195995331
1788043752810147600,9.323147705078124,0.000514984130859375,-0.7130019664764404,-0.4232950508594513
1788043752826127000,9.339127197265626,0.10523319244384766,-0.5524668097496033,-0.4813814163208008
1788043752842549000,9.355549072265624,0.13560771942138672,-0.47029876708984375,-0.42230793833732605
1788043752858278700,9.371278564453124,0.1203927993774414,-0.43260306119918823,-0.3819862902164459
1788043752874697500,9.387697509765625,0.1510629653930664,-0.443422794342041,-0.3413917124271393
1788043752890760000,9.403760009765625,0.17991352081298828,-0.649686336517334,-0.4333353638648987
1788043752906486500,9.419486572265624,0.41551685333251953,-0.95332932472229,-0.5613198280334473
1788043752922621400,9.435621337890625,0.8148021697998047,-1.0465278625488281,-0.48235130310058594
1788043752938471200,9.45147119140625,1.0989446640014648,-0.8127718567848206,-0.18612690269947052
1788043752954977000,9.46797705078125,0.9822549819946289,-0.5019105672836304,-0.03185907006263733
1788043752970933800,9.483933837890625,0.4186897277832031,-0.21085220575332642,0.03166341781616211
1788043752986888700,9.499888671875,-0.2686882019042969,-0.029245197772979736,0.0702407956123352
1788043753002911700,9.515911865234376,-0.7554893493652344,0.09097278118133545,0.18285468220710754
1788043753018797000,9.531797119140625,-0.798736572265625,0.15315455198287964,0.26540762186050415
1788043753035258400,9.54825830078125,-0.5895099639892578,0.15913605690002441,0.30722832679748535
1788043753050997500,9.56399755859375,-0.23101520538330078,0.11019134521484375,0.19609129428863525
1788043753066954200,9.579954345703126,0.06275081634521484,0.016698241233825684,0.07776308059692383
1788043753083160300,9.596160400390625,0.24606800079345703,-0.008473098278045654,-0.09772580862045288
1788043753099116800,9.61211669921875,0.4048948287963867,-0.02825915813446045,-0.21561244130134583
1788043753115577000,9.6285771484375,0.5514888763427734,-0.0594668984413147,-0.1754654347896576
1788043753131298300,9.64429833984375,0.69586181640625,-0.024354100227355957,-0.17467793822288513
1788043753147668200,9.660668212890625,0.6872892379760742,0.10285937786102295,-0.24942943453788757
1788043753163435300,9.676435302734374,0.5325069427490234,0.25878727436065674,-0.2625065743923187
1788043753179376400,9.69237646484375,0.3411073684692383,0.3348110616207123,-0.25676971673965454
1788043753195807000,9.708806884765625,0.13802337646484375,0.3803754448890686,-0.24903464317321777
1788043753211554000,9.724553955078125,0.0010442733764648438,0.41706573963165283,-0.2068580985069275
1788043753227505000,9.7405048828125,-0.10528755187988281,0.48350584506988525,-0.22877705097198486
1788043753243948300,9.7569482421875,-0.19553184509277344,0.5027739405632019,-0.3253447115421295
1788043753259574000,9.772573974609376,-0.2210521697998047,0.42726874351501465,-0.38535404205322266
1788043753275987000,9.788987060546875,-0.10518455505371094,0.3009107708930969,-0.30840688943862915
1788043753291695400,9.8046953125,0.07356739044189453,0.19868242740631104,-0.2825494110584259
1788043753307723500,9.8207236328125,0.2718324661254883,0.18727856874465942,-0.3208574652671814
1788043753323897300,9.8368974609375,0.2809610366821289,0.12810954451560974,-0.2772359251976013
1788043753339821300,9.8528212890625,0.21350669860839844,0.09233269095420837,-0.305453360080719
1788043753356293600,9.869293701171875,0.019128799438476562,0.10233485698699951,-0.30858105421066284
1788043753372033300,9.885033203125,-0.2732515335083008,0.22479389607906342,-0.2020431011915207
1788043753388004600,9.901004638671875,-0.4287595748901367,0.2683345377445221,-0.2319827526807785
1788043753404425000,9.917425048828125,-0.392242431640625,0.2702413499355316,-0.2148267775774002
1788043753420128000,9.9331279296875,-0.2402935028076172,0.2880173325538635,-0.1683202087879181
1788043753436545500,9.949545654296875,-0.1384115219116211,0.23510654270648956,-0.16843703389167786
1788043753452609000,9.965609130859375,-0.09386634826660156,0.2533097565174103,-0.15692093968391418
1788043753468485600,9.981485595703125,-0.1618213653564453,0.29476943612098694,-0.1372980773448944
1788043753484447000,9.997447021484374,-0.20580196380615234,0.1952226758003235,-0.08926175534725189
1788043753500398300,10.0133984375,-0.13704299926757812,0.016753658652305603,-0.04971526563167572
1788043753516852700,10.029852783203125,0.03495597839355469,-0.02557578682899475,-0.050351619720458984
1788043753532609800,10.04560986328125,0.1496286392211914,0.004934325814247131,-0.021732941269874573
1788043753548566000,10.06156591796875,0.16129684448242188,0.09190254658460617,0.0639159232378006
1788043753564872000,10.077871826171876,-0.1145477294921875,0.11807325482368469,0.035972267389297485
1788043753580880600,10.093880615234376,-0.3018617630004883,0.24339941143989563,-0.06219618767499924
1788043753597151500,10.1101513671875,-0.27595996856689453,0.27020835876464844,0.020691923797130585
1788043753612907500,10.125907470703124,0.03744697570800781,0.09083859622478485,0.018981218338012695
1788043753628906800,10.14190673828125,0.2816324234008789,-0.05290110409259796,-0.15235260128974915
1788043753645097200,10.15809716796875,0.5977153778076172,-0.10329475998878479,-0.4411817789077759
1788043753661092900,10.1740927734375,0.83477783203125,-0.3043719530105591,-0.7131389379501343
1788043753677438700,10.190438720703124,0.9353103637695312,-0.45549681782722473,-0.8815566301345825
1788043753693157600,10.20615771484375,0.7556352615356445,-0.4192277491092682,-0.9052420258522034
1788043753709535200,10.22253515625,0.5782899856567383,-0.3097599446773529,-0.9746254086494446
1788043753725369600,10.23836962890625,0.4632558822631836,-0.16429108381271362,-1.095330834388733
1788043753741314300,10.254314208984376,0.4800853729248047,-0.10717184841632843,-1.0780702829360962
1788043753757711600,10.270711669921875,0.48751354217529297,-0.0028035789728164673,-1.0870469808578491
1788043753773589200,10.28658935546875,0.4615440368652344,0.09134471416473389,-1.1143567562103271
1788043753789407200,10.3024072265625,0.2584981918334961,0.16017797589302063,-1.0939435958862305
1788043753805639000,10.318638916015624,0.031757354736328125,0.21038037538528442,-1.0906689167022705
1788043753821545200,10.334545166015625,-0.2017221450805664,0.25516563653945923,-1.1095302104949951
1788043753838008300,10.35100830078125,-0.4582338333129883,0.29663488268852234,-1.1649188995361328
1788043753853696300,10.3666962890625,-0.5988340377807617,0.2770843207836151,-1.2443358898162842
1788043753869713000,10.382712890625,-0.5927133560180664,0.2205868363380432,-1.080148696899414
1788043753885987800,10.39898779296875,-0.3752555847167969,0.1920967847108841,-0.9757453799247742
1788043753901785000,10.41478515625,-0.20044231414794922,0.08505307137966156,-0.9096277356147766
1788043753918285800,10.431285888671875,0.018281936645507812,-0.06338077783584595,-0.8355150818824768
1788043753934082000,10.44708203125,0.125030517578125,-0.1454320102930069,-0.8508458137512207
1788043753949985500,10.462985595703126,0.2397317886352539,-0.15524441003799438,-0.8238049149513245
1788043753966465800,10.4794658203125,0.23972320556640625,-0.15056461095809937,-0.6910154819488525
1788043753982100700,10.495100830078124,0.21458053588867188,-0.21619382500648499,-0.5199207067489624
1788043753998623200,10.511623291015624,0.21672534942626953,-0.19425153732299805,-0.290871262550354
1788043754014694700,10.527694580078125,0.21218013763427734,-0.10571366548538208,-0.14982640743255615
1788043754030363000,10.54336279296875,0.20118999481201172,-0.06062239781022072,0.09337007999420166
1788043754046547500,10.55954736328125,0.006865501403808594,0.10546805709600449,0.1927317976951599
1788043754062491100,10.5754912109375,-0.21886062622070312,0.24884428083896637,0.1867716908454895
1788043754078937900,10.591937744140624,-0.3773336410522461,0.20610648393630981,0.2521796226501465
1788043754094677800,10.607677734375,-0.3843708038330078,0.24227282404899597,0.28458935022354126
1788043754110647300,10.623647216796876,-0.1734914779663086,0.34880682826042175,0.2957828640937805
1788043754126800400,10.63980029296875,0.03664970397949219,0.33736172318458557,0.3410862684249878
1788043754142762500,10.655762451171874,0.15023231506347656,0.2652946412563324,0.26445096731185913
1788043754159216000,10.672216064453124,0.20140361785888672,0.2514241933822632,0.10486149787902832
1788043754174892300,10.687892333984376,0.20501995086669922,0.2029089480638504,0.09179401397705078
1788043754190938600,10.703938720703125,0.08904266357421875,0.169658824801445,0.09876316785812378
1788043754207059200,10.72005908203125,0.20773601531982422,0.1106787621974945,0.07477569580078125
1788043754223032300,10.7360322265625,0.38119029998779297,0.05974038690328598,0.16271936893463135
1788043754239464400,10.75246435546875,0.5396823883056641,0.0681486502289772,0.21361738443374634
1788043754255146500,10.768146484375,0.5300045013427734,0.09548187255859375,0.24877995252609253
1788043754271566800,10.78456689453125,0.23719215393066406,0.20015132427215576,0.25272417068481445
1788043754287580700,10.80058056640625,-0.019712448120117188,0.3103690445423126,0.3196026086807251
1788043754303352800,10.816352783203126,-0.19054603576660156,0.385127454996109,0.3186098337173462
1788043754319707400,10.832707275390625,-0.14110183715820312,0.3494422435760498,0.375406414270401
1788043754335723000,10.848722900390625,0.04459571838378906,0.19370323419570923,0.5381463766098022
1788043754351483100,10.864483154296876,0.3162498474121094,0.13346165418624878,0.5333176851272583
1788043754367572000,10.880572021484374,0.5473356246948242,0.038813330233097076,0.477739542722702
1788043754383695600,10.896695556640625,0.6640443801879883,-0.057342465966939926,0.374668687582016
1788043754400006700,10.913006591796876,0.7476816177368164,-0.07228949666023254,0.32831713557243347
1788043754415685000,10.92868505859375,0.5278081893920898,0.08325687050819397,0.2610135078430176
1788043754431679700,10.9446796875,0.2007312774658203,0.2295275777578354,0.25585758686065674
1788043754447857700,10.960857666015626,-0.16921138763427734,0.29888731241226196,0.3440505862236023
1788043754463794700,10.976794677734375,-0.41461658477783203,0.29578566551208496,0.32600533962249756
1788043754480305700,10.9933056640625,-0.4564332962036133,0.3286201059818268,0.29493045806884766
1788043754496006000,11.009005859375,-0.4334392547607422,0.3609529733657837,0.41575685143470764
1788043754512032000,11.025031982421876,-0.42223548889160156,0.385042667388916,0.4612385928630829
1788043754528495900,11.041495849609374,-0.408416748046875,0.3063737452030182,0.5118624567985535
1788043754544173000,11.057173095703124,-0.3898630142211914,0.1786780059337616,0.5637947916984558
1788043754560642800,11.073642822265626,-0.1515064239501953,0.10169956088066101,0.6589904427528381
1788043754576378400,11.08937841796875,0.1487293243408203,0.09155973792076111,0.6155483722686768
1788043754592601000,11.10560107421875,0.39852046966552734,-0.009069815278053284,0.7308449745178223
1788043754608486000,11.12148583984375,0.5886459350585938,-0.012025699019432068,0.8227784037590027
1788043754624561700,11.137561767578125,0.5088081359863281,0.10219429433345795,0.7769891023635864
1788043754640904400,11.153904541015624,0.23556137084960938,0.1849684715270996,0.6587076187133789
1788043754656666600,11.16966650390625,-0.04215049743652344,0.23268942534923553,0.57994145154953
1788043754672601000,11.18560107421875,-0.19771480560302734,0.22803308069705963,0.5178334712982178
1788043754688966100,11.201966064453124,-0.10674667358398438,0.24817922711372375,0.4172044098377228
1788043754704883700,11.2178837890625,0.08703899383544922,0.2015465348958969,0.274025022983551
1788043754721195500,11.234195556640625,0.2951526641845703,0.19347751140594482,0.1510472148656845
1788043754736860000,11.24985986328125,0.31659698486328125,0.26746833324432373,0.27839159965515137
1788043754753122000,11.2661220703125,0.22092723846435547,0.2967680096626282,0.37473511695861816
1788043754769115400,11.282115478515625,0.027263641357421875,0.2648549973964691,0.18394702672958374
1788043754785019000,11.298018798828124,-0.1446666717529297,0.29303690791130066,0.035999663174152374
1788043754801457700,11.314457763671875,-0.18726253509521484,0.3287178575992584,0.014228157699108124
1788043754817250800,11.330250732421876,-0.10545158386230469,0.33687806129455566,0.13628701865673065
1788043754833601300,11.346601318359374,-0.033202171325683594,0.3091126084327698,0.23195530474185944
1788043754849356500,11.3623564453125,-0.006405830383300781,0.3457723557949066,0.2217077612876892
1788043754865333500,11.37833349609375,-0.13260936737060547,0.41143277287483215,0.2539859116077423
1788043754881791500,11.39479150390625,-0.32559871673583984,0.4901748299598694,0.14242039620876312
1788043754897489000,11.410489013671874,-0.34619808197021484,0.4278029799461365,-0.052224528044462204
1788043754913531600,11.42653173828125,-0.2330331802368164,0.3127176761627197,-0.15531565248966217
1788043754929669400,11.44266943359375,0.07111835479736328,0.2604788541793823,-0.13447991013526917
1788043754945619700,11.45861962890625,0.40832996368408203,0.2243487536907196,0.019863225519657135
1788043754962100200,11.475100341796875,0.6807765960693359,0.17252734303474426,0.16404229402542114
1788043754977971500,11.490971435546875,0.6707115173339844,0.17752599716186523,0.24722041189670563
1788043754993855000,11.50685498046875,0.5627822875976562,0.31427231431007385,0.27383604645729065
1788043755010085000,11.523085205078125,0.4934825897216797,0.3719254434108734,0.11214960366487503
1788043755025968000,11.538968017578124,0.3359384536743164,0.465088427066803,0.004476100206375122
1788043755042430200,11.55543017578125,0.049569129943847656,0.624049186706543,-0.015592783689498901
1788043755058131700,11.571131591796876,-0.1718587875366211,0.6455949544906616,0.016717150807380676
1788043755074095000,11.58709521484375,-0.23021221160888672,0.5931777954101562,0.05483494699001312
1788043755090558700,11.603558837890626,-0.08021259307861328,0.42909666895866394,0.006364956498146057
1788043755106506200,11.61950634765625,0.11255168914794922,0.28364986181259155,-0.07190261036157608
1788043755122665700,11.635665771484375,0.24266338348388672,0.1516892910003662,-0.13819953799247742
1788043755138338000,11.651338134765625,0.21680641174316406,0.048325419425964355,-0.17669837176799774
1788043755154281500,11.667281494140624,0.12867069244384766,0.032101571559906006,-0.1608116328716278
1788043755170511000,11.683510986328125,0.00946807861328125,0.037452757358551025,-0.029178671538829803
1788043755186482200,11.699482177734374,-0.11929130554199219,0.02626490592956543,0.15341424942016602
1788043755202897700,11.715897705078126,-0.28409290313720703,0.024834871292114258,0.10041187703609467
1788043755218621200,11.73162109375,-0.30800914764404297,-0.04482978582382202,0.013314694166183472
1788043755234786000,11.7477861328125,-0.11700725555419922,-0.10113170742988586,0.12237761914730072
1788043755250894300,11.763894287109375,0.0951995849609375,0.051422297954559326,0.15401844680309296
1788043755266729200,11.779729248046875,0.1831226348876953,0.18115991353988647,0.21038509905338287
1788043755283174000,11.796173828125,0.08238697052001953,0.24264490604400635,0.2590578496456146
1788043755299093500,11.812093505859375,-0.17817401885986328,0.33257776498794556,0.22519928216934204
1788043755314915300,11.827915283203126,-0.3737373352050781,0.44579237699508667,0.1712762415409088
1788043755331117600,11.84411767578125,-0.396820068359375,0.47416383028030396,0.11797244101762772
1788043755347443700,11.860443603515625,-0.17348861694335938,0.3908349871635437,0.03527145832777023
1788043755363469300,11.87646923828125,0.08075237274169922,0.27476227283477783,0.008721031248569489
1788043755379155200,11.8921552734375,0.35165882110595703,0.20298361778259277,0.007072173058986664
1788043755395188700,11.908188720703125,0.4718360900878906,0.08405107259750366,0.027990393340587616
1788043755411377400,11.92437744140625,0.3335552215576172,-0.17802214622497559,0.09003132581710815
1788043755427343400,11.94034326171875,0.1977214813232422,-0.3494599759578705,0.0388249009847641
1788043755443830300,11.956830322265626,0.4375734329223633,-0.5337971448898315,-0.0677424967288971
1788043755459529700,11.97252978515625,0.8182840347290039,-0.5223713517189026,-0.08379790931940079
1788043755475558400,11.988558349609375,0.8044013977050781,-0.07986938953399658,-0.24075862765312195
1788043755491731000,12.00473095703125,0.3607206344604492,0.04390209913253784,-0.161536306142807
1788043755507909400,12.020909423828124,-0.1735820770263672,-0.23577198386192322,-0.2966238856315613
1788043755524111600,12.037111572265625,-0.4459543228149414,-0.43685677647590637,-0.35921511054039
1788043755539806200,12.05280615234375,-0.11729621887207031,-0.47839194536209106,-0.4998844563961029
1788043755555870200,12.0688701171875,0.3898782730102539,-0.7211410999298096,-0.4445905089378357
1788043755572052500,12.085052490234375,1.137497901916504,-1.1368451118469238,-0.4607638716697693
1788043755587957500,12.10095751953125,1.6173553466796875,-1.415596842765808,-0.4574846029281616
1788043755604391700,12.1173916015625,2.0429134368896484,-1.432735800743103,-0.6888816356658936
1788043755620227000,12.13322705078125,1.9453792572021484,-1.2287514209747314,-0.8873332738876343
1788043755636116200,12.1491162109375,1.3008995056152344,-0.991765022277832,-0.9462676048278809
1788043755652609800,12.16560986328125,0.3394489288330078,-0.6820464134216309,-0.9006963968276978
1788043755668313900,12.18131396484375,-0.40808963775634766,-0.532988429069519,-0.9276297092437744
1788043755684726000,12.19772607421875,-0.8061418533325195,-0.5802831649780273,-1.0260624885559082
1788043755700472600,12.21347265625,-0.7691307067871094,-0.6422396898269653,-1.0241789817810059
1788043755716361000,12.22936083984375,-0.3700380325317383,-0.6729260683059692,-0.8553786873817444
1788043755732590600,12.245590576171875,-0.028411865234375,-0.8100392818450928,-0.6321505904197693
1788043755748555000,12.261554931640624,0.05917167663574219,-0.9102473855018616,-0.5065237879753113
1788043755764985000,12.277985107421875,-0.04712963104248047,-0.968696117401123,-0.45222291350364685
1788043755780914200,12.2939140625,-0.14445114135742188,-0.964167058467865,-0.3453713655471802
1788043755796853200,12.309853271484375,-0.2157907485961914,-0.822340190410614,-0.1272881031036377
1788043755812990200,12.325990234375,-0.2889890670776367,-0.5841333866119385,-0.01976791024208069
1788043755828921900,12.341921875,-0.39031124114990234,-0.32956385612487793,0.007460683584213257
1788043755845363700,12.35836376953125,-0.6803483963012695,-0.15533575415611267,-0.04789505898952484
1788043755861092000,12.374092041015626,-0.7713613510131836,-0.06559392809867859,-0.1242578774690628
1788043755877224000,12.390223876953126,-0.8646526336669922,0.027313753962516785,-0.24808922410011292
1788043755893542000,12.4065419921875,-0.9196414947509766,0.13740135729312897,-0.29204580187797546
1788043755909626400,12.42262646484375,-0.9220552444458008,0.18670272827148438,-0.23299193382263184
1788043755925688000,12.43868798828125,-0.8503341674804688,0.23638330399990082,-0.16052782535552979
1788043755941454000,12.4544541015625,-0.7381305694580078,0.30158230662345886,-0.2529310882091522
1788043755957588200,12.470588134765626,-0.6044235229492188,0.2932964861392975,-0.2853182554244995
1788043755973676500,12.486676513671876,-0.4874849319458008,0.3008071482181549,-0.32670849561691284
1788043755989591600,12.502591552734375,-0.257965087890625,0.3317621946334839,-0.2961080074310303
1788043756006033700,12.51903369140625,-0.09072589874267578,0.41835251450538635,-0.2237498015165329
1788043756021783800,12.53478369140625,-0.028783798217773438,0.36067327857017517,-0.22016191482543945
1788043756037895200,12.550895263671874,0.016553878784179688,0.3190181255340576,-0.34028303623199463
1788043756053882600,12.566882568359375,0.14354705810546875,0.3916802406311035,-0.3769885301589966
1788043756069866200,12.5828662109375,0.30912208557128906,0.40050452947616577,-0.27068495750427246
1788043756086250500,12.59925048828125,0.5108575820922852,0.2888128459453583,-0.28373628854751587
1788043756101928700,12.6149287109375,0.719660758972168,0.18469543755054474,-0.3665834367275238
1788043756118100000,12.631099853515625,0.9187097549438477,0.04222775995731354,-0.3554176688194275
1788043756134081500,12.64708154296875,1.0601005554199219,-0.06446410715579987,-0.369309663772583
1788043756150010600,12.6630107421875,1.2612791061401367,-0.1690651774406433,-0.5139124393463135
1788043756166549200,12.67954931640625,1.323653221130371,0.022126153111457825,-0.7645501494407654
1788043756182146600,12.695146484375,1.0869178771972656,0.8115642666816711,-0.7952561974525452
1788043756198294300,12.711294189453126,0.6181192398071289,0.5995662212371826,0.0366508811712265
1788043756214345700,12.727345703125,0.3691244125366211,-0.43512171506881714,0.490991473197937
1788043756230251000,12.7432509765625,0.7489967346191406,-0.9130110740661621,0.25543129444122314
1788043756246709500,12.75970947265625,1.9640674591064453,-1.392216444015503,0.15768148005008698
1788043756262382600,12.775382568359374,3.1364994049072266,-2.027513265609741,0.2208595871925354
1788043756278387700,12.7913876953125,3.522393226623535,-1.9328639507293701,0.2805774211883545
1788043756294528000,12.807528076171875,2.563746452331543,-1.2862346172332764,0.2845190465450287
1788043756310473700,12.8234736328125,0.9138603210449219,-0.9196551442146301,0.5509343147277832
1788043756326915300,12.839915283203124,-0.9169321060180664,-0.7833112478256226,0.9558738470077515
1788043756342659300,12.855659423828126,-2.007575035095215,-0.6041849255561829,1.3232799768447876
1788043756358667300,12.871667236328125,-2.3742423057556152,-0.562066376209259,1.5381476879119873
1788043756374784500,12.887784423828125,-2.038975715637207,-0.7693924903869629,1.7682586908340454
1788043756390707000,12.90370703125,-1.2146902084350586,-1.0458457469940186,1.9086629152297974
1788043756407202300,12.920202392578124,-0.30066871643066406,-1.2836308479309082,1.6890560388565063
1788043756423301400,12.93630126953125,0.28780078887939453,-1.4015789031982422,1.203444242477417
1788043756438890000,12.951889892578125,0.44382572174072266,-1.3537805080413818,0.5980474352836609
1788043756455111200,12.968111083984375,0.15075206756591797,-1.3536168336868286,0.23784731328487396
1788043756471476000,12.98447607421875,-0.1748819351196289,-1.2250480651855469,0.0941903293132782
1788043756487540500,13.00054052734375,-0.46405792236328125,-0.8269514441490173,0.07017487287521362
1788043756503601700,13.0166015625,-0.7314739227294922,-0.4631999731063843,0.17385165393352509
1788043756519223000,13.03222314453125,-1.037261962890625,-0.1778658926486969,0.16085873544216156
1788043756535493000,13.0484931640625,-1.2120790481567383,-0.023972302675247192,0.2767551839351654
1788043756551518000,13.06451806640625,-1.308013916015625,0.14456328749656677,0.33547264337539673
1788043756567839200,13.080839111328125,-1.2174568176269531,0.21481728553771973,0.47558343410491943
1788043756583902200,13.096902099609375,-1.014552116394043,0.1787261813879013,0.5302598476409912
1788043756599533300,13.112533203125,-0.6486911773681641,0.1093447208404541,0.45700153708457947
1788043756615769300,13.128769287109375,-0.2563514709472656,0.1111634373664856,0.36703723669052124
1788043756631700700,13.14470068359375,-0.019448280334472656,0.17697548866271973,0.18192115426063538
1788043756648126700,13.161126708984375,0.06689834594726562,0.13277912139892578,0.08365064859390259
1788043756664043000,13.17704296875,0.057740211486816406,0.1616058647632599,0.09206788241863251
1788043756679819500,13.192819580078124,0.08225536346435547,0.25965550541877747,0.14078447222709656
1788043756696020000,13.20902001953125,0.18800640106201172,0.29024285078048706,0.1456085592508316
1788043756711886600,13.224886474609375,0.37722110748291016,0.3422796428203583,0.12590309977531433
1788043756728440800,13.24144091796875,0.4512166976928711,0.35856401920318604,0.06270569562911987
1788043756744075500,13.257075439453125,0.4703550338745117,0.3045255243778229,-0.057291269302368164
1788043756760080400,13.273080322265624,0.5018396377563477,0.21391203999519348,-0.03584745526313782
1788043756776254500,13.28925439453125,0.6916589736938477,0.10752555727958679,0.018208712339401245
1788043756792253000,13.3052529296875,0.960515022277832,-0.16438943147659302,0.19648882746696472
1788043756808732200,13.321732177734376,1.3366985321044922,-0.6014779806137085,0.42928004264831543
1788043756824399400,13.3373994140625,1.616485595703125,-0.6608591079711914,0.31001895666122437
1788043756840405800,13.35340576171875,1.776515007019043,-0.17274110019207,-0.16367509961128235
1788043756856592400,13.36959228515625,1.4442472457885742,0.593843936920166,-0.3165530562400818
1788043756872529000,13.38552880859375,0.5460796356201172,0.46025243401527405,0.04571336507797241
1788043756889008000,13.402008056640625,-0.38207149505615234,-0.10581058263778687,-0.13106858730316162
1788043756904854300,13.417854248046876,-0.3105049133300781,-0.37473878264427185,-0.5853492021560669
1788043756920717000,13.433717041015624,0.8555765151977539,-1.0498859882354736,-0.5486260652542114
1788043756936961500,13.44996142578125,2.175786018371582,-1.8223539590835571,-0.18437299132347107
1788043756952896300,13.465896240234375,2.7900238037109375,-1.8739752769470215,0.1449485719203949
1788043756969345500,13.482345458984375,2.27970027923584,-1.4547244310379028,0.27314406633377075
1788043756985410800,13.498410888671875,1.040182113647461,-1.1103792190551758,0.22308029234409332
1788043757000977000,13.513976806640626,-0.40367794036865234,-0.7528334856033325,-0.06796157360076904
1788043757017128400,13.53012841796875,-1.451338768005371,-0.6097871661186218,-0.1647755205631256
1788043757033078800,13.546078857421875,-1.709650993347168,-0.6307247877120972,-0.21934983134269714
1788043757049489700,13.56248974609375,-1.269948959350586,-0.7577472925186157,-0.3464146852493286
1788043757065198000,13.578197998046875,-0.6761960983276367,-0.8929493427276611,-0.29960110783576965
1788043757081164500,13.59416455078125,-0.2344493865966797,-1.010679841041565,-0.2122054100036621
1788043757097362200,13.610362060546874,-0.12843894958496094,-1.1074280738830566,-0.13978055119514465
1788043757113287700,13.62628759765625,-0.19229412078857422,-1.2273979187011719,0.1175447404384613
1788043757129735400,13.6427353515625,-0.2225055694580078,-1.3054957389831543,0.34832483530044556
1788043757145488400,13.65848828125,-0.14934253692626953,-1.1545214653015137,0.4768613576889038
1788043757161431600,13.674431640625,-0.20278072357177734,-0.8566485643386841,0.5224486589431763
1788043757177963000,13.690962890625,-0.5501194000244141,-0.5127750039100647,0.4340013265609741
1788043757193544700,13.706544677734374,-1.0326213836669922,-0.2932329475879669,0.3629755675792694
1788043757210030800,13.72303076171875,-1.4717721939086914,-0.06359249353408813,0.29466426372528076
1788043757225716000,13.738716064453126,-1.6639385223388672,0.07880936563014984,0.20227287709712982
1788043757241747000,13.754746826171875,-1.4467248916625977,0.12679289281368256,0.1572268158197403
1788043757257879000,13.770879150390625,-1.0094308853149414,0.1000121682882309,0.13986465334892273
1788043757273845000,13.786844970703125,-0.6128625869750977,0.0344795286655426,0.10000918060541153
1788043757290380000,13.803380126953124,-0.35984325408935547,0.04425935447216034,-0.1683569848537445
1788043757306075100,13.8190751953125,-0.29578590393066406,0.09558607637882233,-0.4354642629623413
1788043757322022100,13.835022216796874,-0.16924476623535156,0.09142548590898514,-0.48206648230552673
1788043757338232000,13.851232177734374,-0.056868553161621094,0.10124707967042923,-0.3948288857936859
1788043757354198000,13.867197998046874,0.024499893188476562,0.20132188498973846,-0.28431057929992676
1788043757370606300,13.8836064453125,0.10113716125488281,0.3133191466331482,-0.13384437561035156
1788043757386318000,13.899318115234376,0.10362434387207031,0.5297969579696655,-0.2352672666311264
1788043757402372600,13.91537255859375,0.11827564239501953,0.5681461095809937,-0.3053217828273773
1788043757418540500,13.93154052734375,0.2193155288696289,0.5256485342979431,-0.16809247434139252
1788043757434497500,13.94749755859375,0.38988494873046875,0.426224946975708,-0.0239078551530838
1788043757450945500,13.963945556640626,0.7350339889526367,0.22119447588920593,-0.0702551081776619
1788043757466661400,13.979661376953125,1.2593278884887695,-0.053412213921546936,-0.2448389083147049
1788043757482611700,13.99561181640625,1.8480682373046875,-0.231118842959404,-0.30841025710105896
1788043757498802000,14.011802001953125,2.0898494720458984,0.00568370521068573,-0.32930195331573486
1788043757514775800,14.02777587890625,1.5276002883911133,0.7552139759063721,-0.039313122630119324
1788043757531210800,14.044210693359375,0.7981557846069336,0.3484650254249573,0.5818825960159302
1788043757547330300,14.060330322265624,0.5523395538330078,-0.4664415121078491,0.579606294631958
1788043757562899700,14.075899658203125,1.0649299621582031,-0.7282997369766235,0.20775970816612244
1788043757579050800,14.09205078125,1.974142074584961,-1.082459568977356,0.01849447190761566
1788043757595228000,14.108227783203125,2.602842330932617,-1.4025540351867676,-0.053423985838890076
1788043757611513600,14.124513671875,2.3863039016723633,-1.2233482599258423,0.1214742511510849
1788043757627194600,14.140194580078125,1.5045433044433594,-0.9470662474632263,0.2311888039112091
1788043757643270100,14.156270263671875,0.2788972854614258,-0.7147607803344727,0.3740726411342621
1788043757659387000,14.172386962890625,-0.7612142562866211,-0.5546916723251343,0.4961807429790497
1788043757675359000,14.18835888671875,-1.614027976989746,-0.3993217349052429,0.7909388542175293
1788043757691780900,14.20478076171875,-1.8037986755371094,-0.414364218711853,1.0173277854919434
1788043757707468300,14.22046826171875,-1.477126121520996,-0.6133546829223633,1.2103418111801147
1788043757723629300,14.23662939453125,-0.8595657348632812,-0.8945115208625793,1.4183616638183594
1788043757739978500,14.252978515625,-0.20946788787841797,-1.2305717468261719,1.3886126279830933
1788043757755626500,14.26862646484375,0.19611644744873047,-1.462342619895935,1.0223554372787476
1788043757772086300,14.285086181640626,0.3217306137084961,-1.4443696737289429,0.5220116972923279
1788043757787938000,14.30093798828125,0.12691307067871094,-1.280524730682373,0.1267879158258438
1788043757804224300,14.317224365234376,-0.32187461853027344,-1.100131630897522,-0.03165056183934212
1788043757819947500,14.332947509765624,-0.6959590911865234,-0.8589575290679932,0.07143580168485641
1788043757836012300,14.34901220703125,-0.9856653213500977,-0.5705093741416931,0.20780740678310394
1788043757852413000,14.365412841796875,-1.1625871658325195,-0.3646857738494873,0.12435661256313324
1788043757868159000,14.381158935546875,-1.2076139450073242,-0.18033643066883087,0.0789734274148941
1788043757884292400,14.397292236328125,-1.1472339630126953,0.01261717826128006,0.08172235637903214
1788043757900314400,14.413314453125,-1.0413570404052734,0.16385221481323242,0.18809357285499573
1788043757916208600,14.429208740234374,-0.9859809875488281,0.2973943054676056,0.18162085115909576
1788043757932702200,14.4457021484375,-1.072087287902832,0.27321070432662964,0.16360044479370117
1788043757948464600,14.461464599609375,-1.083989143371582,0.15542426705360413,0.21868696808815002
1788043757964337700,14.477337646484376,-0.8132705688476562,0.1608201116323471,0.16236895322799683
1788043757980520200,14.493520263671876,-0.3675880432128906,0.18300901353359222,0.2923968732357025
1788043757996466400,14.509466552734375,-0.012868881225585938,0.21039792895317078,0.42444539070129395
1788043758012917200,14.525917236328125,0.2291555404663086,0.22489473223686218,0.45394307374954224
1788043758028647400,14.5416474609375,0.36083221435546875,0.2285328507423401,0.3300136625766754
1788043758044629200,14.557629150390625,0.26488590240478516,0.28667277097702026,0.33793210983276367
1788043758061091800,14.574091796875,0.19753170013427734,0.3574438691139221,0.4388706088066101
1788043758076729600,14.5897294921875,0.22130966186523438,0.3677906394004822,0.445121705532074
1788043758093199600,14.60619970703125,0.41944408416748047,0.3296273946762085,0.31549549102783203
1788043758109263600,14.622263671875,0.5746831893920898,0.3088625967502594,0.23182834684848785
1788043758125027800,14.63802783203125,0.6678171157836914,0.2921749949455261,0.10217440873384476
1788043758141031400,14.654031494140625,0.7179298400878906,0.18637913465499878,0.06411665678024292
1788043758157010200,14.67001025390625,0.8087797164916992,0.05472274869680405,0.07942754030227661
1788043758173473500,14.6864736328125,1.0552940368652344,-0.09845398366451263,0.09268155694007874
1788043758189342000,14.702342041015624,1.2013673782348633,0.002939067780971527,-0.03863723576068878
1788043758205146600,14.718146728515626,1.0531024932861328,0.760376513004303,-0.12702208757400513
1788043758221348000,14.73434814453125,0.6202793121337891,0.8544530272483826,-0.052517443895339966
1788043758237310000,14.75031005859375,0.1971750259399414,0.22746215760707855,-0.3020061254501343
1788043758253787000,14.766786865234375,0.46563148498535156,-0.29434913396835327,-0.7907860279083252
1788043758269853000,14.78285302734375,1.2961101531982422,-0.6920425891876221,-1.0524623394012451
1788043758285515800,14.798515869140624,2.2388038635253906,-1.2109951972961426,-0.8485690355300903
1788043758301691400,14.81469140625,2.554417610168457,-1.515917420387268,-0.679446816444397
1788043758318039300,14.831039306640625,2.058563232421875,-1.4645915031433105,-0.7295283675193787
1788043758334094000,14.847093994140625,1.2443532943725586,-1.3619072437286377,-0.8220458626747131
1788043758349794600,14.862794677734374,0.44468212127685547,-1.1790883541107178,-0.7900602221488953
1788043758366235600,14.879235595703125,-0.14877700805664062,-0.833949863910675,-0.8229259848594666
1788043758381995300,14.894995361328125,-0.6077003479003906,-0.5978449583053589,-0.8661803603172302
1788043758397900300,14.910900390625,-0.9825019836425781,-0.6365756988525391,-0.9094305038452148
1788043758414398000,14.92739794921875,-1.1542024612426758,-0.7247017621994019,-1.1075801849365234
1788043758430232800,14.94323291015625,-0.8352804183959961,-0.7442519068717957,-1.0958478450775146
1788043758446061800,14.959061767578126,-0.3371391296386719,-0.858916163444519,-0.8585874438285828
1788043758462254300,14.97525439453125,0.057394981384277344,-0.933427095413208,-0.6397908329963684
1788043758478219300,14.99121923828125,0.19071006774902344,-1.1643028259277344,-0.24507583677768707
1788043758494658800,15.007658935546875,0.16598033905029297,-1.3948886394500732,0.11437021195888519
1788043758510498600,15.02349853515625,0.24655723571777344,-1.3386410474777222,0.3003670275211334
1788043758526324200,15.03932421875,0.2194967269897461,-0.9770117402076721,0.3076322078704834
1788043758542551800,15.0555517578125,-0.17059898376464844,-0.5830215215682983,0.2932394742965698
1788043758558595600,15.071595703125,-0.9486713409423828,-0.2083544135093689,0.11341641843318939
1788043758574929700,15.0879296875,-1.6643552780151367,0.06906343251466751,0.08944456279277802
1788043758590789600,15.10378955078125,-2.080498695373535,0.1792091578245163,0.2519858777523041
1788043758606570200,15.1195703125,-2.151479721069336,0.2072276622056961,0.3649041950702667
1788043758623090200,15.136090087890626,-1.9011201858520508,0.056306757032871246,0.6119081974029541
1788043758638670000,15.151670166015625,-1.5310382843017578,-0.15301507711410522,0.6266308426856995
1788043758655166000,15.168166015625,-0.7613496780395508,-0.16147896647453308,0.29175227880477905
1788043758670915800,15.183915771484376,0.03181171417236328,-0.18693117797374725,0.09666532278060913
1788043758687299600,15.200299560546876,0.5205001831054688,-0.1573050618171692,-0.031196236610412598
1788043758703055400,15.216055419921876,0.6184663772583008,-0.15680238604545593,-0.19953739643096924
1788043758718979300,15.231979248046875,0.5341978073120117,-0.10688269138336182,-0.37457898259162903
1788043758735442700,15.248442626953125,0.36611175537109375,-0.011936575174331665,-0.2669948637485504
1788043758751156200,15.26415625,0.2340717315673828,0.05954776704311371,-0.14866262674331665
1788043758767228400,15.280228515625,0.14510345458984375,0.15483522415161133,-0.17282935976982117
1788043758783707000,15.296706787109375,0.024748802185058594,0.40293803811073303,-0.15286487340927124
1788043758799450000,15.3124501953125,-0.1006765365600586,0.7474023699760437,-0.09544140100479126
1788043758815865900,15.328865966796876,-0.1401662826538086,0.7946563363075256,-0.01602235436439514
1788043758831571200,15.3445712890625,0.17239856719970703,0.6859501600265503,-0.12819184362888336
1788043758847718400,15.360718505859374,0.7103338241577148,0.484694242477417,-0.16006450355052948
1788043758864019700,15.377019775390625,1.2269363403320312,0.35904407501220703,-0.1936260461807251
1788043758879716000,15.392716064453126,1.5952653884887695,0.2398974895477295,-0.1833353340625763
1788043758896122000,15.4091220703125,1.7123098373413086,0.23260824382305145,-0.2137814164161682
1788043758911879400,15.42487939453125,1.53973388671875,0.6860226392745972,-0.24990388751029968
1788043758928222000,15.441221923828126,1.1158313751220703,0.8449152708053589,0.05393119528889656
1788043758944018700,15.457018798828125,1.067941665649414,0.2484331727027893,0.08098741620779037
1788043758959968000,15.472968017578125,1.3410930633544922,-0.14963266253471375,-0.2579135298728943
1788043758976383500,15.489383544921875,1.7963972091674805,-0.5281137824058533,-0.483487606048584
1788043758992063500,15.5050634765625,2.2110843658447266,-1.040165662765503,-0.6582238674163818
1788043759008046000,15.521046142578125,2.158611297607422,-1.0845057964324951,-0.8323542475700378
1788043759024246000,15.53724609375,1.607583999633789,-0.8311194777488708,-0.6885583400726318
1788043759040126200,15.553126220703126,0.4840974807739258,-0.719681441783905,-0.42831718921661377
1788043759056565200,15.569565185546875,-0.6366100311279297,-0.6114065051078796,-0.29481741786003113
1788043759072420600,15.585420654296875,-1.51708984375,-0.40490615367889404,-0.19963866472244263
1788043759088284400,15.601284423828124,-2.016226291656494,-0.2903432846069336,-0.13859933614730835
1788043759104433200,15.61743310546875,-2.215865135192871,-0.32888904213905334,-0.04515804350376129
1788043759120397600,15.6333974609375,-2.0687084197998047,-0.45346951484680176,0.2851327061653137
1788043759136831500,15.64983154296875,-1.5511255264282227,-0.6845291256904602,0.6652635335922241
1788043759152893700,15.665893798828124,-0.8429994583129883,-1.1460579633712769,1.0174460411071777
1788043759168504800,15.6815048828125,-0.18088817596435547,-1.830233097076416,1.3420186042785645
1788043759192631600,15.705631591796875,0.6789674758911133,-2.2592523097991943,0.9327279329299927
1788043759209115600,15.72211572265625,1.0252017974853516,-2.172632932662964,0.5077760815620422
1788043759225053400,15.738053466796876,0.9147119522094727,-1.9759279489517212,0.13450093567371368
1788043759240830200,15.753830322265625,0.47887420654296875,-1.8586483001708984,0.048725299537181854
1788043759257217300,15.77021728515625,-0.19870567321777344,-1.5802669525146484,0.14006811380386353
1788043759272973300,15.785973388671875,-0.6774129867553711,-1.1366437673568726,0.12746542692184448
1788043759289056300,15.80205615234375,-0.9117574691772461,-0.8120074272155762,0.21047335863113403
1788043759305253000,15.818253173828126,-1.153304100036621,-0.598048210144043,0.22516313195228577
1788043759321184500,15.8341845703125,-1.2585325241088867,-0.3918868601322174,0.1324274241924286
1788043759337642200,15.850642333984375,-1.203394889831543,-0.27935755252838135,0.09220605343580246
1788043759353329700,15.86632958984375,-0.8751888275146484,-0.2904532253742218,0.1408490240573883
1788043759369358300,15.8823583984375,-0.41028785705566406,-0.3184458017349243,0.14355739951133728
1788043759385666600,15.89866650390625,0.09570693969726562,-0.3469198942184448,0.17267805337905884
1788043759401506800,15.9145068359375,0.4177837371826172,-0.4974617660045624,0.17674991488456726
1788043759417923600,15.930923583984375,0.6637411117553711,-0.6258993744850159,-0.009602446109056473
1788043759433642000,15.94664208984375,0.876643180847168,-0.603213369846344,-0.18459731340408325
1788043759449747200,15.962747314453125,0.9602470397949219,-0.4703214764595032,-0.21978788077831268
1788043759465801200,15.97880126953125,0.9069662094116211,-0.3207559585571289,-0.15156739950180054
1788043759482014500,15.995014404296874,0.7524480819702148,-0.11267867684364319,-0.11831369996070862
1788043759498209800,16.011209716796873,0.4225196838378906,0.1258833408355713,-0.11463557183742523
1788043759513909000,16.026908935546874,0.07535457611083984,0.21456798911094666,-0.1082364022731781
1788043759529944000,16.042944091796876,-0.008559226989746094,0.21457146108150482,-0.21809028089046478
1788043759546180900,16.059180908203125,0.1495065689086914,0.1703650951385498,-0.3963605761528015
1788043759562122200,16.075122314453125,0.4323740005493164,0.06876161694526672,-0.4941152334213257
1788043759578510300,16.09151025390625,0.6939229965209961,-0.05517929792404175,-0.2444574236869812
1788043759594575000,16.1075751953125,0.7375164031982422,-0.09375584125518799,0.04355868697166443
1788043759610420700,16.123420654296876,0.6752910614013672,-0.10912838578224182,0.13015443086624146
1788043759626460200,16.139460205078127,0.5787487030029297,-0.13552170991897583,0.2384478896856308
1788043759642388500,16.155388427734376,0.563079833984375,-0.16045328974723816,0.1975288987159729
1788043759658805800,16.1718056640625,0.44409847259521484,-0.039065808057785034,0.1521766185760498
1788043759674582000,16.18758203125,0.2483196258544922,0.2713300585746765,0.18776226043701172
1788043759690587000,16.2035869140625,0.05515003204345703,0.3497442603111267,0.3853555917739868
1788043759706892000,16.21989208984375,-0.2623558044433594,0.2687070369720459,0.4430944323539734
1788043759722743000,16.235742919921876,-0.3090066909790039,0.18684497475624084,0.2546764612197876
1788043759739106800,16.25210693359375,-0.12061023712158203,0.05017828941345215,0.038555875420570374
1788043759754882000,16.267882080078124,0.1351766586303711,-0.21692809462547302,-0.0885155200958252
1788043759770922800,16.2839228515625,0.6352319717407227,-0.40596869587898254,-0.22641751170158386
1788043759787088100,16.300088134765623,1.2019109725952148,-0.393161416053772,-0.29288938641548157
1788043759803031000,16.316031005859376,1.361246109008789,-0.3551894724369049,-0.2399623990058899
1788043759819360500,16.332360595703125,0.9341096878051758,-0.4846363663673401,0.05161933973431587
1788043759843285800,16.35628564453125,-0.2821054458618164,-0.4448142349720001,0.5032519102096558
1788043759859516000,16.372515869140624,-0.9008493423461914,-0.40261101722717285,0.687621533870697
1788043759875489000,16.388489013671876,-1.0618820190429688,-0.38496217131614685,0.7279224395751953
1788043759891360300,16.4043603515625,-0.8879928588867188,-0.30221062898635864,0.5855250358581543
1788043759907431400,16.420431396484375,-0.6621742248535156,-0.19641701877117157,0.6403273940086365
1788043759923391200,16.43639111328125,-0.5495424270629883,-0.12048271298408508,0.681495189666748
1788043759939835000,16.4528349609375,-0.5713043212890625,-0.09332732111215591,0.6183454990386963
1788043759955570200,16.468570068359377,-0.43517398834228516,-0.03653642535209656,0.34585654735565186
1788043759971593700,16.48459375,-0.1890277862548828,-0.13512501120567322,0.26508989930152893
1788043759987712500,16.50071240234375,0.08592605590820312,-0.1336245834827423,-0.03796066343784332
1788043760004056600,16.517056640625,0.14063453674316406,-0.13575908541679382,-0.4085696339607239
1788043760020088000,16.533088134765624,-0.17348575592041016,-0.19130271673202515,-0.46208882331848145
1788043760035817200,16.548817138671875,-0.6193780899047852,-0.17039728164672852,-0.5037357807159424
1788043760051867000,16.564866943359377,-0.7589244842529297,-0.2063298374414444,-0.5109632611274719
1788043760068135200,16.58113525390625,-0.5560874938964844,-0.23867519199848175,-0.49513792991638184
1788043760084202500,16.597202392578126,-0.2693967819213867,-0.2126237154006958,-0.4135202467441559
1788043760100368400,16.613368408203126,-0.1285419464111328,-0.1632186770439148,-0.37064406275749207
1788043760116095200,16.62909521484375,-0.025814056396484375,-0.22843381762504578,-0.3801659047603607
1788043760132121300,16.645121337890625,0.14884185791015625,-0.20559602975845337,-0.3475826680660248
1788043760148366000,16.661365966796875,0.3188180923461914,-0.14735324680805206,-0.23874476552009583
1788043760164357600,16.677357666015624,0.40989017486572266,-0.019103050231933594,-0.18560969829559326
1788043760180737000,16.693737060546876,0.3741121292114258,0.10935711115598679,-0.21697238087654114
1788043760196420900,16.7094208984375,0.3336009979248047,0.19280210137367249,-0.24370087683200836
1788043760212844000,16.725843994140625,0.32674121856689453,0.25359511375427246,-0.23085220158100128
1788043760228587000,16.7415869140625,0.39670658111572266,0.2518659234046936,-0.2052948772907257
1788043760244598500,16.7575986328125,0.3901653289794922,0.2602415084838867,-0.10538981854915619
1788043760261054500,16.774054443359375,0.3908958435058594,0.21177425980567932,0.0029301345348358154
1788043760276732200,16.789732177734376,0.39888954162597656,0.14374035596847534,-0.02121061086654663
1788043760292693800,16.80569384765625,0.46196746826171875,0.12931838631629944,-0.09858280420303345
1788043760308881200,16.821881103515626,0.4963655471801758,0.11364345997571945,-0.11402773857116699
1788043760332880400,16.84588037109375,0.34429454803466797,0.14800019562244415,-0.100892573595047
1788043760348994800,16.861994873046875,0.2347555160522461,0.17852982878684998,-0.12547039985656738
1788043760364968400,16.877968505859375,0.09149837493896484,0.1913725733757019,-0.1606488823890686
1788043760381441800,16.89444189453125,0.019941329956054688,0.253944456577301,-0.14912748336791992
1788043760397254000,16.91025390625,-0.058807373046875,0.2756567597389221,-0.16722804307937622
1788043760413575200,16.9265751953125,-0.1447134017944336,0.24737057089805603,-0.2151547074317932
1788043760429305000,16.94230517578125,-0.17546558380126953,0.20719458162784576,-0.20792725682258606
1788043760445390800,16.958390869140626,-0.16316509246826172,0.15279413759708405,-0.13606980443000793
1788043760461681400,16.974681396484375,-0.09587955474853516,0.07497766613960266,-0.1790766716003418
1788043760477566700,16.990566650390626,0.06720542907714844,-0.05196993052959442,-0.12065914273262024
1788043760493411800,17.006411865234377,0.15845775604248047,-0.1281941682100296,-0.12163931131362915
1788043760509560000,17.02256005859375,0.26892566680908203,-0.11705189943313599,-0.17261973023414612
1788043760525595100,17.03859521484375,0.40813350677490234,-0.1385684460401535,-0.1902698278427124
1788043760541970200,17.05497021484375,0.5162162780761719,-0.0901351273059845,-0.18355494737625122
1788043760557912800,17.070912841796876,0.5164661407470703,0.011795014142990112,-0.15548640489578247
1788043760573803300,17.08680322265625,0.46867847442626953,0.0899583250284195,-0.07137340307235718
1788043760589933800,17.102933837890625,0.33454036712646484,0.09639960527420044,0.09638234972953796
1788043760605912600,17.11891259765625,0.2003002166748047,0.09993691742420197,0.24959921836853027
1788043760622325200,17.1353251953125,0.18094539642333984,0.23043787479400635,0.19275906682014465
1788043760638041600,17.15104150390625,0.10893440246582031,0.22364410758018494,0.13326534628868103
1788043760654200300,17.167200439453126,0.03206634521484375,0.1034734919667244,0.19896584749221802
1788043760670553000,17.183552978515625,-0.013808250427246094,-0.02122529223561287,0.285305917263031
1788043760686272000,17.19927197265625,-0.0504302978515625,-0.022126927971839905,0.3779177665710449
1788043760702659600,17.21565966796875,-0.17835330963134766,0.006018579006195068,0.3756519854068756
1788043760718388200,17.23138818359375,-0.2247314453125,0.06209195405244827,0.15510614216327667
1788043760734784500,17.247784423828126,-0.21315479278564453,0.08731065690517426,0.011027365922927856
1788043760750606600,17.263606689453123,-0.21777915954589844,0.16573390364646912,0.07789012789726257
1788043760766594000,17.279593994140626,-0.22448253631591797,0.24650277197360992,0.1814466118812561
1788043760782932000,17.295931884765626,-0.2096090316772461,0.2967948019504547,0.15351727604866028
1788043760798661000,17.3116611328125,-0.1924114227294922,0.2557896077632904,0.09454581141471863
1788043760814730200,17.327730224609375,-0.060413360595703125,0.22012890875339508,0.07801106572151184
1788043760830972200,17.34397216796875,0.11232757568359375,0.23762954771518707,-0.014324784278869629
1788043760846833200,17.359833251953123,0.2968292236328125,0.18085235357284546,-0.018065959215164185
1788043760863184000,17.376183837890625,0.4046649932861328,0.0908609926700592,0.060775190591812134
1788043760878929200,17.39192919921875,0.41424560546875,0.09726854413747787,0.08004945516586304
1788043760894934800,17.407934814453125,0.3637847900390625,0.10029817372560501,0.12139636278152466
1788043760911113700,17.42411376953125,0.31318092346191406,0.12204952538013458,0.06362789869308472
1788043760927102200,17.440102294921875,0.197845458984375,0.12009576708078384,0.18315653502941132
1788043760943465700,17.4564658203125,0.08730411529541016,0.11751550436019897,0.024826139211654663
1788043760959199200,17.47219921875,0.03904914855957031,0.13516373932361603,-0.029922962188720703
1788043760975606000,17.48860595703125,0.00034809112548828125,0.14698730409145355,0.005538254976272583
1788043760991587000,17.504587158203126,0.02865314483642578,0.14856061339378357,-0.09651625156402588
1788043761007391500,17.5203916015625,0.13840293884277344,0.15838006138801575,-0.1354559063911438
1788043761023768600,17.5367685546875,0.20741748809814453,0.1555761694908142,-0.0320148766040802
1788043761039654400,17.552654296875,0.3027381896972656,0.09073969721794128,0.022294044494628906
1788043761055517200,17.56851708984375,0.3765430450439453,0.05715411901473999,-0.15039300918579102
1788043761071656200,17.58465625,0.4408884048461914,0.046815019100904465,-0.16667449474334717
1788043761087683300,17.600683349609376,0.46467018127441406,0.11229131370782852,-0.203081876039505
1788043761104058000,17.61705810546875,0.34252071380615234,0.091576486825943,-0.20293933153152466
1788043761119983400,17.6329833984375,0.24677467346191406,0.09643516689538956,-0.2064838707447052
1788043761135817000,17.64881689453125,0.15592098236083984,0.07970760017633438,-0.3132377564907074
1788043761152006100,17.665006103515626,0.10599517822265625,0.10065257549285889,-0.44509637355804443
1788043761168057600,17.6810576171875,0.08730316162109375,0.11026931554079056,-0.2960667908191681
1788043761184455200,17.697455078125,0.15723228454589844,0.09877379983663559,-0.39744067192077637
1788043761200188700,17.713188720703126,0.2654886245727539,-0.03732775151729584,-0.4048348665237427
1788043761216245200,17.729245361328125,0.3713197708129883,-0.051474399864673615,-0.3841587007045746
1788043761232697600,17.745697509765623,0.4054536819458008,-0.00886806845664978,-0.5116819143295288
1788043761248469200,17.76146923828125,0.2746305465698242,0.020739451050758362,-0.6828323006629944
1788043761264812000,17.77781201171875,0.19206905364990234,0.013026684522628784,-0.7709380388259888
1788043761280528000,17.79352783203125,0.10500431060791016,0.0015092343091964722,-0.8048646450042725
1788043761296520400,17.8095205078125,0.1307201385498047,0.0201854407787323,-0.8472035527229309
1788043761312699100,17.82569921875,0.1351327896118164,0.02463535964488983,-0.8848186135292053
1788043761328698000,17.841697998046875,0.12537670135498047,0.010178133845329285,-0.9405470490455627
1788043761345119000,17.858118896484374,0.1280202865600586,-0.0492764413356781,-0.9906919598579407
1788043761360871200,17.87387109375,0.09558391571044922,-0.09478506445884705,-1.0064754486083984
1788043761376884500,17.889884521484376,0.10982322692871094,-0.12934328615665436,-0.9703502058982849
1788043761392998100,17.905998046875,0.13959789276123047,-0.08443790674209595,-0.893364429473877
1788043761409020200,17.922020263671875,0.08221721649169922,-0.10057729482650757,-0.8570845127105713
1788043761425445600,17.938445556640627,-0.11612129211425781,-0.11139930784702301,-0.7178857326507568
1788043761441159700,17.95415966796875,-0.251861572265625,-0.0720820426940918,-0.6144139766693115
1788043761457241300,17.970241455078124,-0.26576709747314453,-0.08448359370231628,-0.46905064582824707
1788043761473339600,17.986339599609376,-0.17986774444580078,-0.1648993194103241,-0.35679107904434204
1788043761489334000,18.002333984375,-0.08979988098144531,-0.19268962740898132,-0.29531407356262207
1788043761505731800,18.01873193359375,-0.16293907165527344,-0.1799270361661911,-0.33470940589904785
1788043761521494000,18.034493896484374,-0.07120800018310547,-0.23750513792037964,-0.08617210388183594
1788043761537900300,18.050900390625,0.04923534393310547,-0.24263018369674683,0.03365004062652588
1788043761553629000,18.06662890625,0.037634849548339844,-0.21579405665397644,0.22083157300949097
1788043761569623000,18.082623046875,-0.024605751037597656,-0.05463716387748718,0.43342775106430054
1788043761586022000,18.09902197265625,-0.24257850646972656,0.12096107006072998,0.6422174572944641
1788043761601719300,18.11471923828125,-0.5491266250610352,0.2949734628200531,0.7562677264213562
1788043761617837000,18.130837158203125,-0.5590543746948242,0.36928609013557434,0.8446046113967896
1788043761633970200,18.14697021484375,-0.34696292877197266,0.2703523635864258,0.9590173959732056
1788043761650144800,18.163144775390624,0.050594329833984375,0.21097522974014282,0.9138177633285522
1788043761666404600,18.179404541015625,0.41829490661621094,0.21721431612968445,0.7463817596435547
1788043761682274800,18.19527490234375,0.6999988555908203,0.01777249574661255,0.7361719608306885
1788043761698139100,18.21113916015625,0.9785099029541016,-0.21895770728588104,0.6425570249557495
1788043761714297000,18.227297119140626,1.147629737854004,-0.28730204701423645,0.40926578640937805
1788043761730658600,18.243658447265624,1.1077594757080078,-0.27989915013313293,0.33791583776474
1788043761746688500,18.2596884765625,0.7155694961547852,-0.29934340715408325,0.49091634154319763
1788043761762514000,18.275513916015626,0.1665964126586914,-0.2869718372821808,0.6183765530586243
1788043761778522400,18.2915224609375,-0.17829322814941406,-0.2434857189655304,0.5083178877830505
1788043761794858800,18.307858642578125,-0.264556884765625,-0.29578322172164917,0.4630773663520813
1788043761810585000,18.323585205078125,-0.2627267837524414,-0.3789195716381073,0.3737359046936035
1788043761826946800,18.33994677734375,-0.34139537811279297,-0.4906303584575653,0.3073391616344452
1788043761842621200,18.35562109375,-0.42319202423095703,-0.6150141358375549,0.10522663593292236
1788043761858623500,18.37162353515625,-0.45192813873291016,-0.7446112632751465,-0.01237669587135315
1788043761874859800,18.38785986328125,-0.37732791900634766,-0.9056932926177979,-0.091279536485672
1788043761890865700,18.40386572265625,-0.08972644805908203,-1.0472793579101562,-0.17076566815376282
1788043761907232500,18.420232421875,0.15472126007080078,-1.1895915269851685,-0.27044326066970825
1788043761922979000,18.43597900390625,0.34882545471191406,-1.3293906450271606,-0.3582896590232849
1788043761938950400,18.451950439453125,0.46190643310546875,-1.3689079284667969,-0.391249418258667
1788043761955420700,18.468420654296875,0.4231739044189453,-1.2266128063201904,-0.31861448287963867
1788043761971153000,18.48415283203125,0.2327747344970703,-1.055280089378357,-0.19664007425308228
1788043761987523300,18.5005234375,0.03923225402832031,-1.0851004123687744,-0.056199848651885986
1788043762003256300,18.51625634765625,-0.0890340805053711,-1.231184959411621,0.0555306077003479
1788043762019281400,18.532281494140626,0.08471965789794922,-1.4484939575195312,-0.019847750663757324
1788043762035527200,18.548527099609377,0.5316400527954102,-1.6009641885757446,0.06111949682235718
1788043762051815000,18.56481494140625,1.0949335098266602,-1.6061221361160278,0.152013897895813
1788043762067858700,18.580858642578125,1.3394126892089844,-1.531957745552063,0.12859290838241577
1788043762083586800,18.5965869140625,1.0874786376953125,-1.4174175262451172,0.1536848545074463
1788043762099608000,18.612608154296876,0.47969627380371094,-1.1430225372314453,0.42911088466644287
1788043762115770600,18.6287705078125,0.046919822692871094,-0.852319061756134,0.8468244671821594
1788043762132087300,18.64508740234375,-0.27672672271728516,-0.6629141569137573,0.8733062744140625
1788043762148215000,18.661215087890625,-0.31615352630615234,-0.5086991786956787,0.6779855489730835
1788043762164108300,18.6771083984375,-0.18709182739257812,-0.42887556552886963,0.14002299308776855
1788043762180045800,18.6930458984375,0.035315513610839844,-0.48978614807128906,-0.21268701553344727
1788043762196234200,18.709234130859375,0.26969051361083984,-0.6288471221923828,-0.3177109956741333
1788043762212174300,18.72517431640625,0.39602184295654297,-0.7192336916923523,-0.37289655208587646
1788043762228604700,18.741604736328124,0.3625946044921875,-0.7715674638748169,-0.5238131284713745
1788043762244354600,18.7573544921875,0.31652355194091797,-0.9833037853240967,-0.09781384468078613
1788043762260480500,18.77348046875,0.09728145599365234,-0.9017003774642944,-0.24637126922607422
1788043762276518700,18.7895185546875,-0.2171773910522461,-0.7864377498626709,-0.44206106662750244
1788043762292578600,18.80557861328125,-0.3310728073120117,-0.7844347357749939,-0.5206125974655151
1788043762308924400,18.82192431640625,-0.23695945739746094,-0.6912834048271179,-0.34754323959350586
1788043762324903700,18.837903564453125,0.04959392547607422,-0.48472604155540466,-0.12347042560577393
1788043762340892000,18.853891845703124,0.1319427490234375,-0.214970201253891,-0.1599564552307129
1788043762357128700,18.870128662109376,0.2033090591430664,0.015619516372680664,0.007260799407958984
1788043762373203000,18.886202880859376,0.281219482421875,0.07681750506162643,0.08248662948608398
1788043762389284900,18.902284912109376,0.2917060852050781,0.13539528846740723,0.10359382629394531
1788043762405031200,18.91803125,0.2574129104614258,0.26936763525009155,0.1848289966583252
1788043762421018000,18.93401806640625,0.14551734924316406,0.32737845182418823,0.2359158992767334
1788043762437190400,18.9501904296875,0.15470409393310547,0.33036935329437256,0.23495423793792725
1788043762453183000,18.966182861328125,0.2015247344970703,0.3662639856338501,0.17174744606018066
1788043762469600800,18.982600830078123,0.2504997253417969,0.2947743833065033,0.27873027324676514
1788043762485343500,18.998343505859374,0.29425525665283203,0.23492993414402008,0.37486839294433594
1788043762501363700,19.01436376953125,0.36832237243652344,0.25426360964775085,0.22996366024017334
1788043762517804800,19.0308046875,0.3991241455078125,0.26464295387268066,0.08492469787597656
1788043762533554400,19.046554443359376,0.23194122314453125,0.2725265920162201,0.06767010688781738
1788043762549949700,19.06294970703125,-0.10936164855957031,0.3127427399158478,0.09579622745513916
1788043762565892600,19.078892578125,-0.4066152572631836,0.3392917513847351,0.07558166980743408
1788043762581709300,19.094709228515626,-0.49726104736328125,0.3916255533695221,-0.008362054824829102
1788043762597875700,19.110875732421874,-0.6066970825195312,0.2880210280418396,0.029030561447143555
1788043762614216700,19.127216796875,-0.613368034362793,0.22655650973320007,0.08873963356018066
1788043762630246700,19.14324658203125,-0.6778268814086914,0.39350181818008423,0.15740549564361572
1788043762645999600,19.15899951171875,-0.8768310546875,0.387500524520874,0.46644532680511475
1788043762662075100,19.1750751953125,-1.0002212524414062,-0.11292004585266113,0.7797151803970337
1788043762678185200,19.191185302734375,-0.6919059753417969,-0.7570720911026001,0.783872127532959
1788043762694507300,19.20750732421875,0.1021108627319336,-1.0734457969665527,0.6861035227775574
1788043762710539000,19.2235390625,1.1523284912109375,-1.1196022033691406,0.9110438227653503
1788043762726377700,19.239377685546874,1.578141212463379,-0.9756215810775757,1.351813793182373
1788043762742267000,19.255266845703126,1.323227882385254,-0.7089424729347229,1.6121251583099365
1788043762758453500,19.27145361328125,0.43277454376220703,-0.4353356957435608,1.7050973176956177
1788043762774441000,19.28744091796875,-0.35127830505371094,-0.29080989956855774,1.763793706893921
1788043762790815500,19.3038154296875,-0.7138881683349609,-0.13262203335762024,1.7687199115753174
1788043762806561300,19.319561279296874,-0.7020912170410156,0.05147191882133484,1.5415143966674805
1788043762822566400,19.33556640625,-0.6601266860961914,0.252412885427475,1.5465153455734253
1788043762838742300,19.3517421875,-0.4706296920776367,0.3427589237689972,1.7151352167129517
1788043762854986800,19.36798681640625,-0.31187915802001953,0.35317787528038025,1.8319768905639648
1788043762871112000,19.38411181640625,-0.003009796142578125,0.122458815574646,1.727173089981079
1788043762886834000,19.399833984375,0.4660634994506836,-0.22640693187713623,1.3724807500839233
1788043762902894800,19.415894775390626,0.9897098541259766,-0.5573939681053162,1.055368423461914
1788043762919147800,19.432147705078126,1.4416322708129883,-0.8817191123962402,0.7649340033531189
1788043762935058200,19.44805810546875,1.7683086395263672,-1.137115716934204,0.6317952275276184
1788043762951433200,19.46443310546875,1.8207521438598633,-1.1258392333984375,0.721677303314209
1788043762967162000,19.480162109375,1.5800447463989258,-0.9556620717048645,1.0855212211608887
1788043762983304000,19.496303955078126,0.9300708770751953,-0.6836685538291931,1.321793794631958
1788043762999547600,19.512547607421876,0.17382526397705078,-0.41986340284347534,1.5090875625610352
1788043763015351000,19.52835107421875,-0.4189167022705078,-0.23810872435569763,1.6869046688079834
1788043763031759400,19.54475927734375,-0.8382568359375,-0.09887641668319702,1.7899792194366455
1788043763047655200,19.5606552734375,-0.8537702560424805,-0.046280160546302795,1.9188262224197388
1788043763063919900,19.576919921875,-0.7043418884277344,-0.08408616483211517,2.0385079383850098
1788043763079692300,19.5926923828125,-0.5281047821044922,-0.16371853649616241,2.0581274032592773
1788043763095713800,19.6087138671875,-0.2612905502319336,-0.20377400517463684,1.8946046829223633
1788043763112110600,19.625110595703124,-0.08150577545166016,-0.32780787348747253,1.6512818336486816
1788043763127798300,19.64079833984375,0.04710197448730469,-0.3823476731777191,1.4895133972167969
1788043763144065800,19.657065673828125,0.23589611053466797,-0.44655972719192505,1.3918324708938599
1788043763160039400,19.673039306640625,0.3242626190185547,-0.5057568550109863,1.208978295326233
1788043763176435700,19.689435791015626,0.41175365447998047,-0.5525802969932556,1.0050759315490723
1788043763192493000,19.7054931640625,0.43210506439208984,-0.5509960651397705,0.7941293716430664
1788043763208356000,19.721356201171876,0.4100008010864258,-0.4665292203426361,0.7399975657463074
1788043763224181200,19.73718115234375,0.2732667922973633,-0.4384710490703583,0.8317661881446838
1788043763240406500,19.753406494140624,0.16068172454833984,-0.39432233572006226,0.9100802540779114
1788043763256372000,19.7693720703125,0.1512613296508789,-0.2760346233844757,0.9634262323379517
1788043763272795000,19.785794921875,0.22113323211669922,-0.16018740832805634,1.0200258493423462
1788043763288680000,19.801679931640624,0.19075584411621094,-0.07791174203157425,1.0715440511703491
1788043763304649200,19.817649169921875,0.19907474517822266,0.1272403746843338,1.0826737880706787
1788043763320964600,19.833964599609374,0.21033859252929688,0.3215979337692261,1.1611689329147339
1788043763336942000,19.849942138671874,0.07135009765625,0.4538722634315491,1.1209908723831177
1788043763353103400,19.866103271484373,-0.006747245788574219,0.6049432754516602,1.0412129163742065
1788043763369104600,19.882104736328124,-0.01329803466796875,0.6033223867416382,0.8999364376068115
1788043763384866800,19.89786669921875,0.1447925567626953,0.5267987847328186,0.5584873557090759
1788043763401149000,19.91414892578125,0.525599479675293,0.4848821759223938,0.07652619481086731
1788043763417132300,19.93013232421875,0.9891300201416016,0.5435410737991333,-0.09721717238426208
1788043763433417500,19.94641748046875,1.2540912628173828,0.6061900854110718,-0.2848469018936157
1788043763449112000,19.962112060546875,1.212820053100586,0.6684595942497253,-0.335909366607666
1788043763465198800,19.97819873046875,0.9298028945922852,0.7663888931274414,-0.3379896879196167
1788043763481448000,19.994447998046876,0.5800876617431641,0.9552680850028992,-0.3899686932563782
1788043763497370000,20.0103701171875,0.15882301330566406,1.075869083404541,-0.5027520060539246
1788043763513760300,20.02676025390625,-0.3056373596191406,1.0899261236190796,-0.6565532088279724
1788043763529498600,20.04249853515625,-0.5499582290649414,1.062049150466919,-0.809161901473999
