time,seconds_elapsed,z,y,x
1788043743659078100,0.172078125,9.748976707458496,-1.0394275188446045,-0.21776597201824188
1788043743675809800,0.188809814453125,9.748270034790039,-1.0437434911727905,-0.2285165786743164
1788043743691495400,0.204495361328125,9.747815132141113,-1.0463775396347046,-0.23574772477149963
1788043743707445000,0.220445068359375,9.747374534606934,-1.0489109754562378,-0.24260775744915009
1788043743723907800,0.236907958984375,9.746935844421387,-1.051444411277771,-0.24918705224990845
1788043743739612700,0.25261279296875,9.746502876281738,-1.0539329051971436,-0.25552836060523987
1788043743755584800,0.268584716796875,9.74609375,-1.0564594268798828,-0.2606571316719055
1788043743771798500,0.284798583984375,9.745697975158691,-1.0588743686676025,-0.2656145393848419
1788043743787668200,0.300668212890625,9.745361328125,-1.0608446598052979,-0.2700684070587158
1788043743804092700,0.3170927734375,9.74521255493164,-1.06302011013031,-0.2668762505054474
1788043743819904800,0.33290478515625,9.7454252243042,-1.0616010427474976,-0.2647087872028351
1788043743835892200,0.348892333984375,9.745838165283203,-1.057969093322754,-0.26404204964637756
1788043743852102100,0.36510205078125,9.74596118927002,-1.057000756263733,-0.26338276267051697
1788043743867872300,0.380872314453125,9.745512008666992,-1.0613231658935547,-0.2626420259475708
1788043743884319000,0.397319091796875,9.744669914245605,-1.0690571069717407,-0.2625328004360199
1788043743900025600,0.413025634765625,9.743775367736816,-1.0776358842849731,-0.2606302499771118
1788043743916121600,0.42912158203125,9.74329662322998,-1.083470344543457,-0.2542765140533447
1788043743932483300,0.4454833984375,9.743209838867188,-1.0863491296768188,-0.24512547254562378
1788043743948095500,0.461095458984375,9.743221282958984,-1.0879535675048828,-0.23745647072792053
1788043743964543500,0.47754345703125,9.742987632751465,-1.0913101434707642,-0.2315656989812851
1788043743980224500,0.493224609375,9.742423057556152,-1.0967719554901123,-0.2294864058494568
1788043743996237000,0.509237060546875,9.741987228393555,-1.1008000373840332,-0.22870920598506927
1788043744012386800,0.52538671875,9.74205207824707,-1.1010093688964844,-0.22489337623119354
1788043744028303000,0.54130322265625,9.742593765258789,-1.0975685119628906,-0.2181297242641449
1788043744044792800,0.557792724609375,9.743538856506348,-1.0902787446975708,-0.21244488656520844
1788043744076521700,0.589521728515625,9.745612144470215,-1.0717103481292725,-0.21183697879314423
1788043744100549400,0.61354931640625,9.747193336486816,-1.0558102130889893,-0.21880590915679932
1788043744116589600,0.629589599609375,9.747695922851562,-1.049167513847351,-0.22817714512348175
1788043744132801300,0.64580126953125,9.747479438781738,-1.0490360260009766,-0.23784875869750977
1788043744148717600,0.661717529296875,9.746538162231445,-1.0564610958099365,-0.24346353113651276
1788043744165082000,0.67808203125,9.744933128356934,-1.0714693069458008,-0.24210166931152344
1788043744180809000,0.69380908203125,9.743185997009277,-1.0885361433029175,-0.23624910414218903
1788043744196822000,0.709822021484375,9.741693496704102,-1.102962613105774,-0.23079335689544678
1788043744213081600,0.72608154296875,9.740708351135254,-1.1126638650894165,-0.22575685381889343
1788043744228943000,0.741943115234375,9.740057945251465,-1.1189892292022705,-0.22255338728427887
1788043744245368300,0.758368408203125,9.739828109741211,-1.1215860843658447,-0.21950192749500275
1788043744261070000,0.774070068359375,9.73993968963623,-1.1214861869812012,-0.2149909883737564
1788043744277057500,0.7900576171875,9.740137100219727,-1.1205309629440308,-0.2109816074371338
1788043744293190400,0.8061904296875,9.74010181427002,-1.1214426755905151,-0.20776991546154022
1788043744309323800,0.82232373046875,9.74004077911377,-1.122623085975647,-0.2041996866464615
1788043744325560000,0.83856005859375,9.740191459655762,-1.1226460933685303,-0.19678319990634918
1788043744341658000,0.854658203125,9.74074649810791,-1.1193444728851318,-0.18790410459041595
1788043744357486800,0.87048681640625,9.741546630859375,-1.1126418113708496,-0.18624994158744812
1788043744373454800,0.886454833984375,9.742264747619629,-1.1058677434921265,-0.188996821641922
1788043744389443600,0.902443603515625,9.742535591125488,-1.102701187133789,-0.1934967339038849
1788043744405784600,0.91878466796875,9.742440223693848,-1.103792428970337,-0.19208650290966034
1788043744421418800,0.934418701171875,9.742666244506836,-1.1029573678970337,-0.18526464700698853
1788043744437449700,0.95044970703125,9.743408203125,-1.0978437662124634,-0.176432266831398
1788043744453621000,0.96662109375,9.744457244873047,-1.0896766185760498,-0.1689682900905609
1788043744469602800,0.982602783203125,9.745196342468262,-1.0835133790969849,-0.16591811180114746
1788043744485994200,0.998994140625,9.74548053741455,-1.080661654472351,-0.16781774163246155
1788043744501729800,1.014729736328125,9.74530029296875,-1.0817368030548096,-0.1713273823261261
1788043744517791700,1.030791748046875,9.74499225616455,-1.0840282440185547,-0.17434388399124146
1788043744533967000,1.046967041015625,9.744791984558105,-1.085357666015625,-0.1772591471672058
1788043744549981200,1.062981201171875,9.74468994140625,-1.086105227470398,-0.1782837063074112
1788043744566365400,1.079365478515625,9.744624137878418,-1.086451530456543,-0.17974530160427094
1788043744582062300,1.095062255859375,9.744380950927734,-1.0883816480636597,-0.18126751482486725
1788043744598538800,1.111538818359375,9.743885040283203,-1.0924955606460571,-0.18314072489738464
1788043744614285000,1.12728515625,9.743095397949219,-1.0989670753479004,-0.18639293313026428
1788043744630360600,1.143360595703125,9.742328643798828,-1.1051379442214966,-0.18998660147190094
1788043744646640400,1.159640380859375,9.74154281616211,-1.1114014387130737,-0.19371195137500763
1788043744662310700,1.175310546875,9.740593910217285,-1.1192446947097778,-0.19625256955623627
1788043744678326800,1.191326904296875,9.73949146270752,-1.1281814575195312,-0.19974753260612488
1788043744694573600,1.207573486328125,9.738763809204102,-1.133794903755188,-0.2034294754266739
1788043744710493200,1.2234931640625,9.73877239227295,-1.1332155466079712,-0.20622393488883972
1788043744726866200,1.2398662109375,9.739243507385254,-1.1289935111999512,-0.20713640749454498
1788043744742615300,1.255615234375,9.739585876464844,-1.1258265972137451,-0.20826490223407745
1788043744758570800,1.27157080078125,9.739625930786133,-1.1249889135360718,-0.21086466312408447
1788043744774753000,1.2877529296875,9.739814758300781,-1.122398853302002,-0.21589308977127075
1788043744790750700,1.303750732421875,9.740626335144043,-1.1139072179794312,-0.22312146425247192
1788043744807110100,1.320110107421875,9.74205207824707,-1.0999205112457275,-0.23021303117275238
1788043744822833000,1.3358330078125,9.743253707885742,-1.088596224784851,-0.23313334584236145
1788043744839056400,1.352056396484375,9.743803977966309,-1.083985686302185,-0.23161658644676208
1788043744855281000,1.368281005859375,9.74386978149414,-1.083008885383606,-0.2334297001361847
1788043744871017700,1.384017822265625,9.743836402893066,-1.0805163383483887,-0.24599944055080414
1788043744887382000,1.400382080078125,9.743827819824219,-1.076371192932129,-0.26388636231422424
1788043744903234800,1.41623486328125,9.743953704833984,-1.071717381477356,-0.27780190110206604
1788043744919320000,1.432320068359375,9.744156837463379,-1.0681449174880981,-0.28437307476997375
1788043744935403800,1.44840380859375,9.74414348602295,-1.0686140060424805,-0.2830634117126465
1788043744951264800,1.4642646484375,9.74373722076416,-1.0731018781661987,-0.2800460159778595
1788043744967636500,1.480636474609375,9.742890357971191,-1.0802539587020874,-0.28200188279151917
1788043744983348500,1.496348388671875,9.741599082946777,-1.089767336845398,-0.28988975286483765
1788043744999463700,1.512463623046875,9.740352630615234,-1.0977941751480103,-0.301286906003952
1788043745015594800,1.5285947265625,9.739355087280273,-1.1042560338974,-0.3097827732563019
1788043745031611400,1.544611328125,9.738433837890625,-1.1107336282730103,-0.31553345918655396
1788043745047976700,1.560976806640625,9.7369966506958,-1.1217467784881592,-0.3209114670753479
1788043745063977500,1.5769775390625,9.735095024108887,-1.1364905834197998,-0.32663992047309875
1788043745079762200,1.59276220703125,9.733458518981934,-1.150604009628296,-0.3260224461555481
1788043745095913200,1.608913330078125,9.732657432556152,-1.1600979566574097,-0.3161356747150421
1788043745111906300,1.62490625,9.732824325561523,-1.1619291305541992,-0.3040197491645813
1788043745128312600,1.6413125,9.733236312866211,-1.1590681076049805,-0.3017480671405792
1788043745144031700,1.65703173828125,9.733777046203613,-1.1517871618270874,-0.3120279908180237
1788043745160472800,1.673472900390625,9.735157012939453,-1.1351025104522705,-0.3296155035495758
1788043745176207000,1.68920703125,9.737438201904297,-1.109508752822876,-0.34881460666656494
1788043745192142800,1.705142822265625,9.740596771240234,-1.0767320394515991,-0.363057404756546
1788043745208572200,1.721572265625,9.743699073791504,-1.0450443029403687,-0.37227439880371094
1788043745224260900,1.7372607421875,9.745606422424316,-1.0239864587783813,-0.380767285823822
1788043745240338700,1.753338623046875,9.74658489227295,-1.01103675365448,-0.3902249336242676
1788043745256456000,1.7694560546875,9.747199058532715,-1.0032559633255005,-0.3949359357357025
1788043745272419300,1.78541943359375,9.747756958007812,-0.9982939958572388,-0.39372700452804565
1788043745288899600,1.801899658203125,9.748238563537598,-0.9956160187721252,-0.3885745108127594
1788043745304573400,1.817573486328125,9.748722076416016,-0.9932891726493835,-0.38232719898223877
1788043745320633000,1.833633056640625,9.750200271606445,-0.9813742637634277,-0.37534183263778687
1788043745336881000,1.849880859375,9.753523826599121,-0.9528225064277649,-0.36232781410217285
1788043745352918500,1.86591845703125,9.758025169372559,-0.9116058945655823,-0.34683504700660706
1788043745369168100,1.882168212890625,9.76223087310791,-0.8697274327278137,-0.33587563037872314
1788043745385137000,1.898136962890625,9.766193389892578,-0.8347760438919067,-0.30822262167930603
1788043745400878800,1.91387890625,9.768901824951172,-0.8186771869659424,-0.2621263861656189
1788043745417350700,1.9303505859375,9.76791000366211,-0.8390635251998901,-0.23301653563976288
1788043745433198300,1.9461982421875,9.766125679016113,-0.866638720035553,-0.20521707832813263
1788043745449471500,1.962471435546875,9.76443099975586,-0.8898605108261108,-0.18556277453899384
1788043745465183000,1.978182861328125,9.764172554016113,-0.8931799530982971,-0.18315431475639343
1788043745481262000,1.994261962890625,9.765697479248047,-0.8731129169464111,-0.19802279770374298
1788043745497414000,2.010413818359375,9.768054962158203,-0.841435432434082,-0.2178686261177063
1788043745513422600,2.026422607421875,9.77012825012207,-0.8134523630142212,-0.2308146208524704
1788043745529812700,2.042812744140625,9.771175384521484,-0.7996380925178528,-0.2347363382577896
1788043745545524500,2.0585244140625,9.77222728729248,-0.7904515862464905,-0.22167891263961792
1788043745561738000,2.074738037109375,9.772416114807129,-0.7924720644950867,-0.2055511772632599
1788043745577944000,2.090944091796875,9.77093505859375,-0.8118509650230408,-0.2002919316291809
1788043745593900300,2.106900390625,9.769332885742188,-0.8312342762947083,-0.19891051948070526
1788043745610120700,2.12312060546875,9.769072532653809,-0.8353658318519592,-0.19431115686893463
1788043745625950700,2.13895068359375,9.770096778869629,-0.8247150182723999,-0.18828582763671875
1788043745641912000,2.154912109375,9.771062850952148,-0.8135953545570374,-0.18645259737968445
1788043745658078000,2.171077880859375,9.772156715393066,-0.8009577393531799,-0.18389880657196045
1788043745674361900,2.18736181640625,9.773823738098145,-0.7822562456130981,-0.17555098235607147
1788043745690380000,2.203380126953125,9.775437355041504,-0.7640209197998047,-0.16578084230422974
1788043745706088000,2.219087890625,9.777144432067871,-0.7441390752792358,-0.15525329113006592
1788043745722071600,2.235071533203125,9.779396057128906,-0.7168193459510803,-0.14129942655563354
1788043745738276900,2.25127685546875,9.781912803649902,-0.684221088886261,-0.1280744969844818
1788043745754258000,2.2672578125,9.784282684326172,-0.652237594127655,-0.11304819583892822
1788043745770630100,2.283630126953125,9.78669261932373,-0.6190980672836304,-0.08807104825973511
1788043745786332700,2.299332763671875,9.788901329040527,-0.5873474478721619,-0.053222525864839554
1788043745802352400,2.315352294921875,9.790753364562988,-0.5580452680587769,-0.01126128900796175
1788043745818549800,2.3315498046875,9.79216194152832,-0.5317804217338562,0.03403274714946747
1788043745834616300,2.3476162109375,9.793208122253418,-0.5071696043014526,0.0789770558476448
1788043745850883800,2.3638837890625,9.794107437133789,-0.4811006188392639,0.11994542926549911
1788043745866600000,2.379599853515625,9.7952880859375,-0.4474336802959442,0.15010905265808105
1788043745882601000,2.39560107421875,9.796793937683105,-0.40341728925704956,0.1745404303073883
1788043745898799900,2.4117998046875,9.79853343963623,-0.35123518109321594,0.18909922242164612
1788043745914788900,2.427788818359375,9.799717903137207,-0.31208720803260803,0.19628025591373444
1788043745931171000,2.444171142578125,9.800395965576172,-0.30052393674850464,0.17973259091377258
1788043745946862600,2.459862548828125,9.800620079040527,-0.31586310267448425,0.1359129548072815
1788043745963120000,2.4761201171875,9.80017375946045,-0.3468104302883148,0.0818801000714302
1788043745979345000,2.492344970703125,9.799722671508789,-0.3662480413913727,0.04094311222434044
1788043745995293700,2.508293701171875,9.800292015075684,-0.3522474765777588,0.02435927465558052
1788043746011461000,2.524461181640625,9.80225658416748,-0.2922116816043854,0.027846166864037514
1788043746027501600,2.54050146484375,9.804499626159668,-0.20079894363880157,0.04306555911898613
1788043746043140900,2.556140869140625,9.80594539642334,-0.10215455293655396,0.058134905993938446
1788043746059479000,2.57247900390625,9.806443214416504,-0.02146279439330101,0.059916507452726364
1788043746075360500,2.588360595703125,9.806402206420898,0.034397684037685394,0.060656920075416565
1788043746091761700,2.60476171875,9.806159973144531,0.06717079877853394,0.0714532658457756
1788043746107726300,2.620726318359375,9.805959701538086,0.07161812484264374,0.09176133573055267
1788043746123405000,2.636405029296875,9.805778503417969,0.05523184686899185,0.11853422224521637
1788043746139597000,2.65259716796875,9.805566787719727,0.03398016095161438,0.1417374163866043
1788043746155597600,2.66859765625,9.805370330810547,0.017851537093520164,0.15746259689331055
1788043746172022800,2.685022705078125,9.805233001708984,0.009005513973534107,0.1664695292711258
1788043746187884300,2.70088427734375,9.805375099182129,-0.008072594180703163,0.15796084702014923
1788043746203964000,2.7169638671875,9.805386543273926,-0.01657385379076004,0.1565662920475006
1788043746219885800,2.7328857421875,9.805219650268555,-0.017666246742010117,0.1665605753660202
1788043746236248600,2.74924853515625,9.805013656616211,-0.01759081706404686,0.17829802632331848
1788043746252305700,2.7653056640625,9.804879188537598,-0.022810423746705055,0.18495474755764008
1788043746268179000,2.781178955078125,9.80483627319336,-0.035617463290691376,0.18522991240024567
1788043746284024000,2.797024169921875,9.804885864257812,-0.054597560316324234,0.1778634786605835
1788043746300203000,2.813203125,9.804841041564941,-0.07734467089176178,0.17175644636154175
1788043746316188000,2.82918798828125,9.80468463897705,-0.09576395899057388,0.17140795290470123
1788043746332602000,2.84560205078125,9.804567337036133,-0.10556627064943314,0.17230890691280365
1788043746348418600,2.86141845703125,9.804586410522461,-0.10864203423261642,0.16934585571289062
1788043746364418600,2.87741845703125,9.804793357849121,-0.11021998524665833,0.15575188398361206
1788043746380561700,2.893561767578125,9.805048942565918,-0.11388664692640305,0.13574333488941193
1788043746396666400,2.909666259765625,9.805391311645508,-0.11248303949832916,0.10970381647348404
1788043746412951600,2.92595166015625,9.805890083312988,-0.0969017967581749,0.074251189827919
1788043746428689200,2.941689208984375,9.806340217590332,-0.06367959827184677,0.044985923916101456
1788043746444976600,2.9579765625,9.806543350219727,-0.019796574488282204,0.041189417243003845
1788043746460920800,2.9739208984375,9.806364059448242,0.026863528415560722,0.06991732865571976
1788043746477084000,2.990083984375,9.805712699890137,0.06731422990560532,0.11772645264863968
1788043746493283800,3.006283935546875,9.804570198059082,0.09453229606151581,0.17850591242313385
1788043746509025000,3.02202490234375,9.803058624267578,0.10922170430421829,0.2418893426656723
1788043746525130200,3.038130126953125,9.80147933959961,0.11891680955886841,0.2953799366950989
1788043746541207600,3.05420751953125,9.800369262695312,0.1330992728471756,0.3246921896934509
1788043746557187800,3.070187744140625,9.799947738647461,0.13433723151683807,0.33668702840805054
1788043746573563100,3.086563232421875,9.800725936889648,0.10239627957344055,0.3250816762447357
1788043746589280300,3.1022802734375,9.802492141723633,0.036687351763248444,0.28318989276885986
1788043746605321700,3.11832177734375,9.804303169250488,-0.03468930721282959,0.21172022819519043
1788043746621439000,3.13443896484375,9.805741310119629,-0.05881267413496971,0.11990062892436981
1788043746637446700,3.15044677734375,9.806593894958496,-0.005559776443988085,0.032845526933670044
1788043746653821200,3.1668212890625,9.80588150024414,0.11752614378929138,-0.035585157573223114
1788043746669535700,3.18253564453125,9.803444862365723,0.23874564468860626,-0.07656607776880264
1788043746685642000,3.19864208984375,9.801417350769043,0.30858102440834045,-0.08594927936792374
1788043746702017300,3.215017333984375,9.801461219787598,0.3091176748275757,-0.0787607878446579
1788043746717688000,3.23068798828125,9.803260803222656,0.246519073843956,-0.07542847096920013
1788043746734095600,3.247095703125,9.80502986907959,0.16052550077438354,-0.07754263281822205
1788043746749946400,3.2629462890625,9.805909156799316,0.08459468185901642,-0.08578691631555557
1788043746765915000,3.278914794921875,9.806053161621094,0.04050629958510399,-0.10036860406398773
1788043746782047000,3.295046875,9.80591869354248,0.028732972219586372,-0.11631499975919724
1788043746798355700,3.311355712890625,9.805713653564453,0.03792693465948105,-0.13009585440158844
1788043746814410000,3.327409912109375,9.805439949035645,0.05700940266251564,-0.14309611916542053
1788043746830107600,3.343107666015625,9.80514907836914,0.07266274094581604,-0.15540331602096558
1788043746846135300,3.35913525390625,9.805074691772461,0.07289601117372513,-0.1599293351173401
1788043746862335200,3.375335205078125,9.805301666259766,0.06093922257423401,-0.15075182914733887
1788043746878319600,3.391319580078125,9.805693626403809,0.0464540459215641,-0.1288371980190277
1788043746894713600,3.407713623046875,9.806107521057129,0.03057638555765152,-0.09859031438827515
1788043746910458600,3.423458740234375,9.806390762329102,0.01319104339927435,-0.07004353404045105
1788043746926472400,3.439472412109375,9.806493759155273,-0.005134584382176399,-0.05511655658483505
1788043746942916900,3.455916748046875,9.806483268737793,-0.025077909231185913,-0.051402390003204346
1788043746958665000,3.4716650390625,9.80640983581543,-0.044348910450935364,-0.052406195551157
1788043746975042600,3.48804248046875,9.806334495544434,-0.06231441721320152,-0.04812842234969139
1788043746990784800,3.50378466796875,9.806269645690918,-0.07553768903017044,-0.04194587469100952
1788043747006879700,3.519879638671875,9.8062162399292,-0.08437225967645645,-0.03742280974984169
1788043747022980600,3.535980712890625,9.806185722351074,-0.09043202549219131,-0.030449960380792618
1788043747038906400,3.55190625,9.806251525878906,-0.08526355773210526,-0.0235208161175251
1788043747055378700,3.568378662109375,9.806467056274414,-0.05529293045401573,-0.02322409488260746
1788043747071056100,3.58405615234375,9.806621551513672,-0.014003305695950985,-0.019088933244347572
1788043747087091500,3.600091552734375,9.80659008026123,0.03139074519276619,-0.013601953163743019
1788043747103233500,3.616233642578125,9.806382179260254,0.0722937136888504,-0.005083739757537842
1788043747119221500,3.632221435546875,9.806136131286621,0.10013582557439804,0.007424293551594019
1788043747135713300,3.64871337890625,9.806007385253906,0.10300281643867493,0.044596996158361435
1788043747151380700,3.664380615234375,9.805838584899902,0.05769256874918938,0.11223355680704117
1788043747167463200,3.680463134765625,9.804789543151855,-0.026601029559969902,0.18915607035160065
1788043747183571700,3.69657177734375,9.80259895324707,-0.1140061616897583,0.2577403783798218
1788043747199583700,3.712583740234375,9.801469802856445,-0.13804450631141663,0.28727251291275024
1788043747215998700,3.728998779296875,9.802495002746582,-0.07944253832101822,0.2741560637950897
1788043747231630600,3.744630615234375,9.803653717041016,0.03242220729589462,0.24024489521980286
1788043747247660500,3.76066064453125,9.803338050842285,0.1492995023727417,0.20651648938655853
1788043747263805000,3.776804931640625,9.80246353149414,0.2234780490398407,0.1793248951435089
1788043747279801900,3.7928017578125,9.80213451385498,0.2450435757637024,0.16884280741214752
1788043747296170800,3.809170654296875,9.802164077758789,0.23712940514087677,0.17812111973762512
1788043747312327400,3.825327392578125,9.802315711975098,0.2145804762840271,0.19735604524612427
1788043747327927000,3.840927001953125,9.802290916442871,0.19279544055461884,0.21979111433029175
1788043747344105500,3.85710546875,9.80213451385498,0.17459292709827423,0.2409852296113968
1788043747360095200,3.87309521484375,9.802131652832031,0.15701188147068024,0.2529061436653137
1788043747376498000,3.889497802734375,9.802343368530273,0.13740751147270203,0.25606778264045715
1788043747392219000,3.905218994140625,9.802664756774902,0.11743180453777313,0.25372543931007385
1788043747408247300,3.921247314453125,9.803043365478516,0.09996762871742249,0.2464337795972824
1788043747424433700,3.93743359375,9.803387641906738,0.08426687121391296,0.2384783774614334
1788043747440565800,3.953565673828125,9.803662300109863,0.07080695778131485,0.23144495487213135
1788043747456879000,3.969879150390625,9.803922653198242,0.0571061447262764,0.22413751482963562
1788043747472628000,3.9856279296875,9.804134368896484,0.04197753220796585,0.21811285614967346
1788043747488570600,4.001570556640625,9.804183006286621,0.026135489344596863,0.21842288970947266
1788043747504914200,4.0179140625,9.803947448730469,0.00875064916908741,0.23003846406936646
1788043747520708900,4.033708984375,9.803451538085938,-0.005069065373390913,0.250408411026001
1788043747537128700,4.050128662109375,9.802889823913574,-0.01057411078363657,0.27131810784339905
1788043747552844300,4.06584423828125,9.802416801452637,-0.004803966265171766,0.2880633771419525
1788043747569055700,4.0820556640625,9.802328109741211,0.012269818224012852,0.2908501625061035
1788043747585089500,4.098089599609375,9.802481651306152,0.04067759960889816,0.2830108404159546
1788043747601283800,4.114283935546875,9.80257797241211,0.08046448230743408,0.27086374163627625
1788043747617422600,4.130422607421875,9.802433967590332,0.12431450188159943,0.2592695653438568
1788043747633316600,4.146316650390625,9.802016258239746,0.16310718655586243,0.2534938454627991
1788043747649259300,4.16225927734375,9.801716804504395,0.18812185525894165,0.24769555032253265
1788043747665317000,4.178317138671875,9.801714897155762,0.2012995034456253,0.23715178668498993
1788043747681311000,4.19431103515625,9.801950454711914,0.2048306167125702,0.22405298054218292
1788043747697718000,4.210718017578125,9.802131652832031,0.2094123512506485,0.21156340837478638
1788043747713570600,4.226570556640625,9.802303314208984,0.21799707412719727,0.19419464468955994
1788043747729384200,4.24238427734375,9.802416801452637,0.23007453978061676,0.17341138422489166
1788043747745636600,4.25863671875,9.802996635437012,0.21900518238544464,0.15390896797180176
1788043747761547800,4.2745478515625,9.804491996765137,0.16531747579574585,0.12246579676866531
1788043747777999400,4.290999267578125,9.806060791015625,0.07463523000478745,0.07738760113716125
1788043747793637000,4.30663720703125,9.806607246398926,-0.003030306426808238,0.028918970376253128
1788043747809685800,4.322685791015625,9.80663776397705,-0.012539474293589592,-0.00905542727559805
1788043747825814300,4.338814208984375,9.806437492370605,0.05686255916953087,-0.030781280249357224
1788043747841970000,4.354969970703125,9.80530071258545,0.16080208122730255,-0.024758411571383476
1788043747858248400,4.37124853515625,9.80371379852295,0.2399030178785324,0.004923281725496054
1788043747874307600,4.3873076171875,9.80284595489502,0.269095242023468,0.046900924295186996
1788043747889990100,4.402990234375,9.803092956542969,0.2529337704181671,0.0760369673371315
1788043747906124500,4.41912451171875,9.804058074951172,0.21213282644748688,0.07631956040859222
1788043747922173700,4.435173583984375,9.8050537109375,0.17022953927516937,0.048246465623378754
1788043747938571000,4.451571044921875,9.805699348449707,0.1365472823381424,-0.002864408539608121
1788043747954280200,4.4672802734375,9.805846214294434,0.106720931828022,-0.06614816188812256
1788043747970462500,4.48346240234375,9.805559158325195,0.07773079723119736,-0.12390059232711792
1788043747986550500,4.499550537109375,9.804840087890625,0.049275368452072144,-0.1818757951259613
1788043748002522400,4.5155224609375,9.803967475891113,0.02622770331799984,-0.2278524786233902
1788043748018887700,4.5318876953125,9.803082466125488,0.015292014926671982,-0.2640475332736969
1788043748034588200,4.547588134765625,9.802334785461426,0.023212013766169548,-0.28994569182395935
1788043748050609700,4.563609619140625,9.801998138427734,0.03858400881290436,-0.2995634973049164
1788043748066758400,4.57975830078125,9.80195140838623,0.053243476897478104,-0.29884108901023865
1788043748082758100,4.595758056640625,9.80195140838623,0.05971311405301094,-0.29762017726898193
1788043748099161300,4.612161376953125,9.801827430725098,0.05687463656067848,-0.3022090494632721
1788043748114902500,4.627902587890625,9.801677703857422,0.0461263507604599,-0.30883318185806274
1788043748131339000,4.644339111328125,9.801698684692383,0.03451810032129288,-0.30966728925704956
1788043748147089400,4.66008935546875,9.801892280578613,0.030731741338968277,-0.30389532446861267
1788043748163046400,4.67604638671875,9.802136421203613,0.03840428590774536,-0.2950211465358734
1788043748179445800,4.69244580078125,9.802266120910645,0.05566041171550751,-0.2878923714160919
1788043748195108000,4.708108154296875,9.802202224731445,0.08215244114398956,-0.28366944193840027
1788043748211136800,4.72413671875,9.802083969116211,0.11747101694345474,-0.27520105242729187
1788043748227436300,4.740436279296875,9.801956176757812,0.15551668405532837,-0.26050689816474915
1788043748243278000,4.756278076171875,9.801922798156738,0.1826552450656891,-0.24356994032859802
1788043748259691500,4.77269140625,9.80207347869873,0.19276480376720428,-0.2292892038822174
1788043748275378400,4.78837841796875,9.802434921264648,0.18318124115467072,-0.22156985104084015
1788043748291380000,4.8043798828125,9.802836418151855,0.17106850445270538,-0.21336978673934937
1788043748307781400,4.820781494140625,9.803014755249023,0.17175409197807312,-0.2044125348329544
1788043748323523000,4.836523193359375,9.80312442779541,0.182160884141922,-0.18963420391082764
1788043748339943200,4.852943115234375,9.803488731384277,0.1796388328075409,-0.17240667343139648
1788043748355640000,4.86864013671875,9.80423355102539,0.15052859485149384,-0.15729431807994843
1788043748371613000,4.884613037109375,9.804922103881836,0.10444895178079605,-0.15157480537891388
1788043748387749000,4.9007490234375,9.804850578308105,0.07831179350614548,-0.17071110010147095
1788043748403872300,4.916872314453125,9.803805351257324,0.10575424134731293,-0.21119928359985352
1788043748420143900,4.933143798828125,9.801780700683594,0.17837968468666077,-0.25232169032096863
1788043748436183000,4.94918310546875,9.798648834228516,0.2754036784172058,-0.28464847803115845
1788043748451789800,4.964789794921875,9.794946670532227,0.3667842745780945,-0.3080132007598877
1788043748467974400,4.980974365234375,9.791858673095703,0.42798832058906555,-0.3266834318637848
1788043748483885300,4.99688525390625,9.790872573852539,0.4404856860637665,-0.33938321471214294
1788043748500239000,5.013239013671875,9.791044235229492,0.43805214762687683,-0.33757564425468445
1788043748515931400,5.028931396484375,9.792240142822266,0.422311007976532,-0.32259851694107056
1788043748531934000,5.044933837890625,9.794116020202637,0.3964160978794098,-0.2975613474845886
1788043748548118000,5.061117919921875,9.796184539794922,0.3700236976146698,-0.2612130343914032
1788043748564214500,5.077214599609375,9.797872543334961,0.35398879647254944,-0.21628575026988983
1788043748580477700,5.093477783203125,9.799172401428223,0.34835153818130493,-0.15894867479801178
1788043748596168000,5.10916796875,9.799890518188477,0.3492129147052765,-0.10290399938821793
1788043748612333300,5.125333251953125,9.800172805786133,0.3510855436325073,-0.061115626245737076
1788043748628664600,5.14166455078125,9.800397872924805,0.34840160608291626,-0.0347958579659462
1788043748644351000,5.15735107421875,9.800738334655762,0.33953678607940674,-0.025200292468070984
1788043748660708000,5.1737080078125,9.801162719726562,0.326872318983078,-0.027347369119524956
1788043748676469000,5.189468994140625,9.801627159118652,0.31208935379981995,-0.03301624581217766
1788043748692856300,5.205856201171875,9.802041053771973,0.2982455790042877,-0.03770213574171066
1788043748708641000,5.22164111328125,9.802450180053711,0.2848847508430481,-0.03483641892671585
1788043748724625400,5.23762548828125,9.802789688110352,0.27466702461242676,-0.016055593267083168
1788043748740989700,5.25398974609375,9.802751541137695,0.27513715624809265,0.027376804500818253
1788043748756682000,5.269681884765625,9.801981925964355,0.2893480360507965,0.08843069523572922
1788043748772884700,5.285884765625,9.800576210021973,0.3097129762172699,0.15220680832862854
1788043748788861400,5.301861328125,9.798964500427246,0.3273102045059204,0.2087072879076004
1788043748805092400,5.31809228515625,9.798861503601074,0.33062613010406494,0.20831190049648285
1788043748821289000,5.3342890625,9.798951148986816,0.3239316940307617,0.21452276408672333
1788043748836947200,5.349947265625,9.79955005645752,0.3086729049682617,0.20959989726543427
1788043748852953600,5.36595361328125,9.80024242401123,0.289368599653244,0.20471981167793274
1788043748869119700,5.38211962890625,9.800623893737793,0.2729681134223938,0.20893216133117676
1788043748885150700,5.398150634765625,9.800509452819824,0.26641714572906494,0.22230078279972076
1788043748901576700,5.41457666015625,9.79971981048584,0.27671024203300476,0.24351730942726135
1788043748917280000,5.430280029296875,9.798274993896484,0.29587262868881226,0.276872456073761
1788043748933298200,5.446298095703125,9.796963691711426,0.29476121068000793,0.32095834612846375
1788043748949732000,5.462732177734375,9.79681396484375,0.25995829701423645,0.3539105951786041
1788043748965411800,5.478411865234375,9.79796314239502,0.21374645829200745,0.353005051612854
1788043748981821700,5.49482177734375,9.7992582321167,0.19693541526794434,0.3257918953895569
1788043748997538000,5.5105380859375,9.79930305480957,0.2382112294435501,0.2954646646976471
1788043749013556700,5.526556640625,9.796420097351074,0.34054017066955566,0.29081273078918457
1788043749029712600,5.542712646484375,9.790482521057129,0.4647427797317505,0.31756994128227234
1788043749045711600,5.558711669921875,9.784422874450684,0.5508440136909485,0.363357812166214
1788043749062093600,5.575093505859375,9.781013488769531,0.5892199277877808,0.3936823904514313
1788043749077818400,5.590818359375,9.781118392944336,0.5927518010139465,0.38567858934402466
1788043749094048300,5.60704833984375,9.784300804138184,0.5638678073883057,0.34628140926361084
1788043749110172400,5.62317236328125,9.788965225219727,0.515383780002594,0.2844640910625458
1788043749126063000,5.63906298828125,9.792838096618652,0.4719548523426056,0.2190372347831726
1788043749142333200,5.655333251953125,9.795753479003906,0.43726059794425964,0.14966978132724762
1788043749158055400,5.671055419921875,9.797675132751465,0.41202473640441895,0.07871531695127487
1788043749174267100,5.68726708984375,9.798766136169434,0.3927856683731079,0.017011359333992004
1788043749190246400,5.703246337890625,9.799454689025879,0.3744320273399353,-0.029597705230116844
1788043749206276000,5.719276123046875,9.799890518188477,0.3595122992992401,-0.05730152130126953
1788043749222603800,5.735603759765625,9.800215721130371,0.34753724932670593,-0.0733233317732811
1788043749238580700,5.751580810546875,9.800548553466797,0.3370150029659271,-0.0777578353881836
1788043749254776600,5.767776611328125,9.800922393798828,0.32745879888534546,-0.07125234603881836
1788043749270644000,5.78364404296875,9.80137825012207,0.31605783104896545,-0.05902175232768059
1788043749286661400,5.799661376953125,9.801977157592773,0.2988450229167938,-0.048108600080013275
1788043749302951200,5.815951171875,9.802742958068848,0.2731820344924927,-0.04460931569337845
1788043749318690000,5.83168994140625,9.803566932678223,0.24092140793800354,-0.04912547767162323
1788043749334732000,5.84773193359375,9.80420207977295,0.21230073273181915,-0.05413443595170975
1788043749350981600,5.863981689453125,9.804546356201172,0.1935240924358368,-0.06168762966990471
1788043749366995700,5.87999560546875,9.80417251586914,0.19792278110980988,-0.0969790667295456
1788043749383259400,5.89625927734375,9.803284645080566,0.21992039680480957,-0.1327964961528778
1788043749398898400,5.9118984375,9.80212116241455,0.2556147277355194,-0.15319634974002838
1788043749414923500,5.927923583984375,9.800923347473145,0.2963280975818634,-0.1564899981021881
1788043749439065900,5.95206591796875,9.799569129943848,0.3479992747306824,-0.13319243490695953
1788043749455045600,5.968045654296875,9.799202919006348,0.3664499521255493,-0.10831718891859055
1788043749471231700,5.984231689453125,9.799002647399902,0.37684571743011475,-0.0890437588095665
1788043749487171600,6.000171630859375,9.798527717590332,0.389190137386322,-0.08815433830022812
1788043749503651800,6.01665185546875,9.79784870147705,0.40452295541763306,-0.09433730691671371
1788043749519363300,6.03236328125,9.79796028137207,0.4034334123134613,-0.08719754964113235
1788043749535365000,6.048365234375,9.79926872253418,0.37267133593559265,-0.0764072835445404
1788043749551500500,6.06450048828125,9.801508903503418,0.31124040484428406,-0.06272509694099426
1788043749567593500,6.080593505859375,9.803384780883789,0.24874036014080048,-0.04662148654460907
1788043749583881200,6.096881103515625,9.804080963134766,0.2204008847475052,-0.04265032708644867
1788043749599594000,6.112593994140625,9.803455352783203,0.24452434480190277,-0.0534546822309494
1788043749615974700,6.128974609375,9.8014554977417,0.30973443388938904,-0.07693909108638763
1788043749631751400,6.14475146484375,9.798219680786133,0.3915034234523773,-0.1095840260386467
1788043749647663600,6.16066357421875,9.794913291931152,0.45746180415153503,-0.14419618248939514
1788043749664123000,6.177122802734375,9.792587280273438,0.49337533116340637,-0.17943835258483887
1788043749679991800,6.19299169921875,9.792186737060547,0.4925757944583893,-0.20207984745502472
1788043749695870000,6.208869873046875,9.792865753173828,0.4780532419681549,-0.20403532683849335
1788043749712035800,6.225035888671875,9.794085502624512,0.45945438742637634,-0.18753868341445923
1788043749728008200,6.24100830078125,9.795280456542969,0.4442846477031708,-0.15958210825920105
1788043749744436000,6.25743603515625,9.796127319335938,0.4376089572906494,-0.12157286703586578
1788043749760204800,6.273204833984375,9.796563148498535,0.43777066469192505,-0.07808315753936768
1788043749776247600,6.28924755859375,9.796637535095215,0.4415819048881531,-0.03599991649389267
1788043749792348000,6.305347900390625,9.796558380126953,0.4447125792503357,-0.00775881577283144
1788043749808566800,6.32156689453125,9.796679496765137,0.44207751750946045,0.003506345907226205
1788043749824735000,6.33773486328125,9.797280311584473,0.42858293652534485,-0.0005136486142873764
1788043749840495900,6.353495849609375,9.798286437988281,0.4048519730567932,-0.008007110096514225
1788043749856535000,6.36953515625,9.799295425415039,0.37965911626815796,-0.007791950833052397
1788043749872691000,6.38569091796875,9.800148010253906,0.3570544719696045,0.0016808109357953072
1788043749888616700,6.40161669921875,9.800788879394531,0.3387416899204254,0.013145513832569122
1788043749905055000,6.418054931640625,9.801409721374512,0.31952545046806335,0.02589895948767662
1788043749921118200,6.4341181640625,9.801976203918457,0.29957401752471924,0.04363440349698067
1788043749936891100,6.44989111328125,9.802417755126953,0.28162357211112976,0.060674943029880524
1788043749952915000,6.4659150390625,9.8027982711792,0.26769202947616577,0.06232583522796631
1788043749968989200,6.4819892578125,9.803094863891602,0.2606164216995239,0.04228224977850914
1788043749985328600,6.49832861328125,9.803143501281738,0.2620561718940735,0.009272846393287182
1788043750001396000,6.51439599609375,9.8028564453125,0.27262988686561584,-0.007288157008588314
1788043750017049300,6.53004931640625,9.802369117736816,0.28955861926078796,-0.010311395861208439
1788043750033226800,6.546226806640625,9.801777839660645,0.3089565634727478,-0.009402344934642315
1788043750049171700,6.562171630859375,9.80140495300293,0.3205661177635193,-0.008769755251705647
1788043750065609500,6.578609375,9.801421165466309,0.3202027678489685,-0.0016865466022863984
1788043750081348400,6.594348388671875,9.8016357421875,0.31330716609954834,0.013061625882983208
1788043750097272000,6.61027197265625,9.801759719848633,0.3079026937484741,0.03287908434867859
1788043750113592300,6.62659228515625,9.801527976989746,0.3105517327785492,0.06317600607872009
1788043750129808400,6.642808349609375,9.80127239227295,0.30911579728126526,0.09951191395521164
1788043750145849600,6.658849609375,9.801652908325195,0.28291845321655273,0.13394305109977722
1788043750161639000,6.674638916015625,9.80303955078125,0.22237162292003632,0.14614573121070862
1788043750177967900,6.6909677734375,9.8045654296875,0.15372684597969055,0.13131631910800934
1788043750193714400,6.70671435546875,9.805577278137207,0.11575981229543686,0.08742307871580124
1788043750209685000,6.72268505859375,9.805486679077148,0.1477378010749817,0.03140109032392502
1788043750226075600,6.73907568359375,9.803523063659668,0.247288778424263,-0.013021166436374187
1788043750241782000,6.754781982421875,9.799817085266113,0.36422452330589294,-0.03626185655593872
1788043750257809400,6.770809326171875,9.796391487121582,0.4475407004356384,-0.02849699556827545
1788043750273979000,6.786978759765625,9.794845581054688,0.4810299575328827,-0.002835935913026333
1788043750289922600,6.802922607421875,9.79566478729248,0.4629676043987274,0.03141459822654724
1788043750306417200,6.819417236328125,9.797813415527344,0.40969738364219666,0.07342540472745895
1788043750322119000,6.835118896484375,9.79987621307373,0.34663721919059753,0.11250171810388565
1788043750338050800,6.85105078125,9.801526069641113,0.2866833806037903,0.13523277640342712
1788043750354279000,6.86727880859375,9.802996635437012,0.23284569382667542,0.13200394809246063
1788043750370225200,6.88322509765625,9.804384231567383,0.18632018566131592,0.09853876382112503
1788043750386630400,6.89963037109375,9.805310249328613,0.1555444896221161,0.04570029303431511
1788043750402355500,6.91535546875,9.80556869506836,0.1454797387123108,-0.007072221953421831
1788043750418303700,6.9313037109375,9.805353164672852,0.152347132563591,-0.04717753455042839
1788043750434755000,6.947755126953125,9.804945945739746,0.16689534485340118,-0.07457888871431351
1788043750450584000,6.963583984375,9.8046293258667,0.17674334347248077,-0.09158392250537872
1788043750466878200,6.979878173828125,9.804529190063477,0.1762515753507614,-0.10256810486316681
1788043750482921700,6.995921630859375,9.80463981628418,0.16443929076194763,-0.1112966537475586
1788043750498556400,7.011556396484375,9.80490493774414,0.14274990558624268,-0.11766207218170166
1788043750514735600,7.027735595703125,9.805225372314453,0.11477597057819366,-0.1214834675192833
1788043750530683100,7.04368310546875,9.805445671081543,0.0885990783572197,-0.12560296058654785
1788043750547107000,7.060107177734375,9.805537223815918,0.06488137692213058,-0.13273367285728455
1788043750562865000,7.075864990234375,9.805502891540527,0.046293750405311584,-0.1427190899848938
1788043750578801700,7.0918017578125,9.805365562438965,0.03804975003004074,-0.1541157364845276
1788043750594966800,7.107966796875,9.805092811584473,0.046964604407548904,-0.16835087537765503
1788043750610918100,7.123918212890625,9.804676055908203,0.0758332908153534,-0.18158645927906036
1788043750627399000,7.14039892578125,9.803875923156738,0.11506849527359009,-0.20290014147758484
1788043750643192300,7.1561923828125,9.802757263183594,0.1475972980260849,-0.2335597574710846
1788043750659368200,7.1723681640625,9.801678657531738,0.1840217113494873,-0.2522529661655426
1788043750675265000,7.18826513671875,9.801094055175781,0.21096640825271606,-0.2538319528102875
1788043750691212800,7.204212890625,9.801080703735352,0.22500890493392944,-0.2420525699853897
1788043750707697700,7.22069775390625,9.80141830444336,0.22203335165977478,-0.2308180183172226
1788043750723411700,7.23641162109375,9.80148983001709,0.21824237704277039,-0.2314215749502182
1788043750739822300,7.252822265625,9.80097484588623,0.22559837996959686,-0.24575696885585785
1788043750755590400,7.26859033203125,9.79965591430664,0.25567761063575745,-0.2678975760936737
1788043750771566300,7.28456640625,9.797995567321777,0.30069297552108765,-0.28153926134109497
1788043750788018000,7.301017822265625,9.796560287475586,0.3439590632915497,-0.2819302976131439
1788043750803991300,7.3169912109375,9.795939445495605,0.3707882761955261,-0.26922139525413513
1788043750819811000,7.33281103515625,9.796130180358887,0.38023683428764343,-0.2483007311820984
1788043750835945700,7.34894580078125,9.796417236328125,0.38908684253692627,-0.22183562815189362
1788043750851903700,7.36490380859375,9.795933723449707,0.4172118306159973,-0.1897660791873932
1788043750868367400,7.381367431640625,9.79355239868164,0.48319754004478455,-0.1524783968925476
1788043750884076800,7.397076904296875,9.788346290588379,0.5875546336174011,-0.1159815639257431
1788043750900053000,7.413052978515625,9.78010082244873,0.7161046266555786,-0.08488741517066956
1788043750916531500,7.429531494140625,9.771943092346191,0.8216666579246521,-0.06619688868522644
1788043750932146400,7.445146484375,9.76619815826416,0.8881659507751465,-0.05404694005846977
1788043750948619300,7.461619384765625,9.761826515197754,0.9359949827194214,-0.032258227467536926
1788043750964329200,7.4773291015625,9.76080322265625,0.947160005569458,-0.0003145458467770368
1788043750980310800,7.493310791015625,9.762535095214844,0.9283826947212219,0.03742891177535057
1788043750996839700,7.509839599609375,9.765853881835938,0.8903293609619141,0.07611070573329926
1788043751012444400,7.5254443359375,9.7691068649292,0.8502448201179504,0.10962273180484772
1788043751028886500,7.541886474609375,9.77186393737793,0.8135327696800232,0.13865719735622406
1788043751044600600,7.5576005859375,9.774003982543945,0.7845097780227661,0.15420350432395935
1788043751060608300,7.573608154296875,9.775826454162598,0.761274516582489,0.1551155149936676
1788043751076809000,7.58980908203125,9.777783393859863,0.7372061610221863,0.14790941774845123
1788043751092806100,7.60580615234375,9.780035972595215,0.7091338634490967,0.13573677837848663
1788043751109200600,7.62220068359375,9.782339096069336,0.6789224743843079,0.12368959933519363
1788043751124896500,7.637896484375,9.784873962402344,0.6435819268226624,0.11151839047670364
1788043751140944400,7.6539443359375,9.7875394821167,0.6035428047180176,0.10095268487930298
1788043751157084700,7.670084716796875,9.79050064086914,0.5533602833747864,0.10138077288866043
1788043751173102300,7.686102294921875,9.793261528015137,0.5002833604812622,0.11019214987754822
1788043751189565400,7.7025654296875,9.795819282531738,0.4447309374809265,0.12050171941518784
1788043751205217800,7.7182177734375,9.79802131652832,0.3913363814353943,0.12660805881023407
1788043751221280500,7.734280517578125,9.799491882324219,0.35226136445999146,0.12752482295036316
1788043751237383000,7.7503828125,9.80037784576416,0.3269795775413513,0.1267656832933426
1788043751253311500,7.7663115234375,9.800924301147461,0.31047841906547546,0.12602730095386505
1788043751269823000,7.782822998046875,9.801309585571289,0.2973291277885437,0.12771442532539368
1788043751285463300,7.79846337890625,9.801621437072754,0.2853235900402069,0.13114522397518158
1788043751301883000,7.8148828125,9.801899909973145,0.27311262488365173,0.13621768355369568
1788043751317559800,7.830559814453125,9.802127838134766,0.2594165503978729,0.14624080061912537
1788043751333498600,7.84649853515625,9.802206993103027,0.2472570538520813,0.16122396290302277
1788043751349929200,7.86292919921875,9.80212688446045,0.2374923974275589,0.17973467707633972
1788043751365615900,7.878615966796875,9.80195140838623,0.22748376429080963,0.20097315311431885
1788043751381583400,7.894583251953125,9.801645278930664,0.2227679044008255,0.22027213871479034
1788043751397715200,7.910715087890625,9.80116081237793,0.22949573397636414,0.23445360362529755
1788043751413667300,7.926667236328125,9.80046558380127,0.25142380595207214,0.2409142255783081
1788043751430165500,7.94316552734375,9.799647331237793,0.28410080075263977,0.23788851499557495
1788043751445807900,7.958807861328125,9.798718452453613,0.31236886978149414,0.24067440629005432
1788043751461773300,7.974773193359375,9.798224449157715,0.31778591871261597,0.25339481234550476
1788043751477925600,7.990925537109375,9.79875373840332,0.3002970218658447,0.25422921776771545
1788043751493835800,8.006835693359376,9.800174713134766,0.26643750071525574,0.23661641776561737
1788043751510264600,8.0232646484375,9.8019380569458,0.23227232694625854,0.19610299170017242
1788043751525926000,8.03892578125,9.803312301635742,0.21703606843948364,0.13545244932174683
1788043751541881900,8.0548818359375,9.803425788879395,0.23866555094718933,0.07918263971805573
1788043751558422000,8.071422119140625,9.802087783813477,0.295347660779953,0.04733675718307495
1788043751573958100,8.086958251953124,9.799901008605957,0.361266165971756,0.04253554716706276
1788043751590405600,8.103405517578125,9.797918319702148,0.41113677620887756,0.04635607451200485
1788043751606092500,8.119092529296875,9.797004699707031,0.4331602454185486,0.03804373741149902
1788043751622067000,8.13506689453125,9.796738624572754,0.4404948949813843,0.01631247252225876
1788043751638299100,8.151299072265624,9.796833992004395,0.43843457102775574,-0.014592771418392658
1788043751654222800,8.167222900390625,9.797321319580078,0.4262114465236664,-0.0348866768181324
1788043751670664400,8.18366455078125,9.79822063446045,0.40470966696739197,-0.03844994306564331
1788043751686372900,8.199372802734375,9.799216270446777,0.38047388195991516,-0.031467679888010025
1788043751702345000,8.215344970703125,9.801344871520996,0.3223966956138611,-0.009867798537015915
1788043751718512600,8.2315126953125,9.802569389343262,0.28270411491394043,0.010324263945221901
1788043751734480100,8.247480224609374,9.802945137023926,0.2670951187610626,0.0360766276717186
1788043751750977000,8.26397705078125,9.802818298339844,0.26520341634750366,0.06932824105024338
1788043751766656000,8.279656005859374,9.802250862121582,0.2768826186656952,0.09794491529464722
1788043751782647300,8.295647216796874,9.802096366882324,0.27261117100715637,0.12236746400594711
1788043751798988800,8.31198876953125,9.80257797241211,0.24800589680671692,0.1354566514492035
1788043751815214300,8.32821435546875,9.803515434265137,0.20788171887397766,0.13509465754032135
1788043751831217400,8.344217529296875,9.804586410522461,0.15859653055667877,0.12379517406225204
1788043751846922000,8.359921875,9.805564880371094,0.10454815626144409,0.1017933189868927
1788043751862851000,8.37585107421875,9.806270599365234,0.050478603690862656,0.06991471350193024
1788043751879053300,8.39205322265625,9.80660629272461,-0.004471080843359232,0.029024433344602585
1788043751895021300,8.408021240234374,9.806504249572754,-0.04969959706068039,-0.020045900717377663
1788043751911503000,8.424503173828125,9.805994987487793,-0.07992695271968842,-0.08043601363897324
1788043751927126500,8.44012646484375,9.805078506469727,-0.09417018294334412,-0.1481698751449585
1788043751943193900,8.45619384765625,9.80389404296875,-0.09912747889757156,-0.21029463410377502
1788043751959333400,8.47233349609375,9.802626609802246,-0.09986326843500137,-0.2625374495983124
1788043751975262500,8.488262451171876,9.801475524902344,-0.11978115886449814,-0.29514047503471375
1788043751991730400,8.50473046875,9.800924301147461,-0.12557101249694824,-0.31064823269844055
1788043752007421400,8.52042138671875,9.800539016723633,-0.1381312757730484,-0.31738874316215515
1788043752023400000,8.53639990234375,9.800214767456055,-0.1550612449645996,-0.31959661841392517
1788043752039754000,8.55275390625,9.799664497375488,-0.18138672411441803,-0.3225848376750946
1788043752055578400,8.568578369140624,9.798981666564941,-0.21243122220039368,-0.32438501715660095
1788043752072061200,8.585061279296875,9.798222541809082,-0.24082669615745544,-0.32746773958206177
1788043752087751400,8.60075146484375,9.797300338745117,-0.26922038197517395,-0.3328806161880493
1788043752103904800,8.61690478515625,9.79619026184082,-0.3007950484752655,-0.33849379420280457
1788043752119909000,8.6329091796875,9.795097351074219,-0.33226802945137024,-0.34067755937576294
1788043752135867400,8.648867431640625,9.79426383972168,-0.3599126636981964,-0.3365374505519867
1788043752152368000,8.6653681640625,9.793522834777832,-0.38429373502731323,-0.331076055765152
1788043752168119800,8.681119873046875,9.792616844177246,-0.408181369304657,-0.32928186655044556
1788043752184020000,8.69702001953125,9.791287422180176,-0.4336301386356354,-0.3362022638320923
1788043752200202500,8.713202392578125,9.789448738098145,-0.4584868848323822,-0.3561987280845642
1788043752216120300,8.729120361328125,9.787611961364746,-0.4758079946041107,-0.3829345703125
1788043752232558800,8.745558837890625,9.786027908325195,-0.4832128584384918,-0.41296055912971497
1788043752248226300,8.761226318359375,9.785269737243652,-0.47824081778526306,-0.43608278036117554
1788043752264389000,8.77738916015625,9.7853422164917,-0.4641838073730469,-0.4494328200817108
1788043752280487400,8.7934873046875,9.785855293273926,-0.44700056314468384,-0.45565125346183777
1788043752296330500,8.80933056640625,9.786676406860352,-0.4328387975692749,-0.4516673684120178
1788043752312763400,8.825763427734374,9.787694931030273,-0.41774994134902954,-0.44374147057533264
1788043752328825600,8.84182568359375,9.788853645324707,-0.40072548389434814,-0.4337496757507324
1788043752344439800,8.857439697265624,9.789779663085938,-0.3824034631252289,-0.42938339710235596
1788043752360726300,8.873726318359376,9.790532112121582,-0.3649430274963379,-0.42741677165031433
1788043752376962300,8.88996240234375,9.790960311889648,-0.35435566306114197,-0.426518976688385
1788043752392997400,8.905997314453124,9.79111385345459,-0.35322365164756775,-0.4239117205142975
1788043752409055700,8.9220556640625,9.791275978088379,-0.359020471572876,-0.4152136445045471
1788043752424727800,8.937727783203124,9.791616439819336,-0.364368736743927,-0.4023408889770508
1788043752440905500,8.953905517578125,9.792205810546875,-0.3653133511543274,-0.38683974742889404
1788043752456866300,8.9698662109375,9.79295539855957,-0.359811931848526,-0.37275272607803345
1788043752473234000,8.98623388671875,9.793745040893555,-0.34982866048812866,-0.3613351583480835
1788043752489211400,9.00221142578125,9.794564247131348,-0.33842864632606506,-0.3498143255710602
1788043752505051000,9.01805078125,9.795303344726562,-0.3302392065525055,-0.33669304847717285
1788043752521161200,9.0341611328125,9.796187400817871,-0.3253513276576996,-0.3150142431259155
1788043752537451300,9.050451171875,9.79720401763916,-0.32415857911109924,-0.2830325663089752
1788043752553506300,9.06650634765625,9.798218727111816,-0.32766228914260864,-0.2406783550977707
1788043752569235200,9.082235107421875,9.79905891418457,-0.3349441885948181,-0.1914345622062683
1788043752585430300,9.09843017578125,9.79973030090332,-0.34225964546203613,-0.1361318975687027
1788043752601441000,9.11444091796875,9.800310134887695,-0.34463706612586975,-0.07438640296459198
1788043752617346600,9.1303466796875,9.800726890563965,-0.3404462933540344,-0.015267913229763508
1788043752633801500,9.146801513671875,9.80099868774414,-0.3307877779006958,0.03715336322784424
1788043752649557200,9.16255712890625,9.801193237304688,-0.3171956539154053,0.07993032038211823
1788043752665836500,9.17883642578125,9.800941467285156,-0.3142606317996979,0.11484860628843307
1788043752681908700,9.19490869140625,9.80031967163086,-0.32238033413887024,0.14208932220935822
1788043752697643500,9.2106435546875,9.799633026123047,-0.3329264223575592,0.1635107547044754
1788043752714119000,9.227118896484376,9.798641204833984,-0.3502351939678192,0.18535393476486206
1788043752729916200,9.242916259765625,9.79731559753418,-0.37201640009880066,0.2111634612083435
1788043752745921000,9.258921142578124,9.795791625976562,-0.39776620268821716,0.23374077677726746
1788043752762039000,9.2750390625,9.794231414794922,-0.42177584767341614,0.2559778094291687
1788043752778026500,9.291026611328125,9.792729377746582,-0.44256392121315,0.27745434641838074
1788043752794416600,9.307416748046874,9.791096687316895,-0.4621376395225525,0.30206337571144104
1788043752810147600,9.323147705078124,9.789375305175781,-0.484098881483078,0.3227385878562927
1788043752826127000,9.339127197265626,9.78760814666748,-0.5105587840080261,0.3353351056575775
1788043752842549000,9.355549072265624,9.785964012145996,-0.5376601219177246,0.3409050703048706
1788043752858278700,9.371278564453124,9.784420013427734,-0.5633848309516907,0.3436790704727173
1788043752874697500,9.387697509765625,9.782480239868164,-0.593266487121582,0.34857431054115295
1788043752890760000,9.403760009765625,9.7799654006958,-0.6288173198699951,0.3567209243774414
1788043752906486500,9.419486572265624,9.776599884033203,-0.6747277975082397,0.3649952709674835
1788043752922621400,9.435621337890625,9.772357940673828,-0.7299696803092957,0.3722180426120758
1788043752938471200,9.45147119140625,9.76833724975586,-0.776978075504303,0.38245144486427307
1788043752954977000,9.46797705078125,9.765316009521484,-0.805323600769043,0.40056613087654114
1788043752970933800,9.483933837890625,9.763850212097168,-0.8114718794822693,0.4232349097728729
1788043752986888700,9.499888671875,9.764092445373535,-0.7943601608276367,0.44930094480514526
1788043753002911700,9.515911865234376,9.764870643615723,-0.7661376595497131,0.4803391993045807
1788043753018797000,9.531797119140625,9.765022277832031,-0.7445223927497864,0.5103137493133545
1788043753035258400,9.54825830078125,9.764090538024902,-0.7337444424629211,0.5427132844924927
1788043753050997500,9.56399755859375,9.76233196258545,-0.7326837778091431,0.5748416781425476
1788043753066954200,9.579954345703126,9.760659217834473,-0.7349587678909302,0.5997959971427917
1788043753083160300,9.596160400390625,9.75930118560791,-0.7385178208351135,0.6172675490379333
1788043753099116800,9.61211669921875,9.758491516113281,-0.7426738142967224,0.6250209212303162
1788043753115577000,9.6285771484375,9.757944107055664,-0.7473790645599365,0.6279695630073547
1788043753131298300,9.64429833984375,9.757223129272461,-0.7513672709465027,0.634364664554596
1788043753147668200,9.660668212890625,9.756218910217285,-0.7516880631446838,0.6492611169815063
1788043753163435300,9.676435302734374,9.755377769470215,-0.7448102235794067,0.6695208549499512
1788043753179376400,9.69237646484375,9.755241394042969,-0.7298543453216553,0.6877260208129883
1788043753195807000,9.708806884765625,9.75721263885498,-0.7011984586715698,0.6895677447319031
1788043753211554000,9.724553955078125,9.760115623474121,-0.6660627126693726,0.6833042502403259
1788043753227505000,9.7405048828125,9.763497352600098,-0.6271579265594482,0.6717043519020081
1788043753243948300,9.7569482421875,9.767550468444824,-0.5817825794219971,0.6533503532409668
1788043753259574000,9.772573974609376,9.771522521972656,-0.5397962331771851,0.6295626163482666
1788043753275987000,9.788987060546875,9.775364875793457,-0.5020236968994141,0.6004995107650757
1788043753291695400,9.8046953125,9.778573036193848,-0.47162142395973206,0.5722478032112122
1788043753307723500,9.8207236328125,9.781420707702637,-0.4458523392677307,0.5435182452201843
1788043753323897300,9.8368974609375,9.784262657165527,-0.4202021658420563,0.5118677020072937
1788043753339821300,9.8528212890625,9.787074089050293,-0.39400210976600647,0.47783586382865906
1788043753356293600,9.869293701171875,9.789916038513184,-0.3633028566837311,0.44265633821487427
1788043753372033300,9.885033203125,9.792597770690918,-0.33013877272605896,0.4079444408416748
1788043753388004600,9.901004638671875,9.794877052307129,-0.29945915937423706,0.3756348490715027
1788043753404425000,9.917425048828125,9.796667098999023,-0.2750297486782074,0.34650787711143494
1788043753420128000,9.9331279296875,9.79794692993164,-0.25928691029548645,0.32154911756515503
1788043753436545500,9.949545654296875,9.799015045166016,-0.2470775544643402,0.2977239191532135
1788043753452609000,9.965609130859375,9.799960136413574,-0.23655034601688385,0.2742368280887604
1788043753468485600,9.981485595703125,9.800877571105957,-0.22533757984638214,0.24982555210590363
1788043753484447000,9.997447021484374,9.801762580871582,-0.2143762856721878,0.2233370542526245
1788043753500398300,10.0133984375,9.802434921264648,-0.20828978717327118,0.19815577566623688
1788043753516852700,10.029852783203125,9.80281925201416,-0.20905597507953644,0.17724430561065674
1788043753532609800,10.04560986328125,9.803068161010742,-0.21083566546440125,0.16059663891792297
1788043753548566000,10.06156591796875,9.803370475769043,-0.20682422816753387,0.1467738300561905
1788043753564872000,10.077871826171876,9.803881645202637,-0.19229350984096527,0.131621852517128
1788043753580880600,10.093880615234376,9.804448127746582,-0.17157335579395294,0.1172628253698349
1788043753597151500,10.1101513671875,9.804883003234863,-0.15289248526096344,0.10620076209306717
1788043753612907500,10.125907470703124,9.805116653442383,-0.14111682772636414,0.10072886943817139
1788043753628906800,10.14190673828125,9.805139541625977,-0.13863502442836761,0.10207436233758926
1788043753645097200,10.15809716796875,9.80509090423584,-0.14091381430625916,0.10359934717416763
1788043753661092900,10.1740927734375,9.805054664611816,-0.14573797583580017,0.10022333264350891
1788043753677438700,10.190438720703124,9.805078506469727,-0.15263041853904724,0.08668168634176254
1788043753693157600,10.20615771484375,9.805188179016113,-0.15538063645362854,0.06727141886949539
1788043753709535200,10.22253515625,9.805362701416016,-0.1547151803970337,0.036098361015319824
1788043753725369600,10.23836962890625,9.805475234985352,-0.15174353122711182,-0.0036077352706342936
1788043753741314300,10.254314208984376,9.805404663085938,-0.14900772273540497,-0.047204528003931046
1788043753757711600,10.270711669921875,9.805159568786621,-0.1432427316904068,-0.09329447895288467
1788043753773589200,10.28658935546875,9.804792404174805,-0.1320461481809616,-0.13781075179576874
1788043753789407200,10.3024072265625,9.80433177947998,-0.11468813568353653,-0.17977166175842285
1788043753805639000,10.318638916015624,9.80362319946289,-0.09067028760910034,-0.2261420041322708
1788043753821545200,10.334545166015625,9.802471160888672,-0.06362949311733246,-0.2791067063808441
1788043753838008300,10.35100830078125,9.800409317016602,-0.03327267989516258,-0.3482165038585663
1788043753853696300,10.3666962890625,9.797356605529785,-0.004145328886806965,-0.4268168807029724
1788043753869713000,10.382712890625,9.793630599975586,0.018833337351679802,-0.5048128366470337
1788043753885987800,10.39898779296875,9.789257049560547,0.032958175987005234,-0.5828799605369568
1788043753901785000,10.41478515625,9.784431457519531,0.0394454188644886,-0.6585744023323059
1788043753918285800,10.431285888671875,9.778791427612305,0.04183296114206314,-0.7374754548072815
1788043753934082000,10.44708203125,9.772599220275879,0.04008713364601135,-0.8155186176300049
1788043753949985500,10.462985595703126,9.765637397766113,0.035534318536520004,-0.8952319025993347
1788043753966465800,10.4794658203125,9.758462905883789,0.028460325673222542,-0.9705605506896973
1788043753982100700,10.495100830078124,9.752481460571289,0.019869279116392136,-1.029127836227417
1788043753998623200,10.511623291015624,9.747941970825195,0.007503800094127655,-1.0714294910430908
1788043754014694700,10.527694580078125,9.745305061340332,-0.006813817657530308,-1.0951584577560425
1788043754030363000,10.54336279296875,9.74432373046875,-0.01838625594973564,-1.103723168373108
1788043754046547500,10.55954736328125,9.744717597961426,-0.02406519651412964,-1.100134253501892
1788043754062491100,10.5754912109375,9.745388984680176,-0.023789310827851295,-1.0941741466522217
1788043754078937900,10.591937744140624,9.745844841003418,-0.02175295539200306,-1.090150237083435
1788043754094677800,10.607677734375,9.745699882507324,-0.022006280720233917,-1.0914353132247925
1788043754110647300,10.623647216796876,9.74551010131836,-0.025589583441615105,-1.0930520296096802
1788043754126800400,10.63980029296875,9.746058464050293,-0.028509698808193207,-1.088077187538147
1788043754142762500,10.655762451171874,9.747397422790527,-0.025874463841319084,-1.0760853290557861
1788043754159216000,10.672216064453124,9.74889850616455,-0.019186630845069885,-1.062542200088501
1788043754174892300,10.687892333984376,9.750070571899414,-0.008978603407740593,-1.0518689155578613
1788043754190938600,10.703938720703125,9.751126289367676,0.002723698504269123,-1.0420786142349243
1788043754207059200,10.72005908203125,9.752142906188965,0.011425522156059742,-1.032456398010254
1788043754223032300,10.7360322265625,9.75346565246582,0.014479868113994598,-1.019843578338623
1788043754239464400,10.75246435546875,9.75538444519043,0.015648409724235535,-1.0013097524642944
1788043754255146500,10.768146484375,9.757880210876465,0.019439810886979103,-0.9766172766685486
1788043754271566800,10.78456689453125,9.760993957519531,0.032086241990327835,-0.9446484446525574
1788043754287580700,10.80058056640625,9.764113426208496,0.05115542933344841,-0.9109704494476318
1788043754303352800,10.816352783203126,9.767353057861328,0.07216507941484451,-0.8740646243095398
1788043754319707400,10.832707275390625,9.770581245422363,0.0934850424528122,-0.8350931406021118
1788043754335723000,10.848722900390625,9.774025917053223,0.10796618461608887,-0.7919317483901978
1788043754351483100,10.864483154296876,9.777704238891602,0.11553531885147095,-0.7440074682235718
1788043754367572000,10.880572021484374,9.781250953674316,0.11680977791547775,-0.6956118941307068
1788043754383695600,10.896695556640625,9.784252166748047,0.11480330675840378,-0.6523960828781128
1788043754400006700,10.913006591796876,9.786806106567383,0.11299093067646027,-0.613227128982544
1788043754415685000,10.92868505859375,9.788806915283203,0.11785607039928436,-0.5794423222541809
1788043754431679700,10.9446796875,9.79027271270752,0.13439108431339264,-0.5503444075584412
1788043754447857700,10.960857666015626,9.791507720947266,0.15840522944927216,-0.5212215185165405
1788043754463794700,10.976794677734375,9.792704582214355,0.18544888496398926,-0.48881107568740845
1788043754480305700,10.9933056640625,9.79382038116455,0.2100752890110016,-0.45534196496009827
1788043754496006000,11.009005859375,9.794768333435059,0.22802068293094635,-0.4253336489200592
1788043754512032000,11.025031982421876,9.79553508758545,0.2422381490468979,-0.39898934960365295
1788043754528495900,11.041495849609374,9.79608154296875,0.2538694441318512,-0.37778717279434204
1788043754544173000,11.057173095703124,9.79668140411377,0.2594608962535858,-0.3578934371471405
1788043754560642800,11.073642822265626,9.797744750976562,0.25503650307655334,-0.33098480105400085
1788043754576378400,11.08937841796875,9.799179077148438,0.24123430252075195,-0.29711952805519104
1788043754592601000,11.10560107421875,9.80077838897705,0.22454796731472015,-0.25439879298210144
1788043754608486000,11.12148583984375,9.802189826965332,0.2107444405555725,-0.20746855437755585
1788043754624561700,11.137561767578125,9.803018569946289,0.20665772259235382,-0.16886189579963684
1788043754640904400,11.153904541015624,9.803326606750488,0.21246901154518127,-0.14156009256839752
1788043754656666600,11.16966650390625,9.80331039428711,0.2246031016111374,-0.1226489320397377
1788043754672601000,11.18560107421875,9.803252220153809,0.23644204437732697,-0.10363658517599106
1788043754688966100,11.201966064453124,9.803263664245605,0.24263212084770203,-0.08680456131696701
1788043754704883700,11.2178837890625,9.8034086227417,0.24138076603412628,-0.07291208952665329
1788043754721195500,11.234195556640625,9.803589820861816,0.23747879266738892,-0.0600675530731678
1788043754736860000,11.24985986328125,9.803693771362305,0.2353140264749527,-0.050942420959472656
1788043754753122000,11.2661220703125,9.803595542907715,0.2419273853302002,-0.037152692675590515
1788043754769115400,11.282115478515625,9.803328514099121,0.25468674302101135,-0.016352910548448563
1788043754785019000,11.298018798828124,9.802876472473145,0.2719946801662445,0.004701768513768911
1788043754801457700,11.314457763671875,9.802376747131348,0.2889861762523651,0.016896463930606842
1788043754817250800,11.330250732421876,9.801968574523926,0.3023737668991089,0.019336087629199028
1788043754833601300,11.346601318359374,9.801545143127441,0.31577402353286743,0.019435863941907883
1788043754849356500,11.3623564453125,9.801084518432617,0.32939252257347107,0.024895012378692627
1788043754865333500,11.37833349609375,9.800395965576172,0.3475291430950165,0.042895104736089706
1788043754881791500,11.39479150390625,9.799454689025879,0.3693435788154602,0.06826935708522797
1788043754897489000,11.410489013671874,9.798506736755371,0.3886197805404663,0.09292595833539963
1788043754913531600,11.42653173828125,9.797868728637695,0.400754451751709,0.10743162035942078
1788043754929669400,11.44266943359375,9.797780990600586,0.4027150273323059,0.10814369469881058
1788043754945619700,11.45861962890625,9.798151969909668,0.3957494795322418,0.09984686225652695
1788043754962100200,11.475100341796875,9.798644065856934,0.38532164692878723,0.09213727712631226
1788043754977971500,11.490971435546875,9.799132347106934,0.3731403946876526,0.09036202728748322
1788043754993855000,11.50685498046875,9.799323081970215,0.3656809628009796,0.09965940564870834
1788043755010085000,11.523085205078125,9.799190521240234,0.3630944788455963,0.12008795887231827
1788043755025968000,11.538968017578124,9.798717498779297,0.3680937886238098,0.14157021045684814
1788043755042430200,11.55543017578125,9.797782897949219,0.3863038718700409,0.1568506807088852
1788043755058131700,11.571131591796876,9.796549797058105,0.4150364100933075,0.16045378148555756
1788043755074095000,11.58709521484375,9.795047760009766,0.45069417357444763,0.15585480630397797
1788043755090558700,11.603558837890626,9.793488502502441,0.4854883849620819,0.14925815165042877
1788043755106506200,11.61950634765625,9.792261123657227,0.5112251043319702,0.14372865855693817
1788043755122665700,11.635665771484375,9.791436195373535,0.5282639861106873,0.13819953799247742
1788043755138338000,11.651338134765625,9.790956497192383,0.5382540225982666,0.13360273838043213
1788043755154281500,11.667281494140624,9.790507316589355,0.5472952127456665,0.12968701124191284
1788043755170511000,11.683510986328125,9.789999008178711,0.5563092827796936,0.12973514199256897
1788043755186482200,11.699482177734374,9.789471626281738,0.5651029348373413,0.13149574398994446
1788043755202897700,11.715897705078126,9.789073944091797,0.5713213682174683,0.13421988487243652
1788043755218621200,11.73162109375,9.789048194885254,0.5715541839599609,0.13512581586837769
1788043755234786000,11.7477861328125,9.789582252502441,0.5632126331329346,0.1314077526330948
1788043755250894300,11.763894287109375,9.790459632873535,0.549522340297699,0.12370894849300385
1788043755266729200,11.779729248046875,9.791121482849121,0.5394948124885559,0.11522634327411652
1788043755283174000,11.796173828125,9.791300773620605,0.5378648638725281,0.1072550043463707
1788043755299093500,11.812093505859375,9.7908935546875,0.5460942387580872,0.10280636698007584
1788043755314915300,11.827915283203126,9.790132522583008,0.5597723126411438,0.10166275501251221
1788043755331117600,11.84411767578125,9.789273262023926,0.5744965672492981,0.10229410976171494
1788043755347443700,11.860443603515625,9.788602828979492,0.5859993100166321,0.10119803994894028
1788043755363469300,11.87646923828125,9.78814697265625,0.5943329334259033,0.09662384539842606
1788043755379155200,11.8921552734375,9.787785530090332,0.6014681458473206,0.08869589120149612
1788043755395188700,11.908188720703125,9.787318229675293,0.6102674007415771,0.07974868267774582
1788043755411377400,11.92437744140625,9.786735534667969,0.6209494471549988,0.06798598170280457
1788043755427343400,11.94034326171875,9.786099433898926,0.6319757699966431,0.05694316327571869
1788043755443830300,11.956830322265626,9.785667419433594,0.6391420364379883,0.05098308250308037
1788043755459529700,11.97252978515625,9.785634994506836,0.6396872401237488,0.05027908459305763
1788043755475558400,11.988558349609375,9.785152435302734,0.6472951769828796,0.046828292310237885
1788043755491731000,12.00473095703125,9.783512115478516,0.6719642281532288,0.041826218366622925
1788043755507909400,12.020909423828124,9.781513214111328,0.7002471089363098,0.045232705771923065
1788043755524111600,12.037111572265625,9.780946731567383,0.7074015736579895,0.05515148490667343
1788043755539806200,12.05280615234375,9.78268814086914,0.6818990707397461,0.06653395295143127
1788043755555870200,12.0688701171875,9.785478591918945,0.6373440623283386,0.0926428884267807
1788043755572052500,12.085052490234375,9.78963851928711,0.5670251250267029,0.1088162213563919
1788043755587957500,12.10095751953125,9.793410301208496,0.4962233603000641,0.1151137724518776
1788043755604391700,12.1173916015625,9.796414375305176,0.4343537390232086,0.10948484390974045
1788043755620227000,12.13322705078125,9.798179626464844,0.3979634642601013,0.08766991645097733
1788043755636116200,12.1491162109375,9.798619270324707,0.39321455359458923,0.053230345249176025
1788043755652609800,12.16560986328125,9.797600746154785,0.4210783839225769,0.010053333826363087
1788043755668313900,12.18131396484375,9.795754432678223,0.46116235852241516,-0.030051009729504585
1788043755684726000,12.19772607421875,9.793974876403809,0.4940919280052185,-0.06569354981184006
1788043755700472600,12.21347265625,9.792877197265625,0.5105586051940918,-0.09630745649337769
1788043755716361000,12.22936083984375,9.79361629486084,0.48617830872535706,-0.13821502029895782
1788043755732590600,12.245590576171875,9.794360160827637,0.4700626730918884,-0.14117656648159027
1788043755748555000,12.261554931640624,9.79536247253418,0.45056065917015076,-0.13512225449085236
1788043755764985000,12.277985107421875,9.796319007873535,0.43239492177963257,-0.12477967888116837
1788043755780914200,12.2939140625,9.797872543334961,0.39195287227630615,-0.13586319983005524
1788043755796853200,12.309853271484375,9.799779891967773,0.32913464307785034,-0.16241028904914856
1788043755812990200,12.325990234375,9.801152229309082,0.2704930007457733,-0.18613342940807343
1788043755828921900,12.341921875,9.801918029785156,0.2242189645767212,-0.2061794251203537
1788043755845363700,12.35836376953125,9.80225658416748,0.19124877452850342,-0.2226497381925583
1788043755861092000,12.374092041015626,9.802289962768555,0.17093880474567413,-0.23726658523082733
1788043755877224000,12.390223876953126,9.802207946777344,0.15703977644443512,-0.24990472197532654
1788043755893542000,12.4065419921875,9.802129745483398,0.1475086361169815,-0.25862058997154236
1788043755909626400,12.42262646484375,9.802149772644043,0.13890871405601501,-0.2626078128814697
1788043755925688000,12.43868798828125,9.802254676818848,0.1299295574426651,-0.2632458806037903
1788043755941454000,12.4544541015625,9.80257797241211,0.11740300804376602,-0.2570338547229767
1788043755957588200,12.470588134765626,9.802946090698242,0.1041409894824028,-0.24858874082565308
1788043755973676500,12.486676513671876,9.803323745727539,0.0918419286608696,-0.23832310736179352
1788043755989591600,12.502591552734375,9.8036470413208,0.08243472874164581,-0.22822220623493195
1788043756006033700,12.51903369140625,9.804001808166504,0.07724723219871521,-0.21438910067081451
1788043756021783800,12.53478369140625,9.804308891296387,0.07985983043909073,-0.19882339239120483
1788043756037895200,12.550895263671874,9.804461479187012,0.09039033949375153,-0.1864413470029831
1788043756053882600,12.566882568359375,9.804361343383789,0.10631369799375534,-0.1832546591758728
1788043756069866200,12.5828662109375,9.803985595703125,0.12861405313014984,-0.18900175392627716
1788043756086250500,12.59925048828125,9.803363800048828,0.1565086841583252,-0.19989247620105743
1788043756101928700,12.6149287109375,9.802855491638184,0.1792232245206833,-0.20563074946403503
1788043756118100000,12.631099853515625,9.802525520324707,0.19479820132255554,-0.2072197049856186
1788043756134081500,12.64708154296875,9.802392959594727,0.20332780480384827,-0.20529870688915253
1788043756150010600,12.6630107421875,9.802327156066895,0.20737241208553314,-0.2043481022119522
1788043756166549200,12.67954931640625,9.802202224731445,0.21250560879707336,-0.20510154962539673
1788043756182146600,12.695146484375,9.801911354064941,0.2251250296831131,-0.20552010834217072
1788043756198294300,12.711294189453126,9.801446914672852,0.24558699131011963,-0.20424500107765198
1788043756214345700,12.727345703125,9.801444053649902,0.255556583404541,-0.1917162388563156
1788043756230251000,12.7432509765625,9.802249908447266,0.23305779695510864,-0.17881682515144348
1788043756246709500,12.75970947265625,9.803433418273926,0.1759619563817978,-0.17922928929328918
1788043756262382600,12.775382568359374,9.804161071777344,0.10018093138933182,-0.1969175785779953
1788043756278387700,12.7913876953125,9.803733825683594,0.043838802725076675,-0.23508760333061218
1788043756294528000,12.807528076171875,9.802305221557617,0.038855552673339844,-0.28930744528770447
1788043756310473700,12.8234736328125,9.800191879272461,0.09604977071285248,-0.34263876080513
1788043756326915300,12.839915283203124,9.797026634216309,0.1943376362323761,-0.3884480595588684
1788043756342659300,12.855659423828126,9.793519020080566,0.2905445098876953,-0.41587749123573303
1788043756358667300,12.871667236328125,9.791479110717773,0.3561650216579437,-0.41287291049957275
1788043756374784500,12.887784423828125,9.791400909423828,0.3863202631473541,-0.38680434226989746
1788043756390707000,12.90370703125,9.79311466217041,0.37786343693733215,-0.350037544965744
1788043756407202300,12.920202392578124,9.796072959899902,0.3379211723804474,-0.3052074909210205
1788043756423301400,12.93630126953125,9.798971176147461,0.28348666429519653,-0.26491719484329224
1788043756438890000,12.951889892578125,9.800963401794434,0.23329409956932068,-0.23891715705394745
1788043756455111200,12.968111083984375,9.801944732666016,0.1948232650756836,-0.23305891454219818
1788043756471476000,12.98447607421875,9.801966667175293,0.17159928381443024,-0.24981343746185303
1788043756487540500,13.00054052734375,9.801445007324219,0.15657497942447662,-0.2784704267978668
1788043756503601700,13.0166015625,9.80070972442627,0.14716535806655884,-0.3079269528388977
1788043756519223000,13.03222314453125,9.800040245056152,0.14195287227630615,-0.3308470547199249
1788043756535493000,13.0484931640625,9.800080299377441,0.12452877312898636,-0.33661022782325745
1788043756551518000,13.06451806640625,9.800247192382812,0.11401048302650452,-0.33547264337539673
1788043756567839200,13.080839111328125,9.80066967010498,0.10121732950210571,-0.3271429240703583
1788043756583902200,13.096902099609375,9.80127239227295,0.07984758913516998,-0.31478166580200195
1788043756599533300,13.112533203125,9.801724433898926,0.05346100404858589,-0.3061668276786804
1788043756615769300,13.128769287109375,9.802033424377441,0.022911865264177322,-0.2999995946884155
1788043756631700700,13.14470068359375,9.802156448364258,-0.0021987659856677055,-0.2968428432941437
1788043756648126700,13.161126708984375,9.802000999450684,-0.015463236719369888,-0.30152300000190735
1788043756664043000,13.17704296875,9.801582336425781,-0.017953772097826004,-0.31472864747047424
1788043756679819500,13.192819580078124,9.801009178161621,-0.013052721507847309,-0.33232060074806213
1788043756696020000,13.20902001953125,9.800602912902832,-0.002938665682449937,-0.34432730078697205
1788043756711886600,13.224886474609375,9.800530433654785,0.012062217108905315,-0.346169650554657
1788043756728440800,13.24144091796875,9.80075454711914,0.036479249596595764,-0.3380388915538788
1788043756744075500,13.257075439453125,9.800769805908203,0.06657574325799942,-0.33296361565589905
1788043756760080400,13.273080322265624,9.800410270690918,0.09972836822271347,-0.3352538049221039
1788043756776254500,13.28925439453125,9.79973316192627,0.13189461827278137,-0.34382015466690063
1788043756792253000,13.3052529296875,9.799027442932129,0.15960103273391724,-0.35211193561553955
1788043756808732200,13.321732177734376,9.798733711242676,0.1848868727684021,-0.34787717461586
1788043756824399400,13.3373994140625,9.799068450927734,0.20835497975349426,-0.3243841528892517
1788043756840405800,13.35340576171875,9.799449920654297,0.23738454282283783,-0.2912232279777527
1788043756856592400,13.36959228515625,9.79892349243164,0.2848280966281891,-0.2652379274368286
1788043756872529000,13.38552880859375,9.79687213897705,0.35138192772865295,-0.2611915171146393
1788043756889008000,13.402008056640625,9.793678283691406,0.4266335964202881,-0.26876309514045715
1788043756904854300,13.417854248046876,9.791543960571289,0.46571844816207886,-0.281351774930954
1788043756920717000,13.433717041015624,9.791438102722168,0.45372968912124634,-0.3037097752094269
1788043756936961500,13.44996142578125,9.792828559875488,0.4001981317996979,-0.3327745497226715
1788043756952896300,13.465896240234375,9.793900489807129,0.34886881709098816,-0.3580325245857239
1788043756969345500,13.482345458984375,9.794259071350098,0.3294496536254883,-0.36651793122291565
1788043756985410800,13.498410888671875,9.793581008911133,0.35620567202568054,-0.35954979062080383
1788043757000977000,13.513976806640626,9.791342735290527,0.42243361473083496,-0.34862953424453735
1788043757017128400,13.53012841796875,9.787949562072754,0.4972596764564514,-0.3451894223690033
1788043757033078800,13.546078857421875,9.785293579101562,0.5421392917633057,-0.3528643548488617
1788043757049489700,13.56248974609375,9.783730506896973,0.5590285658836365,-0.369451642036438
1788043757065198000,13.578197998046875,9.78373908996582,0.5481842756271362,-0.3851405680179596
1788043757081164500,13.59416455078125,9.784919738769531,0.522262692451477,-0.3911334276199341
1788043757097362200,13.610362060546874,9.786648750305176,0.4921181797981262,-0.38694384694099426
1788043757113287700,13.62628759765625,9.788254737854004,0.4660417437553406,-0.37851274013519287
1788043757129735400,13.6427353515625,9.789735794067383,0.4411889910697937,-0.36987265944480896
1788043757145488400,13.65848828125,9.793187141418457,0.3692232668399811,-0.3571512699127197
1788043757161431600,13.674431640625,9.796346664428711,0.2987995445728302,-0.3357009291648865
1788043757177963000,13.690962890625,9.798920631408691,0.24223020672798157,-0.3047144412994385
1788043757193544700,13.706544677734374,9.800188064575195,0.22380110621452332,-0.2767843008041382
1788043757210030800,13.72303076171875,9.801199913024902,0.21442720293998718,-0.24678024649620056
1788043757225716000,13.738716064453126,9.801830291748047,0.2132832556962967,-0.22142648696899414
1788043757241747000,13.754746826171875,9.802489280700684,0.20360694825649261,-0.2003224492073059
1788043757257879000,13.770879150390625,9.803333282470703,0.1825036257505417,-0.17817188799381256
1788043757273845000,13.786844970703125,9.804203033447266,0.15705659985542297,-0.1526816189289093
1788043757290380000,13.803380126953124,9.80496883392334,0.1329115778207779,-0.12373564392328262
1788043757306075100,13.8190751953125,9.80555534362793,0.11270947754383087,-0.0936543196439743
1788043757322022100,13.835022216796874,9.805906295776367,0.09771644324064255,-0.07099410891532898
1788043757338232000,13.851232177734374,9.806057929992676,0.08789484947919846,-0.06246364861726761
1788043757354198000,13.867197998046874,9.806092262268066,0.08358810842037201,-0.06284864246845245
1788043757370606300,13.8836064453125,9.806069374084473,0.08651252090930939,-0.06248017027974129
1788043757386318000,13.899318115234376,9.805976867675781,0.09987804293632507,-0.05682535469532013
1788043757402372600,13.91537255859375,9.80569076538086,0.12617236375808716,-0.05380849167704582
1788043757418540500,13.93154052734375,9.805207252502441,0.15909314155578613,-0.05456828698515892
1788043757434497500,13.94749755859375,9.804625511169434,0.19147910177707672,-0.05510079860687256
1788043757450945500,13.963945556640626,9.804242134094238,0.2121560275554657,-0.0470607727766037
1788043757466661400,13.979661376953125,9.804278373718262,0.21382372081279755,-0.028100084513425827
1788043757482611700,13.99561181640625,9.804511070251465,0.2047826200723648,-0.00044175927178002894
1788043757498802000,14.011802001953125,9.804544448852539,0.20021763443946838,0.034815121442079544
1788043757514775800,14.02777587890625,9.804156303405762,0.20964935421943665,0.07043774425983429
1788043757531210800,14.044210693359375,9.803369522094727,0.22853754460811615,0.11004166305065155
1788043757547330300,14.060330322265624,9.802582740783691,0.23420396447181702,0.15780779719352722
1788043757562899700,14.075899658203125,9.802351951599121,0.21115218102931976,0.19925457239151
1788043757579050800,14.09205078125,9.802936553955078,0.15829773247241974,0.21853148937225342
1788043757595228000,14.108227783203125,9.803911209106445,0.1048966646194458,0.20665289461612701
1788043757611513600,14.124513671875,9.804970741271973,0.07891988009214401,0.16343574225902557
1788043757627194600,14.140194580078125,9.805665969848633,0.0947304517030716,0.10160524398088455
1788043757643270100,14.156270263671875,9.805480003356934,0.1473349928855896,0.03533584997057915
1788043757659387000,14.172386962890625,9.80411434173584,0.2218976616859436,-0.022128809243440628
1788043757675359000,14.18835888671875,9.802197456359863,0.2891884446144104,-0.060707319527864456
1788043757691780900,14.20478076171875,9.800432205200195,0.34014394879341125,-0.07880071550607681
1788043757707468300,14.22046826171875,9.799370765686035,0.36914607882499695,-0.08027858287096024
1788043757723629300,14.23662939453125,9.799514770507812,0.36778712272644043,-0.06803196668624878
1788043757739978500,14.252978515625,9.800640106201172,0.3399287164211273,-0.04785972461104393
1788043757755626500,14.26862646484375,9.802069664001465,0.29876062273979187,-0.02397329732775688
1788043757772086300,14.285086181640626,9.803348541259766,0.25445136427879333,-0.0024699384812265635
1788043757787938000,14.30093798828125,9.804235458374023,0.21749907732009888,0.007287389598786831
1788043757804224300,14.317224365234376,9.805307388305664,0.1616046279668808,0.01489114947617054
1788043757819947500,14.332947509765624,9.805896759033203,0.12154338508844376,-0.0020039512310177088
1788043757836012300,14.34901220703125,9.805904388427734,0.11321686208248138,-0.04260748624801636
1788043757852413000,14.365412841796875,9.805655479431152,0.10611201077699661,-0.09083778411149979
1788043757868159000,14.381158935546875,9.805191993713379,0.09653937071561813,-0.13882847130298615
1788043757884292400,14.397292236328125,9.804667472839355,0.08075668662786484,-0.1798846274614334
1788043757900314400,14.413314453125,9.8041353225708,0.06599114835262299,-0.21203558146953583
1788043757916208600,14.429208740234374,9.803825378417969,0.0521591417491436,-0.22950488328933716
1788043757932702200,14.4457021484375,9.803740501403809,0.04042971879243851,-0.23542650043964386
1788043757948464600,14.461464599609375,9.803671836853027,0.026535065844655037,-0.24023477733135223
1788043757964337700,14.477337646484376,9.803498268127441,0.0043798089027404785,-0.24856020510196686
1788043757980520200,14.493520263671876,9.803136825561523,-0.024991704151034355,-0.26127225160598755
1788043757996466400,14.509466552734375,9.802759170532227,-0.05238061398267746,-0.271216481924057
1788043758012917200,14.525917236328125,9.802549362182617,-0.07166582345962524,-0.2743779420852661
1788043758028647400,14.5416474609375,9.8025541305542,-0.07769814878702164,-0.27255281805992126
1788043758044629200,14.557629150390625,9.802732467651367,-0.0688004344701767,-0.26850026845932007
1788043758061091800,14.574091796875,9.803049087524414,-0.04619765281677246,-0.2616996765136719
1788043758076729600,14.5897294921875,9.803213119506836,-0.025419805198907852,-0.2583739757537842
1788043758093199600,14.60619970703125,9.803796768188477,0.005560858175158501,-0.23648685216903687
1788043758109263600,14.622263671875,9.804181098937988,0.03350824862718582,-0.21746313571929932
1788043758125027800,14.63802783203125,9.804421424865723,0.059772636741399765,-0.20033667981624603
1788043758141031400,14.654031494140625,9.804586410522461,0.08177145570516586,-0.183826744556427
1788043758157010200,14.67001025390625,9.804716110229492,0.09850616008043289,-0.16801300644874573
1788043758173473500,14.6864736328125,9.804804801940918,0.11042498797178268,-0.15493080019950867
1788043758189342000,14.702342041015624,9.804778099060059,0.12155941873788834,-0.148110494017601
1788043758205146600,14.718146728515626,9.80460262298584,0.13984335958957672,-0.143522709608078
1788043758221348000,14.73434814453125,9.804075241088867,0.17265945672988892,-0.14380709826946259
1788043758237310000,14.75031005859375,9.80340576171875,0.20588834583759308,-0.1457095891237259
1788043758253787000,14.766786865234375,9.803099632263184,0.2153404802083969,-0.15252938866615295
1788043758269853000,14.78285302734375,9.8034086227417,0.19165441393852234,-0.16379214823246002
1788043758285515800,14.798515869140624,9.804030418395996,0.1455754041671753,-0.17375506460666656
1788043758301691400,14.81469140625,9.804451942443848,0.10333839058876038,-0.180071622133255
1788043758318039300,14.831039306640625,9.804706573486328,0.08553139120340347,-0.17547990381717682
1788043758334094000,14.847093994140625,9.804887771606445,0.09537462145090103,-0.15957681834697723
1788043758349794600,14.862794677734374,9.804895401000977,0.12563949823379517,-0.13649584352970123
1788043758366235600,14.879235595703125,9.80459213256836,0.16596758365631104,-0.1132068783044815
1788043758381995300,14.894995361328125,9.803829193115234,0.21237847208976746,-0.10107714682817459
1788043758397900300,14.910900390625,9.802741050720215,0.2558976709842682,-0.10571098327636719
1788043758414398000,14.92739794921875,9.802059173583984,0.26022663712501526,-0.14937572181224823
1788043758430232800,14.94323291015625,9.801566123962402,0.23668117821216583,-0.20899206399917603
1788043758446061800,14.959061767578126,9.80141830444336,0.23163530230522156,-0.22119756042957306
1788043758462254300,14.97525439453125,9.80192756652832,0.20798398554325104,-0.22212179005146027
1788043758478219300,14.99121923828125,9.802687644958496,0.17789171636104584,-0.21461088955402374
1788043758494658800,15.007658935546875,9.803475379943848,0.1451154202222824,-0.2029556781053543
1788043758510498600,15.02349853515625,9.804301261901855,0.10802140831947327,-0.18544533848762512
1788043758526324200,15.03932421875,9.805026054382324,0.007360036950558424,-0.17834533751010895
1788043758542551800,15.0555517578125,9.804866790771484,-0.07538395375013351,-0.17113520205020905
1788043758558595600,15.071595703125,9.804823875427246,-0.08134397864341736,-0.17087726294994354
1788043758574929700,15.0879296875,9.804640769958496,-0.0714576318860054,-0.1852126270532608
1788043758590789600,15.10378955078125,9.804193496704102,-0.05949907377362251,-0.21128445863723755
1788043758606570200,15.1195703125,9.803348541259766,-0.05878715589642525,-0.24758832156658173
1788043758623090200,15.136090087890626,9.801985740661621,-0.07306616753339767,-0.29347941279411316
1788043758638670000,15.151670166015625,9.800610542297363,-0.0983760878443718,-0.32974982261657715
1788043758655166000,15.168166015625,9.799461364746094,-0.13779625296592712,-0.3492131233215332
1788043758670915800,15.183915771484376,9.79878044128418,-0.18656428158283234,-0.34566229581832886
1788043758687299600,15.200299560546876,9.79850959777832,-0.22816142439842224,-0.32793402671813965
1788043758703055400,15.216055419921876,9.798705101013184,-0.2526060938835144,-0.303244948387146
1788043758718979300,15.231979248046875,9.799177169799805,-0.2594301700592041,-0.28143230080604553
1788043758735442700,15.248442626953125,9.799668312072754,-0.2562140226364136,-0.2669121325016022
1788043758751156200,15.26415625,9.800027847290039,-0.2486896961927414,-0.2607458531856537
1788043758767228400,15.280228515625,9.800410270690918,-0.23863229155540466,-0.2557327449321747
1788043758783707000,15.296706787109375,9.801054954528809,-0.2233729064464569,-0.24457260966300964
1788043758799450000,15.3124501953125,9.801981925964355,-0.19913017749786377,-0.22777584195137024
1788043758815865900,15.328865966796876,9.8031644821167,-0.16019290685653687,-0.2066384106874466
1788043758831571200,15.3445712890625,9.804240226745605,-0.12091856449842453,-0.1806601732969284
1788043758847718400,15.360718505859374,9.805000305175781,-0.08965097367763519,-0.15597011148929596
1788043758864019700,15.377019775390625,9.80554485321045,-0.07413408160209656,-0.12719696760177612
1788043758879716000,15.392716064453126,9.805923461914062,-0.06990916281938553,-0.096786268055439
1788043758896122000,15.4091220703125,9.806194305419922,-0.06740832328796387,-0.06634017080068588
1788043758911879400,15.42487939453125,9.806387901306152,-0.06113598495721817,-0.03740030899643898
1788043758928222000,15.441221923828126,9.806516647338867,-0.05004033073782921,-0.010835564695298672
1788043758944018700,15.457018798828125,9.806522369384766,-0.04492603987455368,0.021963253617286682
1788043758959968000,15.472968017578125,9.806309700012207,-0.05866289511322975,0.05680057778954506
1788043758976383500,15.489383544921875,9.805904388427734,-0.08959025889635086,0.08126173913478851
1788043758992063500,15.5050634765625,9.805414199829102,-0.12820476293563843,0.0884038507938385
1788043759008046000,15.521046142578125,9.805214881896973,-0.15090227127075195,0.073392353951931
1788043759024246000,15.53724609375,9.805575370788574,-0.14092643558979034,0.034941282123327255
1788043759040126200,15.553126220703126,9.806180953979492,-0.09434710443019867,-0.017004337161779404
1788043759056565200,15.569565185546875,9.806402206420898,-0.020662743598222733,-0.0667070522904396
1788043759072420600,15.585420654296875,9.805815696716309,0.06253531575202942,-0.11160755157470703
1788043759088284400,15.601284423828124,9.804564476013184,0.13711436092853546,-0.14870485663414001
1788043759104433200,15.61743310546875,9.80309009552002,0.2019963562488556,-0.17032010853290558
1788043759120397600,15.6333974609375,9.801980018615723,0.24517394602298737,-0.17739364504814148
1788043759136831500,15.64983154296875,9.801544189453125,0.2655438184738159,-0.17205800116062164
1788043759152893700,15.665893798828124,9.802102088928223,0.2578091621398926,-0.15074507892131805
1788043759168504800,15.6815048828125,9.803184509277344,0.2309063822031021,-0.12097574025392532
1788043759192631600,15.705631591796875,9.805241584777832,0.15714311599731445,-0.054055940359830856
1788043759209115600,15.72211572265625,9.806166648864746,0.09686015546321869,-0.009782159700989723
1788043759225053400,15.738053466796876,9.806523323059082,0.04620138183236122,0.018727976828813553
1788043759240830200,15.753830322265625,9.806615829467773,0.022295570001006126,0.013523944653570652
1788043759257217300,15.77021728515625,9.806636810302734,0.009670605883002281,-0.013175432570278645
1788043759272973300,15.785973388671875,9.806504249572754,-0.005390438251197338,-0.05324516445398331
1788043759289056300,15.80205615234375,9.806217193603516,-0.025963202118873596,-0.08836907893419266
1788043759305253000,15.818253173828126,9.805949211120605,-0.045992106199264526,-0.10784724354743958
1788043759321184500,15.8341845703125,9.805832862854004,-0.06540567427873611,-0.1084854006767273
1788043759337642200,15.850642333984375,9.805761337280273,-0.08695530146360397,-0.09938865900039673
1788043759353329700,15.86632958984375,9.805561065673828,-0.11656105518341064,-0.08817659318447113
1788043759369358300,15.8823583984375,9.805135726928711,-0.15321190655231476,-0.07891395688056946
1788043759385666600,15.89866650390625,9.804317474365234,-0.2013522982597351,-0.07212158292531967
1788043759401506800,15.9145068359375,9.80306339263916,-0.2567117512226105,-0.06661663949489594
1788043759417923600,15.930923583984375,9.801314353942871,-0.31741607189178467,-0.06222360208630562
1788043759433642000,15.94664208984375,9.799101829528809,-0.37840932607650757,-0.06918806582689285
1788043759449747200,15.962747314453125,9.796900749206543,-0.42750418186187744,-0.09145833551883698
1788043759465801200,15.97880126953125,9.79511547088623,-0.4597538113594055,-0.12137158960103989
1788043759482014500,15.995014404296874,9.794010162353516,-0.47390076518058777,-0.1522310972213745
1788043759498209800,16.011209716796873,9.793539047241211,-0.4730425775051117,-0.18224544823169708
1788043759513909000,16.026908935546874,9.79354476928711,-0.4611707627773285,-0.21019241213798523
1788043759529944000,16.042944091796876,9.793661117553711,-0.4468090236186981,-0.23441384732723236
1788043759546180900,16.059180908203125,9.79361343383789,-0.43372729420661926,-0.25965070724487305
1788043759562122200,16.075122314453125,9.793261528015137,-0.4231034815311432,-0.28878873586654663
1788043759578510300,16.09151025390625,9.792680740356445,-0.41169002652168274,-0.32296836376190186
1788043759594575000,16.1075751953125,9.792182922363281,-0.3970555067062378,-0.3548049032688141
1788043759610420700,16.123420654296876,9.792159080505371,-0.3768945634365082,-0.3767572045326233
1788043759626460200,16.139460205078127,9.792933464050293,-0.35050123929977417,-0.382099986076355
1788043759642388500,16.155388427734376,9.79423713684082,-0.32078126072883606,-0.37469983100891113
1788043759658805800,16.1718056640625,9.795902252197266,-0.28415143489837646,-0.360472172498703
1788043759674582000,16.18758203125,9.797750473022461,-0.23781122267246246,-0.34338536858558655
1788043759690587000,16.2035869140625,9.799384117126465,-0.18693852424621582,-0.32789474725723267
1788043759706892000,16.21989208984375,9.80085563659668,-0.13463173806667328,-0.30901914834976196
1788043759722743000,16.235742919921876,9.802016258239746,-0.09586530923843384,-0.28580108284950256
1788043759739106800,16.25210693359375,9.802762031555176,-0.07412030547857285,-0.2660050392150879
1788043759754882000,16.267882080078124,9.803154945373535,-0.07277029752731323,-0.25146111845970154
1788043759770922800,16.2839228515625,9.803487777709961,-0.08723685890436172,-0.23326921463012695
1788043759787088100,16.300088134765623,9.804234504699707,-0.10483251512050629,-0.19073936343193054
1788043759803031000,16.316031005859376,9.805310249328613,-0.10449725389480591,-0.12395625561475754
1788043759819360500,16.332360595703125,9.806279182434082,-0.0756068304181099,-0.039648331701755524
1788043759843285800,16.35628564453125,9.80624008178711,0.016252128407359123,0.08811591565608978
1788043759859516000,16.372515869140624,9.804885864257812,0.08178801834583282,0.16710849106311798
1788043759875489000,16.388489013671876,9.803112030029297,0.12878260016441345,0.22975827753543854
1788043759891360300,16.4043603515625,9.801606178283691,0.15855854749679565,0.2715991735458374
1788043759907431400,16.420431396484375,9.80084228515625,0.17486920952796936,0.2886228561401367
1788043759923391200,16.43639111328125,9.800737380981445,0.1851261556148529,0.2857622802257538
1788043759939835000,16.4528349609375,9.800951957702637,0.19388379156589508,0.27229756116867065
1788043759955570200,16.468570068359377,9.801291465759277,0.19694793224334717,0.25748229026794434
1788043759971593700,16.48459375,9.80174732208252,0.19019164144992828,0.24487504363059998
1788043759987712500,16.50071240234375,9.80212688446045,0.17432601749897003,0.24146780371665955
1788043760004056600,16.517056640625,9.802485466003418,0.15730689465999603,0.2385813146829605
1788043760020088000,16.533088134765624,9.80296516418457,0.15060128271579742,0.2226686328649521
1788043760035817200,16.548817138671875,9.803535461425781,0.1488494724035263,0.1972779482603073
1788043760051867000,16.564866943359377,9.804218292236328,0.14168639481067657,0.1661982387304306
1788043760068135200,16.58113525390625,9.804888725280762,0.12135931104421616,0.14079605042934418
1788043760084202500,16.597202392578126,9.805501937866211,0.08812522143125534,0.12142761796712875
1788043760100368400,16.613368408203126,9.80590534210205,0.05069119110703468,0.1096760556101799
1788043760116095200,16.62909521484375,9.806127548217773,0.01534985937178135,0.10004430264234543
1788043760132121300,16.645121337890625,9.806248664855957,-0.019458936527371407,0.08661467581987381
1788043760148366000,16.661365966796875,9.80626106262207,-0.05375969782471657,0.06875644624233246
1788043760164357600,16.677357666015624,9.806168556213379,-0.08384761959314346,0.049140192568302155
1788043760180737000,16.693737060546876,9.80603313446045,-0.1069629117846489,0.025436244904994965
1788043760196420900,16.7094208984375,9.805843353271484,-0.12576445937156677,-0.0029018977656960487
1788043760212844000,16.725843994140625,9.805520057678223,-0.14346183836460114,-0.03969259932637215
1788043760228587000,16.7415869140625,9.804986953735352,-0.1608862578868866,-0.08200932294130325
1788043760244598500,16.7575986328125,9.80434513092041,-0.1740502566099167,-0.12205934524536133
1788043760261054500,16.774054443359375,9.803614616394043,-0.18543803691864014,-0.15855324268341064
1788043760276732200,16.789732177734376,9.802803993225098,-0.1988070011138916,-0.18947914242744446
1788043760292693800,16.80569384765625,9.80197525024414,-0.21311545372009277,-0.2150576114654541
1788043760308881200,16.821881103515626,9.801095962524414,-0.22617094218730927,-0.24031412601470947
1788043760332880400,16.84588037109375,9.799938201904297,-0.23658566176891327,-0.2749970853328705
1788043760348994800,16.861994873046875,9.799344062805176,-0.23599067330360413,-0.2959091067314148
1788043760364968400,16.877968505859375,9.798949241638184,-0.22967980802059174,-0.31340304017066956
1788043760381441800,16.89444189453125,9.798680305480957,-0.21803142130374908,-0.3297128677368164
1788043760397254000,16.91025390625,9.798419952392578,-0.20143648982048035,-0.34752529859542847
1788043760413575200,16.9265751953125,9.798134803771973,-0.18033291399478912,-0.3666362762451172
1788043760429305000,16.94230517578125,9.797761917114258,-0.15931054949760437,-0.38583478331565857
1788043760445390800,16.958390869140626,9.797432899475098,-0.1432173252105713,-0.40023139119148254
1788043760461681400,16.974681396484375,9.797184944152832,-0.1324385106563568,-0.40989696979522705
1788043760477566700,16.990566650390626,9.796905517578125,-0.1275952011346817,-0.41803625226020813
1788043760493411800,17.006411865234377,9.796632766723633,-0.1279854029417038,-0.4242386817932129
1788043760509560000,17.02256005859375,9.796298027038574,-0.13194507360458374,-0.4307191073894501
1788043760525595100,17.03859521484375,9.795953750610352,-0.1367647498846054,-0.4370110034942627
1788043760541970200,17.05497021484375,9.795610427856445,-0.1397082358598709,-0.4437258839607239
1788043760557912800,17.070912841796876,9.795360565185547,-0.13629350066184998,-0.4502466320991516
1788043760573803300,17.08680322265625,9.79526424407959,-0.12587134540081024,-0.45535099506378174
1788043760589933800,17.102933837890625,9.795327186584473,-0.11076481640338898,-0.4579068124294281
1788043760605912600,17.11891259765625,9.795492172241211,-0.09514851123094559,-0.45789477229118347
1788043760622325200,17.1353251953125,9.795693397521973,-0.08199737221002579,-0.4561212658882141
1788043760638041600,17.15104150390625,9.795878410339355,-0.070415198802948,-0.45408836007118225
1788043760654200300,17.167200439453126,9.79613208770752,-0.05798365920782089,-0.45035701990127563
1788043760670553000,17.183552978515625,9.796516418457031,-0.04581235721707344,-0.4433232247829437
1788043760686272000,17.19927197265625,9.797224998474121,-0.037728115916252136,-0.4281960129737854
1788043760702659600,17.21565966796875,9.798255920410156,-0.032354798167943954,-0.4043824076652527
1788043760718388200,17.23138818359375,9.79914379119873,-0.028573129326105118,-0.3825553059577942
1788043760734784500,17.247784423828126,9.799538612365723,-0.025061413645744324,-0.372551828622818
1788043760750606600,17.263606689453123,9.7993745803833,-0.019687594845891,-0.3771653473377228
1788043760766594000,17.279593994140626,9.798894882202148,-0.01187100913375616,-0.3897421658039093
1788043760782932000,17.295931884765626,9.798386573791504,-0.0023079756647348404,-0.40251424908638
1788043760798661000,17.3116611328125,9.797948837280273,0.005178398452699184,-0.41297462582588196
1788043760814730200,17.327730224609375,9.79763126373291,0.009714447893202305,-0.42038190364837646
1788043760830972200,17.34397216796875,9.797273635864258,0.011367421597242355,-0.42860251665115356
1788043760846833200,17.359833251953123,9.797124862670898,0.008289570920169353,-0.43204396963119507
1788043760863184000,17.376183837890625,9.797028541564941,0.004907074850052595,-0.4342706501483917
1788043760878929200,17.39192919921875,9.797024726867676,0.000893724849447608,-0.4343913197517395
1788043760894934800,17.407934814453125,9.79720687866211,0.0002582947490736842,-0.4302483797073364
1788043760911113700,17.42411376953125,9.79753303527832,0.0024489641655236483,-0.42275816202163696
1788043760927102200,17.440102294921875,9.79794692993164,0.006796916481107473,-0.4129998981952667
1788043760943465700,17.4564658203125,9.798355102539062,0.01177138090133667,-0.40310999751091003
1788043760959199200,17.47219921875,9.798726081848145,0.01567096821963787,-0.39385074377059937
1788043760975606000,17.48860595703125,9.799118995666504,0.018212610855698586,-0.38382211327552795
1788043760991587000,17.504587158203126,9.799545288085938,0.019033508375287056,-0.3727472722530365
1788043761007391500,17.5203916015625,9.799928665161133,0.01879086345434189,-0.36253803968429565
1788043761023768600,17.5367685546875,9.800345420837402,0.01920054666697979,-0.35105738043785095
1788043761039654400,17.552654296875,9.800792694091797,0.019393574446439743,-0.33832865953445435
1788043761055517200,17.56851708984375,9.80120849609375,0.019460337236523628,-0.3260531425476074
1788043761071656200,17.58465625,9.801506042480469,0.020222630351781845,-0.31695425510406494
1788043761087683300,17.600683349609376,9.801666259765625,0.024178186431527138,-0.3116714656352997
1788043761104058000,17.61705810546875,9.801712036132812,0.03292200341820717,-0.30941981077194214
1788043761119983400,17.6329833984375,9.801690101623535,0.047216929495334625,-0.3082694709300995
1788043761135817000,17.64881689453125,9.80156421661377,0.0639444962143898,-0.3092546761035919
1788043761152006100,17.665006103515626,9.8012113571167,0.08130675554275513,-0.3162597417831421
1788043761168057600,17.6810576171875,9.800749778747559,0.09563202410936356,-0.3264256417751312
1788043761184455200,17.697455078125,9.800252914428711,0.10712753981351852,-0.33757925033569336
1788043761200188700,17.713188720703126,9.799735069274902,0.1163364052772522,-0.3493386507034302
1788043761216245200,17.729245361328125,9.799248695373535,0.1233004480600357,-0.3604380190372467
1788043761232697600,17.745697509765623,9.798633575439453,0.13097235560417175,-0.37417271733283997
1788043761248469200,17.76146923828125,9.797776222229004,0.14206627011299133,-0.39216428995132446
1788043761264812000,17.77781201171875,9.796540260314941,0.15696163475513458,-0.4165860414505005
1788043761280528000,17.79352783203125,9.79502010345459,0.17326748371124268,-0.44490861892700195
1788043761296520400,17.8095205078125,9.793246269226074,0.1881101131439209,-0.47679001092910767
1788043761312699100,17.82569921875,9.791227340698242,0.20281380414962769,-0.51100093126297
1788043761328698000,17.841697998046875,9.789012908935547,0.21727102994918823,-0.5462521910667419
1788043761345119000,17.858118896484374,9.788763046264648,0.23362997174263,-0.5439913868904114
1788043761360871200,17.87387109375,9.787680625915527,0.24801397323608398,-0.5569382905960083
1788043761376884500,17.889884521484376,9.787806510925293,0.263418585062027,-0.5475736260414124
1788043761392998100,17.905998046875,9.786762237548828,0.2759740352630615,-0.5599160194396973
1788043761409020200,17.922020263671875,9.78668212890625,0.29211342334747314,-0.5531003475189209
1788043761425445600,17.938445556640627,9.786301612854004,0.31251224875450134,-0.5486469268798828
1788043761441159700,17.95415966796875,9.783178329467773,0.3258674144744873,-0.5946578979492188
1788043761457241300,17.970241455078124,9.780324935913086,0.3358747661113739,-0.6346763372421265
1788043761473339600,17.986339599609376,9.77822208404541,0.34207025170326233,-0.6631388068199158
1788043761489334000,18.002333984375,9.776740074157715,0.34352433681488037,-0.6839144229888916
1788043761505731800,18.01873193359375,9.77565860748291,0.3427327573299408,-0.6995856761932373
1788043761521494000,18.034493896484374,9.774907112121582,0.3404558002948761,-0.7110970616340637
1788043761537900300,18.050900390625,9.774174690246582,0.3360040485858917,-0.7231801152229309
1788043761553629000,18.06662890625,9.7738037109375,0.3355041444301605,-0.728402316570282
1788043761569623000,18.082623046875,9.773795127868652,0.34194135665893555,-0.7255203723907471
1788043761586022000,18.09902197265625,9.773895263671875,0.35787928104400635,-0.7164376974105835
1788043761601719300,18.11471923828125,9.773985862731934,0.3801914155483246,-0.7035952806472778
1788043761617837000,18.130837158203125,9.774336814880371,0.4016468822956085,-0.6865873336791992
1788043761633970200,18.14697021484375,9.77532958984375,0.41438931226730347,-0.6645305752754211
1788043761650144800,18.163144775390624,9.777604103088379,0.4163056015968323,-0.6289077997207642
1788043761666404600,18.179404541015625,9.781003952026367,0.41246071457862854,-0.5763934254646301
1788043761682274800,18.19527490234375,9.784210205078125,0.40121281147003174,-0.5278764367103577
1788043761698139100,18.21113916015625,9.788214683532715,0.3889460265636444,-0.45820352435112
1788043761714297000,18.227297119140626,9.791478157043457,0.3734933137893677,-0.3972947895526886
1788043761730658600,18.243658447265624,9.793041229248047,0.36848461627960205,-0.3618578612804413
1788043761746688500,18.2596884765625,9.792581558227539,0.3807462751865387,-0.361629456281662
1788043761762514000,18.275513916015626,9.790888786315918,0.404287725687027,-0.381350576877594
1788043761778522400,18.2915224609375,9.788619041442871,0.4302334487438202,-0.41015562415122986
1788043761794858800,18.307858642578125,9.786296844482422,0.4538005292415619,-0.43913534283638
1788043761810585000,18.323585205078125,9.784466743469238,0.4722934365272522,-0.45992717146873474
1788043761826946800,18.33994677734375,9.784127235412598,0.47865936160087585,-0.46056807041168213
1788043761842621200,18.35562109375,9.784521102905273,0.4761504530906677,-0.45478007197380066
1788043761858623500,18.37162353515625,9.784526824951172,0.47167229652404785,-0.4592810273170471
1788043761874859800,18.38785986328125,9.784146308898926,0.46276599168777466,-0.47614625096321106
1788043761890865700,18.40386572265625,9.783848762512207,0.4439404606819153,-0.4996108114719391
1788043761907232500,18.420232421875,9.783610343933105,0.4138701856136322,-0.5292201042175293
1788043761922979000,18.43597900390625,9.783435821533203,0.3741041123867035,-0.5610837936401367
1788043761938950400,18.451950439453125,9.782882690429688,0.32503587007522583,-0.5999500751495361
1788043761955420700,18.468420654296875,9.780913352966309,0.2832973897457123,-0.6510372161865234
1788043761971153000,18.48415283203125,9.777382850646973,0.2795587182044983,-0.7035797834396362
1788043761987523300,18.5005234375,9.77220630645752,0.30459070205688477,-0.7626171112060547
1788043762003256300,18.51625634765625,9.766397476196289,0.3237825632095337,-0.8264635801315308
1788043762019281400,18.532281494140626,9.760237693786621,0.3280075192451477,-0.8947373032569885
1788043762035527200,18.548527099609377,9.753849983215332,0.31527796387672424,-0.9661277532577515
1788043762051815000,18.56481494140625,9.748406410217285,0.2940995395183563,-1.02589750289917
1788043762067858700,18.580858642578125,9.74334716796875,0.2797902524471283,-1.076696753501892
1788043762083586800,18.5965869140625,9.73910140991211,0.28256601095199585,-1.1137597560882568
1788043762099608000,18.612608154296876,9.73636245727539,0.290686696767807,-1.135400414466858
1788043762115770600,18.6287705078125,9.733393669128418,0.31841206550598145,-1.1532822847366333
1788043762132087300,18.64508740234375,9.733823776245117,0.3133607506752014,-1.151033639907837
1788043762148215000,18.661215087890625,9.737337112426758,0.26688480377197266,-1.132883906364441
1788043762164108300,18.6771083984375,9.739956855773926,0.21339739859104156,-1.1216456890106201
1788043762180045800,18.6930458984375,9.740209579467773,0.16178052127361298,-1.1280659437179565
1788043762196234200,18.709234130859375,9.738072395324707,0.11169961094856262,-1.1523288488388062
1788043762212174300,18.72517431640625,9.733845710754395,0.0727992057800293,-1.1905171871185303
1788043762228604700,18.741604736328124,9.728965759277344,0.04373016580939293,-1.231136679649353
1788043762244354600,18.7573544921875,9.72475814819336,0.023228900507092476,-1.2644869089126587
1788043762260480500,18.77348046875,9.72134017944336,0.001480520935729146,-1.2907062768936157
1788043762276518700,18.7895185546875,9.71737003326416,-0.02280241809785366,-1.3200713396072388
1788043762292578600,18.80557861328125,9.711555480957031,-0.055930089205503464,-1.3612298965454102
1788043762308924400,18.82192431640625,9.703633308410645,-0.09401475638151169,-1.4145891666412354
1788043762324903700,18.837903564453125,9.694807052612305,-0.13058379292488098,-1.4710679054260254
1788043762340892000,18.853891845703124,9.686678886413574,-0.1609194576740265,-1.52077317237854
1788043762357128700,18.870128662109376,9.67995548248291,-0.17842523753643036,-1.5610977411270142
1788043762373203000,18.886202880859376,9.676265716552734,-0.1797681748867035,-1.583651065826416
1788043762389284900,18.902284912109376,9.675355911254883,-0.16891410946846008,-1.59039306640625
1788043762405031200,18.91803125,9.676130294799805,-0.14726334810256958,-1.5878311395645142
1788043762421018000,18.93401806640625,9.677892684936523,-0.12387129664421082,-1.579063057899475
1788043762437190400,18.9501904296875,9.680676460266113,-0.09813179820775986,-1.5637362003326416
1788043762453183000,18.966182861328125,9.684134483337402,-0.07177717238664627,-1.543624997138977
1788043762469600800,18.982600830078123,9.68783187866211,-0.04338321462273598,-1.5213209390640259
1788043762485343500,18.998343505859374,9.691960334777832,-0.014663389883935452,-1.4953547716140747
1788043762501363700,19.01436376953125,9.696901321411133,0.013886998407542706,-1.4629775285720825
1788043762517804800,19.0308046875,9.70201301574707,0.0442090705037117,-1.4280718564987183
1788043762533554400,19.046554443359376,9.706390380859375,0.0794210359454155,-1.3964520692825317
1788043762549949700,19.06294970703125,9.710110664367676,0.12300196290016174,-1.3671172857284546
1788043762565892600,19.078892578125,9.71287727355957,0.1706731915473938,-1.3421143293380737
1788043762581709300,19.094709228515626,9.714937210083008,0.21650168299674988,-1.3204199075698853
1788043762597875700,19.110875732421874,9.716634750366211,0.25785696506500244,-1.300351619720459
1788043762614216700,19.127216796875,9.718517303466797,0.2929852306842804,-1.2786579132080078
1788043762630246700,19.14324658203125,9.72072696685791,0.32475870847702026,-1.2539498805999756
1788043762645999600,19.15899951171875,9.723406791687012,0.3523077964782715,-1.2254072427749634
1788043762662075100,19.1750751953125,9.727086067199707,0.36670541763305664,-1.1915178298950195
1788043762678185200,19.191185302734375,9.73241138458252,0.35724037885665894,-1.150184988975525
1788043762694507300,19.20750732421875,9.738058090209961,0.321666419506073,-1.1122714281082153
1788043762710539000,19.2235390625,9.743683815002441,0.269660621881485,-1.0762437582015991
1788043762726377700,19.239377685546874,9.74882698059082,0.21905384957790375,-1.0405675172805786
1788043762742267000,19.255266845703126,9.752348899841309,0.1989775449037552,-1.0111805200576782
1788043762758453500,19.27145361328125,9.75455379486084,0.21267493069171906,-0.9868367910385132
1788043762774441000,19.28744091796875,9.75570297241211,0.24053166806697845,-0.9689186811447144
1788043762790815500,19.3038154296875,9.75678825378418,0.2619089186191559,-0.9522972106933594
1788043762806561300,19.319561279296874,9.756961822509766,0.27174532413482666,-0.9477522969245911
1788043762822566400,19.33556640625,9.755699157714844,0.27431151270866394,-0.9599359035491943
1788043762838742300,19.3517421875,9.752949714660645,0.27494511008262634,-0.9872978925704956
1788043762854986800,19.36798681640625,9.749822616577148,0.27410295605659485,-1.0179482698440552
1788043762871112000,19.38411181640625,9.747410774230957,0.2677960693836212,-1.0424314737319946
1788043762886834000,19.399833984375,9.754783630371094,0.2527431547641754,-0.9750432372093201
1788043762902894800,19.415894775390626,9.765044212341309,0.21741734445095062,-0.8758033514022827
1788043762919147800,19.432147705078126,9.770414352416992,0.17064115405082703,-0.8247890472412109
1788043762935058200,19.44805810546875,9.771743774414062,0.13155096769332886,-0.8161487579345703
1788043762951433200,19.46443310546875,9.77197265625,0.1035151407122612,-0.8174453973770142
1788043762967162000,19.480162109375,9.770865440368652,0.09374945610761642,-0.8317357897758484
1788043762983304000,19.496303955078126,9.76961612701416,0.10187756270170212,-0.8453475832939148
1788043762999547600,19.512547607421876,9.769294738769531,0.12537658214569092,-0.8458936214447021
1788043763015351000,19.52835107421875,9.770668983459473,0.1543116569519043,-0.8249920606613159
1788043763031759400,19.54475927734375,9.773417472839355,0.17788507044315338,-0.7868087291717529
1788043763047655200,19.5606552734375,9.776960372924805,0.18993225693702698,-0.7384847402572632
1788043763063919900,19.576919921875,9.780760765075684,0.1918252408504486,-0.6857840418815613
1788043763079692300,19.5926923828125,9.7888765335083,0.17329534888267517,-0.564145565032959
1788043763095713800,19.6087138671875,9.795001983642578,0.15110155940055847,-0.4532952606678009
1788043763112110600,19.625110595703124,9.799570083618164,0.12430074065923691,-0.35123029351234436
1788043763127798300,19.64079833984375,9.802643775939941,0.09504347294569016,-0.26368212699890137
1788043763144065800,19.657065673828125,9.80299186706543,0.07545845955610275,-0.25698086619377136
1788043763160039400,19.673039306640625,9.803210258483887,0.055646952241659164,-0.25369182229042053
1788043763176435700,19.689435791015626,9.804305076599121,0.02825012616813183,-0.2125951498746872
1788043763192493000,19.7054931640625,9.805500984191895,-0.004458714742213488,-0.1500891000032425
1788043763208356000,19.721356201171876,9.806057929992676,-0.03146471828222275,-0.1031399592757225
1788043763224181200,19.73718115234375,9.80632209777832,-0.05234029144048691,-0.06083321198821068
1788043763240406500,19.753406494140624,9.806380271911621,-0.07015277445316315,-0.019437221810221672
1788043763256372000,19.7693720703125,9.80622386932373,-0.08788404613733292,0.025379078462719917
1788043763272795000,19.785794921875,9.80578327178955,-0.10556899011135101,0.07651851326227188
1788043763288680000,19.801679931640624,9.805036544799805,-0.1184128001332283,0.13273939490318298
1788043763304649200,19.817649169921875,9.803899765014648,-0.12484616786241531,0.19582980871200562
1788043763320964600,19.833964599609374,9.802212715148926,-0.12287919223308563,0.2681695520877838
1788043763336942000,19.849942138671874,9.799943923950195,-0.11389563232660294,0.3442606031894684
1788043763353103400,19.866103271484373,9.799032211303711,-0.10694930702447891,0.37136611342430115
1788043763369104600,19.882104736328124,9.798399925231934,-0.10532846301794052,0.3881441056728363
1788043763384866800,19.89786669921875,9.798327445983887,-0.11499612033367157,0.3872222900390625
1788043763401149000,19.91414892578125,9.798198699951172,-0.13054031133651733,0.3855547308921814
1788043763417132300,19.93013232421875,9.799142837524414,-0.16525720059871674,0.3462141454219818
1788043763433417500,19.94641748046875,9.799938201904297,-0.2015700340270996,0.30160632729530334
1788043763449112000,19.962112060546875,9.800507545471191,-0.22792647778987885,0.26168912649154663
1788043763465198800,19.97819873046875,9.801009178161621,-0.22529928386211395,0.2446158081293106
1788043763481448000,19.994447998046876,9.80117130279541,-0.2106713503599167,0.25110501050949097
1788043763497370000,20.0103701171875,9.801055908203125,-0.18762028217315674,0.27290865778923035
1788043763513760300,20.02676025390625,9.801041603088379,-0.15139903128147125,0.2950287461280823
1788043763529498600,20.04249853515625,9.801153182983398,-0.11155106127262115,0.3087737262248993
1788043763545563600,20.058563720703123,9.801441192626953,-0.07626166939735413,0.3103641867637634
1788043763561728800,20.074728759765627,9.801898956298828,-0.05151645466685295,0.3008750081062317
1788043763577747500,20.09074755859375,9.80316162109375,-0.010783214122056961,0.2613418996334076
1788043763594107100,20.107107177734374,9.803987503051758,0.007097840309143066,0.2284182757139206
1788043763610156000,20.123156005859375,9.804738998413086,0.02362845279276371,0.19215120375156403
1788043763625913600,20.13891357421875,9.805543899536133,0.055590320378541946,0.13635951280593872
1788043763642033000,20.155032958984375,9.805947303771973,0.09990541636943817,0.06165008246898651
1788043763657997300,20.170997314453125,9.805668830871582,0.13841602206230164,-0.009066382423043251
1788043763674397700,20.187397705078126,9.804787635803223,0.174651101231575,-0.07769492268562317
1788043763690467800,20.2034677734375,9.803550720214844,0.20621123909950256,-0.1350870281457901
1788043763706230300,20.219230224609376,9.802318572998047,0.23183517158031464,-0.17659257352352142
1788043763722308000,20.23530810546875,9.80140209197998,0.2515248954296112,-0.19906604290008545
1788043763738648300,20.2516484375,9.800833702087402,0.2682987153530121,-0.20506730675697327
1788043763754676000,20.267676025390625,9.800897598266602,0.275165319442749,-0.1925400048494339
1788043763770422000,20.283422119140624,9.800561904907227,0.2938828766345978,-0.18168027698993683
1788043763786404400,20.299404296875,9.799805641174316,0.3200518488883972,-0.17820312082767487
1788043763802593500,20.315593505859376,9.79858684539795,0.3525378406047821,-0.18381227552890778
1788043763818591000,20.331591064453125,9.797130584716797,0.3866061866283417,-0.19275933504104614
1788043763834977500,20.3479775390625,9.795660972595215,0.4194091856479645,-0.19878633320331573
