time,seconds_elapsed,z,y,x
1788043743659102700,0.172102783203125,-0.015882495790719986,0.033597588539123535,-0.016493361443281174
1788043743675831000,0.1888310546875,-0.015882495790719986,0.033597588539123535,-0.016493361443281174
1788043743691524900,0.20452490234375,-0.015882495790719986,0.033597588539123535,-0.016493361443281174
1788043743707475500,0.220475341796875,-0.015882495790719986,0.033597588539123535,-0.016493361443281174
1788043743723936500,0.2369365234375,-0.015882495790719986,0.033597588539123535,-0.016493361443281174
1788043743739636500,0.252636474609375,-0.015882495790719986,0.033597588539123535,-0.016493361443281174
1788043743755615000,0.268614990234375,-0.015882495790719986,0.033597588539123535,-0.016493361443281174
1788043743771882800,0.2848828125,-0.015882495790719986,0.033597588539123535,-0.016493361443281174
1788043743787718400,0.300718505859375,0.006719517521560192,-0.021991148591041565,-0.025656340643763542
1788043743804209400,0.31720947265625,0.006108652334660292,-0.013439035043120384,-0.0012217304902151227
1788043743819952600,0.33295263671875,0.001832595793530345,0,0.02015855349600315
1788043743836009200,0.34900927734375,-0.01038470957428217,0.010995574295520782,0.01038470957428217
1788043743852135700,0.3651357421875,-0.012828170321881771,0.001832595793530345,-0.021991148591041565
1788043743867926000,0.380926025390625,0.015271631069481373,0.001832595793530345,-0.051312681287527084
1788043743884375000,0.397375,0.03787364438176155,-0.006108652334660292,-0.059864792972803116
1788043743900164600,0.41316455078125,0.033597588539123535,-0.022602014243602753,-0.048258353024721146
1788043743916262000,0.429261962890625,0.01771509274840355,-0.04886921867728233,-0.025656340643763542
1788043743932674000,0.445674072265625,0.009773843921720982,-0.04459316283464432,-0.014049900695681572
1788043743948143400,0.461143310546875,0.01160643994808197,-0.039706241339445114,-0.022602014243602753
1788043743972329000,0.485328857421875,0.009773843921720982,0,-0.04153883829712868
1788043743988308500,0.50130859375,0.01038470957428217,0.009773843921720982,-0.028099801391363144
1788043744004796400,0.51779638671875,-0.010995574295520782,-0.01771509274840355,-0.003054326167330146
1788043744028331500,0.54133154296875,-0.021991148591041565,-0.03176499158143997,0.03787364438176155
1788043744044825000,0.5578251953125,-0.01710422709584236,-0.010995574295520782,0.054367005825042725
1788043744076564700,0.589564697265625,-0.007941247895359993,0.016493361443281174,0.07024950534105301
1788043744100573400,0.613573486328125,0.018936822190880775,0.05375614017248154,0.04764748737215996
1788043744116633300,0.62963330078125,0.02626720629632473,0.06230825558304787,0.00733038317412138
1788043744132841500,0.645841552734375,0.022602014243602753,0.0507018156349659,-0.03298672288656235
1788043744148774100,0.661774169921875,0.004886921960860491,0.016493361443281174,-0.08979719132184982
1788043744165113300,0.67811328125,-0.005497787147760391,-0.022602014243602753,-0.11178833991289139
1788043744180839400,0.69383935546875,-0.012828170321881771,-0.015882495790719986,-0.09712757170200348
1788043744196847000,0.70984716796875,-0.015882495790719986,-0.021380282938480377,-0.0708603709936142
1788043744213129500,0.72612939453125,-0.015271631069481373,-0.00733038317412138,-0.04703662544488907
1788043744228976600,0.7419765625,-0.01038470957428217,-0.00427605677396059,-0.02321287989616394
1788043744245408500,0.758408447265625,-0.012217304669320583,-0.007941247895359993,-0.00366519158706069
1788043744261117400,0.774117431640625,-0.018936822190880775,-0.004886921960860491,0.009773843921720982
1788043744277109500,0.790109619140625,-0.022602014243602753,0.0006108652451075613,-0.00366519158706069
1788043744293354800,0.806354736328125,-0.01160643994808197,-0.001832595793530345,-0.010995574295520782
1788043744309377800,0.822377685546875,-0.01160643994808197,-0.009773843921720982,-0.006108652334660292
1788043744325607400,0.838607421875,-0.021991148591041565,-0.03237585723400116,0.01038470957428217
1788043744341828000,0.854828125,-0.02321287989616394,-0.001832595793530345,0.03420845419168472
1788043744357628200,0.870628173828125,-0.012828170321881771,0.012217304669320583,0.04459316283464432
1788043744373643300,0.886643310546875,0.0024434609804302454,0.03176499158143997,0.02932153269648552
1788043744389498000,0.902498046875,-0.0012217304902151227,0.00366519158706069,-0.00366519158706069
1788043744405846500,0.918846435546875,-0.01771509274840355,-0.0354301854968071,-0.0024434609804302454
1788043744421450800,0.93445068359375,-0.04398229718208313,-0.045204028487205505,0.02871066704392433
1788043744437482800,0.950482666015625,-0.05497787147760391,-0.042760565876960754,0.05009094998240471
1788043744453661200,0.9666611328125,-0.05314527451992035,-0.022602014243602753,0.04886921867728233
1788043744469636400,0.98263623046875,-0.029932396486401558,0.007941247895359993,0.024434609338641167
1788043744486040000,0.9990400390625,-0.012828170321881771,0.02321287989616394,-0.0006108652451075613
1788043744501777000,1.01477685546875,-0.007941247895359993,0.019547687843441963,-0.012828170321881771
1788043744517850000,1.03085009765625,-0.009773843921720982,0.025045474991202354,-0.00733038317412138
1788043744534041000,1.047041015625,-0.018325956538319588,0.014049900695681572,0.0012217304902151227
1788043744550068000,1.06306787109375,-0.02321287989616394,0.009773843921720982,0.003054326167330146
1788043744566477600,1.0794775390625,-0.02015855349600315,0.012828170321881771,-0.0006108652451075613
1788043744582125600,1.09512548828125,-0.016493361443281174,0.010995574295520782,-0.01710422709584236
1788043744598659300,1.111659423828125,-0.02321287989616394,0.021380282938480377,-0.036041051149368286
1788043744614384000,1.127384033203125,-0.024434609338641167,0.02321287989616394,-0.039706241339445114
1788043744630475300,1.143475341796875,-0.031154127791523933,0.029932396486401558,-0.0403171069920063
1788043744646822000,1.15982177734375,-0.0354301854968071,0.021991148591041565,-0.05009094998240471
1788043744662382300,1.17538232421875,-0.031154127791523933,0.022602014243602753,-0.06658431142568588
1788043744678412000,1.191412109375,-0.025656340643763542,0.029932396486401558,-0.060475658625364304
1788043744694675500,1.207675537109375,-0.02687807008624077,0.02321287989616394,-0.029932396486401558
1788043744710561500,1.2235615234375,-0.03481931984424591,0.012828170321881771,-0.00733038317412138
1788043744726955000,1.239955078125,-0.03481931984424591,0.001832595793530345,-0.006719517521560192
1788043744742709500,1.25570947265625,-0.0354301854968071,0.004886921960860491,-0.02871066704392433
1788043744758758700,1.271758544921875,-0.02626720629632473,0.0024434609804302454,-0.03420845419168472
1788043744774847000,1.287846923828125,-0.025656340643763542,0.01771509274840355,-0.013439035043120384
1788043744790825000,1.303824951171875,-0.036651913076639175,0.015271631069481373,0.027488935738801956
1788043744807191000,1.32019091796875,-0.054367005825042725,-0.00427605677396059,0.02687807008624077
1788043744822920400,1.33592041015625,-0.05742133408784866,-0.0403171069920063,-0.006108652334660292
1788043744839119600,1.35211962890625,-0.06230825558304787,-0.048258353024721146,-0.039095375686883926
1788043744855471600,1.3684716796875,-0.05253441259264946,-0.009773843921720982,-0.03726277872920036
1788043744871100700,1.3841005859375,-0.02076941914856434,0.0354301854968071,-0.016493361443281174
1788043744887506000,1.400505859375,-0.021380282938480377,0.04092797264456749,0.0006108652451075613
1788043744903348200,1.41634814453125,-0.02871066704392433,0.01710422709584236,0.00733038317412138
1788043744919382800,1.4323828125,-0.05619960278272629,-0.031154127791523933,-0.012217304669320583
1788043744935490800,1.44849072265625,-0.06230825558304787,-0.0555887371301651,-0.039706241339445114
1788043744951331300,1.464331298828125,-0.06658431142568588,-0.04581489413976669,-0.059864792972803116
1788043744967682300,1.480682373046875,-0.0507018156349659,-0.019547687843441963,-0.08185594528913498
1788043744983380500,1.49638037109375,-0.03176499158143997,0.0024434609804302454,-0.08002334833145142
1788043744999564800,1.512564697265625,-0.025045474991202354,0.007941247895359993,-0.06536258012056351
1788043745015686000,1.528685791015625,-0.03176499158143997,-0.0006108652451075613,-0.06108652427792549
1788043745031700200,1.5447001953125,-0.029932396486401558,-0.006719517521560192,-0.08918632566928864
1788043745048053800,1.5610537109375,-0.031154127791523933,0.004886921960860491,-0.11728613078594208
1788043745064043300,1.577043212890625,-0.042760565876960754,-0.018325956538319588,-0.1368338167667389
1788043745079852300,1.592852294921875,-0.07330382615327835,-0.06841690838336945,-0.12767083942890167
1788043745096001000,1.6090009765625,-0.1014036312699318,-0.09651670604944229,-0.10751228034496307
1788043745111990800,1.62499072265625,-0.1160643994808197,-0.05192354694008827,-0.08185594528913498
1788043745128555800,1.6415556640625,-0.10873401165008545,0.03481931984424591,-0.0659734457731247
1788043745144113000,1.65711279296875,-0.09957103431224823,0.09957103431224823,-0.039706241339445114
1788043745160579800,1.673579833984375,-0.10812314599752426,0.12461651116609573,0.00855211354792118
1788043745176270300,1.689270263671875,-0.11911872029304504,0.10751228034496307,0.0555887371301651
1788043745192185000,1.70518505859375,-0.12522737681865692,0.06780604273080826,0.039095375686883926
1788043745208686600,1.7216865234375,-0.11056660860776901,0.0403171069920063,-0.012828170321881771
1788043745224307200,1.73730712890625,-0.07635815441608429,0.04886921867728233,-0.04886921867728233
1788043745240390400,1.753390380859375,-0.051312681287527084,0.04092797264456749,-0.04642575979232788
1788043745256512300,1.76951220703125,-0.05009094998240471,0.021991148591041565,-0.036651913076639175
1788043745272483000,1.785483154296875,-0.06291911751031876,0.0006108652451075613,-0.031154127791523933
1788043745288988400,1.801988525390625,-0.08735372871160507,-0.010995574295520782,-0.02076941914856434
1788043745304647200,1.817647216796875,-0.08552113175392151,-0.01038470957428217,0.0354301854968071
1788043745321024800,1.834024658203125,-0.09712757170200348,-0.009162978269159794,0.1160643994808197
1788043745336952600,1.84995263671875,-0.11789698898792267,-0.01466076634824276,0.21624629199504852
1788043745352999000,1.8659990234375,-0.13377949595451355,-0.018936822190880775,0.25961771607398987
1788043745369291000,1.882291015625,-0.15027284622192383,-0.036041051149368286,0.19914206862449646
1788043745385225200,1.89822509765625,-0.18325957655906677,-0.08124507963657379,0.04459316283464432
1788043745400968700,1.91396875,-0.22479841113090515,-0.11056660860776901,-0.11789698898792267
1788043745417541600,1.930541748046875,-0.24495697021484375,-0.11056660860776901,-0.192422553896904
1788043745433433000,1.94643310546875,-0.2370157092809677,-0.06963863968849182,-0.18020524084568024
1788043745449600500,1.9626005859375,-0.18448130786418915,0.00855211354792118,-0.06475171446800232
1788043745465255700,1.978255615234375,-0.12828169763088226,0.11667526513338089,0.09346238523721695
1788043745481396700,1.994396728515625,-0.09651670604944229,0.16920967400074005,0.1814269721508026
1788043745497487000,2.010487060546875,-0.0757472887635231,0.15332718193531036,0.17409659922122955
1788043745513507600,2.026507568359375,-0.0757472887635231,0.09346238523721695,0.08368854224681854
1788043745530073600,2.043073486328125,-0.07330382615327835,0.04642575979232788,-0.006108652334660292
1788043745545608700,2.058608642578125,-0.07391469180583954,0.00366519158706069,-0.09834930300712585
1788043745561815800,2.07481591796875,-0.07819075137376785,-0.00427605677396059,-0.152105450630188
1788043745578038000,2.0910380859375,-0.06841690838336945,0.01466076634824276,-0.16798794269561768
1788043745594046500,2.10704638671875,-0.05742133408784866,0.039095375686883926,-0.1765400618314743
1788043745610381800,2.1233818359375,-0.05619960278272629,0.0757472887635231,-0.18509216606616974
1788043745626105900,2.13910595703125,-0.056810468435287476,0.09834930300712585,-0.19486601650714874
1788043745642000400,2.15500048828125,-0.04764748737215996,0.10506882518529892,-0.20402899384498596
1788043745658190800,2.17119091796875,-0.024434609338641167,0.07941248267889023,-0.19120082259178162
1788043745674552800,2.187552734375,0.005497787147760391,0.04092797264456749,-0.14477506279945374
1788043745690441000,2.20344091796875,0.04642575979232788,0.015271631069481373,-0.09162978827953339
1788043745706158800,2.219158935546875,0.10445795953273773,-0.012217304669320583,-0.031154127791523933
1788043745722131700,2.235131591796875,0.14966198801994324,-0.00366519158706069,0.018936822190880775
1788043745738355000,2.25135498046875,0.17898350954055786,-0.0024434609804302454,0.042760565876960754
1788043745754337000,2.2673369140625,0.21013765037059784,-0.04092797264456749,0.06719517707824707
1788043745770730200,2.283730224609375,0.2125810980796814,-0.10323622822761536,0.09407325088977814
1788043745786525000,2.29952490234375,0.22052235901355743,-0.14233160018920898,0.10567969083786011
1788043745802517800,2.315517822265625,0.23029619455337524,-0.13805554807186127,0.11239920556545258
1788043745818650400,2.331650390625,0.22113321721553802,-0.12400564551353455,0.1258382350206375
1788043745834692000,2.347692138671875,0.1814269721508026,-0.11545353382825851,0.15393804013729095
1788043745850965800,2.3639658203125,0.13744467496871948,-0.08307767659425735,0.19792033731937408
1788043745866701600,2.37970166015625,0.0354301854968071,-0.059864792972803116,0.27000242471694946
1788043745882676700,2.3956767578125,-0.08552113175392151,-0.06902777403593063,0.32681289315223694
1788043745899012400,2.412012451171875,-0.12278391420841217,-0.05253441259264946,0.2968805134296417
1788043745914877000,2.427876953125,-0.07024950534105301,0.05864306539297104,0.14416420459747314
1788043745931432200,2.44443212890625,0.03237585723400116,0.242513507604599,-0.056810468435287476
1788043745947038700,2.460038818359375,0.1313360333442688,0.3433062732219696,-0.19120082259178162
1788043745963200500,2.476200439453125,0.17348572611808777,0.29504790902137756,-0.17043140530586243
1788043745979536000,2.492535888671875,0.1765400618314743,0.1319468915462494,0.03176499158143997
1788043745995413500,2.50841357421875,0.17959438264369965,-0.005497787147760391,0.32498031854629517
1788043746011665400,2.52466552734375,0.21135938167572021,-0.08735372871160507,0.5351179838180542
1788043746027692300,2.5406923828125,0.24923302233219147,-0.11728613078594208,0.645684540271759
1788043746043234300,2.556234375,0.28649580478668213,-0.08979719132184982,0.6133087277412415
1788043746059662800,2.572662841796875,0.31031954288482666,-0.08735372871160507,0.4966334402561188
1788043746075442200,2.588442138671875,0.3225368559360504,-0.08674286305904388,0.30115658044815063
1788043746091846000,2.604845947265625,0.2987131178379059,-0.12400564551353455,0.08002334833145142
1788043746107781600,2.62078173828125,0.2681698501110077,-0.1765400618314743,-0.08124507963657379
1788043746123441400,2.63644140625,0.24068090319633484,-0.16798794269561768,-0.11911872029304504
1788043746139653400,2.6526533203125,0.2174680233001709,-0.13744467496871948,-0.08735372871160507
1788043746155642600,2.668642578125,0.2168571650981903,-0.09651670604944229,-0.03481931984424591
1788043746172283600,2.68528369140625,0.21868975460529327,-0.06169738993048668,-0.0012217304902151227
1788043746187938000,2.70093798828125,0.21441370248794556,-0.0555887371301651,0.010995574295520782
1788043746204026400,2.7170263671875,0.20891591906547546,-0.07452555745840073,0.010995574295520782
1788043746219943700,2.732943603515625,0.19975294172763824,-0.08552113175392151,0.007941247895359993
1788043746236406300,2.74940625,0.17959438264369965,-0.04948008432984352,-0.015882495790719986
1788043746252378600,2.765378662109375,0.16310101747512817,-0.013439035043120384,-0.06658431142568588
1788043746268239000,2.781239013671875,0.1472185254096985,0.04153883829712868,-0.11362093687057495
1788043746284078300,2.797078369140625,0.12217304855585098,0.04764748737215996,-0.13927727937698364
1788043746300259000,2.813259033203125,0.0861319974064827,0.00366519158706069,-0.12461651116609573
1788043746316253700,2.829253662109375,0.04948008432984352,-0.04092797264456749,-0.06658431142568588
1788043746332725500,2.8457255859375,0.029932396486401558,-0.05009094998240471,-0.01771509274840355
1788043746348555800,2.8615556640625,0.02871066704392433,-0.007941247895359993,0.0012217304902151227
1788043746364491500,2.877491455078125,0.027488935738801956,0.007941247895359993,-0.015882495790719986
1788043746380652300,2.89365234375,0.00733038317412138,-0.00733038317412138,-0.0012217304902151227
1788043746396860000,2.90985986328125,-0.019547687843441963,-0.01466076634824276,0.060475658625364304
1788043746413199400,2.926199462890625,-0.04642575979232788,0.012217304669320583,0.16737708449363708
1788043746428893000,2.941892822265625,-0.06841690838336945,-0.024434609338641167,0.25534167885780334
1788043746445057300,2.958057373046875,-0.1062905490398407,-0.15027284622192383,0.2840523421764374
1788043746461123000,2.974123046875,-0.1472185254096985,-0.2981022298336029,0.27061331272125244
1788043746477178000,2.99017822265625,-0.1814269721508026,-0.39706242084503174,0.19364428520202637
1788043746493544700,3.006544677734375,-0.2119702398777008,-0.4202753007411957,0.10995574295520782
1788043746509173000,3.022173095703125,-0.2474004179239273,-0.3854559659957886,0.056810468435287476
1788043746525201400,3.038201416015625,-0.2577851414680481,-0.23579397797584534,0.06841690838336945
1788043746541289000,3.0542890625,-0.28527405858039856,-0.10995574295520782,0.031154127791523933
1788043746557278500,3.070278564453125,-0.3549126982688904,0.00855211354792118,-0.13316862285137177
1788043746573685500,3.086685546875,-0.3836233615875244,0.22296582162380219,-0.3903428912162781
1788043746589451000,3.102450927734375,-0.29077184200286865,0.4129449129104614,-0.4905247986316681
1788043746605394400,3.11839453125,-0.16798794269561768,0.5546656250953674,-0.2926044464111328
1788043746621739500,3.134739501953125,-0.0708603709936142,0.5797111392021179,0.2223549485206604
1788043746637625600,3.15062548828125,-0.02076941914856434,0.46303585171699524,0.7110471725463867
1788043746653897700,3.166897705078125,-0.014049900695681572,0.32681289315223694,0.8582656979560852
1788043746669616600,3.18261669921875,-0.0555887371301651,0.1313360333442688,0.626747727394104
1788043746685727500,3.1987275390625,-0.07880161702632904,-0.03848451003432274,0.12339477986097336
1788043746702208000,3.2152080078125,-0.06352998316287994,-0.03176499158143997,-0.34636059403419495
1788043746717759000,3.230759033203125,-0.05803219974040985,0.0024434609804302454,-0.5393940210342407
1788043746734255600,3.247255615234375,-0.059864792972803116,0.05742133408784866,-0.47342056035995483
1788043746750141200,3.26314111328125,-0.05619960278272629,0.10567969083786011,-0.2480112910270691
1788043746766000600,3.279000732421875,-0.04581489413976669,0.1258382350206375,-0.04886921867728233
1788043746782133200,3.29513330078125,-0.05742133408784866,0.10934487730264664,0.10018189996480942
1788043746798546400,3.31154638671875,-0.07024950534105301,0.0861319974064827,0.1459967941045761
1788043746814510000,3.327510009765625,-0.05803219974040985,0.08185594528913498,0.12278391420841217
1788043746830181400,3.343181396484375,-0.03726277872920036,0.05375614017248154,0.03237585723400116
1788043746846212600,3.359212646484375,-0.001832595793530345,-0.036041051149368286,-0.06108652427792549
1788043746862474500,3.375474609375,0.025045474991202354,-0.1264491081237793,-0.09407325088977814
1788043746878401000,3.391401123046875,0.02932153269648552,-0.1814269721508026,-0.09834930300712585
1788043746894828000,3.407828125,0.039095375686883926,-0.18875735998153687,-0.1062905490398407
1788043746910544100,3.423544189453125,0.06414084881544113,-0.11728613078594208,-0.11850785464048386
1788043746926543000,3.439543212890625,0.09529497474431992,-0.042760565876960754,-0.12278391420841217
1788043746943103700,3.456103759765625,0.13316862285137177,0.00733038317412138,-0.1264491081237793
1788043746958741800,3.47174169921875,0.1472185254096985,-0.00855211354792118,-0.1258382350206375
1788043746975165200,3.488165283203125,0.1466076523065567,-0.01160643994808197,-0.09285151958465576
1788043746990878700,3.503878662109375,0.1466076523065567,0.02871066704392433,-0.048258353024721146
1788043747006977000,3.51997705078125,0.15943582355976105,0.05619960278272629,0.012217304669320583
1788043747023074600,3.536074462890625,0.16920967400074005,0.042760565876960754,0.09896016865968704
1788043747038945800,3.55194580078125,0.16737708449363708,0.018936822190880775,0.18387043476104736
1788043747055639800,3.568639892578125,0.16249015927314758,-0.02015855349600315,0.2620611786842346
1788043747071086600,3.584086669921875,0.18081611394882202,-0.03298672288656235,0.2981022298336029
1788043747087115500,3.600115478515625,0.23396138846874237,-0.04886921867728233,0.28466320037841797
1788043747103265500,3.616265625,0.2828305959701538,-0.07513642311096191,0.2174680233001709
1788043747119252500,3.63225244140625,0.2638937830924988,-0.192422553896904,0.0861319974064827
1788043747135759600,3.648759521484375,0.1569923609495163,-0.3952298164367676,-0.20891591906547546
1788043747151434800,3.664434814453125,0.059864792972803116,-0.4899139404296875,-0.4917465150356293
1788043747167554600,3.680554443359375,0.05742133408784866,-0.4593706727027893,-0.5809328556060791
1788043747183762700,3.6967626953125,0.15393804013729095,-0.2571742534637451,-0.2669481039047241
1788043747199626800,3.712626708984375,0.25595253705978394,0.006108652334660292,0.21930062770843506
1788043747216055600,3.7290556640625,0.3341432809829712,0.20402899384498596,0.684779942035675
1788043747231654000,3.74465380859375,0.3640756905078888,0.23579397797584534,0.7935139536857605
1788043747247698200,3.7606982421875,0.37079519033432007,0.16249015927314758,0.6346889734268188
1788043747263836000,3.7768359375,0.36713001132011414,0.015882495790719986,0.31154128909111023
1788043747279844000,3.792843994140625,0.3732386529445648,-0.08185594528913498,0.03176499158143997
1788043747296199200,3.80919921875,0.3543018400669098,-0.12339477986097336,-0.10934487730264664
1788043747312382500,3.825382568359375,0.30970868468284607,-0.14538592100143433,-0.13439035415649414
1788043747327961000,3.840961181640625,0.26572638750076294,-0.13316862285137177,-0.10934487730264664
1788043747344136700,3.85713671875,0.24434609711170197,-0.08918632566928864,-0.1062905490398407
1788043747360120300,3.873120361328125,0.22968533635139465,-0.02932153269648552,-0.1160643994808197
1788043747376535000,3.88953515625,0.20097467303276062,0.009162978269159794,-0.1215621829032898
1788043747392246500,3.90524658203125,0.18325957655906677,0.04459316283464432,-0.11056660860776901
1788043747408275000,3.92127490234375,0.17531833052635193,0.05009094998240471,-0.09651670604944229
1788043747424461000,3.9374609375,0.1869247704744339,0.04764748737215996,-0.08429940044879913
1788043747440627200,3.953627197265625,0.20586158335208893,0.04581489413976669,-0.08124507963657379
1788043747457052200,3.97005224609375,0.22296582162380219,0.042760565876960754,-0.0861319974064827
1788043747472844800,3.9858447265625,0.22907446324825287,0.018936822190880775,-0.09651670604944229
1788043747488640000,4.001639892578125,0.21380282938480377,-0.056810468435287476,-0.10384709388017654
1788043747504983800,4.01798388671875,0.17470745742321014,-0.11911872029304504,-0.09285151958465576
1788043747520938000,4.03393798828125,0.12950342893600464,-0.1618792861700058,-0.051312681287527084
1788043747537335600,4.05033544921875,0.06291911751031876,-0.19425514340400696,0.014049900695681572
1788043747552927000,4.065927001953125,-0.0012217304902151227,-0.18448130786418915,0.060475658625364304
1788043747569336600,4.082336669921875,-0.03481931984424591,-0.1667662113904953,0.09957103431224823
1788043747585158700,4.09815869140625,-0.06963863968849182,-0.14538592100143433,0.15454891324043274
1788043747601362400,4.114362548828125,-0.12278391420841217,-0.13316862285137177,0.192422553896904
1788043747617683500,4.130683349609375,-0.16310101747512817,-0.12217304855585098,0.18814650177955627
1788043747633373400,4.14637353515625,-0.17592918872833252,-0.09896016865968704,0.15027284622192383
1788043747649351200,4.16235107421875,-0.18997909128665924,-0.03176499158143997,0.10445795953273773
1788043747665374200,4.178374267578125,-0.2174680233001709,0.029932396486401558,0.05009094998240471
1788043747681371400,4.194371337890625,-0.2376265823841095,0.06780604273080826,0.02321287989616394
1788043747697919000,4.2109189453125,-0.2480112910270691,0.09407325088977814,0.0403171069920063
1788043747713667000,4.2266669921875,-0.25106561183929443,0.1319468915462494,0.07941248267889023
1788043747729563100,4.242563232421875,-0.27550023794174194,0.10262536257505417,0
1788043747745778000,4.25877783203125,-0.28649580478668213,0.1722639948129654,-0.27000242471694946
1788043747761578800,4.274578857421875,-0.24190263450145721,0.27122417092323303,-0.5546656250953674
1788043747778119700,4.29111962890625,-0.1618792861700058,0.3072652220726013,-0.5510004758834839
1788043747793751600,4.30675146484375,-0.11972958594560623,0.26939156651496887,-0.22113321721553802
1788043747809757200,4.322757080078125,-0.13255776464939117,0.16737708449363708,0.3274237811565399
1788043747825888000,4.338887939453125,-0.1661553531885147,-0.006108652334660292,0.6688974499702454
1788043747842023700,4.355023681640625,-0.192422553896904,-0.12828169763088226,0.6511823534965515
1788043747858329000,4.3713291015625,-0.20830504596233368,-0.23151792585849762,0.3396410644054413
1788043747874498600,4.38749853515625,-0.18570303916931152,-0.2070833146572113,-0.02932153269648552
1788043747890059500,4.4030595703125,-0.1466076523065567,-0.0659734457731247,-0.22663100063800812
1788043747906173400,4.41917333984375,-0.10262536257505417,0.13439035415649414,-0.2828305959701538
1788043747922239200,4.4352392578125,-0.05009094998240471,0.2981022298336029,-0.2223549485206604
1788043747938661000,4.4516611328125,0.0012217304902151227,0.3952298164367676,-0.18020524084568024
1788043747954395100,4.46739501953125,0.030543262138962746,0.38240164518356323,-0.1814269721508026
1788043747970541800,4.483541748046875,0.024434609338641167,0.3683517575263977,-0.17287486791610718
1788043747986631700,4.499631591796875,-0.003054326167330146,0.3170390725135803,-0.1264491081237793
1788043748002609700,4.515609619140625,-0.039706241339445114,0.25534167885780334,-0.04703662544488907
1788043748018951700,4.53195166015625,-0.07819075137376785,0.18020524084568024,0.05009094998240471
1788043748034663400,4.547663330078125,-0.10751228034496307,0.08491026610136032,0.10018189996480942
1788043748050674700,4.5636748046875,-0.13072516024112701,0.00427605677396059,0.10262536257505417
1788043748066799400,4.57979931640625,-0.13744467496871948,-0.01710422709584236,0.06475171446800232
1788043748082812000,4.59581201171875,-0.10445795953273773,0.019547687843441963,-0.001832595793530345
1788043748099216600,4.612216552734375,-0.05253441259264946,0.04642575979232788,-0.05925392732024193
1788043748114970400,4.627970458984375,-0.009773843921720982,0.021380282938480377,-0.08002334833145142
1788043748131397600,4.644397705078125,0.03481931984424591,-0.030543262138962746,-0.051312681287527084
1788043748147154000,4.66015380859375,0.08185594528913498,-0.05742133408784866,0.010995574295520782
1788043748163215600,4.676215576171875,0.11056660860776901,-0.05375614017248154,0.048258353024721146
1788043748179707000,4.692706787109375,0.14355333149433136,-0.02932153269648552,0.0806342139840126
1788043748195267600,4.708267578125,0.15577064454555511,-0.039095375686883926,0.10934487730264664
1788043748211303200,4.72430322265625,0.152105450630188,-0.07757988572120667,0.15393804013729095
1788043748227600400,4.740600341796875,0.14477506279945374,-0.10812314599752426,0.16432274878025055
1788043748243352600,4.7563525390625,0.1618792861700058,-0.09957103431224823,0.0910189226269722
1788043748259839700,4.77283984375,0.21807889640331268,-0.05375614017248154,-0.031154127791523933
1788043748275441700,4.788441650390625,0.2767219543457031,-0.042760565876960754,-0.0910189226269722
1788043748291556600,4.804556640625,0.33047810196876526,-0.04764748737215996,-0.029932396486401558
1788043748307895800,4.820895751953125,0.30543261766433716,-0.08246681094169617,0.06414084881544113
1788043748323573200,4.8365732421875,0.24862214922904968,-0.10873401165008545,0.024434609338641167
1788043748340112000,4.85311181640625,0.2541199326515198,-0.09224065393209457,-0.15027284622192383
1788043748355729700,4.868729736328125,0.3683517575263977,-0.05803219974040985,-0.2981022298336029
1788043748371676400,4.884676513671875,0.49846604466438293,0.07024950534105301,-0.2480112910270691
1788043748387804400,4.900804443359375,0.59803706407547,0.24007004499435425,0.051312681287527084
1788043748403923500,4.91692333984375,0.5998696684837341,0.2889392673969269,0.403781920671463
1788043748420220200,4.93322021484375,0.5448917746543884,0.2278527319431305,0.5894849896430969
1788043748436335000,4.949335205078125,0.5015203952789307,0.1869247704744339,0.6035348773002625
1788043748451847700,4.96484765625,0.46303585171699524,0.11728613078594208,0.4758640229701996
1788043748468044300,4.981044189453125,0.45814892649650574,0.05253441259264946,0.26511552929878235
1788043748483934700,4.996934814453125,0.4801400899887085,-0.003054326167330146,0.08491026610136032
1788043748500275700,5.013275634765625,0.49846604466438293,-0.0659734457731247,-0.08002334833145142
1788043748515957500,5.02895751953125,0.504574716091156,-0.1258382350206375,-0.17409659922122955
1788043748531978500,5.044978515625,0.4893030524253845,-0.1820378452539444,-0.1869247704744339
1788043748548168200,5.061168212890625,0.4386012554168701,-0.2590068578720093,-0.13377949595451355
1788043748564281000,5.077281005859375,0.3646865487098694,-0.34574973583221436,-0.0555887371301651
1788043748580551200,5.09355126953125,0.3139847218990326,-0.36102136969566345,-0.007941247895359993
1788043748596247000,5.1092470703125,0.27122417092323303,-0.2877175211906433,0.014049900695681572
1788043748612414700,5.125414794921875,0.24434609711170197,-0.17837265133857727,-0.009162978269159794
1788043748628855300,5.141855224609375,0.19975294172763824,-0.07391469180583954,-0.05009094998240471
1788043748644530700,5.15753076171875,0.15821409225463867,0.003054326167330146,-0.0757472887635231
1788043748660939300,5.173939208984375,0.10690141469240189,0.039095375686883926,-0.09285151958465576
1788043748676558000,5.18955810546875,0.05864306539297104,0.03298672288656235,-0.09162978827953339
1788043748693010200,5.20601025390625,-0.0006108652451075613,0.007941247895359993,-0.08429940044879913
1788043748708725000,5.22172509765625,-0.09651670604944229,-0.0959058403968811,-0.07391469180583954
1788043748724703000,5.237702880859375,-0.17409659922122955,-0.25106561183929443,-0.01710422709584236
1788043748741079600,5.25407958984375,-0.23396138846874237,-0.3744603991508484,0.06414084881544113
1788043748756997000,5.2699970703125,-0.2718350291252136,-0.45875978469848633,0.13500121235847473
1788043748772966100,5.285966064453125,-0.2687807083129883,-0.4386012554168701,0.1215621829032898
1788043748789016000,5.30201611328125,-0.22418753802776337,-0.33475416898727417,0.05742133408784866
1788043748805180000,5.318179931640625,-0.1716531366109848,-0.1618792861700058,-0.02076941914856434
1788043748821550300,5.33455029296875,-0.11178833991289139,-0.00366519158706069,-0.08918632566928864
1788043748836983600,5.349983642578125,-0.07941248267889023,0.0354301854968071,-0.11972958594560623
1788043748853006000,5.366006103515625,-0.04581489413976669,-0.00427605677396059,-0.11789698898792267
1788043748869205000,5.382205078125,-0.00366519158706069,-0.07452555745840073,-0.06352998316287994
1788043748885225000,5.398224853515625,0.021380282938480377,-0.12278391420841217,0.039706241339445114
1788043748901679600,5.4146796875,0.025656340643763542,-0.1722639948129654,0.12461651116609573
1788043748917616600,5.43061669921875,-0.039706241339445114,-0.2883284091949463,0.0555887371301651
1788043748933390600,5.446390625,-0.10384709388017654,-0.24495697021484375,-0.1771509200334549
1788043748949923000,5.462923095703125,-0.0403171069920063,-0.04214970022439957,-0.3121521472930908
1788043748965472000,5.478471923828125,0.06230825558304787,0.1417207419872284,-0.20036379992961884
1788043748982057000,5.495056884765625,0.09468411654233932,0.2119702398777008,0.17287486791610718
1788043748997624800,5.510624755859375,0.013439035043120384,0.07757988572120667,0.5949827432632446
1788043749013651500,5.5266513671875,-0.08918632566928864,-0.11789698898792267,0.7733554244041443
1788043749029918500,5.54291845703125,-0.1765400618314743,-0.2583959996700287,0.6921103000640869
1788043749045927700,5.558927734375,-0.21441370248794556,-0.17837265133857727,0.40683624148368835
1788043749062191000,5.575191162109375,-0.20097467303276062,-0.010995574295520782,0.1111774742603302
1788043749077881600,5.590881591796875,-0.16859880089759827,0.2076941877603531,-0.15577064454555511
1788043749094131700,5.607131591796875,-0.16065755486488342,0.3530801236629486,-0.2938261926174164
1788043749110431200,5.62343115234375,-0.11301007121801376,0.4202753007411957,-0.2993239760398865
1788043749126130700,5.639130615234375,-0.06475171446800232,0.4355469346046448,-0.24434609711170197
1788043749142484000,5.65548388671875,-0.04092797264456749,0.44837507605552673,-0.16982053220272064
1788043749158143500,5.6711435546875,-0.04398229718208313,0.4129449129104614,-0.1264491081237793
1788043749174342700,5.6873427734375,-0.0659734457731247,0.3237585723400116,-0.1160643994808197
1788043749190338000,5.703338134765625,-0.1014036312699318,0.1966986060142517,-0.10201449692249298
1788043749206350800,5.719350830078125,-0.12034045159816742,0.11423180252313614,-0.07880161702632904
1788043749222677200,5.73567724609375,-0.1411098688840866,0.04581489413976669,-0.06902777403593063
1788043749238658600,5.751658447265625,-0.18387043476104736,-0.03481931984424591,-0.05803219974040985
1788043749254958300,5.767958251953125,-0.2174680233001709,-0.07819075137376785,-0.06475171446800232
1788043749270713600,5.783713623046875,-0.23579397797584534,-0.08552113175392151,-0.10018189996480942
1788043749286742500,5.799742431640625,-0.23579397797584534,-0.04764748737215996,-0.1466076523065567
1788043749303039700,5.816039794921875,-0.20952677726745605,0.021380282938480377,-0.19914206862449646
1788043749318751000,5.8317509765625,-0.15027284622192383,0.08735372871160507,-0.1918116807937622
1788043749334795000,5.847794921875,-0.09957103431224823,0.1563815027475357,-0.12217304855585098
1788043749351092200,5.86409228515625,-0.04459316283464432,0.23518311977386475,0.010995574295520782
1788043749367068200,5.880068115234375,0.0006108652451075613,0.2681698501110077,0.13072516024112701
1788043749383312400,5.8963125,0.021380282938480377,0.16920967400074005,0.21624629199504852
1788043749398940400,5.9119404296875,0.01038470957428217,0.06841690838336945,0.25961771607398987
1788043749414970000,5.92797021484375,-0.009162978269159794,-0.045204028487205505,0.2541199326515198
1788043749439091500,5.952091552734375,0.006719517521560192,-0.14844025671482086,0.14294247329235077
1788043749455093500,5.968093505859375,0.08246681094169617,-0.13805554807186127,0.07635815441608429
1788043749471293400,5.98429345703125,0.17776179313659668,-0.03481931984424591,0.06841690838336945
1788043749487222800,6.000222900390625,0.25595253705978394,0.06230825558304787,0.10018189996480942
1788043749503839000,6.0168388671875,0.25106561183929443,-0.01710422709584236,0.028099801391363144
1788043749519524600,6.032524658203125,0.24129177629947662,-0.06352998316287994,-0.13439035415649414
1788043749535441400,6.04844140625,0.2675589919090271,-0.06230825558304787,-0.35185837745666504
1788043749551867600,6.06486767578125,0.3072652220726013,-0.10506882518529892,-0.43737950921058655
1788043749567663400,6.080663330078125,0.3494149148464203,-0.039095375686883926,-0.251676470041275
1788043749583991300,6.0969912109375,0.37201693654060364,0.04948008432984352,0.05314527451992035
1788043749599678700,6.1126787109375,0.37568211555480957,0.14355333149433136,0.3744603991508484
1788043749616080000,6.129079833984375,0.38117989897727966,0.20525072515010834,0.503963828086853
1788043749631844900,6.144844970703125,0.3787364661693573,0.24007004499435425,0.4642575979232788
1788043749647741700,6.16074169921875,0.3488040566444397,0.23396138846874237,0.3286454975605011
1788043749664384300,6.17738427734375,0.28588494658470154,0.13072516024112701,0.1612684279680252
1788043749680139500,6.193139404296875,0.2474004179239273,0.015271631069481373,0.03787364438176155
1788043749695944200,6.208944091796875,0.2272418737411499,-0.0959058403968811,-0.0507018156349659
1788043749712129500,6.225129638671875,0.18631389737129211,-0.17104226350784302,-0.07635815441608429
1788043749728198700,6.24119873046875,0.14233160018920898,-0.22052235901355743,-0.05253441259264946
1788043749744691500,6.25769140625,0.09651670604944229,-0.2675589919090271,-0.007941247895359993
1788043749760316000,6.27331591796875,0.07513642311096191,-0.27000242471694946,0.021991148591041565
1788043749776332800,6.289332763671875,0.1007927656173706,-0.19914206862449646,0.024434609338641167
1788043749792441900,6.30544189453125,0.15515977144241333,-0.10262536257505417,0
1788043749808884700,6.321884765625,0.2076941877603531,0.02015855349600315,-0.06963863968849182
1788043749824842800,6.3378427734375,0.23884831368923187,0.06291911751031876,-0.1417207419872284
1788043749840563500,6.3535634765625,0.24923302233219147,0.02871066704392433,-0.16310101747512817
1788043749856603400,6.369603271484375,0.20402899384498596,-0.04214970022439957,-0.14844025671482086
1788043749872871400,6.385871337890625,0.13805554807186127,-0.06719517707824707,-0.12095131725072861
1788043749889051600,6.4020517578125,0.08368854224681854,-0.07269296050071716,-0.11850785464048386
1788043749905315800,6.41831591796875,0.0555887371301651,-0.10262536257505417,-0.1270599663257599
1788043749921309000,6.434308837890625,0.018936822190880775,-0.13316862285137177,-0.11545353382825851
1788043749936964900,6.44996484375,0.004886921960860491,-0.14355333149433136,-0.07941248267889023
1788043749952990000,6.465989990234375,0.009162978269159794,-0.12278391420841217,-0.04214970022439957
1788043749969076200,6.482076171875,0.018325956538319588,-0.11178833991289139,0.005497787147760391
1788043749985406200,6.49840625,0.004886921960860491,-0.13988813757896423,0.05314527451992035
1788043750001556500,6.514556396484375,-0.018325956538319588,-0.15454891324043274,0.08185594528913498
1788043750017198800,6.53019873046875,-0.04764748737215996,-0.14049901068210602,0.09896016865968704
1788043750033305900,6.546305908203125,-0.08368854224681854,-0.1062905490398407,0.07269296050071716
1788043750049352700,6.562352783203125,-0.11484266817569733,-0.09834930300712585,0.013439035043120384
1788043750065762000,6.578761962890625,-0.12889257073402405,-0.09040805697441101,-0.036041051149368286
1788043750081497600,6.59449755859375,-0.12461651116609573,-0.12217304855585098,-0.04459316283464432
1788043750097433000,6.61043310546875,-0.10995574295520782,-0.17592918872833252,0.007941247895359993
1788043750113657300,6.6266572265625,-0.11301007121801376,-0.23090706765651703,0.018325956538319588
1788043750129998800,6.642998779296875,-0.17348572611808777,-0.24190263450145721,-0.11789698898792267
1788043750146110500,6.6591103515625,-0.21319197118282318,-0.11911872029304504,-0.3530801236629486
1788043750161728500,6.674728515625,-0.1618792861700058,0.036041051149368286,-0.4605923891067505
1788043750178158800,6.691158935546875,-0.07208210229873657,0.23640485107898712,-0.3127630054950714
1788043750193795000,6.706795166015625,-0.03176499158143997,0.36651915311813354,0.1014036312699318
1788043750209768000,6.722767822265625,-0.018325956538319588,0.3066543638706207,0.5558874011039734
1788043750226118000,6.739117919921875,-0.021991148591041565,0.19792033731937408,0.7678576111793518
1788043750241821000,6.754821044921875,-0.06414084881544113,0.036651913076639175,0.6872233748435974
1788043750257865500,6.770865478515625,-0.12095131725072861,-0.11423180252313614,0.34208452701568604
1788043750274032400,6.787032470703125,-0.16310101747512817,-0.20586158335208893,-0.01710422709584236
1788043750289983700,6.802983642578125,-0.19792033731937408,-0.2669481039047241,-0.3066543638706207
1788043750306677800,6.819677734375,-0.22907446324825287,-0.25106561183929443,-0.37629300355911255
1788043750322323000,6.835322998046875,-0.24007004499435425,-0.16004669666290283,-0.32986724376678467
1788043750338202000,6.8512021484375,-0.21319197118282318,0.00733038317412138,-0.25473082065582275
1788043750354483500,6.8674833984375,-0.15943582355976105,0.2076941877603531,-0.18997909128665924
1788043750370341400,6.88334130859375,-0.1111774742603302,0.3488040566444397,-0.0910189226269722
1788043750386738700,6.89973876953125,-0.1111774742603302,0.3646865487098694,0.01160643994808197
1788043750402460200,6.915460205078125,-0.14477506279945374,0.28466320037841797,0.09651670604944229
1788043750418393600,6.9313935546875,-0.1765400618314743,0.1875356286764145,0.11545353382825851
1788043750434946300,6.9479462890625,-0.18020524084568024,0.12400564551353455,0.08429940044879913
1788043750450679000,6.963678955078125,-0.16859880089759827,0.07147123664617538,0.01466076634824276
1788043750467139000,6.98013916015625,-0.13439035415649414,0.0555887371301651,-0.05925392732024193
1788043750483112200,6.9961123046875,-0.09957103431224823,0.04337143152952194,-0.12278391420841217
1788043750498632400,7.011632568359375,-0.05619960278272629,0.025656340643763542,-0.16859880089759827
1788043750514813200,7.027813232421875,-0.015271631069481373,0.022602014243602753,-0.17409659922122955
1788043750531152400,7.04415234375,0.00733038317412138,0.0403171069920063,-0.15454891324043274
1788043750547208000,7.0602080078125,0.0354301854968071,0.06658431142568588,-0.14355333149433136
1788043750563055600,7.0760556640625,0.06352998316287994,0.10506882518529892,-0.13744467496871948
1788043750578852000,7.09185205078125,0.0757472887635231,0.17470745742321014,-0.09712757170200348
1788043750595015200,7.10801513671875,0.08307767659425735,0.2217440903186798,-0.025656340643763542
1788043750610984000,7.12398388671875,0.10567969083786011,0.24373523890972137,0.07452555745840073
1788043750627555300,7.140555419921875,0.13561208546161652,0.22540926933288574,0.16554448008537292
1788043750643272000,7.15627197265625,0.15577064454555511,0.16432274878025055,0.20036379992961884
1788043750659582000,7.17258203125,0.16432274878025055,0.04642575979232788,0.1612684279680252
1788043750675333600,7.188333740234375,0.19486601650714874,-0.06536258012056351,0.059864792972803116
1788043750691313000,7.20431298828125,0.24129177629947662,-0.08491026610136032,-0.01710422709584236
1788043750707873000,7.220873046875,0.303600013256073,-0.013439035043120384,-0.04092797264456749
1788043750723498800,7.236498779296875,0.342695415019989,0.07757988572120667,0.014049900695681572
1788043750739948800,7.25294873046875,0.34574973583221436,0.1466076523065567,0.14477506279945374
1788043750755672000,7.268672119140625,0.3274237811565399,0.12400564551353455,0.2638937830924988
1788043750771766000,7.28476611328125,0.23579397797584534,0.02932153269648552,0.29138273000717163
1788043750788278300,7.3012783203125,0.11911872029304504,-0.05742133408784866,0.19120082259178162
1788043750804068000,7.317068115234375,0.07941248267889023,-0.12278391420841217,0.0806342139840126
1788043750819919600,7.332919677734375,0.09285151958465576,-0.1508837193250656,0.033597588539123535
1788043750836021800,7.349021728515625,0.11850785464048386,-0.18997909128665924,0.13377949595451355
1788043750851990500,7.364990478515625,0.17043140530586243,-0.22968533635139465,0.3634648323059082
1788043750868499700,7.381499755859375,0.25473082065582275,-0.22479841113090515,0.5943718552589417
1788043750884143900,7.397143798828125,0.37201693654060364,-0.1814269721508026,0.7806857824325562
1788043750900144000,7.41314404296875,0.4801400899887085,-0.11423180252313614,0.7922922372817993
1788043750916722000,7.429721923828125,0.5583308339118958,-0.06902777403593063,0.6609562039375305
1788043750932196400,7.4451962890625,0.5962044596672058,-0.08002334833145142,0.3988949954509735
1788043750948915500,7.46191552734375,0.5693264007568359,-0.13744467496871948,0.11728613078594208
1788043750964366800,7.477366943359375,0.5027421116828918,-0.18448130786418915,-0.07269296050071716
1788043750980362800,7.49336279296875,0.3744603991508484,-0.2119702398777008,-0.21380282938480377
1788043750997030400,7.510030517578125,0.2431243658065796,-0.20036379992961884,-0.26145032048225403
1788043751012481000,7.52548095703125,0.1417207419872284,-0.18875735998153687,-0.24556782841682434
1788043751028917000,7.5419169921875,0.07635815441608429,-0.12522737681865692,-0.19914206862449646
1788043751044626700,7.557626708984375,0.036041051149368286,-0.016493361443281174,-0.14844025671482086
1788043751060638700,7.573638671875,0.02382374368607998,0.039095375686883926,-0.14844025671482086
1788043751076841500,7.589841552734375,0.025656340643763542,0.06963863968849182,-0.16798794269561768
1788043751092866800,7.60586669921875,0.06475171446800232,0.0861319974064827,-0.192422553896904
1788043751109261300,7.62226123046875,0.12034045159816742,0.08368854224681854,-0.21624629199504852
1788043751124923600,7.637923583984375,0.1514945775270462,0.08857546001672745,-0.24007004499435425
1788043751140969200,7.65396923828125,0.152105450630188,0.03298672288656235,-0.29016098380088806
1788043751157121800,7.670121826171875,0.13255776464939117,-0.042760565876960754,-0.342695415019989
1788043751173126000,7.6861259765625,0.07696902006864548,-0.06658431142568588,-0.3536909818649292
1788043751189596200,7.70259619140625,-0.003054326167330146,-0.059864792972803116,-0.32009339332580566
1788043751205255000,7.7182548828125,-0.09468411654233932,-0.02687807008624077,-0.2431243658065796
1788043751221315000,7.734315185546875,-0.1765400618314743,-0.00427605677396059,-0.16737708449363708
1788043751237415200,7.750415283203125,-0.25045475363731384,-0.00366519158706069,-0.11789698898792267
1788043751253341700,7.766341796875,-0.34208452701568604,-0.01160643994808197,-0.09040805697441101
1788043751269853000,7.78285302734375,-0.42271876335144043,-0.027488935738801956,-0.08307767659425735
1788043751285608200,7.798608154296875,-0.4801400899887085,-0.03176499158143997,-0.08246681094169617
1788043751301916400,7.81491650390625,-0.5424483418464661,-0.05497787147760391,-0.09651670604944229
1788043751317586700,7.830586669921875,-0.6114761233329773,-0.09834930300712585,-0.09285151958465576
1788043751333525000,7.84652490234375,-0.655458390712738,-0.12767083942890167,-0.07391469180583954
1788043751349962200,7.862962158203125,-0.7043276429176331,-0.13988813757896423,-0.06963863968849182
1788043751365641200,7.87864111328125,-0.7397578358650208,-0.14233160018920898,-0.05009094998240471
1788043751381611000,7.894611083984375,-0.7489207983016968,-0.1160643994808197,0.004886921960860491
1788043751397746200,7.91074609375,-0.7330383062362671,-0.07819075137376785,0.08918632566928864
1788043751413697000,7.926697021484375,-0.7000515460968018,-0.010995574295520782,0.1875356286764145
1788043751430209800,7.943209716796875,-0.6835582256317139,-0.014049900695681572,0.18631389737129211
1788043751445842700,7.9588427734375,-0.7049384713172913,-0.10751228034496307,0.06414084881544113
1788043751461809700,7.9748095703125,-0.6805039048194885,-0.054367005825042725,-0.09285151958465576
1788043751477962500,7.99096240234375,-0.588263213634491,0.06963863968849182,-0.22113321721553802
1788043751493858800,8.00685888671875,-0.5161811113357544,0.192422553896904,-0.24923302233219147
1788043751510292000,8.0232919921875,-0.45204028487205505,0.36163222789764404,-0.14416420459747314
1788043751525960000,8.0389599609375,-0.41661009192466736,0.3701843321323395,0.07941248267889023
1788043751541906200,8.05490625,-0.46181413531303406,0.23273965716362,0.31520646810531616
1788043751558555600,8.0715556640625,-0.5393940210342407,0.04948008432984352,0.4294382631778717
1788043751573988900,8.08698876953125,-0.5852088928222656,-0.030543262138962746,0.4294382631778717
1788043751590433300,8.103433349609375,-0.5674937963485718,0.05619960278272629,0.3323107063770294
1788043751606126300,8.119126220703125,-0.5522221922874451,0.1472185254096985,0.23396138846874237
1788043751622090200,8.13509033203125,-0.5540547966957092,0.21807889640331268,0.1313360333442688
1788043751638352600,8.1513525390625,-0.5369505286216736,0.1765400618314743,0.05009094998240471
1788043751662759700,8.175759765625,-0.45142942667007446,0.013439035043120384,-0.03237585723400116
1788043751678397000,8.19139697265625,-0.39645153284072876,-0.02871066704392433,-0.0354301854968071
1788043751694413800,8.207413818359376,-0.3640756905078888,-0.03298672288656235,-0.00427605677396059
1788043751711115000,8.224114990234375,-0.36163222789764404,-0.048258353024721146,0.05497787147760391
1788043751726520000,8.23952001953125,-0.4105014503002167,-0.13255776464939117,0.10506882518529892
1788043751742677500,8.255677490234374,-0.4691445231437683,-0.18325957655906677,0.11178833991289139
1788043751758730000,8.27172998046875,-0.49724429845809937,-0.19364428520202637,0.05192354694008827
1788043751774724600,8.287724609375,-0.4948008358478546,-0.15454891324043274,-0.0708603709936142
1788043751791192300,8.3041923828125,-0.4807509481906891,-0.07330382615327835,-0.18631389737129211
1788043751806818300,8.319818359375,-0.4660901725292206,0.006719517521560192,-0.28649580478668213
1788043751822833000,8.3358330078125,-0.41722095012664795,0.09346238523721695,-0.32009339332580566
1788043751838974200,8.35197412109375,-0.3543018400669098,0.16310101747512817,-0.30482175946235657
1788043751854953200,8.367953125,-0.2718350291252136,0.23640485107898712,-0.26511552929878235
1788043751871347000,8.384346923828126,-0.182648703455925,0.2834414839744568,-0.2174680233001709
1788043751887050000,8.400050048828126,-0.08429940044879913,0.3396410644054413,-0.15332718193531036
1788043751903039000,8.4160390625,0.012828170321881771,0.3897320330142975,-0.07696902006864548
1788043751919243000,8.432242919921874,0.10201449692249298,0.4153883755207062,0.004886921960860491
1788043751935175700,8.44817578125,0.16982053220272064,0.3683517575263977,0.06352998316287994
1788043751951687400,8.4646875,0.19547687470912933,0.28649580478668213,0.08002334833145142
1788043751967799600,8.480799560546876,0.20586158335208893,0.16493362188339233,0.054367005825042725
1788043751983339000,8.496339111328124,0.22907446324825287,0.07513642311096191,-0.009162978269159794
1788043751999506400,8.51250634765625,0.2474004179239273,0.024434609338641167,-0.06108652427792549
1788043752015497500,8.52849755859375,0.2724458873271942,0.00733038317412138,-0.0806342139840126
1788043752032117000,8.545116943359375,0.2974913716316223,0.012217304669320583,-0.05742133408784866
1788043752048159700,8.56115966796875,0.31581732630729675,0.014049900695681572,-0.02626720629632473
1788043752063975700,8.5769755859375,0.34636059403419495,0.03481931984424591,-0.013439035043120384
1788043752079940400,8.5929404296875,0.38179078698158264,0.06230825558304787,-0.031154127791523933
1788043752095805700,8.6088056640625,0.4105014503002167,0.09712757170200348,-0.05253441259264946
1788043752112263000,8.625262939453124,0.4153883755207062,0.11178833991289139,-0.05742133408784866
1788043752127972000,8.64097216796875,0.4056145250797272,0.11667526513338089,-0.05925392732024193
1788043752143986200,8.656986083984375,0.4031710624694824,0.10445795953273773,-0.07880161702632904
1788043752160232400,8.673232421875,0.4092797040939331,0.08857546001672745,-0.11301007121801376
1788043752176042000,8.6890419921875,0.42271876335144043,0.10995574295520782,-0.14233160018920898
1788043752192697300,8.705697265625,0.4306600093841553,0.1466076523065567,-0.14355333149433136
1788043752208228900,8.721228759765625,0.45204028487205505,0.16982053220272064,-0.1111774742603302
1788043752224730400,8.73773046875,0.47219884395599365,0.16249015927314758,-0.042760565876960754
1788043752240537600,8.75353759765625,0.46242499351501465,0.1160643994808197,0.036651913076639175
1788043752256329200,8.7693291015625,0.4251621961593628,0.04886921867728233,0.09529497474431992
1788043752272859000,8.78585888671875,0.38667771220207214,0.01038470957428217,0.1014036312699318
1788043752288440600,8.801440673828125,0.33047810196876526,-0.04886921867728233,0.09162978827953339
1788043752304401400,8.8174013671875,0.2571742534637451,-0.0555887371301651,0.09896016865968704
1788043752320690700,8.833690673828125,0.17776179313659668,-0.048258353024721146,0.11178833991289139
1788043752336560000,8.84956005859375,0.07513642311096191,-0.015882495790719986,0.11484266817569733
1788043752353118200,8.8661181640625,-0.024434609338641167,0.010995574295520782,0.1007927656173706
1788043752368696300,8.8816962890625,-0.10567969083786011,0.028099801391363144,0.06169738993048668
1788043752385098200,8.89809814453125,-0.1973094791173935,0.019547687843441963,0.001832595793530345
1788043752400994300,8.913994384765624,-0.2791654169559479,-0.006108652334660292,-0.027488935738801956
1788043752417156000,8.930156005859375,-0.35063666105270386,-0.014049900695681572,-0.009162978269159794
1788043752433337900,8.946337890625,-0.4105014503002167,-0.02076941914856434,0.02321287989616394
1788043752449295000,8.962295166015625,-0.47280970215797424,-0.00427605677396059,0.06841690838336945
1788043752465085700,8.978085693359375,-0.5363397002220154,0.014049900695681572,0.09773843735456467
1788043752481439200,8.994439208984375,-0.6065891981124878,0.014049900695681572,0.10262536257505417
1788043752497086700,9.010086669921876,-0.7092145681381226,0.0024434609804302454,0.0861319974064827
1788043752513613600,9.026613525390625,-0.8222246170043945,-0.05253441259264946,0.06414084881544113
1788043752529281800,9.04228173828125,-0.9254608750343323,-0.11789698898792267,0.045204028487205505
1788043752545214000,9.0582138671875,-1.035416603088379,-0.1869247704744339,0.012217304669320583
1788043752561319200,9.074319091796875,-1.1288789510726929,-0.2370157092809677,-0.012828170321881771
1788043752577329700,9.09032958984375,-1.2113457918167114,-0.28649580478668213,-0.007941247895359993
1788043752593870800,9.106870849609376,-1.2809844017028809,-0.31093040108680725,0.021991148591041565
1788043752609889500,9.1228896484375,-1.367727279663086,-0.2987131178379059,0.05742133408784866
1788043752625679600,9.1386796875,-1.4282029867172241,-0.2535090744495392,0.0910189226269722
1788043752641693400,9.154693359375,-1.4618005752563477,-0.19120082259178162,0.10690141469240189
1788043752657994500,9.170994384765624,-1.4844025373458862,-0.13439035415649414,0.10323622822761536
1788043752674189300,9.187189208984375,-1.5265522003173828,-0.10384709388017654,0.09285151958465576
1788043752689882000,9.202882080078124,-1.557706356048584,-0.11728613078594208,0.06841690838336945
1788043752705821700,9.21882177734375,-1.5961909294128418,-0.14416420459747314,0.042760565876960754
1788043752722144000,9.23514404296875,-1.643227458000183,-0.19486601650714874,0.02871066704392433
1788043752737921800,9.250921875,-1.6865988969802856,-0.2125810980796814,0.03726277872920036
1788043752754439200,9.267439208984374,-1.7220290899276733,-0.2174680233001709,0.06169738993048668
1788043752770084000,9.283083984375,-1.7873916625976562,-0.23029619455337524,0.08002334833145142
1788043752786585600,9.299585693359376,-1.8472565412521362,-0.24068090319633484,0.07452555745840073
1788043752802225000,9.315224853515625,-1.8808541297912598,-0.21930062770843506,0.05742133408784866
1788043752818152400,9.33115234375,-1.9071213006973267,-0.1820378452539444,0.03420845419168472
1788043752834680300,9.347680419921875,-1.9175059795379639,-0.13866640627384186,0.02626720629632473
1788043752850450200,9.3634501953125,-1.9333884716033936,-0.13439035415649414,0.009162978269159794
1788043752866734600,9.379734619140624,-1.9529361724853516,-0.13561208546161652,-0.03237585723400116
1788043752882548000,9.3955478515625,-1.974927306175232,-0.14233160018920898,-0.09407325088977814
1788043752898548500,9.411548583984375,-1.9908097982406616,-0.11728613078594208,-0.16798794269561768
1788043752914985500,9.4279853515625,-1.9889771938323975,-0.07757988572120667,-0.21380282938480377
1788043752930657300,9.4436572265625,-1.9981402158737183,-0.045204028487205505,-0.20402899384498596
1788043752946571800,9.45957177734375,-2.0189096927642822,-0.03848451003432274,-0.11484266817569733
1788043752962815000,9.47581494140625,-2.023796558380127,-0.03848451003432274,-0.003054326167330146
1788043752978781200,9.49178125,-2.0146336555480957,-0.04153883829712868,0.09712757170200348
1788043752995316700,9.508316650390626,-1.977981686592102,-0.0507018156349659,0.1007927656173706
1788043753010878500,9.52387841796875,-1.9517145156860352,-0.0555887371301651,0.04581489413976669
1788043753026970400,9.539970458984374,-1.9248363971710205,-0.06475171446800232,-0.036041051149368286
1788043753043427000,9.556427001953125,-1.8955148458480835,-0.04703662544488907,-0.10323622822761536
1788043753059060000,9.57206005859375,-1.8484781980514526,-0.009773843921720982,-0.1270599663257599
1788043753075490000,9.588489990234375,-1.7983872890472412,0.0403171069920063,-0.13316862285137177
1788043753091190500,9.6041904296875,-1.7189748287200928,0.08246681094169617,-0.1362229436635971
1788043753107229200,9.620229248046876,-1.6340645551681519,0.09407325088977814,-0.13255776464939117
1788043753123457300,9.636457275390624,-1.5729780197143555,0.06536258012056351,-0.12522737681865692
1788043753139398100,9.652398193359375,-1.519832730293274,0.00427605677396059,-0.09529497474431992
1788043753155811000,9.66881103515625,-1.4746286869049072,-0.028099801391363144,-0.04398229718208313
1788043753171567400,9.6845673828125,-1.4410310983657837,-0.019547687843441963,0
1788043753187472000,9.700471923828125,-1.4043792486190796,0.013439035043120384,0.036651913076639175
1788043753203877400,9.71687744140625,-1.3738359212875366,0.0507018156349659,0.05619960278272629
1788043753219646200,9.732646240234375,-1.3463469743728638,0.0659734457731247,0.06108652427792549
1788043753236039200,9.7490390625,-1.3237450122833252,0.08552113175392151,0.06169738993048668
1788043753251707600,9.764707763671876,-1.2852604389190674,0.12339477986097336,0.05864306539297104
1788043753267652900,9.78065283203125,-1.253495454788208,0.1472185254096985,0.03237585723400116
1788043753291727000,9.80472705078125,-1.2150110006332397,0.13866640627384186,0.00733038317412138
1788043753307778800,9.82077880859375,-1.188132882118225,0.1466076523065567,0.01710422709584236
1788043753323951600,9.83695166015625,-1.1533136367797852,0.182648703455925,0.04948008432984352
1788043753339874800,9.852874755859375,-1.1227703094482422,0.18509216606616974,0.09346238523721695
1788043753356416500,9.86941650390625,-1.0910053253173828,0.1973094791173935,0.1313360333442688
1788043753372121600,9.88512158203125,-1.0726794004440308,0.19853121042251587,0.13439035415649414
1788043753388084200,9.901084228515625,-1.045190453529358,0.1814269721508026,0.0959058403968811
1788043753404611300,9.917611328125,-1.007927656173706,0.16065755486488342,0.04398229718208313
1788043753420223000,9.933222900390625,-0.9718865752220154,0.1514945775270462,0.01710422709584236
1788043753436632300,9.94963232421875,-0.940732479095459,0.14416420459747314,0.001832595793530345
1788043753452799700,9.9657998046875,-0.9083566069602966,0.1508837193250656,0.0006108652451075613
1788043753468563500,9.9815634765625,-0.8735373020172119,0.16065755486488342,0.003054326167330146
1788043753484636200,9.99763623046875,-0.8417723178863525,0.17348572611808777,-0.005497787147760391
1788043753500477200,10.013477294921875,-0.8191702961921692,0.15332718193531036,-0.03481931984424591
1788043753516948200,10.0299482421875,-0.8008443117141724,0.1258382350206375,-0.0403171069920063
1788043753532707300,10.045707275390624,-0.7764097452163696,0.10690141469240189,-0.01160643994808197
1788043753548865300,10.061865234375,-0.7531968355178833,0.10690141469240189,0.05497787147760391
1788043753564956400,10.077956298828125,-0.7409795522689819,0.11423180252313614,0.11239920556545258
1788043753580996400,10.093996337890625,-0.7104362845420837,0.09651670604944229,0.10567969083786011
1788043753597355300,10.110355224609375,-0.6902777552604675,0.06291911751031876,0.06108652427792549
1788043753612991200,10.1259912109375,-0.6860016584396362,0.00855211354792118,0.006719517521560192
1788043753629001500,10.14200146484375,-0.6841690540313721,-0.00427605677396059,-0.021991148591041565
1788043753645167600,10.158167724609376,-0.6487388610839844,-0.015271631069481373,-0.03726277872920036
1788043753661177300,10.17417724609375,-0.5809328556060791,-0.01466076634824276,-0.02626720629632473
1788043753677670000,10.190669921875,-0.5088507533073425,-0.001832595793530345,0.013439035043120384
1788043753693312000,10.20631201171875,-0.4593706727027893,0.04886921867728233,0.051312681287527084
1788043753709655600,10.222655517578126,-0.43188172578811646,0.09468411654233932,0.06963863968849182
1788043753725445400,10.2384453125,-0.41722095012664795,0.10567969083786011,0.07147123664617538
1788043753741400300,10.254400390625,-0.4147774875164032,0.10018189996480942,0.07819075137376785
1788043753757973000,10.270972900390625,-0.42149701714515686,0.08368854224681854,0.10018189996480942
1788043753781451500,10.294451416015624,-0.4196644127368927,0.033597588539123535,0.14355333149433136
1788043753797896700,10.310896728515624,-0.40256020426750183,0.021380282938480377,0.1722639948129654
1788043753813654800,10.32665478515625,-0.3891211748123169,0.015271631069481373,0.18081611394882202
1788043753829652700,10.34265283203125,-0.3628539443016052,0.02871066704392433,0.1771509200334549
1788043753845868300,10.358868408203126,-0.3237585723400116,0.05497787147760391,0.14477506279945374
1788043753862221300,10.37522119140625,-0.25961771607398987,0.10262536257505417,0.09162978827953339
1788043753878390300,10.391390380859375,-0.21135938167572021,0.13927727937698364,0.039095375686883926
1788043753893899500,10.4068994140625,-0.1618792861700058,0.15393804013729095,-0.003054326167330146
1788043753909864000,10.422864013671875,-0.11239920556545258,0.15577064454555511,-0.01771509274840355
1788043753926184200,10.43918408203125,-0.07635815441608429,0.15882496535778046,-0.022602014243602753
1788043753942110200,10.455110107421875,-0.029932396486401558,0.16249015927314758,-0.025656340643763542
1788043753958477800,10.471477783203126,0.006108652334660292,0.13866640627384186,-0.02687807008624077
1788043753974225700,10.4872255859375,0.022602014243602753,0.09712757170200348,-0.02932153269648552
1788043753990281500,10.503281494140625,0.03420845419168472,0.024434609338641167,-0.04092797264456749
1788043754006415600,10.51941552734375,0.03787364438176155,-0.03237585723400116,-0.054367005825042725
1788043754022491600,10.53549169921875,0.03848451003432274,-0.060475658625364304,-0.04337143152952194
1788043754038831600,10.55183154296875,0.021991148591041565,-0.06475171446800232,-0.02015855349600315
1788043754054560800,10.567560791015625,0.005497787147760391,-0.0507018156349659,0.00427605677396059
1788043754070682600,10.5836826171875,0.001832595793530345,-0.015882495790719986,0.005497787147760391
1788043754086930200,10.59993017578125,-0.00733038317412138,0.018325956538319588,-0.021380282938480377
1788043754102713000,10.615713134765626,-0.01160643994808197,0.029932396486401558,-0.06291911751031876
1788043754119332000,10.63233203125,-0.02076941914856434,0.005497787147760391,-0.07941248267889023
1788043754134824700,10.64782470703125,-0.039706241339445114,-0.010995574295520782,-0.06475171446800232
1788043754150848300,10.66384814453125,-0.04642575979232788,-0.015271631069481373,-0.045204028487205505
1788043754166996500,10.67999658203125,-0.030543262138962746,-0.007941247895359993,-0.012217304669320583
1788043754183037000,10.696036865234374,-0.027488935738801956,-0.019547687843441963,0.003054326167330146
1788043754199367200,10.7123671875,-0.019547687843441963,-0.027488935738801956,-0.00366519158706069
1788043754215148000,10.72814794921875,-0.005497787147760391,-0.05803219974040985,-0.02321287989616394
1788043754231110700,10.744110595703125,0,-0.09834930300712585,-0.019547687843441963
1788043754247245000,10.7602451171875,0,-0.13744467496871948,0.01038470957428217
1788043754263522600,10.7765224609375,0.001832595793530345,-0.1716531366109848,0.0659734457731247
1788043754279730200,10.792730224609375,0.0012217304902151227,-0.17470745742321014,0.08979719132184982
1788043754295431200,10.80843115234375,-0.001832595793530345,-0.18875735998153687,0.0757472887635231
1788043754311400200,10.824400146484376,-0.004886921960860491,-0.17287486791610718,0.04214970022439957
1788043754327734000,10.840734130859374,0.0006108652451075613,-0.18387043476104736,-0.012828170321881771
1788043754343584500,10.85658447265625,-0.02015855349600315,-0.18081611394882202,-0.05497787147760391
1788043754360073200,10.8730732421875,-0.03787364438176155,-0.16737708449363708,-0.06536258012056351
1788043754375618000,10.8886181640625,-0.04092797264456749,-0.16554448008537292,-0.05375614017248154
1788043754391652000,10.904652099609375,-0.03176499158143997,-0.1563815027475357,-0.01710422709584236
1788043754407780900,10.92078076171875,-0.02626720629632473,-0.14782938361167908,0.036651913076639175
1788043754424303600,10.9373037109375,-0.00733038317412138,-0.11972958594560623,0.10018189996480942
1788043754440170800,10.953170654296875,0.012217304669320583,-0.12034045159816742,0.13255776464939117
1788043754455885000,10.968885009765625,0.01710422709584236,-0.1264491081237793,0.1264491081237793
1788043754471925000,10.984925048828124,0.02687807008624077,-0.12522737681865692,0.08552113175392151
1788043754488110300,11.0011103515625,0.04459316283464432,-0.09896016865968704,0.03481931984424591
1788043754504102400,11.017102294921875,0.05925392732024193,-0.05619960278272629,-0.00733038317412138
1788043754520661800,11.033661865234375,0.06780604273080826,-0.02015855349600315,-0.02382374368607998
1788043754536287700,11.049287841796875,0.06230825558304787,-0.019547687843441963,-0.05864306539297104
1788043754552399600,11.065399658203125,0.04214970022439957,-0.04153883829712868,-0.12461651116609573
1788043754568473900,11.081473876953124,0.014049900695681572,-0.06780604273080826,-0.1716531366109848
1788043754584455200,11.097455078125,-0.003054326167330146,-0.06902777403593063,-0.17959438264369965
1788043754601003800,11.114003662109376,-0.025045474991202354,-0.0403171069920063,-0.13255776464939117
1788043754616587300,11.129587158203124,-0.04948008432984352,0.024434609338641167,-0.059864792972803116
1788043754632539600,11.14553955078125,-0.05619960278272629,0.08857546001672745,-0.003054326167330146
1788043754648944600,11.161944580078124,-0.04764748737215996,0.12950342893600464,0.02015855349600315
1788043754665120500,11.17812060546875,-0.036041051149368286,0.15393804013729095,-0.01038470957428217
1788043754681308000,11.194307861328125,-0.02871066704392433,0.15577064454555511,-0.05925392732024193
1788043754697033500,11.210033447265625,-0.02687807008624077,0.13866640627384186,-0.10934487730264664
1788043754713001200,11.226001220703125,-0.02321287989616394,0.11301007121801376,-0.12461651116609573
1788043754729159200,11.2421591796875,-0.024434609338641167,0.09407325088977814,-0.09957103431224823
1788043754744944600,11.257944580078124,-0.04703662544488907,0.05619960278272629,-0.0507018156349659
1788043754761396000,11.27439599609375,-0.08307767659425735,-0.005497787147760391,-0.01466076634824276
1788043754777153000,11.290153076171874,-0.08735372871160507,-0.022602014243602753,0.006719517521560192
1788043754793110800,11.30611083984375,-0.07208210229873657,0.003054326167330146,-0.001832595793530345
1788043754809277000,11.32227685546875,-0.04214970022439957,0.051312681287527084,-0.021380282938480377
1788043754825337900,11.338337890625,-0.036041051149368286,0.06536258012056351,-0.029932396486401558
1788043754841885000,11.354885009765624,-0.051312681287527084,0.02076941914856434,-0.02626720629632473
1788043754857591600,11.370591552734375,-0.06963863968849182,-0.05192354694008827,-0.00855211354792118
1788043754873454000,11.3864541015625,-0.08124507963657379,-0.10201449692249298,-0.001832595793530345
1788043754889763000,11.40276318359375,-0.0757472887635231,-0.10934487730264664,-0.02015855349600315
1788043754905606700,11.418606689453124,-0.04214970022439957,-0.0659734457731247,-0.06902777403593063
1788043754922033000,11.435032958984374,0.005497787147760391,0.013439035043120384,-0.12767083942890167
1788043754938185500,11.451185546875,0.030543262138962746,0.05009094998240471,-0.17898350954055786
1788043754953945000,11.466945068359376,0.03176499158143997,0.05803219974040985,-0.18631389737129211
1788043754969939500,11.482939453125,0.0006108652451075613,0.01771509274840355,-0.14844025671482086
1788043754985960000,11.4989599609375,-0.05497787147760391,-0.051312681287527084,-0.11362093687057495
1788043755002459100,11.515459228515626,-0.1007927656173706,-0.10934487730264664,-0.08979719132184982
1788043755018077000,11.531076904296874,-0.12339477986097336,-0.12278391420841217,-0.051312681287527084
1788043755034523100,11.547523193359375,-0.11850785464048386,-0.06963863968849182,0.0006108652451075613
1788043755050160000,11.56316015625,-0.10567969083786011,-0.0012217304902151227,0.02687807008624077
1788043755066264000,11.57926416015625,-0.08491026610136032,0.045204028487205505,0.019547687843441963
1788043755082780700,11.59578076171875,-0.06291911751031876,0.05803219974040985,-0.01160643994808197
1788043755098342100,11.611342041015625,-0.033597588539123535,0.04214970022439957,-0.042760565876960754
1788043755114577200,11.6275771484375,-0.013439035043120384,0.02932153269648552,-0.04703662544488907
1788043755130592800,11.6435927734375,0.006719517521560192,0.016493361443281174,-0.02015855349600315
1788043755146382000,11.659382080078124,0.02626720629632473,0.00427605677396059,0.013439035043120384
1788043755162733000,11.675733154296875,0.039095375686883926,-0.021380282938480377,0.02871066704392433
1788043755178499300,11.691499267578125,0.03298672288656235,-0.01466076634824276,0.0403171069920063
1788043755194502100,11.707502197265624,0.013439035043120384,-0.016493361443281174,0.021991148591041565
1788043755210744000,11.723744140625,0.00366519158706069,0.0012217304902151227,-0.015271631069481373
1788043755226834700,11.739834716796874,0.018325956538319588,0.03298672288656235,-0.06536258012056351
1788043755243283700,11.75628369140625,0.02015855349600315,0.05925392732024193,-0.08979719132184982
1788043755258805500,11.771805419921876,0.013439035043120384,0.07880161702632904,-0.0659734457731247
1788043755274950700,11.78795068359375,0.01038470957428217,0.08735372871160507,-0.024434609338641167
1788043755291028000,11.804028076171875,0,0.07880161702632904,0.014049900695681572
1788043755307189800,11.820189697265626,-0.006719517521560192,0.0659734457731247,0.015271631069481373
1788043755323371500,11.83637158203125,0.0012217304902151227,0.06230825558304787,-0.016493361443281174
1788043755339159800,11.852159912109375,0.018936822190880775,0.07269296050071716,-0.05619960278272629
1788043755355350000,11.86835009765625,0.0403171069920063,0.08246681094169617,-0.0708603709936142
1788043755371197200,11.884197265625,0.05864306539297104,0.09407325088977814,-0.059864792972803116
1788043755387301600,11.900301513671875,0.07269296050071716,0.09651670604944229,-0.016493361443281174
1788043755403890700,11.916890625,0.08735372871160507,0.09834930300712585,0.04459316283464432
1788043755419383600,11.932383544921874,0.09896016865968704,0.08552113175392151,0.07391469180583954
1788043755435419000,11.9484189453125,0.1160643994808197,0.048258353024721146,0.059864792972803116
1788043755451593500,11.964593505859375,0.14905111491680145,0.021380282938480377,0.06841690838336945
1788043755467731200,11.980731201171874,0.17531833052635193,0.031154127791523933,0.13072516024112701
1788043755484225500,11.9972255859375,0.19975294172763824,0.029932396486401558,0.21135938167572021
1788043755500196900,12.01319677734375,0.18875735998153687,-0.05192354694008827,0.22846360504627228
1788043755515745000,12.0287451171875,0.18448130786418915,-0.1472185254096985,0.11545353382825851
1788043755531911200,12.0449111328125,0.1820378452539444,-0.18020524084568024,-0.07330382615327835
1788043755547926000,12.060926025390625,0.16798794269561768,-0.18081611394882202,-0.2926044464111328
1788043755564550000,12.0775498046875,0.15515977144241333,-0.10445795953273773,-0.4141666293144226
1788043755580085800,12.093085693359376,0.15760323405265808,-0.033597588539123535,-0.4282165467739105
1788043755596014000,12.10901416015625,0.15577064454555511,0.05742133408784866,-0.35674530267715454
1788043755612150000,12.12514990234375,0.1875356286764145,0.1716531366109848,-0.18570303916931152
1788043755628211000,12.1412109375,0.22663100063800812,0.24923302233219147,0.03787364438176155
1788043755644832800,12.157832763671875,0.2528982162475586,0.2791654169559479,0.2070833146572113
1788043755660621000,12.17362109375,0.2779437005519867,0.2480112910270691,0.2834414839744568
1788043755676386300,12.18938623046875,0.2919935882091522,0.18570303916931152,0.24434609711170197
1788043755692591600,12.205591552734376,0.3017674386501312,0.11789698898792267,0.1319468915462494
1788043755708893200,12.22189306640625,0.2981022298336029,0.0354301854968071,0.025656340643763542
1788043755724845000,12.237844970703126,0.2767219543457031,-0.056810468435287476,-0.04948008432984352
1788043755740583700,12.253583740234374,0.23273965716362,-0.10751228034496307,-0.056810468435287476
1788043755757071000,12.270071044921876,0.1966986060142517,-0.11728613078594208,-0.036651913076639175
1788043755772820700,12.28582080078125,0.18020524084568024,-0.08185594528913498,-0.030543262138962746
1788043755789217800,12.3022177734375,0.16249015927314758,-0.0354301854968071,-0.05375614017248154
1788043755805439000,12.31843896484375,0.13744467496871948,0.0024434609804302454,-0.06475171446800232
1788043755820987100,12.333987060546875,0.10873401165008545,0.028099801391363144,-0.05192354694008827
1788043755837134000,12.350134033203124,0.0861319974064827,0.039095375686883926,-0.03237585723400116
1788043755853344000,12.366343994140625,0.07941248267889023,0.05009094998240471,-0.02687807008624077
1788043755869525000,12.38252490234375,0.07330382615327835,0.04153883829712868,-0.029932396486401558
1788043755885765400,12.398765380859375,0.06536258012056351,0.022602014243602753,-0.039095375686883926
1788043755901765400,12.414765380859375,0.054367005825042725,0.0012217304902151227,-0.05253441259264946
1788043755917383200,12.430383056640625,0.039706241339445114,-0.018936822190880775,-0.06475171446800232
1788043755933622800,12.446622802734375,0.00733038317412138,-0.06414084881544113,-0.09040805697441101
1788043755949628700,12.462628662109376,-0.012217304669320583,-0.08552113175392151,-0.1014036312699318
1788043755966105000,12.47910498046875,-0.03787364438176155,-0.10384709388017654,-0.10201449692249298
1788043755981721900,12.494721923828125,-0.06230825558304787,-0.12767083942890167,-0.10262536257505417
1788043755997820000,12.51081982421875,-0.09285151958465576,-0.16737708449363708,-0.09346238523721695
1788043756013844500,12.526844482421875,-0.13439035415649414,-0.18631389737129211,-0.05803219974040985
1788043756029851100,12.54285107421875,-0.1661553531885147,-0.1771509200334549,-0.03176499158143997
1788043756046311200,12.559311279296875,-0.18081611394882202,-0.1319468915462494,-0.01160643994808197
1788043756062397200,12.575397216796874,-0.19608774781227112,-0.09285151958465576,0.012217304669320583
1788043756077844000,12.590843994140625,-0.2174680233001709,-0.08857546001672745,0.029932396486401558
1788043756093971500,12.606971435546875,-0.2321287989616394,-0.10018189996480942,0.029932396486401558
1788043756110066700,12.623066650390625,-0.2370157092809677,-0.10751228034496307,0.025045474991202354
1788043756126529300,12.639529296875,-0.24190263450145721,-0.09224065393209457,0.018936822190880775
1788043756142092300,12.65509228515625,-0.2480112910270691,-0.06719517707824707,0.02076941914856434
1788043756158086400,12.67108642578125,-0.23396138846874237,-0.042760565876960754,0.04459316283464432
1788043756174290400,12.68729052734375,-0.19914206862449646,-0.02871066704392433,0.09529497474431992
1788043756190268700,12.7032685546875,-0.16493362188339233,-0.05253441259264946,0.11850785464048386
1788043756206754300,12.71975439453125,-0.17837265133857727,-0.1258382350206375,0.01160643994808197
1788043756222269700,12.735269775390625,-0.2321287989616394,-0.07391469180583954,-0.2064724564552307
1788043756238352000,12.751351806640624,-0.2535090744495392,0.02076941914856434,-0.3995058834552765
1788043756254410000,12.767409912109375,-0.26145032048225403,0.13805554807186127,-0.47830748558044434
1788043756270494200,12.783494140625,-0.26083946228027344,0.2779437005519867,-0.2767219543457031
1788043756286970600,12.799970703125,-0.2730567753314972,0.3481931984424591,0.06169738993048668
1788043756302578200,12.815578125,-0.27550023794174194,0.34025195240974426,0.4593706727027893
1788043756319016400,12.832016357421875,-0.2474004179239273,0.2528982162475586,0.6633996367454529
1788043756334790400,12.847790283203125,-0.242513507604599,0.16065755486488342,0.6414085030555725
1788043756350725400,12.863725341796876,-0.28038713335990906,-0.0024434609804302454,0.46853363513946533
1788043756367104800,12.880104736328125,-0.3127630054950714,-0.15760323405265808,0.17959438264369965
1788043756382795500,12.89579541015625,-0.3481931984424591,-0.2565633952617645,-0.09957103431224823
1788043756398836700,12.911836669921875,-0.3903428912162781,-0.2675589919090271,-0.251676470041275
1788043756415014400,12.928014404296874,-0.42699480056762695,-0.1869247704744339,-0.28588494658470154
1788043756430981400,12.9439814453125,-0.4245513379573822,-0.05925392732024193,-0.2119702398777008
1788043756447443200,12.960443115234375,-0.39156460762023926,0.06780604273080826,-0.11362093687057495
1788043756463132700,12.976132568359375,-0.33658674359321594,0.1973094791173935,-0.02626720629632473
1788043756479183600,12.99218359375,-0.28099802136421204,0.23029619455337524,0.006719517521560192
1788043756495719000,13.008718994140626,-0.23945917189121246,0.20463985204696655,0.016493361443281174
1788043756511483400,13.0244833984375,-0.22907446324825287,0.15393804013729095,0.01466076634824276
1788043756527799800,13.0407998046875,-0.21624629199504852,0.0861319974064827,0.0024434609804302454
1788043756543694800,13.05669482421875,-0.22357667982578278,-0.00855211354792118,-0.03726277872920036
1788043756559521800,13.072521728515625,-0.2272418737411499,-0.06475171446800232,-0.08307767659425735
1788043756576048000,13.089048095703125,-0.24373523890972137,-0.07635815441608429,-0.1362229436635971
1788043756591642600,13.104642578125,-0.25595253705978394,-0.04948008432984352,-0.17531833052635193
1788043756608096300,13.12109619140625,-0.242513507604599,-0.005497787147760391,-0.182648703455925
1788043756624166000,13.137165771484375,-0.21013765037059784,0.04337143152952194,-0.15393804013729095
1788043756640284400,13.153284423828126,-0.16310101747512817,0.11423180252313614,-0.08796459436416626
1788043756655977700,13.168977783203125,-0.1062905490398407,0.16982053220272064,-0.028099801391363144
1788043756672091600,13.185091552734375,-0.05925392732024193,0.1814269721508026,0
1788043756688382500,13.201382568359374,-0.013439035043120384,0.13988813757896423,0.01038470957428217
1788043756704029200,13.217029296875,0.02871066704392433,0.07635815441608429,0.030543262138962746
1788043756720029000,13.23302880859375,0.060475658625364304,0.01710422709584236,0.07147123664617538
1788043756736137000,13.249136962890624,0.1062905490398407,0.016493361443281174,0.12522737681865692
1788043756752196900,13.26519677734375,0.16859880089759827,0.05009094998240471,0.16004669666290283
1788043756768526800,13.28152685546875,0.21380282938480377,0.07819075137376785,0.1618792861700058
1788043756784257000,13.297257080078126,0.23640485107898712,0.060475658625364304,0.15943582355976105
1788043756800280800,13.31328076171875,0.24556782841682434,-0.02871066704392433,0.15943582355976105
1788043756816493800,13.329493896484376,0.22052235901355743,-0.16004669666290283,0.16432274878025055
1788043756832464000,13.3454638671875,0.21380282938480377,-0.2119702398777008,0.19547687470912933
1788043756848958500,13.36195849609375,0.25534167885780334,-0.12767083942890167,0.31642818450927734
1788043756864615400,13.377615478515626,0.29077184200286865,0.021991148591041565,0.46364670991897583
1788043756881103000,13.39410302734375,0.26022860407829285,0.06352998316287994,0.44165557622909546
1788043756896869400,13.409869384765624,0.24007004499435425,0.1014036312699318,0.18387043476104736
1788043756912865500,13.425865478515625,0.28038713335990906,0.16371189057826996,-0.16920967400074005
1788043756929222400,13.442222412109375,0.32681289315223694,0.19303341209888458,-0.3683517575263977
1788043756944905000,13.457905029296874,0.3194825351238251,0.1661553531885147,-0.32131510972976685
1788043756960871200,13.47387109375,0.27122417092323303,0.030543262138962746,-0.07208210229873657
1788043756977031000,13.490031005859375,0.22907446324825287,-0.054367005825042725,0.2590068578720093
1788043756993058300,13.506058349609376,0.20341812074184418,-0.056810468435287476,0.45753806829452515
1788043757009432800,13.522432861328125,0.21991148591041565,0.0006108652451075613,0.48747047781944275
1788043757025090000,13.538090087890625,0.2687807083129883,0.07941248267889023,0.31459560990333557
1788043757041121800,13.554121826171874,0.31459560990333557,0.1258382350206375,0.10934487730264664
1788043757057256400,13.57025634765625,0.3543018400669098,0.1007927656173706,-0.07269296050071716
1788043757073251000,13.5862509765625,0.3585779070854187,0.02626720629632473,-0.14905111491680145
1788043757089640400,13.602640380859375,0.34636059403419495,-0.03298672288656235,-0.14782938361167908
1788043757105520600,13.618520751953126,0.3225368559360504,-0.048258353024721146,-0.11301007121801376
1788043757121365000,13.634364990234374,0.2742784917354584,-0.04398229718208313,-0.1014036312699318
1788043757138005500,13.651005615234375,0.20341812074184418,-0.06169738993048668,-0.11484266817569733
1788043757153499400,13.66649951171875,0.1459967941045761,-0.09040805697441101,-0.10445795953273773
1788043757169908700,13.68290869140625,0.08491026610136032,-0.1270599663257599,-0.04459316283464432
1788043757185631200,13.69863134765625,0.04092797264456749,-0.14782938361167908,0.019547687843441963
1788043757201591600,13.714591552734374,0.024434609338641167,-0.1569923609495163,0.031154127791523933
1788043757217779500,13.730779541015625,0.01038470957428217,-0.14782938361167908,-0.00733038317412138
1788043757233791700,13.746791748046874,0.0006108652451075613,-0.1313360333442688,-0.08429940044879913
1788043757250164000,13.7631640625,-0.01038470957428217,-0.14233160018920898,-0.14416420459747314
1788043757265881000,13.778881103515625,-0.036651913076639175,-0.1722639948129654,-0.1661553531885147
1788043757281906400,13.794906494140625,-0.06902777403593063,-0.18875735998153687,-0.1472185254096985
1788043757298097700,13.81109765625,-0.08246681094169617,-0.192422553896904,-0.11850785464048386
1788043757314150000,13.82714990234375,-0.07024950534105301,-0.1508837193250656,-0.09285151958465576
1788043757330508800,13.8435087890625,-0.06169738993048668,-0.0910189226269722,-0.06841690838336945
1788043757346227200,13.859227294921874,-0.07208210229873657,-0.07024950534105301,-0.04459316283464432
1788043757362225000,13.875224853515626,-0.09407325088977814,-0.09285151958465576,-0.015882495790719986
1788043757378459600,13.891459716796875,-0.13255776464939117,-0.13316862285137177,0.02015855349600315
1788043757394915800,13.907915771484374,-0.1508837193250656,-0.12767083942890167,0.059864792972803116
1788043757410841900,13.923841796875,-0.16004669666290283,-0.11239920556545258,0.06230825558304787
1788043757426556400,13.939556396484376,-0.17287486791610718,-0.1111774742603302,0.036651913076639175
1788043757442590000,13.95558984375,-0.21074850857257843,-0.1472185254096985,-0.021991148591041565
1788043757458717200,13.97171728515625,-0.24434609711170197,-0.18875735998153687,-0.06963863968849182
1788043757474708000,13.9877080078125,-0.25473082065582275,-0.22052235901355743,-0.0757472887635231
1788043757491079400,14.004079345703126,-0.26145032048225403,-0.23273965716362,-0.015271631069481373
1788043757506772700,14.019772705078125,-0.2669481039047241,-0.2382374405860901,0.08796459436416626
1788043757522801200,14.03580126953125,-0.2919935882091522,-0.2675589919090271,0.11728613078594208
1788043757539008800,14.0520087890625,-0.3439171314239502,-0.31520646810531616,-0.00733038317412138
1788043757554940000,14.06793994140625,-0.38179078698158264,-0.2431243658065796,-0.21930062770843506
1788043757571389000,14.084388916015625,-0.3805690407752991,-0.07635815441608429,-0.3677408695220947
1788043757587056000,14.10005615234375,-0.3530801236629486,0.12217304855585098,-0.3384193480014801
1788043757603169000,14.1161689453125,-0.3182607889175415,0.30482175946235657,-0.1111774742603302
1788043757619283500,14.132283447265625,-0.3066543638706207,0.41599923372268677,0.18509216606616974
1788043757635308300,14.148308349609374,-0.30054569244384766,0.4092797040939331,0.37262779474258423
1788043757651706400,14.164706298828126,-0.28649580478668213,0.3378084897994995,0.4807509481906891
1788043757667426000,14.180426025390625,-0.28527405858039856,0.23518311977386475,0.46792277693748474
1788043757683417600,14.19641748046875,-0.294437050819397,0.13011430203914642,0.3634648323059082
1788043757699989200,14.2129892578125,-0.30543261766433716,0.004886921960860491,0.16920967400074005
1788043757715544000,14.2285439453125,-0.31581732630729675,-0.07635815441608429,-0.03420845419168472
1788043757731969800,14.2449697265625,-0.3439171314239502,-0.1062905490398407,-0.17348572611808777
1788043757747746800,14.260746826171875,-0.37140607833862305,-0.10567969083786011,-0.2217440903186798
1788043757763855600,14.276855712890624,-0.3878994286060333,-0.06230825558304787,-0.192422553896904
1788043757780009000,14.293009033203125,-0.3738495409488678,0.025656340643763542,-0.11972958594560623
1788043757795888000,14.30888818359375,-0.34147366881370544,0.12217304855585098,-0.05497787147760391
1788043757812294400,14.32529443359375,-0.3023782968521118,0.23396138846874237,-0.003054326167330146
1788043757828021500,14.341021484375,-0.27977627515792847,0.3029891550540924,0.0024434609804302454
1788043757844041200,14.357041259765625,-0.2669481039047241,0.3225368559360504,-0.014049900695681572
1788043757860189400,14.373189453125,-0.24923302233219147,0.304210901260376,-0.04948008432984352
1788043757876298800,14.389298828125,-0.22296582162380219,0.2565633952617645,-0.07513642311096191
1788043757892589300,14.40558935546875,-0.192422553896904,0.17837265133857727,-0.08674286305904388
1788043757908371500,14.421371337890625,-0.1661553531885147,0.09162978827953339,-0.08368854224681854
1788043757924319700,14.43731982421875,-0.14477506279945374,0.027488935738801956,-0.07024950534105301
1788043757940523300,14.453523193359375,-0.11056660860776901,0.036651913076639175,-0.09651670604944229
1788043757956892200,14.46989208984375,-0.08368854224681854,0.05803219974040985,-0.14905111491680145
1788043757972890400,14.485890380859376,-0.05864306539297104,0.08796459436416626,-0.19425514340400696
1788043757988492000,14.501491943359374,-0.0555887371301651,0.09651670604944229,-0.18936823308467865
1788043758004500500,14.51750048828125,-0.06719517707824707,0.09285151958465576,-0.15271630883216858
1788043758020723000,14.533722900390625,-0.08368854224681854,0.09651670604944229,-0.08429940044879913
1788043758036715800,14.5497158203125,-0.07269296050071716,0.11362093687057495,-0.005497787147760391
1788043758053278500,14.566278564453125,-0.06475171446800232,0.11178833991289139,0.051312681287527084
1788043758068952600,14.58195263671875,-0.054367005825042725,0.07330382615327835,0.0708603709936142
1788043758085045800,14.598045654296875,-0.029932396486401558,0.045204028487205505,0.06902777403593063
1788043758101014800,14.614014892578124,0.01038470957428217,0.02015855349600315,0.07024950534105301
1788043758117457000,14.630456787109376,0.04337143152952194,-0.007941247895359993,0.07452555745840073
1788043758133343700,14.64634375,0.08979719132184982,-0.04703662544488907,0.0757472887635231
1788043758149358300,14.6623583984375,0.1368338167667389,-0.06841690838336945,0.0659734457731247
1788043758165508900,14.6785087890625,0.17348572611808777,-0.05742133408784866,0.05864306539297104
1788043758181226800,14.694226806640625,0.20036379992961884,-0.03237585723400116,0.07024950534105301
1788043758197197600,14.710197509765624,0.21563543379306793,-0.01466076634824276,0.12950342893600464
1788043758213870600,14.72687060546875,0.2070833146572113,0.014049900695681572,0.192422553896904
1788043758229476000,14.74247607421875,0.17348572611808777,0.013439035043120384,0.15882496535778046
1788043758245453000,14.758453125,0.16249015927314758,0.030543262138962746,-0.014049900695681572
1788043758261568500,14.774568603515625,0.19058994948863983,0.05497787147760391,-0.21930062770843506
1788043758277713200,14.790713134765625,0.22296582162380219,0.06352998316287994,-0.3090978264808655
1788043758294021000,14.807021240234375,0.2223549485206604,0.030543262138962746,-0.24434609711170197
1788043758309751000,14.8227509765625,0.19547687470912933,-0.051312681287527084,-0.06352998316287994
1788043758325994500,14.838994384765625,0.18631389737129211,-0.11362093687057495,0.09773843735456467
1788043758341935400,14.854935302734376,0.19303341209888458,-0.152105450630188,0.21013765037059784
1788043758357921000,14.870921142578124,0.22357667982578278,-0.13927727937698364,0.2718350291252136
1788043758374255400,14.88725537109375,0.28038713335990906,-0.06658431142568588,0.32620203495025635
1788043758390066200,14.903066162109376,0.33536502718925476,0.00366519158706069,0.33658674359321594
1788043758405968100,14.918968017578125,0.4050036668777466,0.04459316283464432,0.26511552929878235
1788043758422232300,14.935232421875,0.49357911944389343,0.05803219974040985,0.11239920556545258
1788043758438160100,14.95116015625,0.5583308339118958,0.02015855349600315,-0.019547687843441963
1788043758454574300,14.96757421875,0.5955936312675476,-0.06108652427792549,-0.1160643994808197
1788043758470541600,14.98354150390625,0.6059783101081848,-0.10995574295520782,-0.1362229436635971
1788043758486286300,14.999286376953124,0.578489363193512,-0.12339477986097336,-0.1362229436635971
1788043758502459400,15.01545947265625,0.5064072608947754,-0.1472185254096985,-0.1508837193250656
1788043758518827500,15.03182763671875,0.41111230850219727,-0.152105450630188,-0.13805554807186127
1788043758534847700,15.04784765625,0.32559117674827576,-0.07696902006864548,-0.05497787147760391
1788043758551047700,15.064047607421875,0.2638937830924988,0.016493361443281174,0.045204028487205505
1788043758566731000,15.07973095703125,0.2217440903186798,0.10934487730264664,0.10018189996480942
1788043758582741200,15.0957412109375,0.21930062770843506,0.18387043476104736,0.060475658625364304
1788043758598693600,15.111693603515626,0.22907446324825287,0.251676470041275,-0.02321287989616394
1788043758615052000,15.128052001953124,0.2217440903186798,0.28527405858039856,-0.11239920556545258
1788043758630716200,15.143716064453125,0.15760323405265808,0.20341812074184418,-0.19608774781227112
1788043758646756900,15.1597568359375,0.07819075137376785,0.08857546001672745,-0.2730567753314972
1788043758662962400,15.17596240234375,0.006108652334660292,-0.04948008432984352,-0.3090978264808655
1788043758678985200,15.191985107421875,-0.05375614017248154,-0.12522737681865692,-0.23579397797584534
1788043758695569000,15.20856884765625,-0.10201449692249298,-0.1508837193250656,-0.10751228034496307
1788043758711093200,15.22409326171875,-0.12522737681865692,-0.13439035415649414,-0.02076941914856434
1788043758727042600,15.24004248046875,-0.12339477986097336,-0.07819075137376785,0.036041051149368286
1788043758743214800,15.25621484375,-0.13377949595451355,-0.028099801391363144,0.05864306539297104
1788043758759287600,15.27228759765625,-0.17043140530586243,-0.03848451003432274,0.07269296050071716
1788043758775929300,15.288929443359375,-0.21991148591041565,-0.09773843735456467,0.09712757170200348
1788043758791501600,15.30450146484375,-0.26633724570274353,-0.17470745742321014,0.11728613078594208
1788043758807537400,15.320537353515626,-0.2987131178379059,-0.2028072625398636,0.11728613078594208
1788043758823916500,15.33691650390625,-0.33292156457901,-0.22907446324825287,0.06536258012056351
1788043758839965400,15.35296533203125,-0.34086281061172485,-0.24007004499435425,-0.00733038317412138
1788043758856194300,15.3691943359375,-0.3378084897994995,-0.25045475363731384,-0.05253441259264946
1788043758871897000,15.38489697265625,-0.32986724376678467,-0.2376265823841095,-0.04642575979232788
1788043758887851300,15.400851318359376,-0.3225368559360504,-0.2064724564552307,-0.0024434609804302454
1788043758904030500,15.417030517578125,-0.3194825351238251,-0.17348572611808777,0.05375614017248154
1788043758919899100,15.432899169921875,-0.3170390725135803,-0.17043140530586243,0.07513642311096191
1788043758936298800,15.449298828125,-0.34086281061172485,-0.21563543379306793,0.00855211354792118
1788043758952237600,15.465237548828124,-0.36590829491615295,-0.2125810980796814,-0.13072516024112701
1788043758967997700,15.480997802734375,-0.3646865487098694,-0.13500121235847473,-0.2223549485206604
1788043758984217600,15.497217529296876,-0.33597588539123535,-0.01160643994808197,-0.24068090319633484
1788043759000210400,15.51321044921875,-0.27488934993743896,0.13255776464939117,-0.10995574295520782
1788043759016511700,15.52951171875,-0.19364428520202637,0.28527405858039856,0.13011430203914642
1788043759032697600,15.545697509765626,-0.13805554807186127,0.3341432809829712,0.34208452701568604
1788043759048235000,15.561235107421876,-0.09162978827953339,0.31642818450927734,0.513737678527832
1788043759064418000,15.57741796875,-0.051312681287527084,0.24862214922904968,0.5607742667198181
1788043759080401200,15.593401123046876,-0.019547687843441963,0.19914206862449646,0.5155702829360962
1788043759096966700,15.609966552734376,0.005497787147760391,0.10934487730264664,0.39706242084503174
1788043759112473600,15.6254736328125,0.02015855349600315,0.021380282938480377,0.24068090319633484
1788043759128508400,15.64150830078125,0.01771509274840355,-0.05314527451992035,0.08979719132184982
1788043759144886500,15.657886474609375,-0.01160643994808197,-0.15271630883216858,-0.08429940044879913
1788043759160662300,15.673662353515626,-0.07757988572120667,-0.2119702398777008,-0.20463985204696655
1788043759177226500,15.6902265625,-0.18448130786418915,-0.2675589919090271,-0.2687807083129883
1788043759192696000,15.705696044921876,-0.26572638750076294,-0.2565633952617645,-0.27977627515792847
1788043759209263900,15.722263916015624,-0.2932153046131134,-0.16920967400074005,-0.21013765037059784
1788043759225123300,15.738123291015626,-0.2626720666885376,0.02076941914856434,-0.0708603709936142
1788043759240862500,15.753862548828126,-0.20586158335208893,0.16493362188339233,0.02871066704392433
1788043759257286400,15.770286376953125,-0.1466076523065567,0.2718350291252136,0.05192354694008827
1788043759273026600,15.786026611328126,-0.09040805697441101,0.2724458873271942,0.005497787147760391
1788043759289114000,15.802114013671876,-0.05864306539297104,0.1820378452539444,-0.03420845419168472
1788043759305305000,15.81830517578125,-0.04337143152952194,0.04642575979232788,-0.06963863968849182
1788043759321247200,15.834247314453124,-0.02626720629632473,-0.045204028487205505,-0.10873401165008545
1788043759337903000,15.850903076171875,0,-0.06902777403593063,-0.16371189057826996
1788043759353406700,15.86640673828125,0.02626720629632473,-0.06291911751031876,-0.2119702398777008
1788043759369427000,15.882427001953126,0.05864306539297104,-0.036041051149368286,-0.2474004179239273
1788043759385728000,15.89872802734375,0.08552113175392151,0.005497787147760391,-0.24373523890972137
1788043759401571300,15.9145712890625,0.09957103431224823,0.018325956538319588,-0.22296582162380219
1788043759418103800,15.931103759765625,0.1319468915462494,0.06658431142568588,-0.19975294172763824
1788043759433745000,15.946744873046875,0.18875735998153687,0.1319468915462494,-0.16798794269561768
1788043759449826000,15.962825927734375,0.242513507604599,0.17531833052635193,-0.12461651116609573
1788043759465871600,15.97887158203125,0.2987131178379059,0.18631389737129211,-0.05742133408784866
1788043759482087400,15.99508740234375,0.34574973583221436,0.18020524084568024,0.015882495790719986
1788043759498271500,16.011271484375,0.39584067463874817,0.16004669666290283,0.0708603709936142
1788043759513976600,16.0269765625,0.4306600093841553,0.13744467496871948,0.08796459436416626
1788043759530021000,16.043021240234374,0.4746423065662384,0.12461651116609573,0.07330382615327835
1788043759546240300,16.059240234375,0.5198463201522827,0.13377949595451355,0.05009094998240471
1788043759562184200,16.07518408203125,0.5815436840057373,0.1563815027475357,0.04703662544488907
1788043759578771200,16.091771240234376,0.6450737118721008,0.16432274878025055,0.06475171446800232
1788043759594765300,16.107765380859377,0.6536257863044739,0.1313360333442688,0.10018189996480942
1788043759610484700,16.123484619140626,0.6359107494354248,0.033597588539123535,0.1362229436635971
1788043759626526500,16.1395263671875,0.6194173693656921,-0.04398229718208313,0.16737708449363708
1788043759642451000,16.155450927734375,0.5968153476715088,-0.0959058403968811,0.21319197118282318
1788043759658882000,16.171882080078124,0.5913175344467163,-0.1215621829032898,0.26022860407829285
1788043759674667300,16.187667236328124,0.5894849896430969,-0.09957103431224823,0.3029891550540924
1788043759690900700,16.203900634765624,0.5772676467895508,-0.0757472887635231,0.3127630054950714
1788043759707023600,16.220023681640626,0.5552765130996704,-0.09040805697441101,0.25473082065582275
1788043759722819000,16.235819091796873,0.5491678714752197,-0.08979719132184982,0.1563815027475357
1788043759739160300,16.252160400390625,0.5369505286216736,-0.08185594528913498,0.019547687843441963
1788043759754949000,16.26794921875,0.5064072608947754,-0.09834930300712585,-0.08857546001672745
1788043759771009000,16.284009033203127,0.4893030524253845,-0.23029619455337524,-0.13011430203914642
1788043759787176200,16.30017626953125,0.4538728892803192,-0.39217549562454224,-0.04948008432984352
1788043759803099000,16.316098876953124,0.4300491213798523,-0.5448917746543884,0.1411098688840866
1788043759819387000,16.332386962890624,0.4190535545349121,-0.5613851547241211,0.35185837745666504
1788043759843348500,16.356348388671876,0.375071257352829,-0.5064072608947754,0.4593706727027893
1788043759859562800,16.372562744140627,0.32498031854629517,-0.4294382631778717,0.39217549562454224
1788043759875594200,16.38859423828125,0.2724458873271942,-0.28527405858039856,0.2577851414680481
1788043759891412500,16.40441259765625,0.23518311977386475,-0.11850785464048386,0.1459967941045761
1788043759907496000,16.420495849609374,0.21013765037059784,0.010995574295520782,0.09896016865968704
1788043759923479800,16.436479736328124,0.1661553531885147,0.10201449692249298,0.08429940044879913
1788043759940014800,16.453014892578125,0.12034045159816742,0.12095131725072861,0.04642575979232788
1788043759955656700,16.46865673828125,0.11239920556545258,0.10934487730264664,-0.018325956538319588
1788043759971811000,16.48481103515625,0.13439035415649414,0.09162978827953339,-0.056810468435287476
1788043759987789000,16.5007890625,0.16859880089759827,0.09346238523721695,-0.0659734457731247
1788043760004181000,16.517180908203127,0.24068090319633484,0.11362093687057495,-0.019547687843441963
1788043760020136200,16.53313623046875,0.313373863697052,0.1459967941045761,0.022602014243602753
1788043760035890200,16.54889013671875,0.37201693654060364,0.17898350954055786,0.00427605677396059
1788043760051953400,16.564953369140625,0.4147774875164032,0.15393804013729095,-0.07941248267889023
1788043760068215000,16.581215087890627,0.42760565876960754,0.0959058403968811,-0.16065755486488342
1788043760084272000,16.597272216796874,0.4092797040939331,0.02015855349600315,-0.19792033731937408
1788043760100394200,16.613394287109376,0.35246923565864563,-0.021380282938480377,-0.19058994948863983
1788043760116151800,16.62915185546875,0.2974913716316223,-0.027488935738801956,-0.1765400618314743
1788043760132187400,16.6451875,0.25045475363731384,-0.009162978269159794,-0.1722639948129654
1788043760148467200,16.66146728515625,0.2076941877603531,0.018936822190880775,-0.16493362188339233
1788043760164446200,16.6774462890625,0.16493362188339233,0.06230825558304787,-0.14477506279945374
1788043760180998000,16.693997802734376,0.14294247329235077,0.10751228034496307,-0.13011430203914642
1788043760196501000,16.7095009765625,0.1362229436635971,0.16982053220272064,-0.13744467496871948
1788043760213035000,16.726034912109377,0.13805554807186127,0.21380282938480377,-0.14905111491680145
1788043760228642300,16.741642333984377,0.12950342893600464,0.2272418737411499,-0.14477506279945374
1788043760244665000,16.7576650390625,0.11178833991289139,0.2174680233001709,-0.13377949595451355
1788043760261315600,16.774315673828124,0.07513642311096191,0.19364428520202637,-0.13439035415649414
1788043760276828000,16.789827880859374,0.03787364438176155,0.16432274878025055,-0.13988813757896423
1788043760292735700,16.80573583984375,0.014049900695681572,0.1563815027475357,-0.13011430203914642
1788043760309119200,16.822119140625,-0.007941247895359993,0.15271630883216858,-0.10201449692249298
1788043760332931300,16.845931396484374,-0.04153883829712868,0.13500121235847473,-0.03787364438176155
1788043760349133600,16.862133544921875,-0.06230825558304787,0.11301007121801376,-0.0012217304902151227
1788043760365010400,16.878010498046876,-0.0659734457731247,0.09773843735456467,0.02321287989616394
1788043760381557200,16.89455712890625,-0.06536258012056351,0.09346238523721695,0.04764748737215996
1788043760397299500,16.910299560546875,-0.060475658625364304,0.09896016865968704,0.07147123664617538
1788043760413676800,16.9266767578125,-0.06169738993048668,0.09407325088977814,0.07880161702632904
1788043760429378000,16.9423779296875,-0.0555887371301651,0.07513642311096191,0.0659734457731247
1788043760445463800,16.9584638671875,-0.07513642311096191,0.04398229718208313,0.04153883829712868
1788043760461745200,16.9747451171875,-0.09896016865968704,0.028099801391363144,0.015882495790719986
1788043760477625000,16.990625,-0.12034045159816742,0.025045474991202354,-0.0006108652451075613
1788043760493473000,17.00647314453125,-0.1612684279680252,0.025656340643763542,-0.01710422709584236
1788043760509606400,17.0226064453125,-0.19608774781227112,0.02382374368607998,-0.02076941914856434
1788043760525640700,17.038640625,-0.2168571650981903,0.022602014243602753,-0.01160643994808197
1788043760542014700,17.0550146484375,-0.23579397797584534,0.025656340643763542,0.02626720629632473
1788043760557978000,17.07097802734375,-0.251676470041275,0.02321287989616394,0.06963863968849182
1788043760573864200,17.0868642578125,-0.25534167885780334,0.015271631069481373,0.10323622822761536
1788043760589998800,17.102998779296875,-0.2583959996700287,0.006108652334660292,0.1160643994808197
1788043760605977300,17.118977294921876,-0.2773328125476837,-0.006719517521560192,0.1007927656173706
1788043760622459000,17.135458984375,-0.2877175211906433,-0.0024434609804302454,0.07880161702632904
1788043760638129200,17.151129150390624,-0.28466320037841797,0,0.07757988572120667
1788043760654285000,17.16728515625,-0.28527405858039856,-0.012217304669320583,0.07880161702632904
1788043760670743300,17.183743408203124,-0.2938261926174164,-0.04398229718208313,0.059864792972803116
1788043760686333400,17.19933349609375,-0.3066543638706207,-0.0861319974064827,0.04459316283464432
1788043760702732300,17.215732177734374,-0.32009339332580566,-0.09346238523721695,0.03420845419168472
1788043760718473000,17.231472900390624,-0.3182607889175415,-0.0507018156349659,0.028099801391363144
1788043760734875400,17.24787548828125,-0.28588494658470154,0.03176499158143997,0.03298672288656235
1788043760750683100,17.26368310546875,-0.26022860407829285,0.09651670604944229,0.04398229718208313
1788043760766668000,17.27966796875,-0.25106561183929443,0.1215621829032898,0.04398229718208313
1788043760783027500,17.29602734375,-0.24617868661880493,0.10812314599752426,0.022602014243602753
1788043760798743000,17.311742919921876,-0.23457226157188416,0.08491026610136032,-0.0024434609804302454
1788043760814822700,17.32782275390625,-0.19914206862449646,0.09468411654233932,-0.021991148591041565
1788043760831066400,17.34406640625,-0.182648703455925,0.05253441259264946,-0.06475171446800232
1788043760846916900,17.359916748046874,-0.15454891324043274,0.04214970022439957,-0.07452555745840073
1788043760863398100,17.376398193359375,-0.13377949595451355,0.02932153269648552,-0.06780604273080826
1788043760879138000,17.392137939453125,-0.12217304855585098,0.0012217304902151227,-0.036651913076639175
1788043760895025000,17.40802490234375,-0.12217304855585098,-0.03237585723400116,-0.01038470957428217
1788043760911246300,17.424246337890626,-0.10751228034496307,-0.04764748737215996,0.003054326167330146
1788043760927196000,17.44019580078125,-0.12095131725072861,-0.045204028487205505,0.01160643994808197
1788043760943726600,17.4567265625,-0.13500121235847473,-0.04581489413976669,0.010995574295520782
1788043760959275500,17.472275634765627,-0.1270599663257599,-0.0555887371301651,0.001832595793530345
1788043760975790800,17.488790771484375,-0.12767083942890167,-0.06536258012056351,-0.009773843921720982
1788043760991789600,17.50478955078125,-0.1258382350206375,-0.07391469180583954,-0.021991148591041565
1788043761007481000,17.520481201171876,-0.11239920556545258,-0.08246681094169617,-0.02626720629632473
1788043761024029400,17.537029541015624,-0.1007927656173706,-0.08796459436416626,-0.022602014243602753
1788043761039718100,17.55271826171875,-0.09957103431224823,-0.0910189226269722,-0.01771509274840355
1788043761055602700,17.568602783203126,-0.08368854224681854,-0.07391469180583954,-0.012217304669320583
1788043761071714300,17.58471435546875,-0.06291911751031876,-0.05864306539297104,0.0024434609804302454
1788043761087726000,17.60072607421875,-0.03420845419168472,-0.03848451003432274,0.0354301854968071
1788043761104110800,17.61711083984375,-0.01771509274840355,-0.036041051149368286,0.07024950534105301
1788043761120072000,17.633072021484374,-0.00427605677396059,-0.02871066704392433,0.0910189226269722
1788043761135858000,17.64885791015625,0.010995574295520782,-0.021991148591041565,0.0959058403968811
1788043761152060000,17.665059814453127,0.04642575979232788,-0.013439035043120384,0.07941248267889023
1788043761168123100,17.681123046875,0.0403171069920063,-0.02382374368607998,0.056810468435287476
1788043761184507400,17.69750732421875,0.03298672288656235,-0.03298672288656235,0.04398229718208313
1788043761200256000,17.713256103515626,0.04153883829712868,-0.0403171069920063,0.0403171069920063
1788043761216326100,17.729326171875,0.04092797264456749,-0.0403171069920063,0.04459316283464432
1788043761232888300,17.745888427734375,0.04948008432984352,-0.03176499158143997,0.06658431142568588
1788043761248540200,17.7615400390625,0.0757472887635231,-0.024434609338641167,0.09651670604944229
1788043761265023000,17.77802294921875,0.11850785464048386,-0.01710422709584236,0.10873401165008545
1788043761280908300,17.793908203125,0.17959438264369965,-0.02626720629632473,0.10201449692249298
1788043761296597000,17.809596923828124,0.2370157092809677,-0.033597588539123535,0.09224065393209457
1788043761312871700,17.82587158203125,0.30604347586631775,-0.04459316283464432,0.09040805697441101
1788043761328884700,17.841884765625,0.37140607833862305,-0.06475171446800232,0.09040805697441101
1788043761345211600,17.858211669921875,0.4282165467739105,-0.0910189226269722,0.08246681094169617
1788043761360919800,17.873919921875,0.49724429845809937,-0.11484266817569733,0.07819075137376785
1788043761376943600,17.889943603515626,0.5626068711280823,-0.12278391420841217,0.07208210229873657
1788043761393061000,17.90606103515625,0.6163630485534668,-0.11301007121801376,0.0757472887635231
1788043761409105700,17.922105712890627,0.6737843751907349,-0.0861319974064827,0.09957103431224823
1788043761425663500,17.93866357421875,0.7116580009460449,-0.07330382615327835,0.11056660860776901
1788043761441236700,17.95423681640625,0.7483099102973938,-0.06291911751031876,0.08979719132184982
1788043761457395700,17.970395751953124,0.7849618196487427,-0.0708603709936142,0.05619960278272629
1788043761473503500,17.98650341796875,0.8252789378166199,-0.07696902006864548,0.024434609338641167
1788043761489373000,18.002373046875,0.8735373020172119,-0.07880161702632904,0.007941247895359993
1788043761505819400,18.0188193359375,0.9334021210670471,-0.07024950534105301,-0.004886921960860491
1788043761521554200,18.03455419921875,0.9920451641082764,-0.025656340643763542,-0.01710422709584236
1788043761538034700,18.05103466796875,1.0427470207214355,0.007941247895359993,-0.016493361443281174
1788043761553684700,18.066684814453126,1.0787880420684814,0.006719517521560192,0.001832595793530345
1788043761569663500,18.08266357421875,1.1099421977996826,0.00366519158706069,0.042760565876960754
1788043761586060000,18.09906005859375,1.1203268766403198,0.01466076634824276,0.07452555745840073
1788043761601751300,18.114751220703123,1.13926362991333,0.05009094998240471,0.06414084881544113
1788043761617883400,18.13088330078125,1.156978726387024,0.05742133408784866,-0.00855211354792118
1788043761634021000,18.147021240234373,1.1759155988693237,0.025045474991202354,-0.09285151958465576
1788043761650204400,18.163204345703125,1.178359031677246,-0.03726277872920036,-0.15393804013729095
1788043761666579200,18.1795791015625,1.2107349634170532,-0.08552113175392151,-0.18081611394882202
1788043761682334000,18.195333984375,1.2736539840698242,-0.13011430203914642,-0.1869247704744339
1788043761698374400,18.21137451171875,1.341460108757019,-0.15821409225463867,-0.1667662113904953
1788043761714358500,18.227358642578125,1.4190399646759033,-0.10018189996480942,-0.09712757170200348
1788043761730849800,18.243849853515623,1.5082262754440308,0.029932396486401558,-0.0012217304902151227
1788043761746820600,18.259820556640626,1.5913039445877075,0.18875735998153687,0.08918632566928864
1788043761762604000,18.27560400390625,1.6377297639846802,0.2767219543457031,0.11423180252313614
1788043761778613000,18.291613037109375,1.6682729721069336,0.30543261766433716,0.10384709388017654
1788043761795049500,18.308049560546873,1.6908750534057617,0.27550023794174194,0.0757472887635231
1788043761810705400,18.323705322265624,1.7104226350784302,0.23884831368923187,0.06169738993048668
1788043761827207700,18.340207763671874,1.7189748287200928,0.2223549485206604,0.0659734457731247
1788043761842671600,18.355671630859376,1.7263051271438599,0.23335053026676178,0.06963863968849182
1788043761858676700,18.3716767578125,1.748907208442688,0.2638937830924988,0.05619960278272629
1788043761874948000,18.387947998046876,1.7678439617156982,0.2883284091949463,0.025045474991202354
1788043761891133400,18.404133544921876,1.7886134386062622,0.2987131178379059,0.00855211354792118
1788043761907338000,18.420337890625,1.825876235961914,0.29077184200286865,0.016493361443281174
1788043761923063000,18.43606298828125,1.8839083909988403,0.29565876722335815,0.039706241339445114
1788043761939020500,18.4520205078125,1.948660135269165,0.3274237811565399,0.0659734457731247
1788043761955612000,18.46861181640625,2.03540301322937,0.37629300355911255,0.09285151958465576
1788043761971225600,18.4842255859375,2.1093177795410156,0.4288274049758911,0.09834930300712585
1788043761987761700,18.50076171875,2.1697933673858643,0.4642575979232788,0.06475171446800232
1788043762003352800,18.516352783203125,2.2204952239990234,0.5143485069274902,-0.029932396486401558
1788043762019362800,18.53236279296875,2.2620339393615723,0.5345070958137512,-0.1563815027475357
1788043762035718400,18.548718505859377,2.2901337146759033,0.494189977645874,-0.26450464129447937
1788043762052006000,18.565005859375,2.285857677459717,0.4288274049758911,-0.28588494658470154
1788043762067988200,18.58098828125,2.2650883197784424,0.33292156457901,-0.21807889640331268
1788043762084110300,18.5971103515625,2.249816656112671,0.24434609711170197,-0.10873401165008545
1788043762099667200,18.612667236328125,2.2290472984313965,0.2028072625398636,-0.04337143152952194
1788043762115826200,18.628826171875,2.1710150241851807,0.17409659922122955,-0.03481931984424591
1788043762132169700,18.645169677734376,2.1142046451568604,0.2015855312347412,-0.0861319974064827
1788043762148347100,18.66134716796875,2.073887586593628,0.22846360504627228,-0.1472185254096985
1788043762164315100,18.677315185546874,2.0451767444610596,0.2730567753314972,-0.2064724564552307
1788043762180138200,18.69313818359375,2.034792184829712,0.29565876722335815,-0.2370157092809677
1788043762196307200,18.70930712890625,2.0030272006988525,0.3274237811565399,-0.21502456068992615
1788043762212254200,18.725254150390626,1.9614882469177246,0.30482175946235657,-0.16798794269561768
1788043762228865000,18.741864990234376,1.9449949264526367,0.22602014243602753,-0.1160643994808197
1788043762244441900,18.75744189453125,1.8765780925750732,0.17837265133857727,-0.08491026610136032
1788043762260585000,18.7735849609375,1.814269781112671,0.14233160018920898,-0.07330382615327835
1788043762276706600,18.78970654296875,1.7696765661239624,0.1667662113904953,-0.08124507963657379
1788043762292659500,18.805659423828125,1.7678439617156982,0.22357667982578278,-0.12217304855585098
1788043762309003800,18.822003662109374,1.7660114765167236,0.2571742534637451,-0.17348572611808777
1788043762324978200,18.837978271484374,1.7470746040344238,0.252287358045578,-0.18631389737129211
1788043762341019600,18.85401953125,1.7232508659362793,0.20891591906547546,-0.17531833052635193
1788043762357319700,18.870319580078124,1.7134770154953003,0.13377949595451355,-0.16065755486488342
1788043762373275400,18.886275390625,1.6798794269561768,0.05192354694008827,-0.14782938361167908
1788043762389358600,18.902358642578125,1.6450600624084473,-0.031154127791523933,-0.13255776464939117
1788043762405103900,18.918103759765625,1.6108516454696655,-0.0708603709936142,-0.1111774742603302
1788043762421105400,18.93410546875,1.5833626985549927,-0.09468411654233932,-0.10018189996480942
1788043762437265200,18.95026513671875,1.5497651100158691,-0.10567969083786011,-0.1014036312699318
1788043762453250000,18.96625,1.5369369983673096,-0.10934487730264664,-0.1007927656173706
1788043762469746700,18.98274658203125,1.529606580734253,-0.11056660860776901,-0.09529497474431992
1788043762485449000,18.998448974609374,1.5137240886688232,-0.1411098688840866,-0.09468411654233932
1788043762501441500,19.014441650390626,1.5045610666275024,-0.1661553531885147,-0.08368854224681854
1788043762517879800,19.0308798828125,1.5161675214767456,-0.1722639948129654,-0.0354301854968071
1788043762533638000,19.046637939453124,1.5277739763259888,-0.15882496535778046,0.01466076634824276
1788043762550211000,19.063211181640625,1.5326608419418335,-0.12889257073402405,0.05253441259264946
1788043762565974300,19.078974365234377,1.5338826179504395,-0.10201449692249298,0.04214970022439957
1788043762581782800,19.09478271484375,1.5448782444000244,-0.09651670604944229,0.02076941914856434
1788043762597947600,19.11094775390625,1.5546520948410034,-0.10262536257505417,-0.0006108652451075613
1788043762614408200,19.127408203125,1.549154281616211,-0.11362093687057495,-0.027488935738801956
1788043762630507800,19.1435078125,1.5351043939590454,-0.12461651116609573,-0.051312681287527084
1788043762646189600,19.159189453125,1.5106697082519531,-0.14416420459747314,-0.09285151958465576
1788043762662216000,19.1752158203125,1.4654656648635864,-0.17409659922122955,-0.20341812074184418
1788043762678268400,19.191268310546874,1.4184291362762451,-0.19425514340400696,-0.3604104816913605
1788043762694698200,19.2076982421875,1.389107584953308,-0.17104226350784302,-0.46181413531303406
1788043762710800100,19.223800048828124,1.3732250928878784,-0.14538592100143433,-0.45142942667007446
1788043762726486300,19.239486328125,1.351233959197998,-0.11545353382825851,-0.2828305959701538
1788043762742358300,19.255358154296875,1.3115277290344238,-0.0806342139840126,-0.054367005825042725
1788043762758541000,19.271541015625,1.291369080543518,-0.02626720629632473,0.07330382615327835
1788043762774513000,19.287512939453126,1.2889256477355957,0.04581489413976669,0.07941248267889023
1788043762791076600,19.30407666015625,1.2809844017028809,0.1014036312699318,-0.012217304669320583
1788043762806656000,19.319656005859375,1.2907582521438599,0.1875356286764145,-0.08002334833145142
1788043762822670300,19.33567041015625,1.3225232362747192,0.2816088795661926,-0.11850785464048386
1788043762838834200,19.351834228515624,1.338405728340149,0.3341432809829712,-0.13744467496871948
1788043762855250200,19.368250244140626,1.3255776166915894,0.3176499307155609,-0.17104226350784302
1788043762871373000,19.384373046875,1.2944234609603882,0.22846360504627228,-0.2376265823841095
1788043762886896400,19.399896484375,1.274264931678772,0.11362093687057495,-0.32131510972976685
1788043762902980400,19.41598046875,1.2785409688949585,0.04764748737215996,-0.3628539443016052
1788043762919230200,19.432230224609373,1.2864822149276733,0.014049900695681572,-0.3591887652873993
1788043762935145700,19.448145751953124,1.3292428255081177,0.025656340643763542,-0.3023782968521118
1788043762951694600,19.464694580078124,1.3811663389205933,0.09651670604944229,-0.20463985204696655
1788043762967241000,19.480240966796874,1.4049900770187378,0.11239920556545258,-0.10201449692249298
1788043762983390700,19.496390625,1.3903292417526245,0.051312681287527084,0.01038470957428217
1788043762999627300,19.512627197265626,1.370781660079956,-0.05375614017248154,0.08307767659425735
1788043763015419600,19.528419677734377,1.348179578781128,-0.10995574295520782,0.08979719132184982
1788043763032002800,19.5450029296875,1.3158037662506104,-0.14355333149433136,0.03726277872920036
1788043763047746000,19.56074609375,1.2748757600784302,-0.17959438264369965,-0.03787364438176155
1788043763064080000,19.577079833984374,1.2205088138580322,-0.18387043476104736,-0.09346238523721695
1788043763079846400,19.592846435546875,1.1740829944610596,-0.1466076523065567,-0.11789698898792267
1788043763095794200,19.608794189453125,1.1233811378479004,-0.05864306539297104,-0.1319468915462494
1788043763112291000,19.625291015625,1.081842303276062,0.04092797264456749,-0.12828169763088226
1788043763127867600,19.64086767578125,1.0488556623458862,0.08918632566928864,-0.13011430203914642
1788043763144318700,19.657318603515623,1.026253581047058,0.1160643994808197,-0.1270599663257599
1788043763160125700,19.673125732421877,1.0238101482391357,0.1319468915462494,-0.1062905490398407
1788043763176626700,19.689626708984374,1.0317513942718506,0.1270599663257599,-0.07391469180583954
1788043763192754200,19.705754150390625,1.056796908378601,0.12217304855585098,-0.042760565876960754
1788043763208554500,19.721554443359373,1.0855075120925903,0.09407325088977814,-0.004886921960860491
1788043763224235500,19.737235595703126,1.1074986457824707,0.09162978827953339,0.029932396486401558
1788043763240500200,19.753500244140625,1.1081095933914185,0.07269296050071716,0.036041051149368286
1788043763256450300,19.7694501953125,1.0891727209091187,0.03726277872920036,0.021991148591041565
1788043763273055700,19.7860556640625,1.0506882667541504,-0.0024434609804302454,0.028099801391363144
