time,seconds_elapsed,z,y,x
1788043743671810000,0.18481005859375,-198.52000427246094,-54.09800338745117,129.4510040283203
1788043743687726000,0.20072607421875,-200.32301330566406,-27.61600112915039,146.1890106201172
1788043743704400600,0.217400634765625,-199.99900817871094,-28.154001235961914,146.08200073242188
1788043743719885800,0.2328857421875,-199.75900268554688,-27.489002227783203,147.71800231933594
1788043743735849700,0.248849609375,-199.3380126953125,-27.924001693725586,147.30599975585938
1788043743751998000,0.264998046875,-198.791015625,-28.564001083374023,147.60501098632812
1788043743768110000,0.281110107421875,-200.62901306152344,-27.500001907348633,146.802001953125
1788043743784595000,0.297594970703125,-199.88900756835938,-27.61100196838379,146.59600830078125
1788043743800228600,0.313228515625,-200.3100128173828,-27.39200210571289,146.9040069580078
1788043743816197600,0.32919775390625,-200.4130096435547,-27.930002212524414,146.69601440429688
1788043743832726300,0.345726318359375,-198.927001953125,-27.06800079345703,147.2110137939453
1788043743848173000,0.361173095703125,-199.77801513671875,-27.284000396728516,147.00601196289062
1788043743865133000,0.378133056640625,-202.0360107421875,-25.893001556396484,146.614013671875
1788043743880878000,0.393878173828125,-199.7010040283203,-26.654001235961914,146.09500122070312
1788043743896655000,0.409655029296875,-199.24801635742188,-26.7450008392334,147.31600952148438
1788043743912500700,0.425500732421875,-200.4770050048828,-28.661001205444336,148.1160125732422
1788043743928481500,0.4414814453125,-197.24600219726562,-26.75800132751465,146.60000610351562
1788043743944943900,0.45794384765625,-200.1280059814453,-25.6820011138916,146.61300659179688
1788043743960517600,0.473517578125,-200.32301330566406,-27.400001525878906,146.2930145263672
1788043743985917000,0.4989169921875,-200.74400329589844,-27.72100067138672,146.29100036621094
1788043744000986400,0.513986328125,-199.6850128173828,-26.968000411987305,146.6020050048828
1788043744016976600,0.5299765625,-199.8780059814453,-27.928001403808594,146.8990020751953
1788043744033204500,0.54620458984375,-200.09100341796875,-27.821001052856445,146.90000915527344
1788043744056969200,0.56996923828125,-200.43101501464844,-27.617000579833984,146.08700561523438
1788043744073163300,0.586163330078125,-197.5570068359375,-27.8330020904541,146.2860107421875
1788043744088835300,0.60183544921875,-200.10101318359375,-26.96200180053711,147.010009765625
1788043744105411600,0.61841162109375,-201.15501403808594,-27.496002197265625,147.00601196289062
1788043744120989200,0.6339892578125,-198.8610076904297,-26.985000610351562,145.48001098632812
1788043744137405400,0.650405517578125,-199.65101623535156,-26.948001861572266,148.1300048828125
1788043744153141500,0.6661416015625,-200.09400939941406,-27.174001693725586,147.2110137939453
1788043744169025300,0.682025390625,-199.03700256347656,-27.61100196838379,146.69700622558594
1788043744186106400,0.6991064453125,-199.87001037597656,-27.816001892089844,147.3070068359375
1788043744201225500,0.7142255859375,-198.6060028076172,-27.39200210571289,147.1060028076172
1788043744217199600,0.73019970703125,-198.84300231933594,-26.75800132751465,146.3990020751953
1788043744233372400,0.746372314453125,-198.27200317382812,-28.031002044677734,147.40501403808594
1788043744249308400,0.762308349609375,-200.5360107421875,-27.184001922607422,146.39700317382812
1788043744265910500,0.77891064453125,-200.5120086669922,-27.602001190185547,147.2080078125
1788043744281462500,0.794462646484375,-198.94100952148438,-26.86100196838379,146.7030029296875
1788043744297592600,0.810592529296875,-199.86801147460938,-27.814001083374023,147.4090118408203
1788043744313666000,0.826666015625,-198.71701049804688,-27.394001007080078,146.90200805664062
1788043744329573400,0.842573486328125,-199.6400146484375,-28.238000869750977,147.81300354003906
1788043744346290700,0.859290771484375,-200.30601501464844,-27.498001098632812,147.0050048828125
1788043744361817000,0.874817138671875,-199.79501342773438,-27.078001022338867,146.39700317382812
1788043744377729000,0.89072900390625,-201.99600219726562,-28.46200180053711,146.79501342773438
1788043744394284800,0.907284912109375,-200.03700256347656,-26.880001068115234,145.177001953125
1788043744409707500,0.92270751953125,-200.3260040283203,-27.4010009765625,146.19100952148438
1788043744426285600,0.93928564453125,-201.07501220703125,-26.323001861572266,146.6090087890625
1788043744441878500,0.95487841796875,-199.77301025390625,-27.173002243041992,147.31300354003906
1788043744457983200,0.970983154296875,-201.2650146484375,-26.418001174926758,147.52500915527344
1788043744474055400,0.987055419921875,-200.72500610351562,-27.601001739501953,147.2080078125
1788043744489959700,1.002959716796875,-197.98800659179688,-26.540000915527344,146.8070068359375
1788043744506706000,1.019705810546875,-200.85301208496094,-26.858001708984375,146.7060089111328
1788043744522245400,1.035245361328125,-199.14801025390625,-27.28900146484375,146.70001220703125
1788043744538287000,1.051287109375,-200.62200927734375,-28.036001205444336,146.79701232910156
1788043744554577700,1.06757763671875,-198.73001098632812,-26.75400161743164,146.70401000976562
1788043744570525400,1.083525390625,-200.44500732421875,-27.73400115966797,145.3730010986328
1788043744587053000,1.100052978515625,-198.5050048828125,-27.71900177001953,146.69500732421875
1788043744602869500,1.115869384765625,-199.4530029296875,-28.253002166748047,146.69200134277344
1788043744618600400,1.131600341796875,-200.75001525878906,-27.61600112915039,146.0880126953125
1788043744634776600,1.147776611328125,-201.17601013183594,-25.672000885009766,147.22601318359375
1788043744651199500,1.164199462890625,-200.53001403808594,-26.64000129699707,147.01300048828125
1788043744667536600,1.18053662109375,-200.54000854492188,-27.942001342773438,145.7790069580078
1788043744682897400,1.1958974609375,-199.66200256347656,-27.170001983642578,147.5170135498047
1788043744698834700,1.211834716796875,-199.15000915527344,-25.77800178527832,147.5279998779297
1788043744715015400,1.228015380859375,-200.61300659179688,-28.35500144958496,146.9980010986328
1788043744730921000,1.2439208984375,-198.52801513671875,-26.86800193786621,146.19300842285156
1788043744747515600,1.260515625,-199.36001586914062,-26.64000129699707,147.11300659179688
1788043744763736800,1.27673681640625,-199.24501037597656,-26.959001541137695,147.3140106201172
1788043744779081500,1.29208154296875,-198.62501525878906,-27.187002182006836,146.39500427246094
1788043744795248000,1.308248046875,-199.57701110839844,-26.643001556396484,146.91000366210938
1788043744811208700,1.324208740234375,-200.1090087890625,-26.751001358032227,146.80801391601562
1788043744827850200,1.340850341796875,-201.89100646972656,-27.707000732421875,147.20899963378906
1788043744843434800,1.356434814453125,-198.39801025390625,-26.96200180053711,147.2110137939453
1788043744859434200,1.372434326171875,-199.78500366210938,-27.937002182006836,146.2880096435547
1788043744875495200,1.3884951171875,-199.80101013183594,-26.649002075195312,146.4010009765625
1788043744891421700,1.404421630859375,-199.16700744628906,-26.220001220703125,146.50601196289062
1788043744908353800,1.421353759765625,-198.75201416015625,-26.875001907348633,145.6840057373047
1788043744923571500,1.436571533203125,-200.40701293945312,-27.062002182006836,147.51800537109375
1788043744939712800,1.452712646484375,-199.79600524902344,-25.998001098632812,147.01800537109375
1788043744956175000,1.469175048828125,-200.72201538085938,-27.2760009765625,147.5170135498047
1788043744971640000,1.48464013671875,-199.79800415039062,-27.512001037597656,145.9860076904297
1788043744988358100,1.501358154296875,-198.39801025390625,-26.746002197265625,147.31500244140625
1788043745004288000,1.5172880859375,-198.22401428222656,-26.121000289916992,145.99600219726562
1788043745019919400,1.53291943359375,-200.09701538085938,-27.06800079345703,147.1110076904297
1788043745036089600,1.549089599609375,-199.0330047607422,-27.608001708984375,146.9010009765625
1788043745052013000,1.565012939453125,-200.97201538085938,-26.757001876831055,146.19801330566406
1788043745068842800,1.5818427734375,-199.68701171875,-26.321001052856445,146.9130096435547
1788043745084208000,1.5972080078125,-200.1400146484375,-24.608001708984375,146.72500610351562
1788043745100187100,1.613187255859375,-200.43800354003906,-25.784000396728516,146.91900634765625
1788043745116389000,1.62938916015625,-200.0130157470703,-27.62200164794922,145.781005859375
1788043745132395300,1.645395263671875,-199.60801696777344,-25.905000686645508,146
1788043745149157400,1.662157470703125,-199.70701599121094,-25.57600212097168,146.5120086669922
1788043745164436500,1.6774365234375,-199.51400756835938,-25.48000144958496,145.69801330566406
1788043745180410400,1.693410400390625,-199.29000854492188,-25.150001525878906,146.4130096435547
1788043745196624400,1.709624267578125,-200.3780059814453,-24.94700050354004,145.39801025390625
1788043745213046000,1.7260458984375,-201.1120147705078,-25.26500129699707,145.60000610351562
1788043745229185800,1.742185791015625,-198.3520050048828,-23.865001678466797,146.42401123046875
1788043745244980200,1.757980224609375,-199.0850067138672,-24.181001663208008,146.7270050048828
1788043745260908500,1.773908447265625,-199.41900634765625,-23.326000213623047,146.531005859375
1788043745276966000,1.7899658203125,-199.2150115966797,-25.060001373291016,145.0900115966797
1788043745292921900,1.805921875,-200.79501342773438,-23.970001220703125,146.32400512695312
1788043745309627400,1.82262744140625,-199.427001953125,-24.62700080871582,145.3990020751953
1788043745325121800,1.838121826171875,-200.0640106201172,-24.411001205444336,145.50401306152344
1788043745341068500,1.854068603515625,-199.38400268554688,-24.601001739501953,147.3350067138672
1788043745357253600,1.870253662109375,-199.50401306152344,-26.339000701904297,145.5880126953125
1788043745373171700,1.886171630859375,-200.86300659179688,-24.81100082397461,147.53900146484375
1788043745389926700,1.9029267578125,-198.6540069580078,-25.908000946044922,145.89700317382812
1788043745405434600,1.9184345703125,-200.58900451660156,-24.838001251220703,145.50100708007812
1788043745421469000,1.934468994140625,-201.3100128173828,-25.148000717163086,146.3140106201172
1788043745437678000,1.950677978515625,-198.55101013183594,-24.72100067138672,146.51800537109375
1788043745453635800,1.9666357421875,-200.16000366210938,-24.512001037597656,145.9110107421875
1788043745470470100,1.98347021484375,-198.510009765625,-23.788002014160156,144.18301391601562
1788043745485675300,1.99867529296875,-201.56100463867188,-23.98200035095215,145.30599975585938
1788043745501707000,2.01470703125,-201.76800537109375,-23.546001434326172,145.81900024414062
1788043745518413000,2.0314130859375,-199.9630126953125,-24.738000869750977,145.09400939941406
1788043745534359800,2.04735986328125,-200.2860107421875,-24.200000762939453,145.2010040283203
1788043745550722000,2.06372216796875,-199.8610076904297,-25.60500144958496,144.3730010986328
1788043745566687500,2.0796875,-199.72300720214844,-25.910001754760742,145.59201049804688
1788043745582017300,2.095017333984375,-201.1320037841797,-23.98000144958496,145.50900268554688
1788043745598283800,2.11128369140625,-200.3000030517578,-23.560001373291016,145.0030059814453
1788043745614272300,2.127272216796875,-200.7550048828125,-22.49700164794922,144.29901123046875
1788043745630866000,2.143865966796875,-200.0880126953125,-23.34400177001953,145.1060028076172
1788043745646403000,2.159403076171875,-199.96701049804688,-23.768001556396484,145.510009765625
1788043745662359800,2.17535986328125,-198.71800231933594,-23.569000244140625,144.4910125732422
1788043745678521300,2.191521240234375,-200.41000366210938,-24.427001953125,144.28201293945312
1788043745694461000,2.2074609375,-199.46900939941406,-23.356000900268555,144.29000854492188
1788043745710989800,2.22398974609375,-199.64700317382812,-23.875001907348633,145.5080108642578
1788043745727261000,2.240260986328125,-199.2360076904297,-23.34400177001953,145.20700073242188
1788043745742590500,2.255590576171875,-199.14401245117188,-23.02800178527832,144.802001953125
1788043745758764300,2.271764404296875,-199.43600463867188,-23.769001007080078,145.50900268554688
1788043745775381500,2.288381591796875,-199.44801330566406,-22.26300048828125,145.9300079345703
1788043745791340500,2.304340576171875,-200.67300415039062,-23.96000099182129,147.03700256347656
1788043745807188500,2.3201884765625,-200.92401123046875,-24.19900131225586,145.2010040283203
1788043745831903200,2.3449033203125,-202.8260040283203,-24.191001892089844,145.6110076904297
1788043745847288600,2.36028857421875,-201.5860137939453,-24.213001251220703,144.08200073242188
1788043745863361800,2.37636181640625,-201.13101196289062,-24.08700180053711,145.5080108642578
1788043745880025000,2.393025146484375,-200.281005859375,-25.062000274658203,144.8870086669922
1788043745895463400,2.40846337890625,-202.38101196289062,-25.476001739501953,145.7010040283203
1788043745912377900,2.4253779296875,-201.1020050048828,-26.339000701904297,145.38600158691406
1788043745928092400,2.441092529296875,-201.35000610351562,-24.415000915527344,144.99600219726562
1788043745943708400,2.45670849609375,-200.26800537109375,-24.51300048828125,145.8090057373047
1788043745959963600,2.472963623046875,-200.3820037841797,-25.92300033569336,144.57400512695312
1788043745975761400,2.488761474609375,-199.19300842285156,-25.155000686645508,146.00601196289062
1788043745992659200,2.5056591796875,-201.27801513671875,-26.317001342773438,147.0170135498047
1788043746007853800,2.520853759765625,-199.8090057373047,-26.006000518798828,146.406005859375
1788043746024138200,2.53713818359375,-200.7860107421875,-25.801000595092773,145.59500122070312
1788043746040009700,2.553009765625,-200.0240020751953,-25.683000564575195,146.51100158691406
1788043746056248300,2.569248291015625,-200.8780059814453,-26.3330020904541,145.89601135253906
1788043746072733200,2.585733154296875,-201.52101135253906,-27.09200096130371,145.177001953125
1788043746088200400,2.601200439453125,-200.4350128173828,-27.511001586914062,145.9860076904297
1788043746104212500,2.61721240234375,-201.71200561523438,-27.619001388549805,145.7830047607422
1788043746120294000,2.6332939453125,-202.22300720214844,-27.606000900268555,146.7010040283203
1788043746136714500,2.649714599609375,-202.2080078125,-27.81300163269043,147.2080078125
1788043746153003800,2.666003662109375,-201.74600219726562,-26.45100212097168,144.97900390625
1788043746168376300,2.681376220703125,-201.27000427246094,-29.014001846313477,145.66900634765625
1788043746185233400,2.6982333984375,-203.60501098632812,-28.145000457763672,146.29100036621094
1788043746200664000,2.7136640625,-202.1380157470703,-27.727001190185547,145.68099975585938
1788043746216687900,2.72968798828125,-202.86001586914062,-27.389001846313477,146.80599975585938
1788043746233254000,2.74625390625,-202.75100708007812,-27.928001403808594,146.5970001220703
1788043746248963800,2.7619638671875,-202.1060028076172,-29.545001983642578,145.97100830078125
1788043746265512200,2.77851220703125,-204.2360076904297,-29.22100067138672,145.87400817871094
1788043746281076200,2.794076171875,-199.2740020751953,-28.490001678466797,145.0600128173828
1788043746297158700,2.81015869140625,-201.489013671875,-28.3700008392334,145.77700805664062
1788043746313591000,2.826591064453125,-201.791015625,-28.46700096130371,146.489013671875
1788043746329199600,2.84219970703125,-200.9350128173828,-28.897001266479492,146.4840087890625
1788043746345331500,2.85833154296875,-202.6380157470703,-28.248001098632812,146.69601440429688
1788043746361312000,2.87431201171875,-200.96600341796875,-27.83500099182129,145.781005859375
1788043746377329400,2.890329345703125,-201.6020050048828,-29.34600067138672,144.85101318359375
1788043746393886700,2.90688671875,-202.85400390625,-29.33100128173828,145.87200927734375
1788043746409441300,2.922441162109375,-202.6160125732422,-29.532001495361328,146.88800048828125
1788043746425752000,2.938751953125,-201.80201721191406,-29.12200164794922,145.56700134277344
1788043746442088200,2.955088134765625,-203.0430145263672,-29.85700225830078,146.5800018310547
1788043746457648400,2.9706484375,-202.62501525878906,-29.86100196838379,146.2740020751953
1788043746474484700,2.987484619140625,-201.71800231933594,-29.136001586914062,144.54800415039062
1788043746489710000,3.0027099609375,-201.39601135253906,-28.269001007080078,145.26800537109375
1788043746505685200,3.018685302734375,-203.61900329589844,-27.613000869750977,145.99000549316406
1788043746521812200,3.034812255859375,-202.1580047607422,-29.36100196838379,143.7310028076172
1788043746537855200,3.050855224609375,-201.92300415039062,-29.023000717163086,144.9560089111328
1788043746554533400,3.067533447265625,-203.0070037841797,-29.251001358032227,143.8350067138672
1788043746570113500,3.083113525390625,-202.4840087890625,-28.82400131225586,143.7360076904297
1788043746586067200,3.099067138671875,-200.3590087890625,-27.96200180053711,144.35301208496094
1788043746602121500,3.11512158203125,-202.60801696777344,-28.83500099182129,142.92201232910156
1788043746618190300,3.1311904296875,-203.1420135498047,-28.296001434326172,143.13101196289062
1788043746634947600,3.147947509765625,-200.89100646972656,-28.178001403808594,144.14801025390625
1788043746650462200,3.163462158203125,-199.96800231933594,-27.659000396728516,143.03001403808594
1788043746666294800,3.179294677734375,-199.84600830078125,-29.48600196838379,142.6070098876953
1788043746682878000,3.1958779296875,-200.5900115966797,-28.08100128173828,143.4350128173828
1788043746698977800,3.211977783203125,-200.82501220703125,-27.446001052856445,142.8300018310547
1788043746715203600,3.22820361328125,-199.2060089111328,-28.51300048828125,143.3280029296875
1788043746730515200,3.24351513671875,-199.44601440429688,-27.341001510620117,142.82901000976562
1788043746747264300,3.26026416015625,-198.82400512695312,-27.24300193786621,142.21800231933594
1788043746762898000,3.27589794921875,-200.28700256347656,-28.631000518798828,142.4110107421875
1788043746779020000,3.29202001953125,-199.86700439453125,-27.446001052856445,142.9300079345703
1788043746795597300,3.308597412109375,-199.86001586914062,-27.98200225830078,142.92601013183594
1788043746810855200,3.323855224609375,-200.1920166015625,-27.990001678466797,142.31500244140625
1788043746826896100,3.339896240234375,-198.39401245117188,-27.781002044677734,142.1110076904297
1788043746843111000,3.35611083984375,-199.24200439453125,-27.562002182006836,142.31700134277344
1788043746859171300,3.37217138671875,-200.5080108642578,-27.66400146484375,142.62400817871094
1788043746875795200,3.388795166015625,-198.21900939941406,-26.72300148010254,141.10101318359375
1788043746891137800,3.4041376953125,-198.62501525878906,-27.57600212097168,141.40000915527344
1788043746907578600,3.42057861328125,-198.2840118408203,-28.535001754760742,141.79800415039062
1788043746923536000,3.436535888671875,-200.44500732421875,-28.338001251220703,140.27500915527344
1788043746939317200,3.452317138671875,-199.14601135253906,-28.10900115966797,141.49700927734375
1788043746956246800,3.469246826171875,-199.81300354003906,-28.126001358032227,140.17401123046875
1788043746971584000,3.484583984375,-196.94100952148438,-27.155000686645508,140.99400329589844
1788043746987690800,3.500690673828125,-197.2630157470703,-27.913002014160156,140.37600708007812
1788043747004155100,3.517155029296875,-197.22300720214844,-29.51000213623047,141.177001953125
1788043747019657500,3.532657470703125,-197.1300048828125,-28.545001983642578,141.1850128173828
1788043747036224800,3.549224853515625,-196.2130126953125,-27.70600128173828,139.96900939941406
1788043747051708400,3.56470849609375,-197.3560028076172,-27.905000686645508,140.98800659179688
1788043747067706600,3.58070654296875,-196.37501525878906,-29.72800064086914,140.97000122070312
1788043747083870500,3.596870361328125,-196.7200164794922,-29.636001586914062,139.85101318359375
1788043747099892500,3.612892578125,-197.02301025390625,-30.707000732421875,139.84201049804688
1788043747116526300,3.6295263671875,-196.5830078125,-30.698001861572266,140.5550079345703
1788043747132048600,3.645048583984375,-196.70201110839844,-30.922000885009766,139.8400115966797
1788043747148108300,3.6611083984375,-197.98001098632812,-29.625001907348633,140.46400451660156
1788043747164332300,3.677332275390625,-198.17800903320312,-31.0210018157959,140.2480010986328
1788043747180246500,3.69324658203125,-197.26901245117188,-29.106000900268555,139.3470001220703
1788043747196927500,3.709927490234375,-198.1110076904297,-29.64000129699707,139.34300231933594
1788043747212402200,3.725402099609375,-197.34400939941406,-29.086000442504883,140.77301025390625
1788043747228357400,3.741357421875,-197.427001953125,-30.910001754760742,140.656005859375
1788043747244526300,3.7575263671875,-196.9130096435547,-30.380001068115234,140.25201416015625
1788043747260974300,3.773974365234375,-195.39700317382812,-31.66200065612793,140.7480010986328
1788043747277239800,3.79023974609375,-197.84100341796875,-31.011001586914062,141.06300354003906
1788043747292660500,3.805660400390625,-197.10501098632812,-30.367000579833984,141.16900634765625
1788043747308609500,3.821609619140625,-199.31300354003906,-31.10700225830078,141.6750030517578
1788043747324899300,3.8378994140625,-199.23800659179688,-30.802001953125,140.4550018310547
1788043747340822300,3.853822265625,-197.00401306152344,-29.830001831054688,141.2760009765625
1788043747357473000,3.87047314453125,-197.510009765625,-30.78700065612793,141.77700805664062
1788043747372885000,3.885885009765625,-198.34100341796875,-31.315000534057617,142.2830047607422
1788043747388938000,3.90193798828125,-196.96600341796875,-32.51000213623047,141.25201416015625
1788043747405131500,3.918131591796875,-197.63101196289062,-30.68800163269043,141.16700744628906
1788043747421104000,3.934104248046875,-197.489013671875,-30.775001525878906,142.69400024414062
1788043747437719800,3.9507197265625,-197.8900146484375,-31.841001510620117,143.09300231933594
1788043747453200000,3.966199951171875,-198.1110076904297,-31.413002014160156,142.99501037597656
1788043747469170200,3.982170166015625,-196.71800231933594,-33.137001037597656,142.46900939941406
1788043747485384200,3.99838427734375,-197.59400939941406,-31.746002197265625,142.17601013183594
1788043747501410600,4.01441064453125,-197.2370147705078,-33.02000045776367,143.08200073242188
1788043747518346000,4.031345947265625,-197.6890106201172,-32.0629997253418,142.47900390625
1788043747533474300,4.046474365234375,-196.8310089111328,-32.492000579833984,142.5760040283203
1788043747549503500,4.06250341796875,-197.1160125732422,-32.147003173828125,144.31100463867188
1788043747566275600,4.079275634765625,-196.2860107421875,-31.836002349853516,143.60000610351562
1788043747581746200,4.09474609375,-197.49501037597656,-30.886001586914062,142.38800048828125
1788043747598347800,4.11134765625,-196.49301147460938,-31.72500228881836,143.90701293945312
1788043747613956600,4.12695654296875,-197.34800720214844,-33.34700012207031,142.67100524902344
1788043747629960200,4.142960205078125,-197.66500854492188,-32.91400146484375,142.9810028076172
1788043747645976300,4.158976318359375,-197.22300720214844,-32.90400314331055,143.79600524902344
1788043747662061300,4.175061279296875,-198.0070037841797,-30.226001739501953,143.6160125732422
1788043747678770000,4.19177001953125,-199.031005859375,-32.147003173828125,144.11000061035156
1788043747694131700,4.207131591796875,-198.40301513671875,-33.342002868652344,142.97801208496094
1788043747710184400,4.223184326171875,-196.46200561523438,-33.327003479003906,144.3000030517578
1788043747726242000,4.239241943359375,-197.59300231933594,-31.96200180053711,142.07301330566406
1788043747743010300,4.25601025390625,-199.1320037841797,-31.387001037597656,144.8300018310547
1788043747758792000,4.2717919921875,-198.802001953125,-32.24400329589844,144.82200622558594
1788043747774805800,4.2878056640625,-197.99200439453125,-30.865001678466797,143.91600036621094
1788043747790310000,4.303309814453125,-196.37001037597656,-30.9580020904541,145.13600158691406
1788043747806513200,4.31951318359375,-197.1020050048828,-32.138999938964844,144.92300415039062
1788043747823098400,4.336098388671875,-197.33201599121094,-31.501001358032227,144.52101135253906
1788043747839262700,4.3522626953125,-195.4350128173828,-31.296001434326172,144.01100158691406
1788043747854757000,4.367757080078125,-196.25201416015625,-31.49100112915039,145.3350067138672
1788043747870650600,4.383650634765625,-197.87701416015625,-30.968002319335938,144.22100830078125
1788043747886825000,4.399824951171875,-196.9860076904297,-32.025001525878906,145.43301391601562
1788043747902749700,4.415749755859375,-197.12200927734375,-31.50200080871582,144.41900634765625
1788043747919552800,4.432552734375,-196.3830108642578,-31.398000717163086,144.31700134277344
1788043747935014400,4.448014404296875,-198.5880126953125,-32.02799987792969,145.02700805664062
1788043747951428000,4.464427978515625,-197.010009765625,-30.418001174926758,145.34500122070312
1788043747967245800,4.480245849609375,-195.17401123046875,-30.18600082397461,146.8730010986328
1788043747983204400,4.496204345703125,-194.54901123046875,-30.194002151489258,146.36300659179688
1788043747999948300,4.5129482421875,-195.17100524902344,-30.4010009765625,146.87100219726562
1788043748015245300,4.528245361328125,-196.92100524902344,-28.915000915527344,145.56201171875
1788043748031454200,4.5444541015625,-196.46200561523438,-30.841001510620117,145.85000610351562
1788043748047446300,4.5604462890625,-196.67001342773438,-30.190000534057617,146.46701049804688
1788043748063383600,4.576383544921875,-198.37901306152344,-29.328001022338867,146.57901000976562
1788043748080451300,4.593451416015625,-196.38101196289062,-28.371002197265625,146.2790069580078
1788043748095543300,4.608543212890625,-194.9560089111328,-29.96700096130371,147.28201293945312
1788043748111774500,4.6247744140625,-195.83201599121094,-28.57600212097168,146.99000549316406
1788043748127789300,4.640789306640625,-195.39601135253906,-29.543001174926758,146.87901306152344
1788043748143842000,4.656842041015625,-195.70401000976562,-30.617000579833984,146.66600036621094
1788043748160500000,4.6735,-196.35800170898438,-29.546001434326172,146.57501220703125
1788043748175948000,4.688947998046875,-197.94000244140625,-30.185001373291016,146.67300415039062
1788043748191972400,4.704972412109375,-197.07000732421875,-30.822002410888672,147.1750030517578
1788043748208114200,4.7211142578125,-196.5500030517578,-28.560001373291016,148.1110076904297
1788043748224030700,4.73703076171875,-194.92100524902344,-31.0260009765625,148.19000244140625
1788043748240601000,4.75360107421875,-195.2110137939453,-30.25200080871582,149.92800903320312
1788043748256055300,4.76905517578125,-197.39300537109375,-29.203001022338867,148.0050048828125
1788043748272212500,4.78521240234375,-196.12400817871094,-28.668001174926758,148.11000061035156
1788043748288361200,4.801361328125,-196.72500610351562,-30.915000915527344,148.29501342773438
1788043748304317200,4.817317138671875,-195.34901428222656,-30.2710018157959,148.50201416015625
1788043748321045200,4.834045166015625,-196.3050079345703,-29.73000144958496,148.8140106201172
1788043748336825300,4.849825439453125,-196.72801208496094,-31.025001525878906,148.0900115966797
1788043748352350200,4.86535009765625,-196.96800231933594,-29.20400047302246,148.00401306152344
1788043748368522500,4.8815224609375,-195.02700805664062,-29.189001083374023,149.3260040283203
1788043748384895700,4.897895751953125,-195.5550079345703,-30.591001510620117,148.6020050048828
1788043748400896300,4.913896240234375,-194.4820098876953,-31.235000610351562,148.69601440429688
1788043748416586000,4.9295859375,-194.99700927734375,-30.251001358032227,150.03001403808594
1788043748432680400,4.945680419921875,-195.73501586914062,-30.139001846313477,150.3380126953125
1788043748448665300,4.961665283203125,-195.177001953125,-32.393001556396484,150.11300659179688
1788043748464573700,4.97757373046875,-194.95701599121094,-31.957000732421875,150.72801208496094
1788043748481141200,4.994141357421875,-199.1300048828125,-31.645002365112305,149.51400756835938
1788043748496629500,5.00962939453125,-195.90701293945312,-33.680999755859375,149.8990020751953
1788043748512565500,5.0255654296875,-195.30101013183594,-32.08000183105469,149.5050048828125
1788043748529225000,5.042224853515625,-195.23300170898438,-34.7400016784668,150.9080047607422
1788043748544688600,5.057688720703125,-197.04800415039062,-33.013999938964844,151.5360107421875
1788043748561609700,5.074609619140625,-196.98800659179688,-32.93400192260742,149.5
1788043748576986400,5.089986328125,-196.33201599121094,-32.05900192260742,150.93301391601562
1788043748593340700,5.106340576171875,-197.46800231933594,-34.52300262451172,150.8100128173828
1788043748609024800,5.122024658203125,-196.74200439453125,-33.887001037597656,150.4080047607422
1788043748625036800,5.138036865234375,-197.281005859375,-33.0260009765625,150.62001037597656
1788043748641958400,5.15495849609375,-196.57301330566406,-32.07600021362305,149.60800170898438
1788043748657156400,5.17015625,-196.17401123046875,-33.64900207519531,152.24301147460938
1788043748673310200,5.186310302734375,-196.21400451660156,-32.37600326538086,151.23500061035156
1788043748689391600,5.2023916015625,-197.06500244140625,-33.45600128173828,150.51400756835938
1788043748705394400,5.21839453125,-196.24200439453125,-33.69000244140625,149.18600463867188
1788043748722174200,5.23517431640625,-197.59400939941406,-32.91400146484375,150.927001953125
1788043748737554000,5.250553955078125,-197.99900817871094,-33.01000213623047,151.7410125732422
1788043748753652700,5.26665283203125,-196.71400451660156,-32.46500015258789,152.5590057373047
1788043748769603600,5.282603515625,-196.42601013183594,-33.2400016784668,150.71900939941406
1788043748785616600,5.29861669921875,-195.36300659179688,-33.45800018310547,150.61300659179688
1788043748802285800,5.315285888671875,-196.14401245117188,-33.69600296020508,148.7790069580078
1788043748817800700,5.33080078125,-196.72601318359375,-33.44499969482422,151.4300079345703
1788043748833674800,5.3466748046875,-198.2530059814453,-32.17000198364258,150.4250030517578
1788043748849879000,5.362879150390625,-197.82701110839844,-33.25100326538086,149.80300903320312
1788043748865820000,5.37881982421875,-196.34701538085938,-32.93300247192383,149.7030029296875
1788043748882428700,5.3954287109375,-195.656005859375,-32.42500305175781,147.66900634765625
1788043748898446600,5.411446533203125,-196.04701232910156,-32.08000183105469,149.4040069580078
1788043748914043000,5.42704296875,-198.26901245117188,-31.964000701904297,149.81500244140625
1788043748930265300,5.443265380859375,-198.2650146484375,-32.28499984741211,149.81300354003906
1788043748946166800,5.459166748046875,-197.4320068359375,-32.40500259399414,148.99501037597656
1788043748962744600,5.47574462890625,-196.9870147705078,-33.04199981689453,149.49900817871094
1788043748978343700,5.49134375,-197.21400451660156,-31.645002365112305,149.7150115966797
1788043748994265000,5.50726513671875,-195.7130126953125,-32.71900177001953,149.70401000976562
1788043749010464800,5.52346484375,-197.4390106201172,-31.76000213623047,149.10301208496094
1788043749026624000,5.5396240234375,-196.11300659179688,-33.13600158691406,150.5150146484375
1788043749043042600,5.55604248046875,-197.29400634765625,-34.00699996948242,149.38900756835938
1788043749058557000,5.571556884765625,-197.81500244140625,-32.919002532958984,150.51901245117188
1788043749082788600,5.59578857421875,-197.50900268554688,-33.36000061035156,149.70001220703125
1788043749098443300,5.611443359375,-198.0240020751953,-33.67300033569336,150.20700073242188
1788043749114406700,5.62740673828125,-196.6020050048828,-32.95800018310547,147.7670135498047
1788043749130462000,5.6434619140625,-196.6940155029297,-32.84100341796875,148.4810028076172
1788043749146695200,5.659695068359375,-197.4110107421875,-33.25699996948242,149.39500427246094
1788043749163069700,5.676069580078125,-195.3610076904297,-32.80800247192383,151.1280059814453
1788043749178547200,5.691547119140625,-194.63400268554688,-33.25100326538086,150.10501098632812
1788043749194543400,5.70754345703125,-196.24600219726562,-32.720001220703125,149.6020050048828
1788043749210816500,5.72381640625,-196.14801025390625,-30.996002197265625,150.3310089111328
1788043749226813700,5.739813720703125,-195.0860137939453,-32.294002532958984,149.5030059814453
1788043749243603700,5.756603759765625,-195.7010040283203,-32.7130012512207,150.2130126953125
1788043749258790100,5.7717900390625,-196.35400390625,-32.9370002746582,149.39700317382812
1788043749274800000,5.787800048828125,-196.47201538085938,-32.40400314331055,149.19801330566406
1788043749291108600,5.804108642578125,-194.47100830078125,-31.22800064086914,149.2060089111328
1788043749307496200,5.82049609375,-197.15101623535156,-30.8070011138916,148.29600524902344
1788043749323943400,5.836943359375,-196.1580047607422,-32.082000732421875,149.20001220703125
1788043749339206400,5.852206298828125,-197.03700256347656,-28.749000549316406,149.94400024414062
1788043749355313000,5.86831298828125,-196.37200927734375,-30.786001205444336,149.9250030517578
1788043749371395000,5.88439501953125,-194.25900268554688,-31.012001037597656,149.3090057373047
1788043749387298600,5.900298583984375,-195.52301025390625,-32.409000396728516,148.89100646972656
1788043749403901400,5.9169013671875,-195.98501586914062,-32.323001861572266,147.26300048828125
1788043749419478800,5.932478759765625,-197.25001525878906,-32.316001892089844,147.67201232910156
1788043749435292200,5.948292236328125,-196.37501525878906,-31.22100067138672,149.51400756835938
1788043749451498500,5.96449853515625,-194.47500610351562,-31.87900161743164,148.58900451660156
1788043749467531300,5.98053125,-197.9550018310547,-32.50699996948242,149.30101013183594
1788043749484154400,5.997154296875,-195.31600952148438,-32.520999908447266,148.58399963378906
1788043749499639000,6.01263916015625,-196.67800903320312,-32.18300247192383,149.60800170898438
1788043749515687000,6.02868701171875,-196.36001586914062,-32.941001892089844,149.09100341796875
1788043749531982600,6.044982666015625,-197.21600341796875,-32.1870002746582,149.30300903320312
1788043749547778300,6.0607783203125,-196.0290069580078,-34.3390007019043,148.77301025390625
1788043749564715300,6.07771533203125,-195.20901489257812,-32.41200256347656,148.68701171875
1788043749579875800,6.092875732421875,-195.6020050048828,-33.69000244140625,149.28700256347656
1788043749595942700,6.108942626953125,-195.59701538085938,-34.22700119018555,149.18099975585938
1788043749612078800,6.125078857421875,-194.64401245117188,-33.69000244140625,149.38800048828125
1788043749628238800,6.14123876953125,-195.16900634765625,-32.496002197265625,150.4180145263672
1788043749644645600,6.157645751953125,-196.44300842285156,-33.79100036621094,149.59300231933594
1788043749660243500,6.173243408203125,-194.4110107421875,-34.86600112915039,149.5810089111328
1788043749676182000,6.18918212890625,-195.57400512695312,-33.888999938964844,150.406005859375
1788043749692589800,6.20558984375,-196.3400115966797,-34.22600173950195,149.1820068359375
1788043749708505600,6.221505615234375,-196.3350067138672,-34.76300048828125,149.07501220703125
1788043749725218800,6.23821875,-197.4820098876953,-34.6400032043457,150.09600830078125
1788043749740606000,6.25360595703125,-196.19300842285156,-36.038002014160156,149.87901306152344
1788043749756594400,6.269594482421875,-197.88101196289062,-35.4890022277832,150.7010040283203
1788043749772707600,6.28570751953125,-196.8520050048828,-35.294002532958984,149.37701416015625
1788043749788665000,6.3016650390625,-198.11801147460938,-35.39500045776367,149.68301391601562
1788043749805446000,6.31844580078125,-197.9130096435547,-35.18400192260742,149.4810028076172
1788043749821298400,6.33429833984375,-197.02801513671875,-35.92000198364258,150.59400939941406
1788043749836915500,6.34991552734375,-194.72801208496094,-34.97300338745117,149.5810089111328
1788043749853139000,6.366138916015625,-197.7030029296875,-35.83400344848633,148.96600341796875
1788043749869420800,6.3824208984375,-198.01901245117188,-36.37200164794922,148.7570037841797
1788043749885519400,6.398519287109375,-196.61001586914062,-35.816001892089844,150.3900146484375
1788043749901344500,6.414344482421875,-197.69100952148438,-36.367000579833984,149.16500854492188
1788043749917249300,6.430249267578125,-196.83700561523438,-35.717002868652344,149.78001403808594
1788043749933282800,6.44628271484375,-196.791015625,-37.202003479003906,150.88800048828125
1788043749949325600,6.46232568359375,-197.89601135253906,-36.25400161743164,149.57301330566406
1788043749966022700,6.479022705078125,-197.4630126953125,-37.00600051879883,149.46400451660156
1788043749981390000,6.49439013671875,-196.6400146484375,-35.40299987792969,149.2740020751953
1788043749997340400,6.51034033203125,-198.49301147460938,-36.33700180053711,151.3050079345703
1788043750013638100,6.52663818359375,-199.1540069580078,-36.56700134277344,150.0810089111328
1788043750029756700,6.542756591796875,-197.5780029296875,-37.552001953125,148.74600219726562
1788043750046225200,6.55922509765625,-199.08401489257812,-36.913002014160156,148.24501037597656
1788043750061644800,6.574644775390625,-198.11500549316406,-36.582000732421875,149.06100463867188
1788043750077613000,6.590613037109375,-198.77801513671875,-36.380001068115234,148.04501342773438
1788043750093900000,6.606900146484375,-197.6120147705078,-36.384002685546875,147.94200134277344
1788043750109776100,6.622776123046875,-197.51600646972656,-34.98500061035156,148.36199951171875
1788043750126677000,6.639677001953125,-198.56100463867188,-37.0260009765625,147.8360137939453
1788043750142420200,6.655420166015625,-199.84701538085938,-36.49100112915039,147.63800048828125
1788043750157909800,6.67090966796875,-198.885009765625,-36.27300262451172,148.04600524902344
1788043750174146300,6.687146240234375,-198.67300415039062,-36.922000885009766,147.6330108642578
1788043750190520000,6.70352001953125,-198.54701232910156,-36.04500198364258,149.06700134277344
1788043750206649300,6.7196494140625,-198.77700805664062,-36.272003173828125,148.14801025390625
1788043750222094300,6.73509423828125,-197.80601501464844,-37.020999908447266,148.34400939941406
1788043750238081500,6.75108154296875,-196.3520050048828,-35.854000091552734,147.63900756835938
1788043750254195700,6.76719580078125,-199.61900329589844,-35.185001373291016,149.177001953125
1788043750270206200,6.783206298828125,-199.20701599121094,-37.57100296020508,147.11801147460938
1788043750287008000,6.800008056640625,-199.19700622558594,-37.13300323486328,147.8350067138672
1788043750302548700,6.815548828125,-197.52601623535156,-36.07200241088867,147.2310028076172
1788043750318393300,6.831393310546875,-197.291015625,-36.05800247192383,148.25
1788043750334664000,6.847663818359375,-199.64801025390625,-35.85100173950195,147.44000244140625
1788043750350528300,6.8635283203125,-198.13101196289062,-35.94300079345703,148.76100158691406
1788043750367113200,6.88011328125,-196.65200805664062,-36.05800247192383,148.35101318359375
1788043750383111200,6.896111083984375,-198.5780029296875,-35.30800247192383,148.156005859375
1788043750398839800,6.91183984375,-200.27200317382812,-35.194000244140625,148.4650115966797
1788043750414864100,6.927864013671875,-195.62701416015625,-35.54199981689453,147.03001403808594
1788043750430765800,6.943765869140625,-198.8880157470703,-35.95000076293945,148.1510009765625
1788043750447405300,6.9604052734375,-197.7100067138672,-36.486000061035156,148.24700927734375
1788043750463120400,6.976120361328125,-197.52101135253906,-35.3120002746582,147.9510040283203
1788043750478927600,6.991927734375,-197.8450164794922,-35.74700164794922,147.43800354003906
1788043750495004000,7.00800390625,-198.5170135498047,-35.659000396728516,145.91200256347656
1788043750511042800,7.024042724609375,-196.87400817871094,-34.33500289916992,148.97801208496094
1788043750527601000,7.040600830078125,-197.10501098632812,-34.67000198364258,147.9560089111328
1788043750543347500,7.056347412109375,-196.8830108642578,-34.23200225830078,148.67300415039062
1788043750559201300,7.072201171875,-197.34400939941406,-35.874000549316406,146.01100158691406
1788043750575266600,7.0882666015625,-197.10301208496094,-35.96500015258789,147.2320098876953
1788043750591185200,7.10418505859375,-197.06800842285156,-35.836002349853516,148.86300659179688
1788043750607902500,7.12090234375,-198.24900817871094,-37.031002044677734,147.53001403808594
1788043750623508500,7.136508544921875,-197.53001403808594,-35.426002502441406,147.44100952148438
1788043750640056300,7.153056396484375,-196.22500610351562,-36.38199996948242,148.24600219726562
1788043750655684400,7.168684326171875,-197.6060028076172,-37.461002349853516,147.52500915527344
1788043750671555600,7.1845556640625,-196.635009765625,-36.913002014160156,148.54701232910156
1788043750688507000,7.2015068359375,-196.88101196289062,-36.284000396728516,147.43301391601562
1788043750703994400,7.216994384765625,-197.45401000976562,-38.29800033569336,149.04501342773438
1788043750719793700,7.232793701171875,-197.27601623535156,-37.34600067138672,148.1370086669922
1788043750735922000,7.248921875,-197.906005859375,-37.9890022277832,148.03001403808594
1788043750751912700,7.26491259765625,-197.6840057373047,-37.551002502441406,148.74700927734375
1788043750768576300,7.281576171875,-197.37200927734375,-39.177001953125,147.4080047607422
1788043750784290000,7.2972900390625,-196.01800537109375,-38.1150016784668,146.906005859375
1788043750800081700,7.31308154296875,-196.42100524902344,-37.884002685546875,148.0290069580078
1788043750816252200,7.329252197265625,-197.15501403808594,-38.41800308227539,148.12701416015625
1788043750832239400,7.3452392578125,-197.3300018310547,-39.58400344848633,149.0340118408203
1788043750848853800,7.361853759765625,-197.47801208496094,-37.55600357055664,148.44100952148438
1788043750864465400,7.37746533203125,-197.47900390625,-38.31300354003906,147.9250030517578
1788043750880374500,7.39337451171875,-197.34901428222656,-39.704002380371094,148.1160125732422
1788043750896556500,7.409556640625,-196.7880096435547,-40.551002502441406,148.92300415039062
1788043750912634600,7.425634521484375,-198.9390106201172,-41.21200180053711,147.29000854492188
1788043750937007900,7.4500078125,-198.71800231933594,-41.85600280761719,147.2840118408203
1788043750953030000,7.46602978515625,-199.41700744628906,-43.557003021240234,148.18600463867188
1788043750969674200,7.48267431640625,-199.7370147705078,-42.47700119018555,148.80801391601562
1788043750985164500,7.49816455078125,-196.8920135498047,-42.38600158691406,147.88800048828125
1788043751001303800,7.5143037109375,-197.19700622558594,-42.702003479003906,148.2930145263672
1788043751017307400,7.530307373046875,-196.02801513671875,-42.595001220703125,148.39401245117188
1788043751033248800,7.546248779296875,-197.71400451660156,-42.58400344848633,149.0080108642578
1788043751050354400,7.5633544921875,-198.66900634765625,-42.79900360107422,148.90501403808594
1788043751065546800,7.578546630859375,-197.61900329589844,-42.37600326538086,148.6020050048828
1788043751081459700,7.594459716796875,-198.7650146484375,-43.33300018310547,149.0030059814453
1788043751098076700,7.61107666015625,-195.07701110839844,-43.24800109863281,147.7760009765625
1788043751113565700,7.626565673828125,-197.20701599121094,-43.1400032043457,147.5760040283203
1788043751130305800,7.643305908203125,-197.91900634765625,-43.444000244140625,148.79701232910156
1788043751145735000,7.65873486328125,-197.12701416015625,-41.75100326538086,147.2830047607422
1788043751161779700,7.67477978515625,-198.68101501464844,-42.91400146484375,148.2930145263672
1788043751178004500,7.69100439453125,-198.2840118408203,-42.06700134277344,147.58700561523438
1788043751201963800,7.7149638671875,-196.56600952148438,-41.73400115966797,148.6060028076172
1788043751217779200,7.730779296875,-197.94300842285156,-42.16200256347656,148.50201416015625
1788043751233602300,7.746602294921875,-197.85101318359375,-41.95500183105469,147.99501037597656
1788043751250678800,7.7636787109375,-197.8280029296875,-43.130001068115234,148.29000854492188
1788043751265731000,7.77873095703125,-197.98301696777344,-41.105003356933594,147.39100646972656
1788043751281816300,7.79481640625,-198.1370086669922,-43.0150032043457,148.80101013183594
1788043751297849600,7.810849609375,-195.38601684570312,-42.16100311279297,148.90701293945312
1788043751313782300,7.8267822265625,-198.5170135498047,-40.35000228881836,147.70401000976562
1788043751330390000,7.84339013671875,-196.3570098876953,-40.22300338745117,149.4340057373047
1788043751345923800,7.858923828125,-198.47201538085938,-41.1870002746582,149.22500610351562
1788043751361895200,7.874895263671875,-198.0810089111328,-40.34400177001953,148.2130126953125
1788043751378046500,7.89104638671875,-198.39700317382812,-38.9370002746582,149.24501037597656
1788043751393971500,7.906971435546875,-198.5340118408203,-39.17100143432617,147.7150115966797
1788043751410647600,7.9236474609375,-199.239013671875,-38.93100357055664,149.55101013183594
1788043751426076700,7.93907666015625,-199.06800842285156,-39.06500244140625,147.614013671875
1788043751442102300,7.955102294921875,-198.09100341796875,-38.83700180053711,148.7360076904297
1788043751458764500,7.9717646484375,-200.45901489257812,-37.98800277709961,147.82901000976562
1788043751474608600,7.987608642578125,-199.63601684570312,-36.70900344848633,147.4320068359375
1788043751490696400,8.003696533203126,-198.7620086669922,-37.01900100708008,148.34500122070312
1788043751506686200,8.019686279296875,-196.86801147460938,-38.11300277709961,146.90701293945312
1788043751522183000,8.035182861328124,-198.04200744628906,-35.84600067138672,148.04901123046875
1788043751538346200,8.05134619140625,-198.04701232910156,-36.49700164794922,147.4320068359375
1788043751554256400,8.06725634765625,-198.32200622558594,-36.145999908447266,149.57501220703125
1788043751570927900,8.083927978515625,-196.8870086669922,-35.099002838134766,147.95201110839844
1788043751586379500,8.099379638671875,-198.27000427246094,-35.531002044677734,147.5430145263672
1788043751602360600,8.115360595703125,-197.55101013183594,-35.43800354003906,146.5240020751953
1788043751618513200,8.13151318359375,-197.8350067138672,-35.63300323486328,147.94900512695312
1788043751634485000,8.147485107421875,-198.7740020751953,-34.64900207519531,149.2830047607422
1788043751651077000,8.1640771484375,-197.55101013183594,-33.926002502441406,147.45401000976562
1788043751666662400,8.179662353515624,-195.1920166015625,-33.26700210571289,148.8830108642578
1788043751682643700,8.195643798828126,-198.82701110839844,-34.1410026550293,147.25
1788043751698810600,8.211810546875,-198.052001953125,-33.79800033569336,148.8820037841797
1788043751714734000,8.227734130859375,-196.55601501464844,-34.33500289916992,148.9770050048828
1788043751731466200,8.24446630859375,-197.34800720214844,-32.74300003051758,147.77000427246094
1788043751746912800,8.259912841796876,-197.33401489257812,-33.275001525878906,148.07101440429688
1788043751763571000,8.276571044921875,-197.5030059814453,-32.23100280761719,145.94100952148438
1788043751779091200,8.29209130859375,-199.80101013183594,-33.28600311279297,146.9530029296875
1788043751795104500,8.3081044921875,-197.6940155029297,-32.11000061035156,146.9610137939453
1788043751811623000,8.324622802734375,-198.57501220703125,-30.615001678466797,146.46600341796875
1788043751827213800,8.3402138671875,-197.17300415039062,-31.03700065612793,147.17401123046875
1788043751843252500,8.35625244140625,-196.1120147705078,-30.823001861572266,147.2760009765625
1788043751859401700,8.372401611328126,-196.04800415039062,-29.44300079345703,146.26901245117188
1788043751875322000,8.388322021484376,-197.81500244140625,-30.39000129699707,147.38400268554688
1788043751892019200,8.405019287109376,-198.24400329589844,-29.74300193786621,147.59400939941406
1788043751907446300,8.4204462890625,-196.0380096435547,-30.518001556396484,146.05599975585938
1788043751923544300,8.43654443359375,-195.89801025390625,-30.606000900268555,147.4810028076172
1788043751939594200,8.45259423828125,-195.46400451660156,-30.817001342773438,147.78500366210938
1788043751955568600,8.468568603515624,-196.77200317382812,-30.295001983642578,146.56800842285156
1788043751972132400,8.48513232421875,-196.5550079345703,-29.32000160217285,147.3920135498047
1788043751987716400,8.50071630859375,-196.4130096435547,-30.595001220703125,148.19500732421875
1788043752003816200,8.516816162109375,-195.49000549316406,-29.428001403808594,147.4910125732422
1788043752020356900,8.53335693359375,-195.72201538085938,-29.440000534057617,146.57501220703125
1788043752035927300,8.54892724609375,-197.1890106201172,-30.073001861572266,147.0800018310547
1788043752052878800,8.56587890625,-195.90501403808594,-29.421001434326172,147.8990020751953
1788043752068091400,8.58109130859375,-196.09300231933594,-31.89200210571289,147.47000122070312
1788043752084117200,8.5971171875,-196.92201232910156,-32.20199966430664,148.1820068359375
1788043752100216300,8.61321630859375,-195.04000854492188,-30.602001190185547,147.88800048828125
1788043752116266200,8.629266357421875,-196.2050018310547,-32.111000061035156,147.06100463867188
1788043752132858000,8.645858154296874,-195.33401489257812,-31.343002319335938,148.49301147460938
1788043752148434400,8.661434326171875,-194.99301147460938,-32.62700271606445,148.6850128173828
1788043752164457700,8.677457763671875,-196.52801513671875,-31.78900146484375,147.0640106201172
1788043752180516900,8.693516845703124,-195.3660125732422,-30.39000129699707,147.68600463867188
1788043752196448800,8.70944873046875,-195.52101135253906,-32.08300018310547,149.20001220703125
1788043752213287000,8.726286865234375,-194.6610107421875,-32.51100158691406,149.39801025390625
1788043752228624100,8.7416240234375,-192.79701232910156,-31.354001998901367,147.98001098632812
1788043752244703000,8.757702880859375,-195.29901123046875,-32.0780029296875,149.6070098876953
1788043752260895200,8.773895263671875,-196.67100524902344,-32.17900085449219,149.9130096435547
1788043752277171500,8.79017138671875,-194.77500915527344,-31.759000778198242,149.5070037841797
1788043752293340700,8.806340576171875,-195.7050018310547,-34.11900329589844,149.1820068359375
1788043752308906500,8.821906494140626,-195.29800415039062,-33.807003021240234,148.57301330566406
1788043752325240600,8.838240478515624,-194.8380126953125,-34.21800231933594,149.89300537109375
1788043752341014800,8.854014892578125,-194.3300018310547,-33.909000396728516,149.0800018310547
1788043752357099300,8.870099365234376,-193.89801025390625,-34.230003356933594,149.1790008544922
1788043752373775400,8.886775390625,-197.95401000976562,-34.560001373291016,148.0600128173828
1788043752389063200,8.902063232421876,-195.90501403808594,-34.97700119018555,149.1750030517578
1788043752405787100,8.918787109375,-196.02000427246094,-34.87300109863281,148.87001037597656
1788043752421198000,8.934197998046875,-194.6640167236328,-33.59300231933594,148.57400512695312
1788043752437160700,8.95016064453125,-194.9530029296875,-34.54800033569336,149.2790069580078
1788043752454009300,8.96700927734375,-194.88400268554688,-33.16600036621094,148.47601318359375
1788043752469369600,8.98236962890625,-193.906005859375,-34.12600326538086,148.87400817871094
1788043752485706800,8.998706787109375,-197.291015625,-33.249000549316406,150.0070037841797
1788043752501484500,9.014484619140624,-194.14601135253906,-32.630001068115234,148.58200073242188
1788043752517407700,9.03040771484375,-196.6090087890625,-32.09800338745117,147.97801208496094
1788043752534322200,9.047322265625,-195.99200439453125,-30.16600227355957,148.3000030517578
1788043752549689000,9.062689208984375,-194.9550018310547,-29.858001708984375,147.385009765625
1788043752565675300,9.07867529296875,-195.2930145263672,-29.65300178527832,146.67401123046875
1788043752582253600,9.095253662109375,-196.13400268554688,-28.891000747680664,147.49700927734375
1788043752597691600,9.110691650390624,-195.51901245117188,-28.797000885009766,146.5800018310547
1788043752614412500,9.12741259765625,-196.489013671875,-27.724000930786133,146.59100341796875
1788043752629875200,9.142875244140624,-195.33401489257812,-28.165000915527344,145.77101135253906
1788043752645895200,9.158895263671875,-196.40701293945312,-27.306001663208008,145.7790069580078
1788043752662076400,9.175076416015624,-195.47300720214844,-28.077001571655273,144.34500122070312
1788043752677980200,9.190980224609374,-197.10101318359375,-26.691001892089844,143.64700317382812
1788043752694873300,9.207873291015625,-195.9420166015625,-26.698001861572266,143.23800659179688
1788043752710376000,9.2233759765625,-196.6300048828125,-24.459001541137695,142.34100341796875
1788043752726240500,9.239240478515624,-195.70201110839844,-23.50400161743164,141.73699951171875
1788043752742342000,9.255341796875,-198.04501342773438,-24.58500099182129,140.71200561523438
1788043752758447000,9.271447021484375,-196.69601440429688,-23.525001525878906,140.0070037841797
1788043752774978800,9.287978759765625,-197.45201110839844,-22.235000610351562,140.22300720214844
1788043752790658800,9.303658935546874,-197.14700317382812,-23.21700096130371,138.9910125732422
1788043752806472000,9.319471923828125,-198.45701599121094,-22.155000686645508,138.0860137939453
1788043752822599000,9.335598876953124,-198.60501098632812,-21.749000549316406,136.4600067138672
1788043752839059500,9.3520595703125,-197.32400512695312,-20.77400016784668,137.3830108642578
1788043752855320000,9.368320068359376,-196.656005859375,-19.631000518798828,134.74400329589844
1788043752870854400,9.3838544921875,-197.57701110839844,-19.501001358032227,136.37600708007812
1788043752886764500,9.3997646484375,-197.1820068359375,-18.115001678466797,135.87901306152344
1788043752903058700,9.41605859375,-195.52301025390625,-18.898000717163086,133.62901306152344
1788043752919050000,9.432050048828126,-194.4580078125,-18.141000747680664,134.24501037597656
1788043752935714000,9.448714111328124,-196.43600463867188,-16.558000564575195,132.2239990234375
1788043752951105500,9.46410546875,-196.2150115966797,-17.201000213623047,132.21800231933594
1788043752967159000,9.480158935546875,-195.74801635742188,-17.67300033569336,129.05599975585938
1788043752983164400,9.496164306640624,-196.92800903320312,-15.8410005569458,129.6850128173828
1788043752999669000,9.5126689453125,-196.12200927734375,-14.680000305175781,128.47100830078125
1788043753015846400,9.528846435546875,-196.76901245117188,-14.469000816345215,128.16799926757812
1788043753031222000,9.544221923828125,-196.3660125732422,-14.051000595092773,127.4590072631836
1788043753047211800,9.560211669921875,-196.16900634765625,-14.600000381469727,126.43500518798828
1788043753063465700,9.5764658203125,-195.66000366210938,-14.291000366210938,125.62200927734375
1788043753079406300,9.59240625,-197.47100830078125,-13.859000205993652,125.62800598144531
1788043753096388900,9.609388916015625,-198.39300537109375,-12.60400104522705,123.19500732421875
1788043753111679000,9.624678955078124,-197.3190155029297,-13.464000701904297,123.18600463867188
1788043753127628800,9.64062890625,-196.5360107421875,-13.289000511169434,120.33500671386719
1788043753143960000,9.6569599609375,-196.80401611328125,-13.474000930786133,122.47300720214844
1788043753159716000,9.672716064453125,-194.6920166015625,-13.593000411987305,121.8580093383789
1788043753176469200,9.68946923828125,-198.01400756835938,-13.714000701904297,120.43500518798828
1788043753192084700,9.705084716796875,-196.3380126953125,-12.757000923156738,120.03400421142578
1788043753207902200,9.720902099609376,-197.42100524902344,-13.309000968933105,118.70600891113281
1788043753224185000,9.73718505859375,-196.47601318359375,-13.209000587463379,118.29800415039062
1788043753240052000,9.753052001953124,-197.04901123046875,-13.12600040435791,116.46600341796875
1788043753256478500,9.769478515625,-195.25201416015625,-12.917000770568848,116.26200866699219
1788043753271969300,9.78496923828125,-197.08700561523438,-11.419000625610352,115.87000274658203
1788043753297028600,9.810028564453125,-195.23800659179688,-13.233000755310059,116.66600799560547
1788043753312494000,9.825494140625,-196.65501403808594,-12.064000129699707,115.76200866699219
1788043753328865000,9.841864990234376,-196.4440155029297,-14.767001152038574,114.0060043334961
1788043753344686600,9.8576865234375,-196.92001342773438,-11.880000114440918,113.52300262451172
1788043753360676400,9.87367626953125,-196.88101196289062,-12.721000671386719,114.73800659179688
1788043753377304600,9.8903046875,-196.2890167236328,-13.289000511169434,112.38900756835938
1788043753393034800,9.90603466796875,-196.3660125732422,-14.892001152038574,112.68000793457031
1788043753409090600,9.922090576171875,-198.11001586914062,-13.944000244140625,111.26500701904297
1788043753425028400,9.9380283203125,-196.84300231933594,-14.059000968933105,110.8550033569336
1788043753440969000,9.953968994140626,-195.87200927734375,-14.375000953674316,111.3600082397461
1788043753457709300,9.970709228515625,-196.10101318359375,-13.844000816345215,110.9580078125
1788043753473119700,9.98611962890625,-196.8610076904297,-13.746000289916992,110.24600219726562
1788043753489156600,10.002156494140625,-197.6850128173828,-14.594000816345215,110.85100555419922
1788043753505762600,10.018762451171876,-197.40701293945312,-13.970000267028809,109.43000793457031
1788043753521268000,10.03426806640625,-196.77000427246094,-13.32300090789795,109.84200286865234
1788043753537918200,10.050918212890625,-196.67201232910156,-14.732000350952148,108.60700225830078
1788043753553955300,10.066955322265626,-197.8280029296875,-14.940000534057617,109.01500701904297
1788043753569436200,10.082436279296875,-197.31300354003906,-14.734001159667969,108.4050064086914
1788043753585614600,10.098614501953126,-196.5570068359375,-15.484001159667969,108.49900817871094
1788043753601567200,10.114567138671875,-195.8310089111328,-15.712000846862793,107.5790023803711
1788043753618362600,10.131362548828125,-196.80601501464844,-14.533000946044922,107.48900604248047
1788043753633803300,10.14680322265625,-195.74501037597656,-16.26500129699707,106.35200500488281
1788043753649822000,10.162822021484375,-197.22201538085938,-15.932001113891602,106.96800231933594
1788043753665903900,10.17890380859375,-197.35400390625,-14.759000778198242,106.57100677490234
1788043753681869600,10.19486962890625,-198.4110107421875,-16.267000198364258,105.84600830078125
1788043753698471000,10.211470947265624,-197.58401489257812,-14.66100025177002,105.8590087890625
1788043753714075400,10.227075439453126,-196.20401000976562,-15.420001029968262,105.34100341796875
1788043753730009600,10.243009521484375,-196.62301635742188,-16.172000885009766,105.1310043334961
1788043753746172700,10.259172607421876,-196.63900756835938,-16.1820011138916,104.41800689697266
1788043753762755800,10.275755859375,-197.3990020751953,-14.462000846862793,104.74000549316406
1788043753778803500,10.291803466796875,-196.64700317382812,-16.07900047302246,104.11300659179688
1788043753794244600,10.30724462890625,-198.3170166015625,-16.16699981689453,105.33700561523438
1788043753811073800,10.32407373046875,-195.97601318359375,-16.70800018310547,105.2280044555664
1788043753826498300,10.339498291015625,-197.47401428222656,-16.064001083374023,105.13300323486328
1788043753842425300,10.35542529296875,-198.95201110839844,-16.380001068115234,105.33600616455078
1788043753859060200,10.372060302734376,-197.09100341796875,-15.873001098632812,103.40300750732422
1788043753874700000,10.387699951171875,-199.291015625,-17.041000366210938,104.0060043334961
1788043753890575600,10.40357568359375,-196.86500549316406,-16.513999938964844,103.60100555419922
1788043753906716700,10.419716552734375,-197.07701110839844,-15.541000366210938,104.22100830078125
1788043753922709000,10.435708984375,-198.9860076904297,-16.509000778198242,103.70500183105469
1788043753939353000,10.45235302734375,-199.3800048828125,-16.922000885009766,104.82300567626953
1788043753954821600,10.467821533203125,-198.32301330566406,-16.387001037597656,104.9280014038086
1788043753970968600,10.483968505859375,-198.3590087890625,-15.652000427246094,103.81400299072266
1788043753987015200,10.50001513671875,-196.85400390625,-16.832000732421875,103.90300750732422
1788043754003005400,10.51600537109375,-197.6490020751953,-18.09400177001953,105.52300262451172
1788043754019774000,10.53277392578125,-197.27500915527344,-17.045000076293945,103.90200805664062
1788043754035170300,10.54817041015625,-198.5500030517578,-17.043001174926758,103.90400695800781
1788043754051272200,10.564272216796875,-196.73301696777344,-17.03900146484375,104.41100311279297
1788043754067810300,10.580810302734376,-197.27700805664062,-15.750000953674316,104.62600708007812
1788043754083556400,10.596556396484376,-200.67300415039062,-16.067001342773438,104.52600860595703
1788043754100179000,10.613178955078125,-197.38601684570312,-15.75100040435791,104.5250015258789
1788043754115402000,10.628402099609374,-193.99600219726562,-16.950000762939453,103.38900756835938
1788043754131518000,10.64451806640625,-196.3050079345703,-16.49700164794922,104.92400360107422
1788043754147637500,10.660637451171874,-197.9040069580078,-16.499000549316406,104.62100219726562
1788043754163536400,10.676536376953125,-198.14401245117188,-15.975000381469727,103.7090072631836
1788043754180214800,10.69321484375,-196.84201049804688,-16.176000595092773,104.82600402832031
1788043754195671300,10.70867138671875,-198.3380126953125,-17.152000427246094,103.8010025024414
1788043754211711200,10.724711181640625,-196.95701599121094,-16.397001266479492,104.31500244140625
1788043754227860500,10.740860595703126,-197.9140167236328,-16.613000869750977,104.1100082397461
1788043754244367000,10.7573671875,-196.93701171875,-16.16900062561035,105.33500671386719
1788043754260657000,10.773656982421874,-197.9700164794922,-15.350000381469727,102.39000701904297
1788043754276341500,10.789341552734374,-195.46200561523438,-16.178001403808594,104.82400512695312
1788043754291979500,10.8049794921875,-196.41000366210938,-17.68600082397461,104.20100402832031
1788043754308148000,10.82114794921875,-196.84201049804688,-17.47300148010254,104.00000762939453
1788043754324620800,10.837620849609374,-197.510009765625,-16.950000762939453,102.98600769042969
1788043754340806700,10.853806640625,-199.50601196289062,-17.150001525878906,103.802001953125
1788043754356352500,10.8693525390625,-196.2200164794922,-17.267000198364258,103.49100494384766
1788043754372688000,10.88568798828125,-199.19000244140625,-16.50400161743164,104.11300659179688
1788043754388439300,10.901439208984375,-198.12301635742188,-16.827001571655273,104.10900115966797
1788043754404356400,10.9173564453125,-198.1490020751953,-15.762001037597656,103.60900115966797
1788043754420988700,10.93398876953125,-196.22900390625,-17.704999923706055,102.77400207519531
1788043754436504300,10.94950439453125,-195.7880096435547,-17.26300048828125,103.79600524902344
1788043754452547300,10.96554736328125,-197.0880126953125,-17.385000228881836,102.57400512695312
1788043754469162200,10.982162353515625,-198.0330047607422,-17.80900001525879,102.77600860595703
1788043754485049900,10.9980498046875,-195.69900512695312,-16.84200096130371,103.29100799560547
1788043754501436000,11.014435791015625,-196.24700927734375,-16.41900062561035,102.78600311279297
1788043754516932000,11.02993212890625,-194.96800231933594,-16.0939998626709,103.19400787353516
1788043754533178000,11.04617822265625,-198.22401428222656,-17.68800163269043,103.79600524902344
1788043754549107200,11.062107177734376,-196.66200256347656,-16.8439998626709,102.98600769042969
1788043754565048300,11.07804833984375,-197.28500366210938,-16.83500099182129,103.59800720214844
1788043754582005200,11.095005126953126,-196.34201049804688,-16.088001251220703,103.50200653076172
1788043754597353700,11.110353759765625,-196.9870147705078,-16.52400016784668,102.88800811767578
1788043754613687000,11.12668701171875,-197.08700561523438,-17.2760009765625,102.677001953125
1788043754629864000,11.142864013671876,-196.031005859375,-17.065000534057617,102.57600402832031
1788043754645553200,11.15855322265625,-195.81100463867188,-16.953001022338867,102.98400115966797
1788043754662114800,11.17511474609375,-197.65200805664062,-15.783000946044922,102.08000183105469
1788043754677454600,11.19045458984375,-197.6840057373047,-17.251001358032227,104.51200866699219
1788043754693622000,11.2066220703125,-196.63400268554688,-16.50400161743164,104.41500854492188
1788043754709853700,11.222853759765625,-197.0810089111328,-16.408000946044922,103.50000762939453
1788043754725746200,11.23874609375,-197.90701293945312,-16.60900115966797,104.41600799560547
1788043754742202600,11.25520263671875,-197.29000854492188,-16.946001052856445,103.29200744628906
1788043754757740300,11.270740234375,-196.65301513671875,-16.623001098632812,103.49700164794922
1788043754773778200,11.286778076171874,-196.86900329589844,-16.841001510620117,103.19000244140625
1788043754789936400,11.302936279296874,-196.64100646972656,-17.48000144958496,103.49000549316406
1788043754805856800,11.318856689453124,-196.8620147705078,-15.756000518798828,104.21800231933594
1788043754822609200,11.335609130859375,-197.51600646972656,-15.981000900268555,103.30000305175781
1788043754838152000,11.35115185546875,-198.0670166015625,-16.533000946044922,102.07400512695312
1788043754854168000,11.36716796875,-197.0590057373047,-17.1510009765625,104.00300598144531
1788043754870274600,11.383274658203124,-195.8070068359375,-16.73400115966797,103.29200744628906
1788043754886707700,11.399707763671875,-196.21900939941406,-16.29400062561035,104.11100769042969
1788043754902871600,11.41587158203125,-197.5150146484375,-16.520999908447266,102.99000549316406
1788043754918497300,11.431497314453125,-195.37701416015625,-16.299001693725586,103.80400848388672
1788043754934426400,11.44742626953125,-195.57000732421875,-17.152000427246094,104.1030044555664
1788043754950726100,11.46372607421875,-195.40701293945312,-16.426000595092773,102.37700653076172
1788043754966568700,11.479568603515625,-196.22601318359375,-17.16200065612793,103.28800201416016
1788043754983255800,11.496255859375,-197.91500854492188,-17.046001434326172,103.8010025024414
1788043754998725000,11.51172509765625,-193.8050079345703,-15.774001121520996,103.19600677490234
1788043755014759200,11.52775927734375,-196.46400451660156,-17.394001007080078,101.96200561523438
1788043755030813700,11.543813720703126,-195.7100067138672,-16.52400016784668,102.98800659179688
1788043755046789400,11.559789306640624,-195.17401123046875,-17.387001037597656,102.67400360107422
1788043755063438000,11.57643798828125,-196.1840057373047,-18.00200080871582,104.6050033569336
1788043755078972000,11.591971923828124,-196.87200927734375,-16.518001556396484,103.29500579833984
1788043755095041300,11.608041259765624,-196.42601013183594,-16.722000122070312,104.10700225830078
1788043755111101700,11.624101806640626,-196.25100708007812,-15.665000915527344,103.09800720214844
1788043755127029500,11.640029541015625,-196.24700927734375,-16.743000030517578,102.5790023803711
1788043755143983000,11.656983154296874,-196.5430145263672,-17.269001007080078,103.28800201416016
1788043755159058400,11.672058349609374,-199.01901245117188,-15.773000717163086,102.69300842285156
1788043755175097600,11.68809765625,-196.55601501464844,-16.953001022338867,102.88300323486328
1788043755191772000,11.70477197265625,-197.3000030517578,-16.736000061035156,102.98800659179688
1788043755207463200,11.720463134765625,-197.04901123046875,-17.577001571655273,104.2030029296875
1788043755223994600,11.73699462890625,-193.37400817871094,-16.852001190185547,102.77800750732422
1788043755239519500,11.75251953125,-195.73800659179688,-16.97300148010254,101.45600128173828
1788043755255481000,11.768481201171875,-195.04501342773438,-16.61600112915039,104.2090072631836
1788043755271763000,11.784762939453126,-197.2010040283203,-16.525001525878906,102.78600311279297
1788043755287572700,11.80057275390625,-195.81201171875,-16.520999908447266,103.19200134277344
1788043755304377300,11.81737744140625,-196.8590087890625,-17.591001510620117,103.18400573730469
1788043755319842600,11.832842529296874,-196.42001342773438,-16.827001571655273,104.31000518798828
1788043755335983400,11.8489833984375,-196.43800354003906,-17.16200065612793,103.28900146484375
1788043755351872800,11.864872802734375,-194.9580078125,-15.871000289916992,103.8080062866211
1788043755367920000,11.880920166015626,-195.06100463867188,-17.38300132751465,102.97900390625
1788043755384608300,11.897608154296876,-195.02200317382812,-18.115001678466797,104.29700469970703
1788043755400469200,11.91346923828125,-194.54200744628906,-17.17500114440918,102.57300567626953
1788043755416020000,11.92902001953125,-195.69300842285156,-16.946001052856445,103.49300384521484
1788043755432233500,11.9452333984375,-193.89500427246094,-16.953001022338867,103.18500518798828
1788043755448676600,11.961676513671875,-196.2100067138672,-17.801000595092773,103.58800506591797
1788043755464943400,11.977943359375,-197.19801330566406,-16.630001068115234,102.88700866699219
1788043755480519400,11.99351953125,-196.30300903320312,-17.253000259399414,104.51000213623047
1788043755496403000,12.00940283203125,-195.14401245117188,-18.233001708984375,103.48100280761719
1788043755512577000,12.025576904296875,-197.69500732421875,-17.25800132751465,104.00200653076172
1788043755528502800,12.041502685546876,-195.97500610351562,-17.464000701904297,104.81300354003906
1788043755545106400,12.0581064453125,-194.70201110839844,-18.006999969482422,104.4000015258789
1788043755560661500,12.07366162109375,-195.76800537109375,-17.251001358032227,104.71300506591797
1788043755576701400,12.089701416015625,-195.26400756835938,-18.24100112915039,102.87000274658203
1788043755593104000,12.106103759765626,-195.99400329589844,-17.259000778198242,104.10200500488281
1788043755608808400,12.121808349609376,-195.5380096435547,-16.376001358032227,106.04500579833984
1788043755625517800,12.138517822265625,-197.2570037841797,-17.57400131225586,104.4070053100586
1788043755640968700,12.15396875,-196.72601318359375,-16.711000442504883,104.92300415039062
1788043755657044700,12.170044677734374,-197.2620086669922,-16.49700164794922,104.82400512695312
1788043755673231600,12.186231689453125,-196.39300537109375,-17.135000228881836,105.32600402832031
1788043755689270300,12.202270263671876,-197.2580108642578,-16.170000076293945,105.2340087890625
1788043755706109700,12.219109619140625,-196.69500732421875,-17.016000747680664,106.14300537109375
1788043755721278700,12.23427880859375,-196.16500854492188,-17.125,106.03900146484375
1788043755737214200,12.250214111328125,-194.59300231933594,-16.924001693725586,105.22400665283203
1788043755753538000,12.2665380859375,-195.9510040283203,-17.5570011138916,105.83100128173828
1788043755769413000,12.2824130859375,-194.9080047607422,-16.381000518798828,105.73800659179688
1788043755786099500,12.299099365234374,-197.03201293945312,-16.16200065612793,105.84500122070312
1788043755801858600,12.314858642578125,-196.1680145263672,-16.371000289916992,106.35100555419922
1788043755817652500,12.330652587890626,-197.01901245117188,-17.12700080871582,105.83600616455078
1788043755834029600,12.347029541015624,-195.7310028076172,-16.472000122070312,106.8590087890625
1788043755849990000,12.362989990234375,-194.07501220703125,-16.176000595092773,105.12800598144531
1788043755866633000,12.379633056640625,-195.32101440429688,-17.887001037597656,105.31800842285156
1788043755882068000,12.39506787109375,-195.19700622558594,-15.714000701904297,107.47600555419922
1788043755898351000,12.41135107421875,-195.4090118408203,-17.011001586914062,106.6500015258789
1788043755914803500,12.427803466796876,-194.89300537109375,-16.913000106811523,106.03900146484375
1788043755930280000,12.443280029296876,-197.01400756835938,-16.80000114440918,106.24700164794922
1788043755946733600,12.459733642578126,-194.8070068359375,-16.277000427246094,105.53500366210938
1788043755962752800,12.475752685546874,-195.72201538085938,-16.791000366210938,107.06000518798828
1788043755978341000,12.491341064453126,-195.74600219726562,-16.48200035095215,106.14600372314453
1788043755994397400,12.5073974609375,-194.04701232910156,-16.700000762939453,106.04000854492188
1788043756010843600,12.52384375,-195.32101440429688,-17.671001434326172,105.42200469970703
1788043756027010000,12.540010009765625,-194.7860107421875,-16.1560001373291,106.55500793457031
1788043756042570000,12.555570068359375,-194.04000854492188,-17.66900062561035,105.72600555419922
1788043756058446800,12.57144677734375,-194.52601623535156,-15.4350004196167,104.42200469970703
1788043756074662700,12.58766259765625,-196.6070098876953,-17.136001586914062,105.22500610351562
1788043756090628600,12.603628662109376,-196.48501586914062,-17.450000762939453,105.73100280761719
1788043756107224000,12.62022412109375,-195.135009765625,-16.93000030517578,104.71500396728516
1788043756122685200,12.635685302734375,-194.27500915527344,-17.358001708984375,104.91400146484375
1788043756138707000,12.65170703125,-194.92401123046875,-18.012001037597656,103.99200439453125
1788043756154874000,12.6678740234375,-195.5430145263672,-16.812000274658203,105.5320053100586
1788043756170965200,12.68396533203125,-194.9140167236328,-16.92500114440918,105.12200164794922
1788043756187454200,12.7004541015625,-194.1090087890625,-17.81800079345703,102.56700134277344
1788043756202906600,12.71590673828125,-195.0240020751953,-18.44099998474121,103.98900604248047
1788043756219367700,12.73236767578125,-195.166015625,-17.814001083374023,102.77200317382812
1788043756235109600,12.748109619140624,-194.7110137939453,-18.33700180053711,103.78500366210938
1788043756250989000,12.763989013671875,-191.97601318359375,-17.81599998474121,102.97200775146484
1788043756268080000,12.781080078125,-193.10501098632812,-17.683000564575195,104.8080062866211
1788043756283246300,12.796246337890626,-193.4110107421875,-19.404001235961914,104.28400421142578
1788043756299195100,12.812195068359374,-195.15501403808594,-16.29400062561035,104.21200561523438
1788043756315537200,12.828537109375,-194.9550018310547,-17.707000732421875,102.77300262451172
1788043756331332900,12.844332763671876,-195.76901245117188,-18.332000732421875,103.99100494384766
1788043756348287000,12.861286865234375,-196.20201110839844,-17.904001235961914,103.89300537109375
1788043756363467500,12.876467529296875,-195.34600830078125,-18.334001541137695,103.88800811767578
1788043756379384000,12.892384033203125,-195.45001220703125,-18.873001098632812,103.68000793457031
1788043756395602400,12.9086025390625,-195.55300903320312,-18.43800163269043,104.09100341796875
1788043756411588000,12.924588134765624,-196.21400451660156,-19.96500015258789,102.04100799560547
1788043756428344600,12.941344482421876,-195.78201293945312,-18.98900032043457,102.96600341796875
1788043756443673900,12.956673828125,-196.64601135253906,-18.780000686645508,102.46000671386719
1788043756460010800,12.9730107421875,-195.3920135498047,-19.119001388549805,101.33500671386719
1788043756475976000,12.988975830078125,-195.37001037597656,-20.402000427246094,101.52700805664062
1788043756492055600,13.0050556640625,-194.73300170898438,-20.40300178527832,101.52600860595703
1788043756508582000,13.021581787109374,-195.364013671875,-18.885000228881836,102.76300811767578
1788043756524548400,13.03754833984375,-194.0850067138672,-19.209001541137695,102.75800323486328
1788043756540285400,13.053285400390624,-194.52000427246094,-17.80900001525879,103.17900848388672
1788043756556376800,13.069376953125,-196.7890167236328,-19.450000762939453,100.41700744628906
1788043756573000400,13.08600048828125,-196.95701599121094,-20.50400161743164,101.73200225830078
1788043756589057800,13.102057861328126,-194.4340057373047,-19.119001388549805,101.43500518798828
1788043756604401200,13.117401123046875,-195.7840118408203,-19.85500144958496,102.34700775146484
1788043756620526800,13.13352685546875,-194.54600524902344,-19.554000854492188,100.92200469970703
1788043756636871400,13.149871337890625,-195.29000854492188,-20.310001373291016,100.4070053100586
1788043756652695800,13.16569580078125,-193.781005859375,-19.975000381469727,101.6310043334961
1788043756669500400,13.18250048828125,-195.27500915527344,-21.382001876831055,100.39800262451172
1788043756684663800,13.197663818359375,-195.4650115966797,-20.395000457763672,102.03600311279297
1788043756701042200,13.214042236328124,-195.1610107421875,-19.972000122070312,101.63200378417969
1788043756716826600,13.22982666015625,-195.1610107421875,-20.18800163269043,101.52900695800781
1788043756732739000,13.245739013671875,-194.30101013183594,-19.751001358032227,102.24400329589844
1788043756749409500,13.262409423828124,-195.17201232910156,-19.871000289916992,101.22600555419922
1788043756764900900,13.27790087890625,-194.19300842285156,-20.72300148010254,101.72600555419922
1788043756781374200,13.294374267578124,-196.0290069580078,-19.658000946044922,101.0250015258789
1788043756797087200,13.310087158203125,-193.4530029296875,-21.158000946044922,101.31400299072266
1788043756813139200,13.32613916015625,-195.37100219726562,-20.18600082397461,101.6310043334961
1788043756830143200,13.343143310546875,-195.07200622558594,-19.766000747680664,101.02300262451172
1788043756845216300,13.35821630859375,-195.0340118408203,-20.176000595092773,102.44500732421875
1788043756861249300,13.374249267578126,-195.49801635742188,-19.010000228881836,101.43800354003906
1788043756877458400,13.39045849609375,-195.76101684570312,-21.029001235961914,102.64200592041016
1788043756893484000,13.406484130859376,-195.57000732421875,-20.935001373291016,101.72600555419922
1788043756910101200,13.423101318359375,-195.16000366210938,-20.72800064086914,101.21800231933594
1788043756925548500,13.438548583984375,-196.84100341796875,-20.39000129699707,102.24200439453125
1788043756941515300,13.454515380859375,-196.010009765625,-19.538000106811523,101.94300842285156
1788043756957669600,13.470669677734374,-196.6110076904297,-19.51500129699707,103.57400512695312
1788043756973609000,13.48660888671875,-195.8880157470703,-19.529001235961914,102.656005859375
1788043756990314200,13.503314208984374,-195.89100646972656,-18.666000366210938,103.07100677490234
1788043757005717000,13.518717041015625,-194.8140106201172,-20.928001403808594,102.33700561523438
1788043757021762300,13.53476220703125,-195.11500549316406,-20.37700080871582,103.46200561523438
1788043757038368800,13.55136865234375,-197.541015625,-21.012001037597656,103.76500701904297
1788043757053819100,13.566819091796875,-196.94000244140625,-20.71000099182129,102.34100341796875
1788043757070461400,13.58346142578125,-196.60301208496094,-21.240001678466797,102.84500122070312
1788043757086402800,13.59940283203125,-195.9630126953125,-20.48200035095215,103.46200561523438
1788043757101931300,13.61493115234375,-197.1330108642578,-18.861000061035156,104.39500427246094
1788043757118148400,13.6311484375,-196.04701232910156,-19.280000686645508,105.20500183105469
1788043757134267600,13.647267578125,-196.14801025390625,-20.790000915527344,104.47900390625
1788043757150876000,13.6638759765625,-193.40200805664062,-20.911001205444336,103.76100158691406
1788043757166215700,13.679215576171876,-195.9510040283203,-19.827001571655273,104.38500213623047
1788043757182250800,13.695250732421876,-196.81600952148438,-20.051000595092773,103.56900787353516
1788043757198382300,13.71138232421875,-194.25201416015625,-20.154001235961914,104.1760025024414
1788043757214353200,13.727353271484375,-196.1060028076172,-19.100000381469727,102.66000366210938
1788043757230988300,13.74398828125,-195.8450164794922,-20.476001739501953,103.97200775146484
1788043757246524700,13.759524658203125,-196.06100463867188,-19.72100067138672,104.28400421142578
1788043757262547700,13.775547607421874,-194.72100830078125,-19.639001846313477,102.552001953125
1788043757278695700,13.79169580078125,-195.54200744628906,-20.161001205444336,103.46500396728516
1788043757294682600,13.8076826171875,-196.906005859375,-20.041000366210938,104.28300476074219
1788043757311328300,13.824328369140625,-195.031005859375,-19.418001174926758,103.06300354003906
1788043757326945800,13.83994580078125,-193.31201171875,-20.381000518798828,103.35800170898438
1788043757343289000,13.8562890625,-193.74000549316406,-18.977001190185547,104.0840072631836
1788043757359012600,13.8720126953125,-194.4080047607422,-19.211000442504883,102.55500793457031
1788043757375016200,13.88801611328125,-195.0330047607422,-20.283000946044922,102.44400787353516
1788043757391626000,13.9046259765625,-195.6610107421875,-20.385000228881836,102.75000762939453
1788043757407181000,13.92018115234375,-196.0760040283203,-21.135000228881836,102.74400329589844
1788043757423183600,13.93618359375,-195.5760040283203,-19.858001708984375,102.14300537109375
1788043757439366000,13.952365966796876,-194.9040069580078,-20.59400177001953,103.2560043334961
1788043757455265000,13.96826513671875,-194.30401611328125,-20.077001571655273,101.93600463867188
1788043757472205800,13.985205810546875,-194.30101013183594,-20.615001678466797,101.72700500488281
1788043757487388200,14.00038818359375,-193.91900634765625,-19.45400047302246,100.51500701904297
1788043757503515000,14.016514892578124,-193.53700256347656,-22.226001739501953,101.6100082397461
1788043757519888400,14.032888427734376,-195.47900390625,-20.512001037597656,101.32200622558594
1788043757535540500,14.04854052734375,-193.25001525878906,-20.948001861572266,101.01000213623047
1788043757552195600,14.065195556640624,-193.46600341796875,-20.73400115966797,101.01200103759766
1788043757567721500,14.080721435546875,-195.37701416015625,-21.05500030517578,100.8080062866211
1788043757583782100,14.0967822265625,-193.7740020751953,-21.159000396728516,101.21300506591797
1788043757600389000,14.11338916015625,-195.05601501464844,-21.378000259399414,100.7030029296875
1788043757615898400,14.1288984375,-195.03001403808594,-21.470001220703125,101.82300567626953
1788043757632534300,14.1455341796875,-194.77101135253906,-19.45400047302246,100.41400146484375
1788043757648507400,14.16150732421875,-194.10400390625,-21.814001083374023,100.29000854492188
1788043757664051500,14.177051513671875,-193.8820037841797,-21.48400115966797,100.90400695800781
1788043757680257800,14.1932578125,-192.1320037841797,-22.753000259399414,102.41900634765625
1788043757696146000,14.20914599609375,-194.2410125732422,-21.509000778198242,99.07100677490234
1788043757712891600,14.2258916015625,-195.25601196289062,-22.12700080871582,100.79900360107422
1788043757728339700,14.241339599609375,-195.0340118408203,-21.797000885009766,101.41200256347656
1788043757744366000,14.257365966796876,-196.33900451660156,-22.246000289916992,99.7800064086914
1788043757760521000,14.27352099609375,-193.87001037597656,-22.34200096130371,100.89700317382812
1788043757776507100,14.289507080078126,-194.42401123046875,-23.003000259399414,99.46500396728516
1788043757793275100,14.306275146484374,-193.99301147460938,-23.32400131225586,99.56400299072266
1788043757809046500,14.322046630859376,-193.77700805664062,-23.75400161743164,99.4580078125
1788043757824713700,14.337713623046875,-194.86900329589844,-21.069000244140625,99.78900146484375
1788043757841354000,14.35435400390625,-194.48001098632812,-21.740001678466797,97.74500274658203
1788043757856907500,14.369907470703126,-195.6850128173828,-22.66900062561035,100.28500366210938
1788043757873397800,14.386397705078124,-194.2130126953125,-22.8960018157959,99.46600341796875
1788043757889392000,14.40239208984375,-194.61300659179688,-23.529001235961914,100.17400360107422
1788043757905503700,14.418503662109375,-195.56201171875,-24.172000885009766,100.06800842285156
1788043757921075200,14.4340751953125,-195.17901611328125,-23.009000778198242,98.9570083618164
1788043757937022700,14.450022705078124,-194.1840057373047,-24.176000595092773,99.96400451660156
1788043757953798400,14.46679833984375,-194.86001586914062,-22.03700065612793,99.57600402832031
1788043757969152000,14.482152099609374,-193.9180145263672,-22.371000289916992,98.75700378417969
1788043757985085700,14.498085693359375,-194.32501220703125,-24.30500030517578,98.3330078125
1788043758001403100,14.514403076171876,-194.30601501464844,-23.53700065612793,99.66400146484375
1788043758017465900,14.5304658203125,-194.2340087890625,-22.69300079345703,98.65300750732422
1788043758033928400,14.546928466796874,-194.30300903320312,-24.075000762939453,99.45600128173828
1788043758049469000,14.562468994140625,-195.29200744628906,-23.121000289916992,98.54900360107422
1788043758065442000,14.578442138671875,-195.2890167236328,-24.849000930786133,97.61700439453125
1788043758081623000,14.594623046875,-194.07901000976562,-24.069000244140625,99.96500396728516
1788043758097697300,14.610697265625,-193.3520050048828,-22.782001495361328,100.0770034790039
1788043758114247200,14.6272470703125,-193.66900634765625,-24.18600082397461,99.25000762939453
1788043758129706500,14.64270654296875,-194.85301208496094,-23.330001831054688,99.0560073852539
1788043758146398500,14.6593984375,-195.25401306152344,-23.74700164794922,99.86700439453125
1788043758162452000,14.675451904296875,-194.30801391601562,-24.726001739501953,98.83900451660156
1788043758177813000,14.69081298828125,-195.67901611328125,-23.746000289916992,99.86800384521484
1788043758194446800,14.70744677734375,-194.8000030517578,-25.351001739501953,100.15800476074219
1788043758209953300,14.722953369140624,-192.47100830078125,-25.034000396728516,100.0560073852539
1788043758226288400,14.739288330078125,-193.90301513671875,-22.79400062561035,99.16100311279297
1788043758242193700,14.755193603515625,-194.10101318359375,-23.650001525878906,99.2560043334961
1788043758258197500,14.771197509765624,-195.9860076904297,-24.387001037597656,99.96500396728516
1788043758274841900,14.787841796875,-194.74600219726562,-21.924001693725586,99.9850082397461
1788043758290349300,14.803349365234375,-192.57301330566406,-24.49100112915039,100.57100677490234
1788043758306416600,14.819416748046875,-194.95001220703125,-23.86400032043457,99.15300750732422
1788043758322676700,14.8356767578125,-191.86801147460938,-23.543001174926758,99.4570083618164
1788043758338486800,14.85148681640625,-192.80801391601562,-24.505001068115234,99.552001953125
1788043758355244000,14.868244140625,-194.6940155029297,-23.08100128173828,101.60400390625
1788043758370761200,14.88376123046875,-192.90701293945312,-23.52800178527832,100.4780044555664
1788043758386598700,14.8995986328125,-193.08900451660156,-23.293001174926758,102.00800323486328
1788043758402817800,14.91581787109375,-195.34100341796875,-23.951000213623047,100.5790023803711
1788043758419140600,14.932140625,-193.0340118408203,-23.216001510620117,99.76700592041016
1788043758435415600,14.94841552734375,-191.96701049804688,-22.782001495361328,100.27900695800781
1788043758450973400,14.963973388671874,-193.9630126953125,-22.658000946044922,101.302001953125
1788043758467375400,14.980375244140625,-195.6320037841797,-24.150001525878906,101.69800567626953
1788043758483130600,14.996130615234375,-195.25601196289062,-23.099000930786133,100.17900848388672
1788043758499134500,15.012134521484375,-196.30401611328125,-22.657001495361328,101.10100555419922
1788043758515740400,15.028740478515624,-193.01400756835938,-21.691001892089844,101.61400604248047
1788043758531744500,15.04474462890625,-191.8330078125,-22.657001495361328,101.60400390625
1788043758547221500,15.060221435546875,-193.62600708007812,-22.21500015258789,102.4260025024414
1788043758563497200,15.076497314453125,-192.46200561523438,-23.08300018310547,101.7030029296875
1788043758579460900,15.0924609375,-192.69801330566406,-20.18000030517578,102.44200134277344
1788043758595953400,15.108953369140625,-194.07901000976562,-22.123001098632812,101.20500183105469
1788043758611406300,15.12440625,-194.70001220703125,-22.761001586914062,101.5050048828125
1788043758627403000,15.140403076171875,-194.2890167236328,-22.121000289916992,101.3070068359375
1788043758643559200,15.15655908203125,-191.82901000976562,-22.11400032043457,102.11900329589844
1788043758659572200,15.172572265625,-191.74600219726562,-20.940000534057617,101.82300567626953
1788043758676609300,15.189609375,-193.50900268554688,-22.641000747680664,102.62500762939453
1788043758691806500,15.204806396484376,-193.2270050048828,-21.475000381469727,101.71900177001953
1788043758707716600,15.220716552734375,-193.63900756835938,-22.547000885009766,101.60800170898438
1788043758724441600,15.237441650390625,-191.5390167236328,-22.34800148010254,100.69000244140625
1788043758739818800,15.25281884765625,-191.8360137939453,-21.578001022338867,102.12300109863281
1788043758756488000,15.269488037109374,-193.3900146484375,-23.39000129699707,102.72000122070312
1788043758772164900,15.285164794921876,-193.09600830078125,-22.648000717163086,102.11500549316406
1788043758788173800,15.301173828125,-192.78700256347656,-22.43800163269043,101.81100463867188
1788043758804393700,15.317393798828125,-193.33700561523438,-21.69300079345703,101.41100311279297
1788043758820326000,15.333325927734375,-194.5860137939453,-22.86400032043457,101.81000518798828
1788043758837144800,15.350144775390625,-192.08700561523438,-21.601001739501953,100.39200592041016
1788043758852523300,15.365523193359374,-192.1420135498047,-22.003000259399414,102.4260025024414
1788043758868500000,15.3815,-191.5640106201172,-22.363000869750977,99.56900787353516
1788043758884693800,15.39769384765625,-191.43301391601562,-22.457000732421875,100.58700561523438
1788043758900562000,15.41356201171875,-190.05300903320312,-23.648000717163086,99.86200714111328
1788043758917206800,15.430206787109375,-190.25601196289062,-22.77800178527832,100.78600311279297
1788043758932630300,15.44563037109375,-193.13600158691406,-22.67300033569336,100.2820053100586
1788043758949116700,15.46211669921875,-191.74400329589844,-22.560001373291016,100.89200592041016
1788043758964909000,15.477908935546875,-193.34901428222656,-22.457000732421875,100.38600158691406
1788043758981246500,15.49424658203125,-191.4320068359375,-24.834001541137695,99.14000701904297
1788043758997388500,15.510388427734375,-192.29701232910156,-22.788002014160156,99.77000427246094
1788043759012871700,15.52587158203125,-192.20401000976562,-21.9320011138916,99.6760025024414
1788043759028930600,15.5419306640625,-192.09600830078125,-23.1200008392334,99.05400848388672
1788043759045157000,15.5581572265625,-192.08900451660156,-23.115001678466797,99.3600082397461
1788043759061085200,15.574085205078125,-191.74600219726562,-23.858001708984375,99.96400451660156
1788043759077584400,15.59058447265625,-193.2370147705078,-23.21000099182129,100.17500305175781
1788043759093239000,15.606239013671875,-191.9600067138672,-24.075000762939453,99.75800323486328
1788043759109150000,15.62214990234375,-190.29200744628906,-24.312000274658203,98.22600555419922
1788043759125265700,15.638265625,-194.07000732421875,-24.927001953125,99.8550033569336
1788043759141480200,15.654480224609374,-192.27301025390625,-24.827001571655273,99.54800415039062
1788043759157922600,15.670922607421875,-193.11001586914062,-25.250001907348633,99.85100555419922
1788043759173384200,15.68638427734375,-191.6300048828125,-23.96000099182129,100.37000274658203
1788043759189264600,15.7022646484375,-189.73800659179688,-23.542001724243164,99.76000213623047
1788043759205695200,15.7186953125,-191.34600830078125,-24.41400146484375,98.5320053100586
1788043759221533700,15.73453369140625,-191.4550018310547,-24.19900131225586,98.53400421142578
1788043759238481200,15.751481201171876,-191.2410125732422,-24.3070011138916,98.53300476074219
1788043759253556700,15.766556640625,-190.49501037597656,-23.874000549316406,98.94300842285156
1788043759269673700,15.782673828125,-192.41200256347656,-22.578001022338867,99.46700286865234
1788043759286322000,15.799322021484375,-190.68101501464844,-24.290000915527344,99.85700225830078
1788043759301981700,15.814981689453125,-190.67800903320312,-25.801000595092773,99.02900695800781
1788043759318493200,15.8314931640625,-192.6160125732422,-23.869001388549805,99.04800415039062
1788043759334009000,15.847009033203125,-190.67300415039062,-24.71700096130371,99.95500183105469
1788043759350092800,15.8630927734375,-190.04000854492188,-24.72100067138672,99.75000762939453
1788043759366372900,15.879372802734375,-190.3620147705078,-24.830001831054688,99.54600524902344
1788043759382174700,15.8951748046875,-191.12600708007812,-23.00400161743164,99.76700592041016
1788043759398800000,15.9117998046875,-190.77801513671875,-23.636001586914062,100.6780014038086
1788043759414545700,15.927545654296875,-190.88900756835938,-24.71900177001953,99.75100708007812
1788043759430494200,15.943494140625,-190.17800903320312,-23.44300079345703,99.1510009765625
1788043759446679300,15.95967919921875,-190.25201416015625,-23.748001098632812,100.37000274658203
1788043759462424300,15.97542431640625,-189.5430145263672,-22.58100128173828,99.56500244140625
1788043759479404000,15.992404052734376,-188.89401245117188,-22.46700096130371,100.1760025024414
1788043759495191000,16.00819091796875,-191.11900329589844,-22.46000099182129,100.38300323486328
1788043759510778600,16.023778564453124,-192.17800903320312,-22.349000930786133,100.58900451660156
1788043759526857500,16.039857421875,-189.27200317382812,-24.707000732421875,100.87000274658203
1788043759543340000,16.056340087890625,-190.23501586914062,-22.873001098632812,101.7020034790039
1788043759559464400,16.07246435546875,-191.19601440429688,-23.73900032043457,100.8810043334961
1788043759575101400,16.088101318359374,-188.95701599121094,-23.089000701904297,101.69900512695312
1788043759591093200,16.10409326171875,-192.0240020751953,-22.536001205444336,102.62400817871094
1788043759607133700,16.1201337890625,-190.0810089111328,-23.492000579833984,103.4280014038086
1788043759623220500,16.136220458984376,-192.031005859375,-21.676000595092773,102.83600616455078
1788043759639757800,16.1527578125,-190.4630126953125,-21.69300079345703,101.71300506591797
1788043759655233500,16.168233642578127,-190.93701171875,-22.522001266479492,103.74400329589844
1788043759671282400,16.184282470703124,-190.45201110839844,-20.714000701904297,102.84200286865234
1788043759687441400,16.20044140625,-190.52700805664062,-22.316001892089844,103.23600769042969
1788043759703446500,16.216446533203126,-191.58900451660156,-22.314001083374023,103.23700714111328
1788043759720121900,16.233121826171875,-189.9910125732422,-21.017000198364258,104.26500701904297
1788043759735714600,16.248714599609375,-191.25100708007812,-20.898000717163086,104.98100280761719
1788043759751742500,16.264742431640624,-191.3900146484375,-21.782001495361328,102.93600463867188
1788043759767820500,16.280820556640624,-191.25401306152344,-21.6560001373291,104.36300659179688
1788043759783904000,16.296904052734376,-192.21600341796875,-20.902000427246094,104.57500457763672
1788043759800654800,16.31365478515625,-191.2580108642578,-21.226001739501953,104.46900177001953
1788043759815692300,16.3286923828125,-189.98001098632812,-21.658000946044922,104.36100769042969
1788043759831787800,16.344787841796876,-190.05801391601562,-22.397001266479492,105.17000579833984
1788043759847948500,16.360948486328127,-191.24200439453125,-20.56800079345703,105.59500122070312
1788043759863891000,16.376890869140624,-190.26600646972656,-21.854000091552734,105.68400573730469
1788043759880658000,16.393657958984374,-190.59100341796875,-22.1820011138916,105.17200469970703
1788043759896038100,16.4090380859375,-193.15000915527344,-21.968000411987305,104.87200164794922
1788043759912248800,16.425248779296876,-190.26800537109375,-20.88300132751465,106.2020034790039
1788043759928396300,16.441396240234376,-191.06201171875,-20.696001052856445,104.06600189208984
1788043759944552700,16.457552734375,-190.1680145263672,-21.10300064086914,105.79300689697266
1788043759960972500,16.47397265625,-190.57101440429688,-21.19700050354004,106.7090072631836
1788043759977047000,16.490047119140623,-191.65301513671875,-19.911001205444336,106.62000274658203
1788043759992489500,16.505489501953125,-191.22601318359375,-21.5310001373291,105.68800354003906
1788043760008461000,16.5214609375,-191.0070037841797,-20.87900161743164,106.4070053100586
1788043760024447000,16.537447021484375,-190.90701293945312,-20.775001525878906,106.2040023803711
1788043760041157400,16.554157470703124,-190.5810089111328,-21.635000228881836,105.99200439453125
1788043760057320700,16.57032080078125,-189.08401489257812,-20.551000595092773,107.12000274658203
1788043760072729900,16.585729736328126,-192.92401123046875,-20.44700050354004,106.41300201416016
1788043760089091300,16.60209130859375,-190.54501342773438,-20.96500015258789,108.03500366210938
1788043760105245000,16.618244873046876,-190.90301513671875,-20.016000747680664,106.82200622558594
1788043760121375200,16.634375244140625,-190.77200317382812,-19.029001235961914,108.56200408935547
1788043760137068500,16.650068603515624,-189.0690155029297,-20.650001525878906,107.73100280761719
1788043760153008000,16.666008056640624,-193.07701110839844,-21.924001693725586,108.13200378417969
1788043760169171700,16.682171630859376,-192.4560089111328,-19.77400016784668,108.76100158691406
1788043760185263000,16.69826318359375,-189.72201538085938,-19.361000061035156,107.84500885009766
1788043760201739500,16.714739501953126,-189.64601135253906,-19.272001266479492,106.52100372314453
1788043760217412000,16.730412109375,-188.53900146484375,-19.78700065612793,108.24700164794922
1788043760233255200,16.746255126953123,-189.27101135253906,-18.806001663208008,109.37700653076172
1788043760249499400,16.76249951171875,-191.50601196289062,-19.886001586914062,108.4540023803711
1788043760265346600,16.7783466796875,-188.86900329589844,-20.441001892089844,107.32500457763672
1788043760282163500,16.79516357421875,-191.8170166015625,-19.44900131225586,109.06900787353516
1788043760297561900,16.810561767578125,-189.27200317382812,-19.671001434326172,108.75800323486328
1788043760314153500,16.827153564453123,-189.72900390625,-19.150001525878906,107.64300537109375
1788043760329780000,16.842780029296875,-191.302001953125,-19.135000228881836,108.56200408935547
1788043760345598000,16.858597900390624,-191.0760040283203,-19.12700080871582,109.17300415039062
1788043760362692600,16.875692626953125,-189.79501342773438,-18.801000595092773,109.6830062866211
1788043760377766400,16.890766357421874,-188.4300079345703,-20.325000762939453,108.03800201416016
1788043760393821000,16.906821044921877,-191.51100158691406,-18.701000213623047,108.97300720214844
1788043760410145000,16.92314501953125,-190.04200744628906,-18.714000701904297,108.156005859375
1788043760426079000,16.939078857421876,-189.50401306152344,-19.251001358032227,108.15100860595703
1788043760442730500,16.95573046875,-190.8520050048828,-19.985000610351562,109.16500854492188
1788043760458214000,16.9712138671875,-190.739013671875,-20.09000015258789,109.36800384521484
1788043760474121700,16.987121826171876,-189.91900634765625,-20.10900115966797,108.04200744628906
1788043760490344200,17.00334423828125,-190.31300354003906,-19.549001693725586,109.77900695800781
1788043760506413600,17.01941357421875,-188.5170135498047,-19.5570011138916,109.36900329589844
1788043760523031000,17.036031005859375,-192.8990020751953,-20.108001708984375,107.74000549316406
1788043760538702600,17.05170263671875,-191.18800354003906,-20.32000160217285,108.14400482177734
1788043760554454800,17.067454833984375,-189.1300048828125,-18.74100112915039,106.22000885009766
1788043760570608600,17.083608642578124,-188.83900451660156,-19.99100112915039,108.9590072631836
1788043760586568200,17.099568115234376,-190.01901245117188,-19.889001846313477,108.4520034790039
1788043760603232000,17.11623193359375,-190.15000915527344,-19.795000076293945,107.43400573730469
1788043760619204900,17.132204833984375,-190.96600341796875,-20.530000686645508,108.44700622558594
1788043760634777300,17.14777734375,-192.67300415039062,-20.424001693725586,108.14500427246094
1788043760651014000,17.164013916015627,-189.91900634765625,-20.757001876831055,107.6290054321289
1788043760667065900,17.18006591796875,-191.927001953125,-20.64000129699707,108.14200592041016
1788043760683606500,17.1966064453125,-190.34100341796875,-21.83500099182129,107.11100769042969
1788043760699127300,17.212127197265627,-188.34201049804688,-20.121000289916992,107.3270034790039
1788043760715230000,17.22822998046875,-190.79701232910156,-19.908000946044922,106.92400360107422
1788043760731720400,17.244720458984375,-193.00900268554688,-21.191001892089844,106.91600799560547
1788043760747324200,17.26032421875,-191.85800170898438,-20.231000900268555,106.71900177001953
1788043760764148200,17.277148193359373,-190.2830047607422,-20.46000099182129,105.79800415039062
1788043760779375600,17.292375732421874,-190.3620147705078,-20.119001388549805,107.2280044555664
1788043760795459000,17.308458984375,-190.49200439453125,-20.674001693725586,105.79700469970703
1788043760812000800,17.325000732421874,-192.9340057373047,-19.69700050354004,106.42000579833984
1788043760827474400,17.340474365234375,-191.1840057373047,-21.290000915527344,107.7280044555664
1788043760844201500,17.357201416015624,-189.97500610351562,-19.062000274658203,106.21800231933594
1788043760859796700,17.372796630859376,-191.20701599121094,-20.439001083374023,107.22600555419922
1788043760876221200,17.38922119140625,-191.6120147705078,-21.075000762939453,107.7300033569336
1788043760891936800,17.404936767578125,-190.79701232910156,-20.23200035095215,106.71800231933594
1788043760907722200,17.42072216796875,-191.44801330566406,-19.69900131225586,106.41800689697266
1788043760924683000,17.43768310546875,-190.5690155029297,-20.87200164794922,107.01800537109375
1788043760939881000,17.452880859375,-190.09600830078125,-19.28700065612793,105.40100860595703
1788043760956063000,17.46906298828125,-190.3880157470703,-20.567001342773438,105.79800415039062
1788043760972117800,17.48511767578125,-191.6610107421875,-20.780000686645508,105.69500732421875
1788043760987997400,17.50099755859375,-190.3820037841797,-20.9950008392334,105.79400634765625
1788043761004692500,17.5176923828125,-191.00001525878906,-21.73900032043457,106.19500732421875
1788043761020230700,17.533230712890624,-189.760009765625,-19.709001541137695,105.906005859375
1788043761036378600,17.549378662109376,-191.6750030517578,-21.437000274658203,104.67100524902344
1788043761052374500,17.56537451171875,-192.2860107421875,-20.880001068115234,106.20500183105469
1788043761068586200,17.581586181640624,-190.47500610351562,-21.744001388549805,105.88900756835938
1788043761085311000,17.59831103515625,-189.64401245117188,-20.56800079345703,105.79700469970703
1788043761100408600,17.61340869140625,-190.18101501464844,-20.13800048828125,105.8010025024414
1788043761116464600,17.629464599609374,-190.57000732421875,-20.764001846313477,107.01800537109375
1788043761133119200,17.646119140625,-192.0800018310547,-20.560001373291016,106.1050033569336
1788043761148706600,17.66170654296875,-189.94500732421875,-21.529001235961914,105.99200439453125
1788043761165301000,17.678301025390624,-192.0640106201172,-21.415000915527344,106.302001953125
1788043761181332700,17.694332763671873,-192.47900390625,-21.948001861572266,106.39900207519531
1788043761196913400,17.709913330078123,-191.22401428222656,-21.854000091552734,105.5840072631836
1788043761213085700,17.726085693359376,-193.4600067138672,-21.746000289916992,105.38400268554688
1788043761229031400,17.742031494140626,-190.40200805664062,-19.386001586914062,105.91000366210938
1788043761246043000,17.75904296875,-190.8070068359375,-21.428001403808594,105.4850082397461
1788043761261130500,17.774130615234377,-191.0120086669922,-20.666000366210938,106.3070068359375
1788043761277515800,17.790515869140624,-189.11300659179688,-20.2450008392334,106.00300598144531
1788043761293838000,17.806838134765623,-191.74301147460938,-21.198001861572266,106.50700378417969
1788043761309775000,17.822775146484375,-191.6370086669922,-21.41400146484375,106.40300750732422
1788043761326332700,17.839332763671877,-191.0150146484375,-21.749000549316406,105.48200225830078
1788043761341501400,17.85450146484375,-191.32301330566406,-21.850000381469727,105.88900756835938
1788043761357607700,17.870607666015626,-192.8260040283203,-21.209001541137695,105.59100341796875
1788043761373740300,17.886740234375,-191.70701599121094,-22.040000915527344,107.62000274658203
1788043761389826000,17.902825927734376,-190.13600158691406,-20.760000228881836,107.42500305175781
1788043761406374000,17.919373779296876,-190.2270050048828,-21.72300148010254,107.51900482177734
1788043761422026000,17.93502587890625,-191.3990020751953,-21.075000762939453,107.7300033569336
1788043761438571500,17.951571533203126,-189.68600463867188,-21.60900115966797,108.02900695800781
1788043761454029800,17.96702978515625,-192.46701049804688,-20.96900177001953,107.52800750732422
1788043761470018800,17.983018798828127,-191.57701110839844,-22.45800018310547,108.4310073852539
1788043761487001300,18.00000146484375,-191.3780059814453,-21.60300064086914,108.33600616455078
1788043761502116000,18.0151162109375,-189.74200439453125,-23.09200096130371,109.34000396728516
1788043761518119700,18.03111962890625,-189.8900146484375,-22.036001205444336,108.12700653076172
1788043761534351000,18.04735107421875,-191.12901306152344,-21.797000885009766,109.86200714111328
1788043761550374700,18.063374755859375,-190.5050048828125,-21.049001693725586,109.76600646972656
1788043761566961200,18.079961181640623,-191.15200805664062,-21.48600196838379,109.05000305175781
1788043761582462000,18.0954619140625,-192.3070068359375,-22.233001708984375,109.14700317382812
1788043761598470400,18.111470458984375,-192.69900512695312,-22.429000854492188,110.47000885009766
1788043761614641000,18.127640869140624,-190.49200439453125,-21.14900016784668,110.2750015258789
1788043761630657500,18.143657470703126,-190.47201538085938,-21.246000289916992,111.08900451660156
1788043761647207700,18.160207763671874,-190.656005859375,-21.660001754760742,112.10400390625
1788043761662769700,18.175769775390624,-192.14801025390625,-20.256000518798828,112.7300033569336
1788043761678856000,18.19185595703125,-191.3880157470703,-21.976001739501953,112.40800476074219
1788043761695504400,18.20850439453125,-190.52101135253906,-21.96700096130371,113.22200775146484
1788043761711059500,18.2240595703125,-191.68701171875,-21.748001098632812,113.42900848388672
1788043761727583700,18.240583740234374,-191.04501342773438,-21.09800148010254,114.04500579833984
1788043761743778600,18.256778564453125,-189.57400512695312,-21.325000762939453,113.22600555419922
1788043761759122000,18.272121826171876,-191.05401611328125,-21.10300064086914,113.63700866699219
1788043761775440100,18.288440185546875,-191.00900268554688,-21.076000213623047,115.67500305175781
1788043761791497200,18.304497314453126,-191.03500366210938,-20.875001907348633,114.65800476074219
1788043761808068400,18.321068359375,-191.8450164794922,-20.418001174926758,116.70100402832031
1788043761823366100,18.3363662109375,-190.99700927734375,-21.500001907348633,115.97700500488281
1788043761839399400,18.3523994140625,-191.1120147705078,-21.290000915527344,115.67300415039062
1788043761855422200,18.368422119140625,-192.5340118408203,-21.57200050354004,118.42300415039062
1788043761871616300,18.3846162109375,-190.31100463867188,-20.716001510620117,118.6310043334961
1788043761888227300,18.401227294921874,-191.36300659179688,-21.897001266479492,118.31700897216797
1788043761904100000,18.41710009765625,-190.0380096435547,-22.30000114440918,120.34900665283203
1788043761920102100,18.43310205078125,-190.302001953125,-22.33100128173828,118.0060043334961
1788043761935937500,18.4489375,-192.0670166015625,-21.115001678466797,120.56600952148438
1788043761951776300,18.4647763671875,-191.8380126953125,-21.32200050354004,121.17500305175781
1788043761968490800,18.48149072265625,-192.64801025390625,-22.37700080871582,122.28700256347656
1788043761984245800,18.497245849609374,-193.72401428222656,-21.19500160217285,122.40100860595703
1788043762000402000,18.51340185546875,-192.74000549316406,-21.288000106811523,123.62100219726562
1788043762016182800,18.529182861328124,-189.93800354003906,-21.8070011138916,125.14100646972656
1788043762032843300,18.54584326171875,-192.60301208496094,-20.83700180053711,125.2550048828125
1788043762049057800,18.562057861328125,-191.49301147460938,-21.566001892089844,126.9780044555664
1788043762064560000,18.57756005859375,-193.79200744628906,-23.269001007080078,127.5780029296875
1788043762080289000,18.5932890625,-190.8820037841797,-22.599000930786133,129.92300415039062
1788043762096485400,18.6094853515625,-192.68600463867188,-22.812000274658203,129.8209991455078
1788043762112416300,18.625416259765625,-192.6330108642578,-23.32000160217285,131.85400390625
1788043762129216300,18.64221630859375,-191.6380157470703,-24.703001022338867,132.7570037841797
1788043762144617000,18.657616943359375,-192.68600463867188,-24.69300079345703,133.37001037597656
1788043762160732400,18.673732421875,-192.0590057373047,-25.45600128173828,132.4459991455078
1788043762177034500,18.690034423828124,-193.0780029296875,-26.077001571655273,133.97000122070312
1788043762193000700,18.706000732421874,-191.802001953125,-25.753002166748047,134.2760009765625
1788043762209758000,18.722758056640625,-190.90200805664062,-27.237001419067383,135.5860137939453
1788043762225043500,18.73804345703125,-192.0430145263672,-26.246002197265625,137.4300079345703
1788043762241291800,18.754291748046874,-192.28201293945312,-26.47800064086914,136.10400390625
1788043762257712000,18.770712158203125,-191.30101013183594,-27.437002182006836,136.60400390625
1788043762273396000,18.78639599609375,-191.25401306152344,-28.70600128173828,137.91700744628906
1788043762289962200,18.802962158203126,-190.8360137939453,-28.926000595092773,137.5070037841797
1788043762305764900,18.818764892578123,-192.11001586914062,-29.249000549316406,137.302001953125
1788043762321506600,18.834506591796874,-192.03001403808594,-30.281002044677734,140.24700927734375
1788043762337697000,18.850697021484375,-190.83900451660156,-31.566001892089844,140.43800354003906
1788043762353878000,18.8668779296875,-192.7620086669922,-32.21800231933594,139.51800537109375
1788043762370199800,18.88319970703125,-189.86801147460938,-32.531002044677734,140.53001403808594
1788043762385668000,18.898668212890627,-191.22300720214844,-33.702003479003906,140.9290008544922
1788043762401896400,18.914896484375,-190.45901489257812,-33.691001892089844,141.84500122070312
1788043762417933800,18.930933837890624,-189.46900939941406,-34.75200271606445,142.75100708007812
1788043762434027000,18.947027099609375,-190.86001586914062,-35.29600143432617,141.93301391601562
1788043762450559200,18.963559326171875,-191.65501403808594,-36.775001525878906,143.44900512695312
1788043762466040000,18.9790400390625,-191.5550079345703,-36.77900314331055,143.14300537109375
1788043762482133200,18.99513330078125,-193.0390167236328,-36.775001525878906,143.24700927734375
1788043762498294000,19.0112939453125,-193.37701416015625,-37.867000579833984,141.7100067138672
1788043762514261500,19.027261474609375,-190.79200744628906,-39.038002014160156,142.61300659179688
1788043762531062500,19.0440625,-192.1400146484375,-39.23200225830078,143.93701171875
1788043762546781200,19.05978125,-191.83401489257812,-39.99700164794922,142.9110107421875
1788043762563044900,19.076044921875,-190.5130157470703,-41.051002502441406,144.3260040283203
1788043762578742300,19.0917421875,-193.21200561523438,-41.6140022277832,141.9820098876953
1788043762595031600,19.108031494140626,-192.87301635742188,-41.27800369262695,143.10501098632812
1788043762611323100,19.1243232421875,-192.75201416015625,-42.67400360107422,142.88900756835938
1788043762626727700,19.139727783203124,-191.64801025390625,-44.59600067138672,143.5830078125
1788043762642728700,19.155728759765626,-192.16700744628906,-44.80400085449219,143.99000549316406
1788043762658845700,19.171845703125,-192.59701538085938,-43.402000427246094,144.614013671875
1788043762674932700,19.1879326171875,-190.56100463867188,-46.095001220703125,143.77301025390625
1788043762691606500,19.2046064453125,-193.50201416015625,-47.90800094604492,144.06600952148438
1788043762706916000,19.219916015625,-192.34201049804688,-48.02300262451172,143.656005859375
1788043762723085800,19.2360859375,-191.80101013183594,-48.88200378417969,143.54600524902344
1788043762739175200,19.252175048828125,-193.40000915527344,-49.10000228881836,143.13800048828125
1788043762755106300,19.268106201171875,-190.4110107421875,-48.44600296020508,144.26100158691406
1788043762771830300,19.284830322265623,-194.14401245117188,-49.85600280761719,142.6230010986328
1788043762787341300,19.30034130859375,-192.4860076904297,-52.30400085449219,144.0260009765625
1788043762803425500,19.316425537109374,-192.97100830078125,-51.04300308227539,142.1020050048828
1788043762819877000,19.332877197265624,-192.32200622558594,-51.577003479003906,142.3000030517578
1788043762835400700,19.348400634765625,-191.43101501464844,-52.958003997802734,143.30599975585938
1788043762852062500,19.3650625,-192.61700439453125,-52.967002868652344,142.49200439453125
1788043762867504000,19.380504150390625,-193.26400756835938,-53.08000183105469,141.98300170898438
1788043762883563000,19.39656298828125,-193.02601623535156,-53.60600280761719,142.79299926757812
1788043762899745300,19.412745361328124,-192.61500549316406,-53.39900207519531,142.28500366210938
1788043762915690500,19.4286904296875,-192.25601196289062,-55.86000442504883,142.56800842285156
1788043762932416000,19.445416015625,-191.2060089111328,-54.35600280761719,142.98699951171875
1788043762947981600,19.460981689453124,-192.0590057373047,-54.573001861572266,142.68099975585938
1788043762964096300,19.47709619140625,-191.2100067138672,-55.547000885009766,142.0600128173828
1788043762980081700,19.49308154296875,-192.0430145263672,-58.346004486083984,141.01800537109375
1788043762996158200,19.509158203125,-191.40101623535156,-57.58700180053711,141.73699951171875
1788043763012964000,19.525964111328125,-193.1490020751953,-56.858001708984375,140.01400756835938
1788043763028394800,19.541394775390625,-193.5360107421875,-58.2390022277832,140.81700134277344
1788043763044224800,19.557224853515624,-192.88400268554688,-59.63600158691406,140.60000610351562
1788043763060420900,19.5734208984375,-193.32901000976562,-59.000003814697266,140.0970001220703
1788043763076871400,19.589871337890624,-193.69700622558594,-60.47700119018555,141.71400451660156
1788043763093108700,19.606108642578125,-190.1300048828125,-61.15800476074219,139.3610076904297
1788043763108543200,19.621543212890625,-193.8360137939453,-62.22600173950195,139.15200805664062
1788043763125013200,19.63801318359375,-193.23300170898438,-61.708003997802734,137.9340057373047
1788043763141089800,19.65408984375,-192.0390167236328,-60.61300277709961,139.77500915527344
1788043763156710100,19.669710205078125,-193.5380096435547,-61.69900131225586,138.54501342773438
1788043763173395500,19.6863955078125,-192.86801147460938,-63.40900421142578,138.93701171875
1788043763188960500,19.70196044921875,-192.79501342773438,-64.18600463867188,136.99400329589844
1788043763205395200,19.718395263671876,-193.2130126953125,-63.31700134277344,137.81700134277344
1788043763221176300,19.73417626953125,-194.26101684570312,-64.81999969482422,137.5
1788043763237333200,19.750333251953126,-192.57101440429688,-64.8280029296875,137.0900115966797
1788043763253896000,19.76689599609375,-191.27801513671875,-65.03500366210938,137.8000030517578
1788043763269229600,19.7822294921875,-193.43600463867188,-64.40299987792969,136.68800354003906
1788043763285272300,19.798272216796875,-193.9320068359375,-66.21900177001953,137.0800018310547
1788043763301583600,19.81458349609375,-191.85301208496094,-66.14100646972656,135.1420135498047
1788043763317534200,19.8305341796875,-193.83700561523438,-66.76600646972656,136.260009765625
1788043763334051300,19.84705126953125,-191.84800720214844,-66.0300064086914,135.44900512695312
1788043763349639700,19.8626396484375,-193.01100158691406,-66.56500244140625,135.34400939941406
1788043763365588700,19.878588623046873,-192.37901306152344,-67.97500610351562,134.2100067138672
1788043763382394600,19.89539453125,-191.94801330566406,-67.10700225830078,135.03201293945312
1788043763397815000,19.91081494140625,-192.25100708007812,-67.42100524902344,135.53900146484375
1788043763414502000,19.927501953125,-192.07301330566406,-66.9020004272461,134.3209991455078
1788043763429899800,19.942899658203125,-190.3570098876953,-68.94800567626953,133.79100036621094
1788043763445862700,19.958862548828126,-190.4820098876953,-67.44600677490234,133.90701293945312
1788043763462007600,19.975007568359374,-191.2370147705078,-68.20899963378906,132.8820037841797
1788043763478019300,19.991019287109374,-190.59400939941406,-67.66500091552734,133.49700927734375
1788043763494752000,20.007751953125,-192.49700927734375,-68.9540023803711,133.0810089111328
1788043763510340900,20.0233408203125,-190.80801391601562,-67.88200378417969,133.29200744628906
1788043763526367200,20.0393671875,-192.5380096435547,-66.81700134277344,132.5900115966797
1788043763542569700,20.05556982421875,-192.08900451660156,-68.7490005493164,132.47100830078125
1788043763558433800,20.071433837890623,-192.3070068359375,-67.1310043334961,133.19900512695312
1788043763575058700,20.08805859375,-192.30401611328125,-67.56100463867188,133.09300231933594
1788043763590512000,20.10351220703125,-191.1610107421875,-67.5780029296875,131.97100830078125
1788043763606528800,20.11952880859375,-192.2930145263672,-68.31100463867188,133.0860137939453
1788043763622721000,20.135720947265625,-192.1300048828125,-66.61199951171875,131.9810028076172
1788043763639126800,20.152126708984376,-190.6750030517578,-70.13600158691406,133.06800842285156
1788043763655416600,20.16841650390625,-191.76600646972656,-68.531005859375,132.7779998779297
1788043763670823200,20.1838232421875,-190.87501525878906,-70.23600006103516,133.57701110839844
1788043763686843400,20.199843505859373,-191.6630096435547,-67.66800689697266,133.19300842285156
1788043763702986500,20.215986572265624,-190.8260040283203,-68.21700286865234,132.27000427246094
1788043763719026700,20.232026611328124,-191.00900268554688,-69.38800048828125,132.87100219726562
1788043763735787300,20.248787353515624,-191.03700256347656,-69.18800354003906,131.7530059814453
1788043763751125200,20.264125244140626,-189.7550048828125,-68.42900085449219,132.57301330566406
1788043763767200800,20.28020068359375,-194.0070037841797,-69.07400512695312,131.9610137939453
1788043763783265300,20.296265380859374,-192.07400512695312,-68.63200378417969,133.1850128173828
1788043763799239400,20.312239501953126,-191.56500244140625,-68.53800201416016,132.26800537109375
1788043763815932700,20.3289326171875,-191.19300842285156,-69.58700561523438,133.99000549316406
1788043763831428400,20.344428466796874,-193.12901306152344,-69.16600036621094,133.1820068359375
1788043763847575000,20.360574951171873,-190.59201049804688,-69.61000061035156,132.36000061035156
1788043763863807200,20.37680712890625,-192.7060089111328,-69.70800018310547,132.76901245117188
1788043763879551200,20.39255126953125,-190.2830047607422,-67.99400329589844,132.98500061035156
1788043763896526000,20.409526123046874,-191.45901489257812,-68.86199951171875,132.06201171875
1788043763911874300,20.424874267578126,-190.2790069580078,-68.7490005493164,132.67201232910156
1788043763927932700,20.4409326171875,-190.0810089111328,-69.19000244140625,131.75100708007812
1788043763944402000,20.45740185546875,-191.19601440429688,-69.04800415039062,134.19900512695312
1788043763960008700,20.4730087890625,-191.5430145263672,-67.98400115966797,133.59800720214844
1788043763976604000,20.48960400390625,-190.1630096435547,-67.01399993896484,134.21600341796875
